green,red,IR,acc_x,acc_y,acc_z,sample_index
114750,196070,245449,2.8749763539,-5.8683974265,7.1784678,1
114870,196098,245522,2.8809584104000003,-6.063412468399999,7.0205415084,2
115048,196116,245498,2.8319055471,-6.0442698876,7.138986227099999,3
115217,196100,245548,2.8043880872,-6.0167524277,7.030112798799999,4
115380,196131,245463,2.8570301844,-6.1160545656,7.1449682836,5
115524,196104,245483,2.7661029256000003,-6.1292150899,7.2071816712,6
115677,196134,245494,2.8893332895,-5.9880385565,7.1018974768000005,7
115821,196138,245529,2.8366911923,-6.005984725999999,7.082754896,8
116011,196163,245472,2.9048866364,-5.9485569836,7.1114687672,9
116153,196181,245488,2.7852455064000003,-6.0681981136,7.106683122,10
116201,196142,245511,2.7708885708000004,-5.954539040099999,7.110272355899999,11
116049,196166,245453,2.9240292172,-6.0873406944,7.0971118315999995,12
115504,196072,245465,2.8606194183,-5.9497533949,7.031309210100001,13
114797,195983,245386,2.7912275628999996,-5.968895975700001,7.1198436463,14
114302,195979,245372,2.8283163132,-6.0107703712000005,7.0971118315999995,15
114074,196003,245346,3.0173492985999997,-6.092126339599999,7.1497539288,16
113971,195933,245305,2.715853651,-5.9724852096,7.0492553796,17
114057,195987,245307,2.8474588940000003,-6.0071811373,7.1629144531,18
114150,196002,245312,2.919243572,-6.1100725091,7.1820570339,19
114264,195974,245293,2.7433711108999996,-5.9820565,7.167700098299999,20
114280,195980,245296,2.8522445392,-6.0394842424,7.1054867107,21
114293,195962,245348,2.8570301844,-5.958128274,7.0169522744999995,22
114257,196043,245340,2.9276184511,-5.9772708547999995,7.1485575175,23
114328,195973,245293,2.8151557889,-6.0203416616,7.1784678,24
114427,195985,245382,2.8857440556,-6.0861442831,7.1976103808000005,25
114598,195974,245353,2.9264220398,-6.0203416616,7.0492553796,26
114747,196024,245351,2.9383861528,-6.0107703712000005,7.110272355899999,27
114959,195978,245350,2.8474588940000003,-5.9353964593,7.058826669999999,28
115109,196074,245388,2.9240292172,-6.0203416616,7.0205415084,29
115304,196140,245412,2.7804598612,-6.1160545656,7.0839513072999996,30
115488,196090,245458,2.8534409504999996,-5.9629139192,7.0923261864,31
115702,196159,245410,2.8187450228000004,-5.996413435599999,7.0971118315999995,32
115880,196161,245502,2.7613172804,-5.8923256525,7.0839513072999996,33
115926,196169,245488,2.8474588940000003,-6.0873406944,7.087540541199999,34
115533,196105,245426,2.8606194183,-6.063412468399999,7.2394847763,35
114736,195941,245365,2.7421746995999996,-6.1387863803,7.1401826384,36
113976,195912,245310,2.8510481279,-6.125625856,7.0767728395,37
113509,195931,245349,2.8366911923,-6.1675002515,7.0923261864,38
113244,195854,245245,2.8091737324,-6.0119667825,7.087540541199999,39
113136,195871,245220,2.7912275628999996,-5.9593246853,7.1688965096,40
113173,195894,245249,2.9802605483,-5.9724852096,7.138986227099999,41
113303,195874,245249,2.9240292172,-5.9318072254,7.0444697344,42
113467,195897,245235,2.8989045799,-5.8875400073,6.9690958225,43
113545,195898,245260,2.8510481279,-6.1244294447000005,7.0779692508,44
113526,195899,245326,2.8139593776000003,-6.0717873475,7.0935225977,45
113506,195867,245297,2.8618158296000002,-6.1064832752,7.1210400576,46
113598,195920,245304,2.823530668,-6.034698597199999,7.0971118315999995,47
113697,195918,245319,2.8809584104000003,-6.0526447667,7.1353969932,48
113922,195977,245340,2.8426732488,-6.0203416616,7.130611348,49
114101,195943,245331,2.8223342567,-5.8923256525,7.141379049699999,50
114295,195964,245409,2.8271199019,-5.9449677497,7.1784678,51
114490,195983,245398,3.0592236941,-6.0394842424,7.0073809841,52
114719,196037,245400,2.8187450228000004,-6.0490555328,7.0121666293,53
114950,196013,245466,2.7230321187999995,-6.1160545656,7.125825702799999,54
115150,196075,245412,2.9228328059,-6.0023954921,7.1198436463,55
115356,196109,245468,2.7290141752999997,-6.0311093633,7.0923261864,56
115557,196131,245459,2.8761727652,-5.9736816209,7.2155565503000005,57
115753,196168,245542,2.8414768375,-5.9353964593,7.0157558632,58
115759,196098,245471,2.7385854657,-6.029912952,7.1820570339,59
115258,196034,245381,2.7014967154,-6.005984725999999,7.1593252192,60
114355,195929,245385,2.8666014748,-6.0574304119,7.0779692508,61
113620,195864,245283,2.703889538,-6.029912952,7.1449682836,62
113178,195841,245268,2.9419753867,-6.0442698876,7.1976103808000005,63
112974,195828,245221,2.87138712,-6.0023954921,7.1246292915,64
112884,195831,245206,2.8666014748,-6.1351971464,7.100701065499999,65
112919,195811,245231,2.7960132080999998,-5.9736816209,7.1246292915,66
113062,195814,245277,2.8474588940000003,-6.0358950085,7.2107709050999995,67
113187,195862,245272,2.6703900216,-5.9497533949,7.130611348,68
113247,195857,245275,2.8666014748,-6.0155560164,7.031309210100001,69
113217,195865,245247,2.8522445392,-6.029912952,7.2203421955,70
113256,195890,245257,2.7996024420000003,-6.1531433159,7.082754896,71
113339,195864,245260,2.8390840148999996,-6.092126339599999,7.196413969499999,72
113497,195894,245262,2.9742784918,-6.228517227799999,7.1162544124,73
113674,195892,245268,2.7960132080999998,-6.0825550492,7.2059852599,74
113903,195925,245287,2.8761727652,-6.0729837587999995,7.1688965096,75
114107,195943,245338,2.6763720781,-6.0765729927,7.158128807899999,76
114331,195969,245325,2.9288148624,-5.9916277904,7.087540541199999,77
114564,196011,245361,2.9946174839,-6.095715573500001,7.0025953389,78
114792,196037,245351,2.6380869165,-6.0155560164,7.1018974768000005,79
115005,196046,245411,2.9036902251,-5.9976098469000005,7.167700098299999,80
115203,196017,245383,2.8522445392,-5.9736816209,7.1533431627,81
115451,196083,245415,2.7708885708000004,-6.0406806537,7.1114687672,82
115573,196129,245362,2.7194428849,-6.063412468399999,7.0971118315999995,83
115482,196069,245425,2.8031916759,-6.0825550492,7.1449682836,84
114880,195971,245339,2.8271199019,-6.1639110176,7.073183605600001,85
114058,195887,245267,2.6955146589,-6.1818571871,7.1485575175,86
113468,195793,245204,2.8043880872,-6.0394842424,7.196413969499999,87
113177,195806,245169,2.823530668,-6.053841177999999,7.1030938881,88
113030,195784,245176,2.7960132080999998,-6.0203416616,7.045666145699999,89
113049,195804,245164,2.8749763539,-6.0490555328,7.1437718723,90
113126,195776,245143,2.8187450228000004,-5.9641103305,7.202396026,91
113247,195832,245151,2.8809584104000003,-6.034698597199999,7.058826669999999,92
113348,195820,245179,2.8426732488,-6.0155560164,7.0157558632,93
113371,195858,245152,2.9419753867,-6.0071811373,7.1880390904,94
113362,195747,245154,2.7337998205,-6.077769404,7.1198436463,95
113387,195766,245093,2.8091737324,-6.063412468399999,7.0265235649,96
113478,195774,245119,2.9180471607,-6.0203416616,7.0157558632,97
113621,195782,245105,2.8079773211,-5.8971112976999995,7.087540541199999,98
113793,195809,245126,2.9001009912,-6.0586268232,7.125825702799999,99
113951,195838,245108,2.8570301844,-6.0825550492,7.0683979604,100
114130,195830,245073,2.7337998205,-6.0825550492,7.0636123152,101
114303,195848,245170,2.8737799425999997,-6.0239308954999995,7.1114687672,102
114503,195847,245165,2.8761727652,-6.0586268232,7.130611348,103
114701,195870,245141,2.6751756668,-5.9880385565,7.0863441299,104
114873,195930,245158,2.7337998205,-6.0119667825,7.1353969932,105
114957,195933,245228,2.8857440556,-6.0442698876,7.087540541199999,106
114671,195855,245210,2.7577280465,-5.9497533949,7.1688965096,107
113985,195742,245144,2.7720849821,-6.0813586379,7.073183605600001,108
113319,195705,245072,2.8941189347,-5.9772708547999995,7.030112798799999,109
112900,195672,245048,2.8522445392,-5.925825168899999,7.154539573999999,110
112803,195662,245088,2.8474588940000003,-5.8839507734,7.1688965096,111
112742,195707,245073,2.9419753867,-6.005984725999999,7.058826669999999,112
112899,195633,245088,2.8378876036,-6.0358950085,7.1976103808000005,113
113057,195736,245064,2.8091737324,-5.954539040099999,7.0683979604,114
113196,195717,245079,2.8091737324,-6.1184473882,7.0923261864,115
113237,195722,245123,2.8331019584000003,-6.0442698876,7.110272355899999,116
113247,195776,245113,2.9036902251,-6.101697629999999,7.1497539288,117
113349,195719,245115,2.7816562725,-6.077769404,7.0444697344,118
113411,195754,245109,2.7146572396999997,-6.063412468399999,7.1449682836,119
113572,195753,245141,2.8127629663000002,-5.9916277904,7.125825702799999,120
113739,195758,245150,2.7529424013,-5.9784672661,7.0540410248,121
113947,195827,245220,2.7242285301,-6.063412468399999,7.1210400576,122
114166,195846,245195,2.7242285301,-6.063412468399999,7.1210400576,123
114361,195880,245238,2.7242285301,-6.063412468399999,7.1210400576,124
114579,195892,245224,2.7242285301,-6.063412468399999,7.1210400576,125
114790,195905,245221,2.7242285301,-6.063412468399999,7.1210400576,126
114886,195916,245263,2.7242285301,-6.063412468399999,7.1210400576,127
114572,195871,245190,2.7242285301,-6.063412468399999,7.1210400576,128
113830,195796,245179,2.7242285301,-6.063412468399999,7.1210400576,129
113092,195738,245144,2.7242285301,-6.063412468399999,7.1210400576,130
112605,195702,245029,2.7242285301,-6.063412468399999,7.1210400576,131
112357,195640,245043,2.7242285301,-6.063412468399999,7.1210400576,132
112260,195665,245072,2.7242285301,-6.063412468399999,7.1210400576,133
112320,195704,245071,2.7242285301,-6.063412468399999,7.1210400576,134
112441,195678,245110,2.7242285301,-6.063412468399999,7.1210400576,135
112588,195721,245068,2.7242285301,-6.063412468399999,7.1210400576,136
112699,195730,245085,2.7242285301,-6.063412468399999,7.1210400576,137
112749,195692,245079,2.7242285301,-6.063412468399999,7.1210400576,138
112760,195703,245118,2.7242285301,-6.063412468399999,7.1210400576,139
112843,195743,245157,2.7242285301,-6.063412468399999,7.1210400576,140
112985,195758,245133,2.7242285301,-6.063412468399999,7.1210400576,141
113188,195820,245125,2.7242285301,-6.063412468399999,7.1210400576,142
113406,195839,245177,2.7242285301,-6.063412468399999,7.1210400576,143
113646,195883,245200,2.7242285301,-6.063412468399999,7.1210400576,144
113883,195880,245172,2.7242285301,-6.063412468399999,7.1210400576,145
114100,195875,245223,2.7242285301,-6.063412468399999,7.1210400576,146
114334,195932,245289,2.7242285301,-6.063412468399999,7.1210400576,147
114549,195945,245256,2.7242285301,-6.063412468399999,7.1210400576,148
114804,195998,245295,2.7242285301,-6.063412468399999,7.1210400576,149
114987,196018,245290,2.7242285301,-6.063412468399999,7.1210400576,150
115085,196014,245302,2.7242285301,-6.063412468399999,7.1210400576,151
114747,195950,245256,2.7242285301,-6.063412468399999,7.1210400576,152
113948,195847,245207,2.7242285301,-6.063412468399999,7.1210400576,153
113200,195778,245095,2.7242285301,-6.063412468399999,7.1210400576,154
112709,195741,245102,2.7242285301,-6.063412468399999,7.1210400576,155
112467,195753,245064,2.7242285301,-6.063412468399999,7.1210400576,156
112384,195753,245116,2.7242285301,-6.063412468399999,7.1210400576,157
112419,195736,245080,2.7242285301,-6.063412468399999,7.1210400576,158
112551,195750,245125,2.7242285301,-6.063412468399999,7.1210400576,159
112725,195779,245120,2.7242285301,-6.063412468399999,7.1210400576,160
112812,195779,245127,2.7242285301,-6.063412468399999,7.1210400576,161
112837,195802,245105,2.7242285301,-6.063412468399999,7.1210400576,162
112886,195780,245097,2.7242285301,-6.063412468399999,7.1210400576,163
114868,196014,245180,2.775674216,-5.9593246853,7.1353969932,164
114063,195897,245158,2.775674216,-5.9593246853,7.1353969932,165
113415,195824,245127,2.775674216,-5.9593246853,7.1353969932,166
113051,195798,245055,2.775674216,-5.9593246853,7.1353969932,167
112866,195815,245084,2.775674216,-5.9593246853,7.1353969932,168
112811,195766,245086,2.775674216,-5.9593246853,7.1353969932,169
112888,195776,245077,2.775674216,-5.9593246853,7.1353969932,170
113040,195829,245105,2.775674216,-5.9593246853,7.1353969932,171
113156,195789,245106,2.775674216,-5.9593246853,7.1353969932,172
113192,195847,245121,2.775674216,-5.9593246853,7.1353969932,173
113224,195797,245117,2.775674216,-5.9593246853,7.1353969932,174
113255,195808,245197,2.775674216,-5.9593246853,7.1353969932,175
113315,195802,245134,2.775674216,-5.9593246853,7.1353969932,176
113456,195853,245158,2.775674216,-5.9593246853,7.1353969932,177
113657,195838,245169,2.775674216,-5.9593246853,7.1353969932,178
113840,195860,245174,2.775674216,-5.9593246853,7.1353969932,179
114038,195882,245158,2.775674216,-5.9593246853,7.1353969932,180
114247,195877,245191,2.775674216,-5.9593246853,7.1353969932,181
114448,195882,245118,2.775674216,-5.9593246853,7.1353969932,182
114630,195960,245148,2.775674216,-5.9593246853,7.1353969932,183
114820,195948,245165,2.775674216,-5.9593246853,7.1353969932,184
114954,195962,245174,2.775674216,-5.9593246853,7.1353969932,185
114784,195917,245112,2.775674216,-5.9593246853,7.1353969932,186
114181,195775,245017,2.775674216,-5.9593246853,7.1353969932,187
113501,195774,244996,2.775674216,-5.9593246853,7.1353969932,188
113053,195691,244919,2.775674216,-5.9593246853,7.1353969932,189
112825,195718,244934,2.775674216,-5.9593246853,7.1353969932,190
112784,195719,244906,2.775674216,-5.9593246853,7.1353969932,191
112863,195748,244910,2.775674216,-5.9593246853,7.1353969932,192
113030,195727,244963,2.775674216,-5.9593246853,7.1353969932,193
113179,195755,244996,2.775674216,-5.9593246853,7.1353969932,194
113237,195752,245029,2.775674216,-5.9593246853,7.1353969932,195
113238,195732,245053,2.775674216,-5.9593246853,7.1353969932,196
113290,195790,245007,2.9419753867,-5.9880385565,7.129414936699999,197
113397,195782,245018,2.9419753867,-5.9880385565,7.129414936699999,198
113527,195747,245043,2.9419753867,-5.9880385565,7.129414936699999,199
113713,195788,245093,2.9419753867,-5.9880385565,7.129414936699999,200
113906,195858,245130,2.9419753867,-5.9880385565,7.129414936699999,201
114119,195861,245133,2.9419753867,-5.9880385565,7.129414936699999,202
114309,195872,245164,2.9419753867,-5.9880385565,7.129414936699999,203
114521,195880,245201,2.9419753867,-5.9880385565,7.129414936699999,204
114565,195893,245150,2.9419753867,-5.9880385565,7.129414936699999,205
114198,195811,245140,2.9419753867,-5.9880385565,7.129414936699999,206
113473,195767,245066,2.9419753867,-5.9880385565,7.129414936699999,207
112860,195700,245010,2.9419753867,-5.9880385565,7.129414936699999,208
112464,195665,245011,2.9419753867,-5.9880385565,7.129414936699999,209
112290,195673,245016,2.9419753867,-5.9880385565,7.129414936699999,210
112237,195685,245052,2.9419753867,-5.9880385565,7.129414936699999,211
112340,195709,245037,2.9419753867,-5.9880385565,7.129414936699999,212
112498,195672,245051,2.9419753867,-5.9880385565,7.129414936699999,213
112652,195709,245057,2.9419753867,-5.9880385565,7.129414936699999,214
112719,195739,245094,2.9419753867,-5.9880385565,7.129414936699999,215
112745,195731,245083,2.9419753867,-5.9880385565,7.129414936699999,216
112835,195723,245115,2.9419753867,-5.9880385565,7.129414936699999,217
112979,195759,245097,2.9419753867,-5.9880385565,7.129414936699999,218
113120,195754,245114,2.9419753867,-5.9880385565,7.129414936699999,219
113334,195813,245157,2.9419753867,-5.9880385565,7.129414936699999,220
113568,195843,245156,2.9419753867,-5.9880385565,7.129414936699999,221
113795,195830,245192,2.9419753867,-5.9880385565,7.129414936699999,222
113999,195887,245194,2.9419753867,-5.9880385565,7.129414936699999,223
114233,195906,245202,2.9419753867,-5.9880385565,7.129414936699999,224
114461,195957,245256,2.9419753867,-5.9880385565,7.129414936699999,225
114649,195943,245219,2.9419753867,-5.9880385565,7.129414936699999,226
114632,195954,245275,2.9419753867,-5.9880385565,7.129414936699999,227
114118,195900,245221,2.9419753867,-5.9880385565,7.129414936699999,228
113296,195804,245113,2.9419753867,-5.9880385565,7.129414936699999,229
112679,195737,245107,2.9419753867,-5.9880385565,7.129414936699999,230
112337,195673,245099,2.9419753867,-5.9880385565,7.129414936699999,231
112162,195663,245012,2.9419753867,-5.9880385565,7.129414936699999,232
112123,195660,245084,2.9419753867,-5.9880385565,7.129414936699999,233
112219,195679,245092,2.9419753867,-5.9880385565,7.129414936699999,234
112370,195711,245008,2.9419753867,-5.9880385565,7.129414936699999,235
112512,195715,245098,2.9419753867,-5.9880385565,7.129414936699999,236
112579,195708,245083,2.9419753867,-5.9880385565,7.129414936699999,237
112608,195726,245108,2.9419753867,-5.9880385565,7.129414936699999,238
113159,195773,245091,2.6955146589,-6.1052868639,7.167700098299999,239
113216,195779,245120,2.6955146589,-6.1052868639,7.167700098299999,240
113255,195769,245080,2.6955146589,-6.1052868639,7.167700098299999,241
113381,195762,245097,2.6955146589,-6.1052868639,7.167700098299999,242
113528,195779,245112,2.6955146589,-6.1052868639,7.167700098299999,243
113703,195817,245193,2.6955146589,-6.1052868639,7.167700098299999,244
113890,195850,245149,2.6955146589,-6.1052868639,7.167700098299999,245
114145,195865,245193,2.6955146589,-6.1052868639,7.167700098299999,246
114341,195854,245196,2.6955146589,-6.1052868639,7.167700098299999,247
114554,195905,245193,2.6955146589,-6.1052868639,7.167700098299999,248
114786,195930,245244,2.6955146589,-6.1052868639,7.167700098299999,249
114997,195962,245259,2.6955146589,-6.1052868639,7.167700098299999,250
115185,196000,245303,2.6955146589,-6.1052868639,7.167700098299999,251
115374,196011,245325,2.6955146589,-6.1052868639,7.167700098299999,252
115569,195995,245349,2.6955146589,-6.1052868639,7.167700098299999,253
115693,196072,245351,2.6955146589,-6.1052868639,7.167700098299999,254
115582,195995,245330,2.6955146589,-6.1052868639,7.167700098299999,255
115005,195917,245273,2.6955146589,-6.1052868639,7.167700098299999,256
114253,195829,245208,2.6955146589,-6.1052868639,7.167700098299999,257
113746,195794,245194,2.6955146589,-6.1052868639,7.167700098299999,258
113436,195742,245177,2.6955146589,-6.1052868639,7.167700098299999,259
113318,195786,245128,2.6955146589,-6.1052868639,7.167700098299999,260
113329,195756,245128,2.6955146589,-6.1052868639,7.167700098299999,261
113416,195781,245105,2.6955146589,-6.1052868639,7.167700098299999,262
113543,195804,245131,2.6955146589,-6.1052868639,7.167700098299999,263
113574,195811,245164,2.6955146589,-6.1052868639,7.167700098299999,264
113575,195760,245149,2.6955146589,-6.1052868639,7.167700098299999,265
113540,195751,245158,2.6955146589,-6.1052868639,7.167700098299999,266
113553,195757,245135,2.6955146589,-6.1052868639,7.167700098299999,267
113632,195755,245125,2.6955146589,-6.1052868639,7.167700098299999,268
113768,195776,245157,2.6955146589,-6.1052868639,7.167700098299999,269
113931,195815,245162,2.6955146589,-6.1052868639,7.167700098299999,270
114111,195819,245163,2.6955146589,-6.1052868639,7.167700098299999,271
114289,195848,245177,2.6955146589,-6.1052868639,7.167700098299999,272
114468,195842,245218,2.6955146589,-6.1052868639,7.167700098299999,273
114660,195869,245239,2.6955146589,-6.1052868639,7.167700098299999,274
114793,195906,245222,2.6955146589,-6.1052868639,7.167700098299999,275
114754,195857,245205,2.6955146589,-6.1052868639,7.167700098299999,276
114236,195777,245161,2.6955146589,-6.1052868639,7.167700098299999,277
113539,195709,245134,2.6955146589,-6.1052868639,7.167700098299999,278
112994,195651,245096,2.6955146589,-6.1052868639,7.167700098299999,279
112714,195692,245071,2.6955146589,-6.1052868639,7.167700098299999,280
114175,195770,245234,2.9623143788,-5.8827543621,7.0444697344,281
113485,195731,245174,2.9623143788,-5.8827543621,7.0444697344,282
113005,195719,245152,2.9623143788,-5.8827543621,7.0444697344,283
112736,195691,245102,2.9623143788,-5.8827543621,7.0444697344,284
112673,195667,245187,2.9623143788,-5.8827543621,7.0444697344,285
112733,195693,245144,2.9623143788,-5.8827543621,7.0444697344,286
112810,195710,245161,2.9623143788,-5.8827543621,7.0444697344,287
112891,195672,245178,2.9623143788,-5.8827543621,7.0444697344,288
112892,195665,245145,2.9623143788,-5.8827543621,7.0444697344,289
112838,195672,245108,2.9623143788,-5.8827543621,7.0444697344,290
112852,195661,245130,2.9623143788,-5.8827543621,7.0444697344,291
112900,195673,245167,2.9623143788,-5.8827543621,7.0444697344,292
113018,195702,245182,2.9623143788,-5.8827543621,7.0444697344,293
113196,195705,245213,2.9623143788,-5.8827543621,7.0444697344,294
113378,195786,245207,2.9623143788,-5.8827543621,7.0444697344,295
113553,195744,245231,2.9623143788,-5.8827543621,7.0444697344,296
113760,195767,245260,2.9623143788,-5.8827543621,7.0444697344,297
113955,195793,245275,2.9623143788,-5.8827543621,7.0444697344,298
114143,195822,245242,2.9623143788,-5.8827543621,7.0444697344,299
114347,195835,245288,2.9623143788,-5.8827543621,7.0444697344,300
114562,195901,245327,2.9623143788,-5.8827543621,7.0444697344,301
114761,195908,245357,2.9623143788,-5.8827543621,7.0444697344,302
114909,195902,245332,2.9623143788,-5.8827543621,7.0444697344,303
114789,195899,245328,2.9623143788,-5.8827543621,7.0444697344,304
114207,195814,245296,2.9623143788,-5.8827543621,7.0444697344,305
113468,195735,245207,2.9623143788,-5.8827543621,7.0444697344,306
112902,195720,245176,2.9623143788,-5.8827543621,7.0444697344,307
112616,195696,245152,2.9623143788,-5.8827543621,7.0444697344,308
112474,195705,245153,2.9623143788,-5.8827543621,7.0444697344,309
112480,195685,245186,2.9623143788,-5.8827543621,7.0444697344,310
112598,195710,245203,2.9623143788,-5.8827543621,7.0444697344,311
112749,195713,245234,2.9623143788,-5.8827543621,7.0444697344,312
112860,195771,245231,2.9623143788,-5.8827543621,7.0444697344,313
112903,195736,245196,2.9623143788,-5.8827543621,7.0444697344,314
112955,195725,245244,2.9623143788,-5.8827543621,7.0444697344,315
113029,195761,245262,2.9623143788,-5.8827543621,7.0444697344,316
113167,195718,245232,2.9623143788,-5.8827543621,7.0444697344,317
113327,195761,245279,2.9623143788,-5.8827543621,7.0444697344,318
113546,195821,245301,2.9623143788,-5.8827543621,7.0444697344,319
113755,195783,245272,2.9623143788,-5.8827543621,7.0444697344,320
113980,195844,245318,2.9623143788,-5.8827543621,7.0444697344,321
114178,195866,245318,2.9623143788,-5.8827543621,7.0444697344,322
115982,196125,245441,2.9467610319,-5.9533426288,7.1724857435,323
115278,196018,245432,2.9467610319,-5.9533426288,7.1724857435,324
114502,195915,245344,2.9467610319,-5.9533426288,7.1724857435,325
113959,195895,245302,2.9467610319,-5.9533426288,7.1724857435,326
113656,195894,245275,2.9467610319,-5.9533426288,7.1724857435,327
113483,195891,245271,2.9467610319,-5.9533426288,7.1724857435,328
113488,195892,245281,2.9467610319,-5.9533426288,7.1724857435,329
113554,195864,245247,2.9467610319,-5.9533426288,7.1724857435,330
113678,195914,245288,2.9467610319,-5.9533426288,7.1724857435,331
113700,195889,245253,2.9467610319,-5.9533426288,7.1724857435,332
113686,195884,245319,2.9467610319,-5.9533426288,7.1724857435,333
113675,195906,245271,2.9467610319,-5.9533426288,7.1724857435,334
113731,195887,245262,2.9467610319,-5.9533426288,7.1724857435,335
113839,195912,245319,2.9467610319,-5.9533426288,7.1724857435,336
113988,195942,245299,2.9467610319,-5.9533426288,7.1724857435,337
114169,195957,245278,2.9467610319,-5.9533426288,7.1724857435,338
114345,195949,245295,2.9467610319,-5.9533426288,7.1724857435,339
114523,195969,245321,2.9467610319,-5.9533426288,7.1724857435,340
114734,196027,245348,2.9467610319,-5.9533426288,7.1724857435,341
114936,196022,245359,2.9467610319,-5.9533426288,7.1724857435,342
115112,196037,245395,2.9467610319,-5.9533426288,7.1724857435,343
115280,196068,245372,2.9467610319,-5.9533426288,7.1724857435,344
115462,196045,245418,2.9467610319,-5.9533426288,7.1724857435,345
115640,196094,245461,2.9467610319,-5.9533426288,7.1724857435,346
115809,196108,245431,2.9467610319,-5.9533426288,7.1724857435,347
115877,196094,245413,2.9467610319,-5.9533426288,7.1724857435,348
115641,196075,245427,2.9467610319,-5.9533426288,7.1724857435,349
114960,195970,245368,2.9467610319,-5.9533426288,7.1724857435,350
114199,195897,245275,2.9467610319,-5.9533426288,7.1724857435,351
113725,195822,245238,2.9467610319,-5.9533426288,7.1724857435,352
113423,195820,245173,2.9467610319,-5.9533426288,7.1724857435,353
113309,195804,245222,2.9467610319,-5.9533426288,7.1724857435,354
113318,195801,245127,2.9467610319,-5.9533426288,7.1724857435,355
113400,195831,245230,2.9467610319,-5.9533426288,7.1724857435,356
113459,195808,245149,2.9467610319,-5.9533426288,7.1724857435,357
113439,195798,245229,2.9467610319,-5.9533426288,7.1724857435,358
113392,195809,245201,2.9467610319,-5.9533426288,7.1724857435,359
113356,195818,245151,2.9467610319,-5.9533426288,7.1724857435,360
113373,195833,245185,2.9467610319,-5.9533426288,7.1724857435,361
113452,195830,245177,2.9467610319,-5.9533426288,7.1724857435,362
113603,195815,245249,2.9467610319,-5.9533426288,7.1724857435,363
113771,195905,245211,2.9467610319,-5.9533426288,7.1724857435,364
115370,196099,245453,2.9096722816000002,-6.029912952,7.082754896,365
114684,195997,245436,2.9096722816000002,-6.029912952,7.082754896,366
113776,195927,245339,2.9096722816000002,-6.029912952,7.082754896,367
113088,195914,245270,2.9096722816000002,-6.029912952,7.082754896,368
112719,195863,245286,2.9096722816000002,-6.029912952,7.082754896,369
112571,195840,245268,2.9096722816000002,-6.029912952,7.082754896,370
112568,195837,245266,2.9096722816000002,-6.029912952,7.082754896,371
112662,195826,245262,2.9096722816000002,-6.029912952,7.082754896,372
112769,195857,245230,2.9096722816000002,-6.029912952,7.082754896,373
112908,195870,245264,2.9096722816000002,-6.029912952,7.082754896,374
112947,195876,245318,2.9096722816000002,-6.029912952,7.082754896,375
112981,195883,245283,2.9096722816000002,-6.029912952,7.082754896,376
113000,195911,245275,2.9096722816000002,-6.029912952,7.082754896,377
113087,195862,245308,2.9096722816000002,-6.029912952,7.082754896,378
113239,195900,245285,2.9096722816000002,-6.029912952,7.082754896,379
113445,195880,245264,2.9096722816000002,-6.029912952,7.082754896,380
113654,195926,245359,2.9096722816000002,-6.029912952,7.082754896,381
113891,195966,245345,2.9096722816000002,-6.029912952,7.082754896,382
114132,195943,245338,2.9096722816000002,-6.029912952,7.082754896,383
114403,196009,245422,2.9096722816000002,-6.029912952,7.082754896,384
114618,196007,245394,2.9096722816000002,-6.029912952,7.082754896,385
114849,196051,245461,2.9096722816000002,-6.029912952,7.082754896,386
115082,196092,245462,2.9096722816000002,-6.029912952,7.082754896,387
115310,196114,245460,2.9096722816000002,-6.029912952,7.082754896,388
115533,196145,245481,2.9096722816000002,-6.029912952,7.082754896,389
115760,196177,245511,2.9096722816000002,-6.029912952,7.082754896,390
115928,196175,245559,2.9096722816000002,-6.029912952,7.082754896,391
115894,196174,245516,2.9096722816000002,-6.029912952,7.082754896,392
115348,196133,245495,2.9096722816000002,-6.029912952,7.082754896,393
114501,195974,245400,2.9096722816000002,-6.029912952,7.082754896,394
113834,195942,245349,2.9096722816000002,-6.029912952,7.082754896,395
113415,195867,245252,2.9096722816000002,-6.029912952,7.082754896,396
113230,195876,245302,2.9096722816000002,-6.029912952,7.082754896,397
113224,195881,245316,2.9096722816000002,-6.029912952,7.082754896,398
113297,195897,245265,2.9096722816000002,-6.029912952,7.082754896,399
113424,195941,245287,2.9096722816000002,-6.029912952,7.082754896,400
113518,195931,245331,2.9096722816000002,-6.029912952,7.082754896,401
113541,195876,245276,2.9096722816000002,-6.029912952,7.082754896,402
113543,195853,245301,2.9096722816000002,-6.029912952,7.082754896,403
113545,195882,245298,2.9096722816000002,-6.029912952,7.082754896,404
113602,195869,245290,2.9096722816000002,-6.029912952,7.082754896,405
113738,195893,245267,2.9096722816000002,-6.029912952,7.082754896,406
113427,195892,245309,2.8570301844,-6.0873406944,7.082754896,407
113455,195849,245314,2.8570301844,-6.0873406944,7.082754896,408
113465,195878,245311,2.8570301844,-6.0873406944,7.082754896,409
113480,195888,245308,2.8570301844,-6.0873406944,7.082754896,410
113554,195885,245330,2.8570301844,-6.0873406944,7.082754896,411
113678,195926,245338,2.8570301844,-6.0873406944,7.082754896,412
113842,195914,245311,2.8570301844,-6.0873406944,7.082754896,413
114056,195933,245313,2.8570301844,-6.0873406944,7.082754896,414
114242,195925,245360,2.8570301844,-6.0873406944,7.082754896,415
114459,196022,245393,2.8570301844,-6.0873406944,7.082754896,416
114712,196009,245396,2.8570301844,-6.0873406944,7.082754896,417
114909,196032,245413,2.8570301844,-6.0873406944,7.082754896,418
115171,196052,245465,2.8570301844,-6.0873406944,7.082754896,419
115359,196066,245447,2.8570301844,-6.0873406944,7.082754896,420
115580,196098,245448,2.8570301844,-6.0873406944,7.082754896,421
115796,196164,245532,2.8570301844,-6.0873406944,7.082754896,422
115970,196152,245482,2.8570301844,-6.0873406944,7.082754896,423
115987,196166,245527,2.8570301844,-6.0873406944,7.082754896,424
115494,196081,245409,2.8570301844,-6.0873406944,7.082754896,425
114631,195983,245355,2.8570301844,-6.0873406944,7.082754896,426
113876,195901,245321,2.8570301844,-6.0873406944,7.082754896,427
113374,195887,245292,2.8570301844,-6.0873406944,7.082754896,428
113140,195854,245258,2.8570301844,-6.0873406944,7.082754896,429
113026,195862,245274,2.8570301844,-6.0873406944,7.082754896,430
113093,195873,245290,2.8570301844,-6.0873406944,7.082754896,431
113199,195879,245265,2.8570301844,-6.0873406944,7.082754896,432
113308,195927,245288,2.8570301844,-6.0873406944,7.082754896,433
113356,195904,245306,2.8570301844,-6.0873406944,7.082754896,434
113368,195910,245294,2.8570301844,-6.0873406944,7.082754896,435
113392,195857,245279,2.8570301844,-6.0873406944,7.082754896,436
113452,195865,245253,2.8570301844,-6.0873406944,7.082754896,437
113585,195900,245326,2.8570301844,-6.0873406944,7.082754896,438
113770,195911,245277,2.8570301844,-6.0873406944,7.082754896,439
113969,195939,245309,2.8570301844,-6.0873406944,7.082754896,440
114189,195987,245302,2.8570301844,-6.0873406944,7.082754896,441
114419,195958,245358,2.8570301844,-6.0873406944,7.082754896,442
114642,196009,245336,2.8570301844,-6.0873406944,7.082754896,443
114854,196070,245378,2.8570301844,-6.0873406944,7.082754896,444
115070,196066,245386,2.8570301844,-6.0873406944,7.082754896,445
115280,196067,245345,2.8570301844,-6.0873406944,7.082754896,446
115518,196094,245454,2.8570301844,-6.0873406944,7.082754896,447
115712,196137,245474,2.8570301844,-6.0873406944,7.082754896,448
114196,195940,245345,2.8654050635,-5.8540404909,7.129414936699999,449
114405,195950,245309,2.8654050635,-5.8540404909,7.129414936699999,450
114593,196003,245391,2.8654050635,-5.8540404909,7.129414936699999,451
114788,196031,245386,2.8654050635,-5.8540404909,7.129414936699999,452
114996,196034,245408,2.8654050635,-5.8540404909,7.129414936699999,453
115213,196035,245397,2.8654050635,-5.8540404909,7.129414936699999,454
115379,196027,245427,2.8654050635,-5.8540404909,7.129414936699999,455
115526,196063,245454,2.8654050635,-5.8540404909,7.129414936699999,456
115300,196012,245351,2.8654050635,-5.8540404909,7.129414936699999,457
114616,195913,245316,2.8654050635,-5.8540404909,7.129414936699999,458
113804,195859,245211,2.8654050635,-5.8540404909,7.129414936699999,459
113246,195776,245237,2.8654050635,-5.8540404909,7.129414936699999,460
112979,195785,245121,2.8654050635,-5.8540404909,7.129414936699999,461
112853,195763,245173,2.8654050635,-5.8540404909,7.129414936699999,462
112904,195770,245151,2.8654050635,-5.8540404909,7.129414936699999,463
113020,195778,245182,2.8654050635,-5.8540404909,7.129414936699999,464
113138,195792,245193,2.8654050635,-5.8540404909,7.129414936699999,465
113183,195744,245182,2.8654050635,-5.8540404909,7.129414936699999,466
113179,195739,245226,2.8654050635,-5.8540404909,7.129414936699999,467
113192,195771,245192,2.8654050635,-5.8540404909,7.129414936699999,468
113189,195772,245192,2.8654050635,-5.8540404909,7.129414936699999,469
113314,195777,245234,2.8654050635,-5.8540404909,7.129414936699999,470
113473,195806,245200,2.8654050635,-5.8540404909,7.129414936699999,471
113648,195830,245244,2.8654050635,-5.8540404909,7.129414936699999,472
113860,195846,245227,2.8654050635,-5.8540404909,7.129414936699999,473
114067,195898,245305,2.8654050635,-5.8540404909,7.129414936699999,474
114266,195918,245306,2.8654050635,-5.8540404909,7.129414936699999,475
114476,195950,245320,2.8654050635,-5.8540404909,7.129414936699999,476
114679,195954,245393,2.8654050635,-5.8540404909,7.129414936699999,477
114889,195950,245371,2.8654050635,-5.8540404909,7.129414936699999,478
114908,195953,245359,2.8654050635,-5.8540404909,7.129414936699999,479
114466,195888,245325,2.8654050635,-5.8540404909,7.129414936699999,480
113589,195779,245291,2.8654050635,-5.8540404909,7.129414936699999,481
112819,195725,245202,2.8654050635,-5.8540404909,7.129414936699999,482
112351,195739,245185,2.8654050635,-5.8540404909,7.129414936699999,483
112117,195726,245121,2.8654050635,-5.8540404909,7.129414936699999,484
112060,195693,245164,2.8654050635,-5.8540404909,7.129414936699999,485
112113,195749,245165,2.8654050635,-5.8540404909,7.129414936699999,486
112259,195702,245189,2.8654050635,-5.8540404909,7.129414936699999,487
112424,195708,245191,2.8654050635,-5.8540404909,7.129414936699999,488
112490,195738,245153,2.8654050635,-5.8540404909,7.129414936699999,489
112492,195685,245207,2.8654050635,-5.8540404909,7.129414936699999,490
113245,195783,245254,2.9228328059,-6.0287165407000005,7.0636123152,491
113475,195782,245312,2.9228328059,-6.0287165407000005,7.0636123152,492
113703,195812,245315,2.9228328059,-6.0287165407000005,7.0636123152,493
113942,195819,245380,2.9228328059,-6.0287165407000005,7.0636123152,494
114157,195879,245350,2.9228328059,-6.0287165407000005,7.0636123152,495
114381,195880,245338,2.9228328059,-6.0287165407000005,7.0636123152,496
114575,195928,245399,2.9228328059,-6.0287165407000005,7.0636123152,497
114755,195931,245402,2.9228328059,-6.0287165407000005,7.0636123152,498
114651,195890,245428,2.9228328059,-6.0287165407000005,7.0636123152,499
113972,195845,245304,2.9228328059,-6.0287165407000005,7.0636123152,500
113015,195695,245170,2.9228328059,-6.0287165407000005,7.0636123152,501
112314,195666,245165,2.9228328059,-6.0287165407000005,7.0636123152,502
111923,195629,245114,2.9228328059,-6.0287165407000005,7.0636123152,503
111741,195605,245059,2.9228328059,-6.0287165407000005,7.0636123152,504
111729,195578,245114,2.7852455064000003,-6.0394842424,7.0971118315999995,505
111839,195613,245144,2.7852455064000003,-6.0394842424,7.0971118315999995,506
111984,195632,245084,2.8474588940000003,-6.025127306799999,7.1880390904,507
112088,195631,245132,2.8474588940000003,-6.025127306799999,7.1880390904,508
112126,195623,245138,2.8474588940000003,-6.025127306799999,7.1880390904,509
112161,195621,245127,2.8474588940000003,-6.025127306799999,7.1880390904,510
112208,195605,245162,2.9419753867,-6.0586268232,7.106683122,511
112320,195622,245163,3.0269205889999995,-5.9976098469000005,7.129414936699999,512
112501,195626,245150,2.8414768375,-5.9916277904,7.158128807899999,513
112708,195690,245140,2.8474588940000003,-5.9772708547999995,7.1353969932,514
112910,195684,245149,2.8031916759,-5.9114682333,7.1210400576,515
113160,195724,245210,2.8366911923,-6.0729837587999995,7.1772713886999995,516
113406,195777,245241,2.8953153460000003,-5.9497533949,7.1688965096,517
113647,195749,245271,2.7421746995999996,-5.996413435599999,7.1497539288,518
113856,195792,245272,2.7421746995999996,-5.996413435599999,7.1497539288,519
114090,195815,245323,2.7421746995999996,-5.996413435599999,7.1497539288,520
114309,195811,245269,2.7421746995999996,-5.996413435599999,7.1497539288,521
114515,195889,245389,2.7421746995999996,-5.996413435599999,7.1497539288,522
114737,195936,245363,2.7421746995999996,-5.996413435599999,7.1497539288,523
114852,195928,245377,2.9096722816000002,-6.1447684368,7.1449682836,524
114726,195870,245390,2.9096722816000002,-6.1447684368,7.1449682836,525
114075,195782,245339,2.7996024420000003,-6.077769404,7.0767728395,526
113258,195713,245232,2.8378876036,-5.8791651282,7.1150580011,527
112650,195649,245198,2.8331019584000003,-6.0239308954999995,7.1497539288,528
112371,195646,245157,2.8378876036,-5.9916277904,7.0444697344,529
112248,195578,245173,2.8378876036,-5.9916277904,7.0444697344,530
112255,195620,245167,2.8378876036,-5.9916277904,7.0444697344,531
112394,195629,245198,2.8378876036,-5.9916277904,7.0444697344,532
112525,195638,245231,2.8378876036,-5.9916277904,7.0444697344,533
112560,195652,245205,2.8378876036,-5.9916277904,7.0444697344,534
112540,195632,245206,2.8378876036,-5.9916277904,7.0444697344,535
112544,195634,245200,2.8378876036,-5.9916277904,7.0444697344,536
112592,195647,245198,2.8378876036,-5.9916277904,7.0444697344,537
112669,195650,245235,2.8378876036,-5.9916277904,7.0444697344,538
112841,195701,245246,2.8378876036,-5.9916277904,7.0444697344,539
113028,195714,245284,2.8378876036,-5.9916277904,7.0444697344,540
113247,195695,245237,2.8378876036,-5.9916277904,7.0444697344,541
113459,195778,245283,2.8378876036,-5.9916277904,7.0444697344,542
113655,195759,245365,2.8378876036,-5.9916277904,7.0444697344,543
113867,195822,245343,2.8749763539,-6.025127306799999,7.030112798799999,544
114089,195788,245384,2.8749763539,-6.025127306799999,7.030112798799999,545
114306,195834,245364,2.8749763539,-6.025127306799999,7.030112798799999,546
114504,195890,245449,2.7900311516,-5.9485569836,7.1533431627,547
114675,195859,245437,2.7804598612,-5.9306108141000005,7.0863441299,548
114586,195900,245360,2.8869404668999996,-5.8971112976999995,7.1485575175,549
114002,195783,245342,2.8618158296000002,-5.9497533949,7.071987194299999,550
113194,195611,245305,2.8761727652,-5.9449677497,7.2107709050999995,551
112553,195637,245260,2.8139593776000003,-6.063412468399999,7.0923261864,552
112196,195559,245176,2.8606194183,-6.077769404,7.0492553796,553
112052,195640,245232,2.7804598612,-5.858826136099999,7.129414936699999,554
112029,195660,245196,2.8905297008,-5.9928242016999995,7.0779692508,555
112114,195641,245243,2.9132615155,-5.9485569836,7.0253271536,556
112267,195668,245231,2.8043880872,-5.9605210966,7.1928247355999995,557
112375,195672,245274,2.9383861528,-5.9114682333,7.1246292915,558
112437,195676,245232,2.9240292172,-6.005984725999999,7.1629144531,559
112457,195622,245223,2.8319055471,-5.9497533949,7.073183605600001,560
112524,195656,245226,2.7469603447999997,-6.0622160571,7.0779692508,561
112636,195696,245222,2.7577280465,-5.9784672661,7.125825702799999,562
112785,195651,245241,2.7864419177,-5.9437713384,7.1485575175,563
112977,195755,245261,2.7062823606,-6.0969119848,7.087540541199999,564
113200,195755,245298,2.691925425,-5.9880385565,7.0695943717,565
113440,195771,245289,2.9718856692,-6.0478591215,7.087540541199999,566
113632,195841,245317,2.9132615155,-5.9629139192,7.1916283243,567
113864,195808,245355,3.0329026454999997,-5.9736816209,7.1533431627,568
114080,195841,245361,2.8474588940000003,-6.0119667825,7.1629144531,569
114299,195831,245376,2.7804598612,-5.9162538785,7.0971118315999995,570
114544,195892,245320,2.8043880872,-6.0394842424,7.106683122,571
114781,195938,245378,2.8414768375,-5.9820565,7.0779692508,572
114985,195911,245440,2.7996024420000003,-5.9593246853,7.073183605600001,573
115154,195961,245438,2.9264220398,-6.053841177999999,7.1353969932,574
115278,195946,245460,2.8797619991,-6.025127306799999,7.1641108644,575
114964,195923,245445,2.7960132080999998,-5.9306108141000005,7.1114687672,576
114114,195804,245307,2.8091737324,-5.9306108141000005,7.058826669999999,577
113282,195723,245266,2.8618158296000002,-5.9593246853,7.1497539288,578
112735,195720,245226,2.9371897415,-6.0239308954999995,7.1162544124,579
112445,195671,245216,2.967100024,-5.968895975700001,7.073183605600001,580
112330,195667,245215,2.7996024420000003,-6.0191452503,7.0636123152,581
112322,195673,245209,2.9611179675,-5.967699564399999,7.196413969499999,582
112432,195718,245215,2.8331019584000003,-6.1244294447000005,7.1198436463,583
112556,195697,245254,2.9359933301999996,-6.1351971464,7.1162544124,584
112594,195693,245253,2.8570301844,-5.9736816209,7.2011996147,585
112639,195702,245222,2.8295127245,-5.9724852096,7.1210400576,586
112634,195690,245215,2.8378876036,-6.185446421,7.1018974768000005,587
112697,195715,245260,2.823530668,-6.029912952,7.0779692508,588
112815,195726,245249,2.8426732488,-6.029912952,6.9547388869,589
112978,195754,245273,2.8426732488,-6.0586268232,7.0923261864,590
113175,195663,245274,2.8510481279,-6.101697629999999,7.1246292915,591
113409,195788,245293,2.8989045799,-6.077769404,7.1018974768000005,592
113628,195784,245318,2.8845476443,-6.0107703712000005,7.0683979604,593
113848,195802,245297,2.87138712,-6.063412468399999,7.2765735266,594
114065,195860,245328,2.8510481279,-6.0574304119,7.1928247355999995,595
114295,195874,245336,2.9096722816000002,-5.983252911299999,7.1342005819,596
114499,195888,245357,2.9431717980000003,-6.034698597199999,7.1437718723,597
114738,195903,245396,2.8761727652,-6.005984725999999,7.0636123152,598
114960,195957,245366,2.8139593776000003,-5.968895975700001,7.0492553796,599
115164,196010,245421,2.8091737324,-5.9593246853,6.9786671129,600
115373,196053,245421,2.8510481279,-5.8779687169,7.1162544124,601
115512,196088,245428,2.9419753867,-6.025127306799999,7.1724857435,602
115479,196071,245448,2.9001009912,-6.050251944099999,7.1246292915,603
114869,195908,245351,2.8283163132,-5.9210395237,7.060023081300001,604
113994,195733,245287,2.8378876036,-6.1005012187,7.0923261864,605
113249,195772,245270,2.8127629663000002,-5.9916277904,7.2203421955,606
112828,195740,245207,2.8618158296000002,-5.9401821045,7.1018974768000005,607
112610,195734,245214,2.8043880872,-5.9210395237,7.2011996147,608
112533,195712,245182,2.691925425,-5.8923256525,7.1928247355999995,609
112599,195710,245239,2.9467610319,-6.2105710583,7.106683122,610
112699,195738,245193,2.8893332895,-6.0442698876,7.1629144531,611
112828,195742,245224,2.8223342567,-6.0861442831,7.1688965096,612
112839,195733,245227,3.0125636533999995,-6.034698597199999,7.1593252192,613
112827,195728,245235,2.8378876036,-5.952146217499999,7.125825702799999,614
112868,195737,245249,2.8570301844,-5.9174502898000005,7.0971118315999995,615
112958,195732,245223,2.8091737324,-5.9629139192,7.1353969932,616
113090,195760,245230,2.919243572,-5.9162538785,7.0779692508,617
113293,195716,245215,2.8342983697,-6.0394842424,7.1629144531,618
113473,195811,245291,2.8331019584000003,-6.0023954921,7.087540541199999,619
113700,195778,245309,2.8474588940000003,-6.0203416616,7.1688965096,620
113920,195830,245310,2.8797619991,-6.0143596051,7.2107709050999995,621
114143,195817,245329,2.8283163132,-6.0681981136,7.1724857435,622
114361,195863,245327,2.9132615155,-5.9880385565,7.0025953389,623
114596,195963,245364,2.9144579268,-5.9880385565,7.1174508237000005,624
114808,195943,245386,2.9276184511,-6.0203416616,7.0683979604,625
115038,195955,245371,2.9467610319,-6.053841177999999,7.1533431627,626
115254,195988,245402,2.8199414341,-5.9593246853,7.0025953389,627
115459,196057,245456,2.7469603447999997,-6.0394842424,7.1784678,628
115601,196044,245424,2.8857440556,-6.025127306799999,7.1401826384,629
115406,196034,245438,2.7900311516,-5.9306108141000005,7.058826669999999,630
114701,195912,245422,2.8989045799,-6.0358950085,7.1724857435,631
113855,195785,245322,2.9036902251,-5.9868421452,7.154539573999999,632
113292,195748,245272,2.8917261120999997,-5.9401821045,7.2574309458,633
112918,195801,245213,2.9180471607,-6.0394842424,7.1210400576,634
112785,195751,245235,2.87138712,-5.9916277904,7.1449682836,635
112799,195771,245212,2.8857440556,-6.053841177999999,7.1772713886999995,636
112883,195756,245285,2.7326034091999998,-5.8540404909,7.1401826384,637
113003,195778,245246,2.8797619991,-6.0311093633,7.286144817,638
113076,195780,245308,2.8426732488,-5.9784672661,7.0779692508,639
113083,195755,245244,2.8139593776000003,-6.1351971464,7.1928247355999995,640
113064,195769,245259,2.8103701436999997,-6.034698597199999,7.082754896,641
113093,195749,245247,2.7948167968,-5.9724852096,7.0396840892,642
113147,195754,245260,2.8522445392,-5.8217373858000006,7.1198436463,643
113281,195750,245270,2.7134608283999997,-5.9485569836,7.138986227099999,644
113448,195733,245254,2.9515466771,-6.0394842424,7.125825702799999,645
113657,195800,245223,2.775674216,-6.2297136391,7.1198436463,646
113807,195793,245289,2.9276184511,-6.053841177999999,7.154539573999999,647
114004,195822,245260,2.9144579268,-5.9054861768,7.087540541199999,648
114200,195832,245248,2.8474588940000003,-5.8971112976999995,7.1724857435,649
114389,195865,245291,2.8342983697,-6.0107703712000005,7.0205415084,650
114621,195854,245326,2.8582265956999997,-5.9401821045,7.0648087265,651
114775,195914,245332,3.0041887742999998,-6.1100725091,7.0636123152,652
114956,195915,245378,2.8043880872,-5.9449677497,7.1437718723,653
115060,195930,245363,2.8474588940000003,-5.996413435599999,7.0253271536,654
114746,195881,245317,2.9467610319,-5.9533426288,7.0923261864,655
113994,195768,245266,2.8474588940000003,-6.0203416616,7.087540541199999,656
113271,195795,245271,2.7337998205,-5.9641103305,7.110272355899999,657
112837,195694,245243,2.7182464736,-6.034698597199999,7.1150580011,658
112602,195713,245159,2.9706892578999997,-5.9784672661,7.1126651784999995,659
112639,195681,245273,2.9132615155,-6.1028940413,7.2107709050999995,660
112695,195711,245223,2.8893332895,-6.0394842424,7.1114687672,661
112866,195729,245247,2.8342983697,-6.0646088797,7.1724857435,662
113019,195762,245246,2.9132615155,-5.9294144028,7.154539573999999,663
113078,195759,245290,2.8809584104000003,-6.1100725091,7.0911297751,664
113116,195711,245231,2.8941189347,-5.7631132321,7.154539573999999,665
113148,195763,245289,2.8091737324,-6.0681981136,7.1449682836,666
113266,195764,245311,2.823530668,-6.1100725091,7.0971118315999995,667
113402,195771,245276,2.8558337731,-6.005984725999999,7.211967316399999,668
113618,195805,245309,2.8474588940000003,-6.0335021859,7.030112798799999,669
113746,195857,245354,2.8749763539,-6.005984725999999,7.1246292915,670
113999,195879,245356,2.703889538,-5.9294144028,7.1449682836,671
114263,195872,245382,2.775674216,-5.9820565,7.2909304621999995,672
114478,195944,245390,2.7996024420000003,-5.8971112976999995,7.2454668328,673
114714,195954,245449,2.8606194183,-5.938985693199999,7.0923261864,674
114948,195919,245425,2.9575287336000002,-5.9724852096,7.106683122,675
115190,196025,245450,2.7852455064000003,-5.9449677497,7.0695943717,676
115389,195983,245497,2.8857440556,-5.9018969429000006,7.0971118315999995,677
115607,196026,245476,2.8941189347,-6.1531433159,7.1162544124,678
115811,196083,245518,2.8618158296000002,-6.0107703712000005,7.0923261864,679
115759,196078,245516,2.8630122409,-5.9629139192,7.106683122,680
115198,195951,245452,2.8043880872,-6.0825550492,7.1868426791,681
114318,195849,245352,2.7098715945,-6.0107703712000005,7.1162544124,682
113530,195764,245266,2.823530668,-5.8157553293,7.0971118315999995,683
113085,195725,245256,2.8749763539,-6.0717873475,7.154539573999999,684
112813,195753,245248,2.8127629663000002,-6.0107703712000005,7.100701065499999,685
112722,195730,245273,2.8618158296000002,-5.9533426288,7.0408805005,686
112778,195737,245254,3.038884702,-6.0430734763,7.1162544124,687
112866,195745,245315,2.8283163132,-6.1579289611,7.138986227099999,688
113001,195781,245289,2.8510481279,-6.1591253724,7.1593252192,689
113042,195758,245249,2.9048866364,-6.0263237181000004,7.2203421955,690
113047,195752,245219,2.8426732488,-5.9593246853,7.2155565503000005,691
113070,195764,245250,2.8319055471,-5.9066825881,7.0492553796,692
113145,195754,245188,3.0604201053999995,-5.967699564399999,7.1497539288,693
113260,195764,245275,2.9383861528,-5.996413435599999,7.1198436463,694
113442,195767,245268,2.8378876036,-5.967699564399999,7.1150580011,695
113633,195824,245273,2.8510481279,-6.0442698876,7.2299134859,696
113849,195835,245283,2.8809584104000003,-6.1052868639,7.1688965096,697
114043,195849,245308,2.8043880872,-6.0335021859,7.1449682836,698
114282,195870,245369,2.87138712,-6.162714606300001,7.0492553796,699
114503,195928,245387,2.8618158296000002,-5.9114682333,7.1497539288,700
114728,195919,245379,2.8905297008,-6.1100725091,7.1342005819,701
114963,195956,245391,2.823530668,-6.0107703712000005,7.125825702799999,702
115211,195969,245420,2.7948167968,-5.9018969429000006,7.1114687672,703
115293,196039,245425,2.8893332895,-5.9162538785,7.1928247355999995,704
115192,196010,245409,2.7948167968,-5.9437713384,7.1162544124,705
114490,195885,245316,2.8989045799,-5.983252911299999,7.1820570339,706
113610,195748,245231,2.8701907087,-5.9174502898000005,7.0636123152,707
113024,195728,245198,2.7373890544,-5.9736816209,7.138986227099999,708
112642,195686,245183,2.8522445392,-6.000002669500001,7.125825702799999,709
112497,195690,245219,2.7804598612,-6.038287831100001,7.0923261864,710
112450,195693,245173,2.7565316351999996,-6.233302873,7.167700098299999,711
112582,195718,245174,2.9228328059,-6.029912952,7.1916283243,712
112710,195747,245249,2.8462624827,-5.968895975700001,7.125825702799999,713
112860,195737,245208,2.9084758702999998,-6.0490555328,7.1342005819,714
112845,195756,245189,2.7529424013,-5.954539040099999,7.2394847763,715
112871,195728,245195,2.775674216,-5.934200048,7.0923261864,716
112980,195702,245207,2.7529424013,-6.1196437994999995,7.031309210100001,717
113059,195749,245211,2.8522445392,-6.021538072899999,7.1593252192,718
113213,195789,245262,2.8809584104000003,-6.034698597199999,7.1820570339,719
113389,195778,245224,2.8809584104000003,-6.0167524277,7.0492553796,720
113622,195691,245260,2.8091737324,-6.0574304119,7.1162544124,721
113878,195798,245285,2.8797619991,-5.844469200500001,7.2299134859,722
114090,195781,245287,2.9551359109999997,-5.8875400073,7.1342005819,723
114339,195877,245305,2.8127629663000002,-5.9868421452,7.0492553796,724
114576,195906,245291,2.8570301844,-5.9114682333,7.1916283243,725
114775,195960,245364,2.7385854657,-5.9306108141000005,7.1114687672,726
115032,195981,245367,2.8283163132,-6.053841177999999,7.0971118315999995,727
115264,196017,245420,2.9048866364,-5.9724852096,7.1353969932,728
115412,196002,245409,2.8462624827,-6.053841177999999,7.1772713886999995,729
115308,196004,245407,2.8677978860999995,-6.067001702300001,7.1449682836,730
114693,195892,245343,2.8905297008,-6.025127306799999,7.202396026,731
113873,195806,245276,2.8701907087,-5.934200048,7.125825702799999,732
113283,195791,245236,2.7146572396999997,-5.9772708547999995,7.138986227099999,733
112970,195739,245190,2.8175486115,-6.0167524277,7.1772713886999995,734
112807,195706,245218,2.7816562725,-5.9976098469000005,7.0444697344,735
112824,195713,245228,2.8797619991,-6.0203416616,7.0779692508,736
112915,195751,245197,2.8043880872,-6.025127306799999,7.1868426791,737
113064,195736,245228,2.7816562725,-5.9736816209,7.1018974768000005,738
113165,195740,245269,2.8570301844,-6.025127306799999,7.1018974768000005,739
113192,195741,245236,2.8606194183,-5.9497533949,7.2011996147,740
113202,195721,245266,2.7577280465,-5.9449677497,7.1449682836,741
113237,195706,245204,2.9144579268,-5.9198431124,7.1162544124,742
113333,195775,245278,2.7433711108999996,-5.925825168899999,7.073183605600001,743
113492,195706,245245,2.7720849821,-5.8827543621,7.0839513072999996,744
113608,195727,245240,2.9611179675,-6.067001702300001,7.058826669999999,745
113807,195715,245214,3.0831519201,-6.034698597199999,7.0779692508,746
113996,195789,245247,2.8701907087,-6.1304115012,7.1868426791,747
114156,195758,245252,2.8055844984999996,-5.844469200500001,7.073183605600001,748
114354,195831,245226,2.7816562725,-5.983252911299999,7.1736821548,749
114536,195836,245268,2.8953153460000003,-6.0586268232,7.2299134859,750
114698,195847,245265,2.8558337731,-5.9641103305,7.1497539288,751
114898,195850,245300,2.8761727652,-5.8540404909,7.1724857435,752
115012,195895,245338,2.87138712,-5.9772708547999995,6.9738814677,753
114808,195853,245287,2.8378876036,-6.092126339599999,7.0839513072999996,754
114184,195747,245264,2.9946174839,-5.9294144028,7.0779692508,755
113524,195665,245177,2.7996024420000003,-5.996413435599999,7.1162544124,756
113078,195679,245140,2.8857440556,-6.0167524277,7.087540541199999,757
112912,195677,245142,2.8761727652,-6.1435720255,7.1449682836,758
112892,195689,245187,2.9001009912,-6.101697629999999,7.073183605600001,759
112981,195670,245169,2.7337998205,-6.0909299283,7.1629144531,760
113176,195718,245211,2.7337998205,-6.0909299283,7.1629144531,761
113304,195727,245201,2.7337998205,-6.0909299283,7.1629144531,762
113376,195741,245226,2.7337998205,-6.0909299283,7.1629144531,763
113413,195696,245248,2.7337998205,-6.0909299283,7.1629144531,764
113459,195723,245232,2.7337998205,-6.0909299283,7.1629144531,765
113578,195715,245334,2.7337998205,-6.0909299283,7.1629144531,766
113703,195740,245301,2.7337998205,-6.0909299283,7.1629144531,767
113861,195788,245293,2.7337998205,-6.0909299283,7.1629144531,768
114051,195773,245265,2.7337998205,-6.0909299283,7.1629144531,769
114251,195829,245347,2.7337998205,-6.0909299283,7.1629144531,770
114490,195860,245353,2.7337998205,-6.0909299283,7.1629144531,771
114709,195860,245416,2.7337998205,-6.0909299283,7.1629144531,772
114925,195912,245390,2.7337998205,-6.0909299283,7.1629144531,773
115132,195909,245448,2.7337998205,-6.0909299283,7.1629144531,774
115333,195950,245444,2.8821548217,-6.0490555328,7.196413969499999,775
115507,195945,245480,2.8821548217,-6.0490555328,7.196413969499999,776
115328,195943,245422,2.8821548217,-6.0490555328,7.196413969499999,777
114666,195807,245378,2.8821548217,-6.0490555328,7.196413969499999,778
113893,195744,245361,2.8821548217,-6.0490555328,7.196413969499999,779
113339,195751,245264,2.8821548217,-6.0490555328,7.196413969499999,780
113005,195692,245256,2.8821548217,-6.0490555328,7.196413969499999,781
112868,195703,245209,2.8821548217,-6.0490555328,7.196413969499999,782
112873,195714,245251,2.8821548217,-6.0490555328,7.196413969499999,783
112980,195714,245270,2.8821548217,-6.0490555328,7.196413969499999,784
113111,195698,245258,2.8821548217,-6.0490555328,7.196413969499999,785
113192,195714,245258,2.8821548217,-6.0490555328,7.196413969499999,786
113229,195707,245295,2.8821548217,-6.0490555328,7.196413969499999,787
113266,195741,245268,2.8821548217,-6.0490555328,7.196413969499999,788
113300,195721,245241,2.8821548217,-6.0490555328,7.196413969499999,789
113429,195725,245315,2.8821548217,-6.0490555328,7.196413969499999,790
113584,195745,245265,2.8821548217,-6.0490555328,7.196413969499999,791
113760,195774,245329,2.8821548217,-6.0490555328,7.196413969499999,792
113938,195783,245281,2.8821548217,-6.0490555328,7.196413969499999,793
114161,195796,245309,2.8821548217,-6.0490555328,7.196413969499999,794
114357,195834,245349,2.8821548217,-6.0490555328,7.196413969499999,795
114597,195871,245361,2.8821548217,-6.0490555328,7.196413969499999,796
114790,195865,245370,2.8821548217,-6.0490555328,7.196413969499999,797
115006,195888,245366,2.8821548217,-6.0490555328,7.196413969499999,798
115226,195931,245413,2.8821548217,-6.0490555328,7.196413969499999,799
115406,195962,245466,2.8821548217,-6.0490555328,7.196413969499999,800
115599,195979,245424,2.8821548217,-6.0490555328,7.196413969499999,801
115768,196053,245455,2.8821548217,-6.0490555328,7.196413969499999,802
115707,195995,245422,2.8821548217,-6.0490555328,7.196413969499999,803
115149,195915,245399,2.8821548217,-6.0490555328,7.196413969499999,804
114314,195839,245281,2.8821548217,-6.0490555328,7.196413969499999,805
113637,195755,245245,2.8821548217,-6.0490555328,7.196413969499999,806
113205,195730,245192,2.8821548217,-6.0490555328,7.196413969499999,807
112976,195724,245209,2.8426732488,-5.9772708547999995,7.0971118315999995,808
112899,195718,245208,2.8426732488,-5.9772708547999995,7.0971118315999995,809
112946,195730,245219,2.8426732488,-5.9772708547999995,7.0971118315999995,810
113054,195721,245202,2.8426732488,-5.9772708547999995,7.0971118315999995,811
113126,195703,245229,2.8426732488,-5.9772708547999995,7.0971118315999995,812
113159,195761,245226,2.8426732488,-5.9772708547999995,7.0971118315999995,813
113154,195727,245191,2.8426732488,-5.9772708547999995,7.0971118315999995,814
113140,195715,245209,2.8426732488,-5.9772708547999995,7.0971118315999995,815
113209,195752,245211,2.8426732488,-5.9772708547999995,7.0971118315999995,816
113338,195733,245241,2.8426732488,-5.9772708547999995,7.0971118315999995,817
113504,195759,245232,2.8426732488,-5.9772708547999995,7.0971118315999995,818
113666,195785,245272,2.8426732488,-5.9772708547999995,7.0971118315999995,819
113871,195828,245275,2.8426732488,-5.9772708547999995,7.0971118315999995,820
114082,195812,245280,2.8426732488,-5.9772708547999995,7.0971118315999995,821
114285,195880,245321,2.8426732488,-5.9772708547999995,7.0971118315999995,822
114504,195899,245285,2.8426732488,-5.9772708547999995,7.0971118315999995,823
114704,195885,245275,2.8426732488,-5.9772708547999995,7.0971118315999995,824
114915,195912,245366,2.8426732488,-5.9772708547999995,7.0971118315999995,825
115084,195957,245319,2.8426732488,-5.9772708547999995,7.0971118315999995,826
115288,195972,245415,2.8426732488,-5.9772708547999995,7.0971118315999995,827
115473,195977,245425,2.8426732488,-5.9772708547999995,7.0971118315999995,828
115578,196031,245392,2.8426732488,-5.9772708547999995,7.0971118315999995,829
115340,195999,245376,2.8426732488,-5.9772708547999995,7.0971118315999995,830
114589,195838,245371,2.8426732488,-5.9772708547999995,7.0971118315999995,831
113757,195756,245228,2.8426732488,-5.9772708547999995,7.0971118315999995,832
113177,195775,245224,2.8426732488,-5.9772708547999995,7.0971118315999995,833
112854,195750,245207,2.8426732488,-5.9772708547999995,7.0971118315999995,834
112701,195733,245188,2.8426732488,-5.9772708547999995,7.0971118315999995,835
112678,195716,245183,2.8426732488,-5.9772708547999995,7.0971118315999995,836
112791,195742,245202,2.8426732488,-5.9772708547999995,7.0971118315999995,837
112900,195738,245147,2.8426732488,-5.9772708547999995,7.0971118315999995,838
112941,195715,245201,2.8426732488,-5.9772708547999995,7.0971118315999995,839
112962,195702,245212,2.8426732488,-5.9772708547999995,7.0971118315999995,840
112941,195740,245196,2.8426732488,-5.9772708547999995,7.0971118315999995,841
112980,195756,245218,2.8426732488,-5.9772708547999995,7.0971118315999995,842
113062,195755,245167,2.8426732488,-5.9772708547999995,7.0971118315999995,843
113208,195774,245223,2.8426732488,-5.9772708547999995,7.0971118315999995,844
113372,195783,245282,2.8426732488,-5.9772708547999995,7.0971118315999995,845
113552,195781,245210,2.8426732488,-5.9772708547999995,7.0971118315999995,846
113745,195855,245313,2.8426732488,-5.9772708547999995,7.0971118315999995,847
113952,195836,245308,2.8426732488,-5.9772708547999995,7.0971118315999995,848
114130,195859,245325,2.8426732488,-5.9772708547999995,7.0971118315999995,849
112200,195726,245219,2.9503502657999996,-6.0394842424,6.9834527581,850
112234,195712,245169,2.9503502657999996,-6.0394842424,6.9834527581,851
112307,195686,245172,2.9503502657999996,-6.0394842424,6.9834527581,852
112422,195755,245250,2.9503502657999996,-6.0394842424,6.9834527581,853
112634,195727,245293,2.9503502657999996,-6.0394842424,6.9834527581,854
112843,195767,245226,2.9503502657999996,-6.0394842424,6.9834527581,855
113080,195792,245278,2.9503502657999996,-6.0394842424,6.9834527581,856
113324,195826,245249,2.9503502657999996,-6.0394842424,6.9834527581,857
113563,195821,245244,2.9503502657999996,-6.0394842424,6.9834527581,858
113823,195828,245328,2.9503502657999996,-6.0394842424,6.9834527581,859
114069,195900,245304,2.9503502657999996,-6.0394842424,6.9834527581,860
114285,195931,245365,2.9503502657999996,-6.0394842424,6.9834527581,861
114518,195947,245373,2.9503502657999996,-6.0394842424,6.9834527581,862
114787,195976,245389,2.9503502657999996,-6.0394842424,6.9834527581,863
114971,196023,245442,2.9503502657999996,-6.0394842424,6.9834527581,864
115095,196008,245424,2.9503502657999996,-6.0394842424,6.9834527581,865
114793,195986,245421,2.9503502657999996,-6.0394842424,6.9834527581,866
113975,195867,245364,2.9503502657999996,-6.0394842424,6.9834527581,867
113117,195795,245267,2.9503502657999996,-6.0394842424,6.9834527581,868
112573,195740,245264,2.9503502657999996,-6.0394842424,6.9834527581,869
112289,195744,245171,2.9503502657999996,-6.0394842424,6.9834527581,870
112219,195704,245191,2.9503502657999996,-6.0394842424,6.9834527581,871
112249,195734,245216,2.9503502657999996,-6.0394842424,6.9834527581,872
112397,195750,245235,2.9503502657999996,-6.0394842424,6.9834527581,873
112583,195764,245268,2.9503502657999996,-6.0394842424,6.9834527581,874
112694,195747,245254,2.9503502657999996,-6.0394842424,6.9834527581,875
112735,195761,245223,2.9503502657999996,-6.0394842424,6.9834527581,876
112769,195731,245246,2.9503502657999996,-6.0394842424,6.9834527581,877
112887,195806,245255,2.9503502657999996,-6.0394842424,6.9834527581,878
112999,195792,245278,2.9503502657999996,-6.0394842424,6.9834527581,879
113183,195814,245276,2.9503502657999996,-6.0394842424,6.9834527581,880
113393,195842,245278,2.9503502657999996,-6.0394842424,6.9834527581,881
113636,195889,245314,2.9503502657999996,-6.0394842424,6.9834527581,882
113873,195852,245300,2.967100024,-6.0119667825,7.2299134859,883
114106,195914,245346,2.967100024,-6.0119667825,7.2299134859,884
114335,195921,245429,2.967100024,-6.0119667825,7.2299134859,885
114605,195931,245403,2.967100024,-6.0119667825,7.2299134859,886
114819,195976,245359,2.967100024,-6.0119667825,7.2299134859,887
115001,195954,245445,2.967100024,-6.0119667825,7.2299134859,888
115218,196050,245429,2.967100024,-6.0119667825,7.2299134859,889
115353,196024,245472,2.967100024,-6.0119667825,7.2299134859,890
115204,195976,245443,2.967100024,-6.0119667825,7.2299134859,891
114540,195864,245377,2.967100024,-6.0119667825,7.2299134859,892
113744,195804,245265,2.967100024,-6.0119667825,7.2299134859,893
113204,195751,245211,2.967100024,-6.0119667825,7.2299134859,894
112924,195752,245124,2.967100024,-6.0119667825,7.2299134859,895
112807,195735,245180,2.967100024,-6.0119667825,7.2299134859,896
112873,195730,245168,2.967100024,-6.0119667825,7.2299134859,897
112994,195745,245193,2.967100024,-6.0119667825,7.2299134859,898
113136,195748,245204,2.967100024,-6.0119667825,7.2299134859,899
113214,195727,245227,2.967100024,-6.0119667825,7.2299134859,900
113196,195739,245203,2.967100024,-6.0119667825,7.2299134859,901
113174,195736,245207,2.967100024,-6.0119667825,7.2299134859,902
113223,195724,245226,2.967100024,-6.0119667825,7.2299134859,903
113330,195793,245194,2.967100024,-6.0119667825,7.2299134859,904
113487,195749,245232,2.967100024,-6.0119667825,7.2299134859,905
113694,195782,245266,2.967100024,-6.0119667825,7.2299134859,906
113909,195815,245299,2.967100024,-6.0119667825,7.2299134859,907
114129,195808,245295,2.967100024,-6.0119667825,7.2299134859,908
114352,195844,245312,2.967100024,-6.0119667825,7.2299134859,909
114569,195879,245330,2.967100024,-6.0119667825,7.2299134859,910
114794,195934,245355,2.967100024,-6.0119667825,7.2299134859,911
115010,195974,245371,2.967100024,-6.0119667825,7.2299134859,912
115120,195983,245377,2.967100024,-6.0119667825,7.2299134859,913
114820,195887,245350,2.967100024,-6.0119667825,7.2299134859,914
114018,195823,245299,2.967100024,-6.0119667825,7.2299134859,915
113228,195701,245224,2.967100024,-6.0119667825,7.2299134859,916
112727,195703,245219,2.967100024,-6.0119667825,7.2299134859,917
112493,195679,245175,2.967100024,-6.0119667825,7.2299134859,918
112400,195690,245158,2.967100024,-6.0119667825,7.2299134859,919
112494,195696,245205,2.967100024,-6.0119667825,7.2299134859,920
112645,195702,245197,2.967100024,-6.0119667825,7.2299134859,921
112801,195743,245208,2.967100024,-6.0119667825,7.2299134859,922
112912,195728,245217,2.967100024,-6.0119667825,7.2299134859,923
112938,195740,245271,2.967100024,-6.0119667825,7.2299134859,924
112185,195681,245214,2.8654050635,-5.9485569836,7.1820570339,925
112265,195676,245250,2.8654050635,-5.9485569836,7.1820570339,926
112407,195699,245219,2.8654050635,-5.9485569836,7.1820570339,927
112519,195674,245257,2.8654050635,-5.9485569836,7.1820570339,928
112586,195692,245227,2.8654050635,-5.9485569836,7.1820570339,929
112608,195680,245217,2.8654050635,-5.9485569836,7.1820570339,930
112604,195709,245309,2.8654050635,-5.9485569836,7.1820570339,931
112643,195678,245274,2.8654050635,-5.9485569836,7.1820570339,932
112780,195714,245258,2.8654050635,-5.9485569836,7.1820570339,933
112958,195728,245259,2.8654050635,-5.9485569836,7.1820570339,934
113179,195736,245288,2.8654050635,-5.9485569836,7.1820570339,935
113341,195732,245316,2.8654050635,-5.9485569836,7.1820570339,936
113574,195766,245299,2.8654050635,-5.9485569836,7.1820570339,937
113786,195780,245287,2.8654050635,-5.9485569836,7.1820570339,938
113986,195807,245327,2.8654050635,-5.9485569836,7.1820570339,939
114212,195833,245341,2.8654050635,-5.9485569836,7.1820570339,940
114403,195896,245379,2.8654050635,-5.9485569836,7.1820570339,941
114573,195864,245391,2.7254249414,-5.8923256525,7.073183605600001,942
114558,195890,245418,2.7254249414,-5.8923256525,7.073183605600001,943
114002,195779,245374,2.7254249414,-5.8923256525,7.073183605600001,944
113179,195701,245238,2.7254249414,-5.8923256525,7.073183605600001,945
112483,195625,245213,2.7254249414,-5.8923256525,7.073183605600001,946
112123,195612,245169,2.7254249414,-5.8923256525,7.073183605600001,947
112006,195635,245185,2.7254249414,-5.8923256525,7.073183605600001,948
112065,195628,245207,2.7254249414,-5.8923256525,7.073183605600001,949
112214,195674,245196,2.7254249414,-5.8923256525,7.073183605600001,950
112397,195660,245248,2.7254249414,-5.8923256525,7.073183605600001,951
112519,195699,245293,2.7254249414,-5.8923256525,7.073183605600001,952
112573,195685,245285,2.7254249414,-5.8923256525,7.073183605600001,953
112634,195681,245336,2.7254249414,-5.8923256525,7.073183605600001,954
112730,195727,245309,2.7254249414,-5.8923256525,7.073183605600001,955
112887,195746,245329,2.7254249414,-5.8923256525,7.073183605600001,956
113072,195762,245366,2.7254249414,-5.8923256525,7.073183605600001,957
113287,195813,245354,2.7254249414,-5.8923256525,7.073183605600001,958
113526,195788,245409,2.7254249414,-5.8923256525,7.073183605600001,959
113764,195864,245402,2.7254249414,-5.8923256525,7.073183605600001,960
113981,195853,245441,2.7254249414,-5.8923256525,7.073183605600001,961
114160,195889,245477,2.7254249414,-5.8923256525,7.073183605600001,962
114001,195807,245386,2.7254249414,-5.8923256525,7.073183605600001,963
113304,195735,245331,2.7254249414,-5.8923256525,7.073183605600001,964
112489,195674,245319,2.7254249414,-5.8923256525,7.073183605600001,965
111978,195616,245290,2.7254249414,-5.8923256525,7.073183605600001,966
111705,195616,245238,2.7254249414,-5.8923256525,7.073183605600001,967
111617,195602,245231,2.7254249414,-5.8923256525,7.073183605600001,968
111704,195580,245272,2.7254249414,-5.8923256525,7.073183605600001,969
111880,195642,245261,2.7254249414,-5.8923256525,7.073183605600001,970
112079,195684,245240,2.7254249414,-5.8923256525,7.073183605600001,971
112200,195613,245293,2.7254249414,-5.8923256525,7.073183605600001,972
112260,195690,245274,2.7254249414,-5.8923256525,7.073183605600001,973
112308,195652,245358,2.7254249414,-5.8923256525,7.073183605600001,974
112376,195709,245296,2.7254249414,-5.8923256525,7.073183605600001,975
112559,195662,245264,2.7254249414,-5.8923256525,7.073183605600001,976
112733,195673,245336,2.7254249414,-5.8923256525,7.073183605600001,977
112933,195733,245335,2.7254249414,-5.8923256525,7.073183605600001,978
113174,195753,245394,2.7254249414,-5.8923256525,7.073183605600001,979
113399,195820,245341,2.7254249414,-5.8923256525,7.073183605600001,980
113578,195758,245401,2.7254249414,-5.8923256525,7.073183605600001,981
113511,195796,245374,2.7254249414,-5.8923256525,7.073183605600001,982
112887,195670,245286,2.7254249414,-5.8923256525,7.073183605600001,983
111925,195518,245250,2.8570301844,-5.9916277904,7.1437718723,984
111825,195499,245249,2.8570301844,-5.9916277904,7.1437718723,985
111885,195483,245285,2.8570301844,-5.9916277904,7.1437718723,986
112062,195526,245325,2.8570301844,-5.9916277904,7.1437718723,987
112258,195533,245371,2.8570301844,-5.9916277904,7.1437718723,988
112390,195587,245360,2.8570301844,-5.9916277904,7.1437718723,989
112492,195560,245367,2.8570301844,-5.9916277904,7.1437718723,990
112553,195560,245366,2.8570301844,-5.9916277904,7.1437718723,991
112692,195578,245405,2.8570301844,-5.9916277904,7.1437718723,992
112861,195615,245348,2.8570301844,-5.9916277904,7.1437718723,993
113087,195639,245396,2.8570301844,-5.9916277904,7.1437718723,994
113316,195651,245419,2.8570301844,-5.9916277904,7.1437718723,995
113569,195682,245423,2.8570301844,-5.9916277904,7.1437718723,996
113831,195730,245431,2.8570301844,-5.9916277904,7.1437718723,997
114066,195729,245419,2.8570301844,-5.9916277904,7.1437718723,998
114340,195763,245479,2.8570301844,-5.9916277904,7.1437718723,999
114593,195775,245519,2.8570301844,-5.9916277904,7.1437718723,1000
114829,195856,245500,2.8570301844,-5.9916277904,7.1437718723,1001
115079,195870,245515,2.8570301844,-5.9916277904,7.1437718723,1002
115325,195939,245539,2.8570301844,-5.9916277904,7.1437718723,1003
115577,195932,245587,2.8570301844,-5.9916277904,7.1437718723,1004
115815,195960,245594,2.8570301844,-5.9916277904,7.1437718723,1005
116084,196014,245611,2.8570301844,-5.9916277904,7.1437718723,1006
116271,196056,245642,2.8570301844,-5.9916277904,7.1437718723,1007
116472,196086,245643,2.8570301844,-5.9916277904,7.1437718723,1008
116388,196026,245636,2.8570301844,-5.9916277904,7.1437718723,1009
115839,195917,245572,2.8570301844,-5.9916277904,7.1437718723,1010
115084,195823,245523,2.8570301844,-5.9916277904,7.1437718723,1011
114489,195825,245458,2.8570301844,-5.9916277904,7.1437718723,1012
114156,195773,245427,2.8570301844,-5.9916277904,7.1437718723,1013
114003,195758,245391,2.8570301844,-5.9916277904,7.1437718723,1014
113957,195742,245455,2.8570301844,-5.9916277904,7.1437718723,1015
114017,195795,245484,2.8570301844,-5.9916277904,7.1437718723,1016
114133,195779,245460,2.7804598612,-6.101697629999999,7.1114687672,1017
114239,195819,245500,2.7804598612,-6.101697629999999,7.1114687672,1018
114265,195822,245495,2.7804598612,-6.101697629999999,7.1114687672,1019
114321,195794,245513,2.7804598612,-6.101697629999999,7.1114687672,1020
114333,195782,245497,2.7804598612,-6.101697629999999,7.1114687672,1021
114475,195829,245445,2.7804598612,-6.101697629999999,7.1114687672,1022
114611,195844,245491,2.7804598612,-6.101697629999999,7.1114687672,1023
114821,195867,245479,2.7804598612,-6.101697629999999,7.1114687672,1024
115012,195881,245520,2.7804598612,-6.101697629999999,7.1114687672,1025
115253,195917,245557,2.7804598612,-6.101697629999999,7.1114687672,1026
115447,195918,245536,2.7804598612,-6.101697629999999,7.1114687672,1027
115677,195955,245523,2.7804598612,-6.101697629999999,7.1114687672,1028
115884,195942,245540,2.7804598612,-6.101697629999999,7.1114687672,1029
116092,196023,245603,2.7804598612,-6.101697629999999,7.1114687672,1030
116288,196009,245611,2.7804598612,-6.101697629999999,7.1114687672,1031
116496,196056,245629,2.7804598612,-6.101697629999999,7.1114687672,1032
116704,196090,245628,2.7804598612,-6.101697629999999,7.1114687672,1033
116905,196094,245630,2.7804598612,-6.101697629999999,7.1114687672,1034
117101,196127,245687,2.7804598612,-6.101697629999999,7.1114687672,1035
117288,196187,245663,2.7804598612,-6.101697629999999,7.1114687672,1036
117444,196198,245695,2.7804598612,-6.101697629999999,7.1114687672,1037
117343,196159,245700,2.7804598612,-6.101697629999999,7.1114687672,1038
116799,196098,245667,2.7804598612,-6.101697629999999,7.1114687672,1039
116063,195980,245587,2.7804598612,-6.101697629999999,7.1114687672,1040
115506,195932,245543,2.7804598612,-6.101697629999999,7.1114687672,1041
115178,195946,245487,2.7804598612,-6.101697629999999,7.1114687672,1042
115008,195922,245563,2.7804598612,-6.101697629999999,7.1114687672,1043
114969,195930,245510,2.7804598612,-6.101697629999999,7.1114687672,1044
114991,195930,245514,2.7804598612,-6.101697629999999,7.1114687672,1045
115059,195939,245520,2.7804598612,-6.101697629999999,7.1114687672,1046
115116,195953,245495,2.7804598612,-6.101697629999999,7.1114687672,1047
115103,195937,245537,2.7804598612,-6.101697629999999,7.1114687672,1048
115083,195933,245553,2.7804598612,-6.101697629999999,7.1114687672,1049
115117,195929,245482,2.7804598612,-6.101697629999999,7.1114687672,1050
115176,195952,245488,2.7804598612,-6.101697629999999,7.1114687672,1051
115270,195953,245506,2.7804598612,-6.101697629999999,7.1114687672,1052
115443,195979,245513,2.7804598612,-6.101697629999999,7.1114687672,1053
115611,195993,245533,2.7804598612,-6.101697629999999,7.1114687672,1054
115788,196050,245560,2.7804598612,-6.101697629999999,7.1114687672,1055
115965,196006,245606,2.7804598612,-6.101697629999999,7.1114687672,1056
116122,196092,245571,2.7804598612,-6.101697629999999,7.1114687672,1057
116316,196080,245605,2.7804598612,-6.101697629999999,7.1114687672,1058
114546,195888,245400,2.7661029256000003,-5.9449677497,7.130611348,1059
114499,195899,245376,2.7661029256000003,-5.9449677497,7.130611348,1060
114508,195879,245396,2.7661029256000003,-5.9449677497,7.130611348,1061
114601,195922,245392,2.7661029256000003,-5.9449677497,7.130611348,1062
114722,195917,245367,2.7661029256000003,-5.9449677497,7.130611348,1063
114875,195942,245428,2.7661029256000003,-5.9449677497,7.130611348,1064
115017,195953,245419,2.7661029256000003,-5.9449677497,7.130611348,1065
115171,196000,245407,2.7661029256000003,-5.9449677497,7.130611348,1066
115320,195983,245441,2.7661029256000003,-5.9449677497,7.130611348,1067
115466,196027,245436,2.7661029256000003,-5.9449677497,7.130611348,1068
115614,196035,245470,2.7661029256000003,-5.9449677497,7.130611348,1069
115777,196081,245504,2.7661029256000003,-5.9449677497,7.130611348,1070
115922,196098,245513,2.7661029256000003,-5.9449677497,7.130611348,1071
116050,196072,245525,2.7661029256000003,-5.9449677497,7.130611348,1072
115879,196048,245455,2.7661029256000003,-5.9449677497,7.130611348,1073
115192,195968,245421,2.7661029256000003,-5.9449677497,7.130611348,1074
114343,195883,245387,2.7661029256000003,-5.9449677497,7.130611348,1075
113656,195836,245316,2.7661029256000003,-5.9449677497,7.130611348,1076
113280,195773,245259,2.7661029256000003,-5.9449677497,7.130611348,1077
113086,195783,245253,2.7661029256000003,-5.9449677497,7.130611348,1078
113040,195807,245303,2.7661029256000003,-5.9449677497,7.130611348,1079
113083,195814,245308,2.7661029256000003,-5.9449677497,7.130611348,1080
113215,195838,245284,2.7661029256000003,-5.9449677497,7.130611348,1081
113270,195841,245300,2.7661029256000003,-5.9449677497,7.130611348,1082
113256,195843,245271,2.7661029256000003,-5.9449677497,7.130611348,1083
113226,195865,245294,2.7661029256000003,-5.9449677497,7.130611348,1084
113225,195840,245322,2.7661029256000003,-5.9449677497,7.130611348,1085
113337,195867,245327,2.7661029256000003,-5.9449677497,7.130611348,1086
113485,195855,245304,2.7661029256000003,-5.9449677497,7.130611348,1087
113631,195869,245352,2.7661029256000003,-5.9449677497,7.130611348,1088
113840,195933,245347,2.7661029256000003,-5.9449677497,7.130611348,1089
114055,195944,245377,2.7661029256000003,-5.9449677497,7.130611348,1090
114264,195958,245455,2.7661029256000003,-5.9449677497,7.130611348,1091
114475,195978,245422,2.7661029256000003,-5.9449677497,7.130611348,1092
114719,195998,245430,2.7661029256000003,-5.9449677497,7.130611348,1093
114918,196041,245425,2.7661029256000003,-5.9449677497,7.130611348,1094
115129,196074,245472,2.7661029256000003,-5.9449677497,7.130611348,1095
115342,196093,245430,2.7661029256000003,-5.9449677497,7.130611348,1096
115540,196097,245525,2.7661029256000003,-5.9449677497,7.130611348,1097
115685,196131,245519,2.7661029256000003,-5.9449677497,7.130611348,1098
115525,196088,245527,2.7661029256000003,-5.9449677497,7.130611348,1099
114781,195991,245436,2.7661029256000003,-5.9449677497,7.130611348,1100
112492,195777,245234,2.7852455064000003,-5.968895975700001,7.1736821548,1101
112611,195818,245221,2.7852455064000003,-5.968895975700001,7.1736821548,1102
112740,195835,245282,2.7852455064000003,-5.968895975700001,7.1736821548,1103
112853,195835,245285,2.7852455064000003,-5.968895975700001,7.1736821548,1104
112893,195825,245273,2.7852455064000003,-5.968895975700001,7.1736821548,1105
112880,195796,245288,2.7852455064000003,-5.968895975700001,7.1736821548,1106
112932,195832,245282,2.7852455064000003,-5.968895975700001,7.1736821548,1107
113025,195823,245323,2.7852455064000003,-5.968895975700001,7.1736821548,1108
113178,195856,245321,2.7852455064000003,-5.968895975700001,7.1736821548,1109
113395,195876,245332,2.7852455064000003,-5.968895975700001,7.1736821548,1110
113619,195886,245324,2.7852455064000003,-5.968895975700001,7.1736821548,1111
113860,195916,245326,2.7852455064000003,-5.968895975700001,7.1736821548,1112
114114,195955,245383,2.7852455064000003,-5.968895975700001,7.1736821548,1113
114359,195988,245349,2.7852455064000003,-5.968895975700001,7.1736821548,1114
114610,196011,245408,2.7852455064000003,-5.968895975700001,7.1736821548,1115
114847,196029,245476,2.7852455064000003,-5.968895975700001,7.1736821548,1116
115068,196063,245431,2.7852455064000003,-5.968895975700001,7.1736821548,1117
115288,196067,245449,2.7852455064000003,-5.968895975700001,7.1736821548,1118
115504,196120,245451,2.7852455064000003,-5.968895975700001,7.1736821548,1119
115677,196114,245495,2.7852455064000003,-5.968895975700001,7.1736821548,1120
115609,196092,245480,2.7852455064000003,-5.968895975700001,7.1736821548,1121
114960,196006,245388,2.7852455064000003,-5.968895975700001,7.1736821548,1122
114031,195902,245347,2.7852455064000003,-5.968895975700001,7.1736821548,1123
113292,195866,245256,2.7852455064000003,-5.968895975700001,7.1736821548,1124
112946,195790,245195,2.7852455064000003,-5.968895975700001,7.1736821548,1125
112779,195791,245205,2.7852455064000003,-5.968895975700001,7.1736821548,1126
112778,195818,245206,2.7852455064000003,-5.968895975700001,7.1736821548,1127
112888,195759,245221,2.7852455064000003,-5.968895975700001,7.1736821548,1128
113046,195812,245208,2.7852455064000003,-5.968895975700001,7.1736821548,1129
113133,195783,245208,2.7852455064000003,-5.968895975700001,7.1736821548,1130
113167,195774,245230,2.7852455064000003,-5.968895975700001,7.1736821548,1131
113145,195780,245237,2.7852455064000003,-5.968895975700001,7.1736821548,1132
113175,195789,245221,2.7852455064000003,-5.968895975700001,7.1736821548,1133
113244,195764,245207,2.7852455064000003,-5.968895975700001,7.1736821548,1134
113392,195810,245265,2.7852455064000003,-5.968895975700001,7.1736821548,1135
113552,195792,245216,2.7852455064000003,-5.968895975700001,7.1736821548,1136
113777,195831,245230,2.7852455064000003,-5.968895975700001,7.1736821548,1137
113955,195813,245241,2.7852455064000003,-5.968895975700001,7.1736821548,1138
114182,195857,245253,2.7852455064000003,-5.968895975700001,7.1736821548,1139
114592,195873,245215,2.7852455064000003,-6.0813586379,7.082754896,1140
114835,195928,245275,2.7852455064000003,-6.0813586379,7.082754896,1141
115017,195905,245315,2.7852455064000003,-6.0813586379,7.082754896,1142
115195,195940,245325,2.7852455064000003,-6.0813586379,7.082754896,1143
115238,195954,245305,2.7852455064000003,-6.0813586379,7.082754896,1144
114807,195901,245278,2.7852455064000003,-6.0813586379,7.082754896,1145
113973,195805,245221,2.7852455064000003,-6.0813586379,7.082754896,1146
113251,195729,245140,2.7852455064000003,-6.0813586379,7.082754896,1147
112835,195729,245123,2.7852455064000003,-6.0813586379,7.082754896,1148
112680,195718,245111,2.7852455064000003,-6.0813586379,7.082754896,1149
112702,195694,245093,2.7852455064000003,-6.0813586379,7.082754896,1150
112821,195707,245121,2.7852455064000003,-6.0813586379,7.082754896,1151
113000,195737,245152,2.7852455064000003,-6.0813586379,7.082754896,1152
113167,195778,245124,2.7852455064000003,-6.0813586379,7.082754896,1153
113231,195750,245164,2.7852455064000003,-6.0813586379,7.082754896,1154
113244,195751,245192,2.7852455064000003,-6.0813586379,7.082754896,1155
113285,195758,245197,2.7852455064000003,-6.0813586379,7.082754896,1156
113412,195794,245184,2.7852455064000003,-6.0813586379,7.082754896,1157
113558,195815,245233,2.7852455064000003,-6.0813586379,7.082754896,1158
113756,195831,245253,2.7852455064000003,-6.0813586379,7.082754896,1159
113972,195874,245271,2.7852455064000003,-6.0813586379,7.082754896,1160
114196,195869,245284,2.7852455064000003,-6.0813586379,7.082754896,1161
114421,195949,245341,2.7852455064000003,-6.0813586379,7.082754896,1162
114667,195947,245354,2.7852455064000003,-6.0813586379,7.082754896,1163
114901,195971,245365,2.7852455064000003,-6.0813586379,7.082754896,1164
115131,195992,245399,2.7852455064000003,-6.0813586379,7.082754896,1165
115354,196015,245426,2.7852455064000003,-6.0813586379,7.082754896,1166
115598,196054,245391,2.7852455064000003,-6.0813586379,7.082754896,1167
115776,196039,245477,2.7852455064000003,-6.0813586379,7.082754896,1168
115726,196051,245442,2.7852455064000003,-6.0813586379,7.082754896,1169
115096,195930,245391,2.7852455064000003,-6.0813586379,7.082754896,1170
114148,195853,245287,2.7852455064000003,-6.0813586379,7.082754896,1171
113378,195792,245233,2.7852455064000003,-6.0813586379,7.082754896,1172
112957,195738,245257,2.7852455064000003,-6.0813586379,7.082754896,1173
112754,195770,245199,2.7852455064000003,-6.0813586379,7.082754896,1174
112696,195753,245192,2.7852455064000003,-6.0813586379,7.082754896,1175
112782,195748,245233,2.7852455064000003,-6.0813586379,7.082754896,1176
112944,195771,245216,2.7852455064000003,-6.0813586379,7.082754896,1177
113058,195794,245233,2.7852455064000003,-6.0813586379,7.082754896,1178
113112,195791,245221,2.7852455064000003,-6.0813586379,7.082754896,1179
113136,195749,245206,2.7852455064000003,-6.0813586379,7.082754896,1180
113153,195786,245239,2.7852455064000003,-6.0813586379,7.082754896,1181
115028,195926,245447,2.9431717980000003,-5.968895975700001,7.106683122,1182
115243,195986,245497,2.9431717980000003,-5.968895975700001,7.106683122,1183
115439,195997,245549,2.9431717980000003,-5.968895975700001,7.106683122,1184
115598,196007,245507,2.9431717980000003,-5.968895975700001,7.106683122,1185
115308,195928,245453,2.9431717980000003,-5.968895975700001,7.106683122,1186
114525,195824,245425,2.9431717980000003,-5.968895975700001,7.106683122,1187
113723,195752,245405,2.9431717980000003,-5.968895975700001,7.106683122,1188
113158,195731,245276,2.9431717980000003,-5.968895975700001,7.106683122,1189
112892,195685,245333,2.9431717980000003,-5.968895975700001,7.106683122,1190
112765,195693,245264,2.9431717980000003,-5.968895975700001,7.106683122,1191
112824,195679,245250,2.9431717980000003,-5.968895975700001,7.106683122,1192
112916,195720,245287,2.9431717980000003,-5.968895975700001,7.106683122,1193
113032,195684,245308,2.9431717980000003,-5.968895975700001,7.106683122,1194
113075,195712,245283,2.9431717980000003,-5.968895975700001,7.106683122,1195
113062,195664,245314,2.9431717980000003,-5.968895975700001,7.106683122,1196
113050,195685,245296,2.9431717980000003,-5.968895975700001,7.106683122,1197
113066,195679,245280,2.9431717980000003,-5.968895975700001,7.106683122,1198
113169,195671,245284,2.9431717980000003,-5.968895975700001,7.106683122,1199
113284,195677,245264,2.9431717980000003,-5.968895975700001,7.106683122,1200
113483,195720,245281,2.9431717980000003,-5.968895975700001,7.106683122,1201
113654,195722,245309,2.9431717980000003,-5.968895975700001,7.106683122,1202
113857,195736,245315,2.9431717980000003,-5.968895975700001,7.106683122,1203
114077,195758,245315,2.9431717980000003,-5.968895975700001,7.106683122,1204
114291,195786,245359,2.9431717980000003,-5.968895975700001,7.106683122,1205
114502,195836,245414,2.9431717980000003,-5.968895975700001,7.106683122,1206
114701,195864,245458,2.9431717980000003,-5.968895975700001,7.106683122,1207
114885,195861,245449,2.9431717980000003,-5.968895975700001,7.106683122,1208
115063,195883,245453,2.9431717980000003,-5.968895975700001,7.106683122,1209
114965,195841,245440,2.9431717980000003,-5.968895975700001,7.106683122,1210
114339,195758,245408,2.9431717980000003,-5.968895975700001,7.106683122,1211
113512,195703,245310,2.9431717980000003,-5.968895975700001,7.106683122,1212
112895,195617,245300,2.9431717980000003,-5.968895975700001,7.106683122,1213
112557,195619,245266,2.9431717980000003,-5.968895975700001,7.106683122,1214
112460,195677,245262,2.9431717980000003,-5.968895975700001,7.106683122,1215
112490,195672,245281,2.9431717980000003,-5.968895975700001,7.106683122,1216
112631,195647,245273,2.9431717980000003,-5.968895975700001,7.106683122,1217
112842,195668,245319,2.9431717980000003,-5.968895975700001,7.106683122,1218
112917,195713,245290,2.9431717980000003,-5.968895975700001,7.106683122,1219
112955,195685,245310,2.9431717980000003,-5.968895975700001,7.106683122,1220
112968,195684,245308,2.9431717980000003,-5.968895975700001,7.106683122,1221
113031,195732,245259,2.9431717980000003,-5.968895975700001,7.106683122,1222
113155,195683,245351,2.9431717980000003,-5.968895975700001,7.106683122,1223
114765,195884,245404,2.8378876036,-6.053841177999999,7.1114687672,1224
114994,195919,245446,2.8378876036,-6.053841177999999,7.1114687672,1225
115205,195957,245475,2.8378876036,-6.053841177999999,7.1114687672,1226
115438,195957,245424,2.8378876036,-6.053841177999999,7.1114687672,1227
115641,196015,245495,2.8378876036,-6.053841177999999,7.1114687672,1228
115601,196010,245512,2.8378876036,-6.053841177999999,7.1114687672,1229
115013,195902,245410,2.8378876036,-6.053841177999999,7.1114687672,1230
114121,195845,245394,2.8378876036,-6.053841177999999,7.1114687672,1231
113346,195760,245291,2.8378876036,-6.053841177999999,7.1114687672,1232
112922,195721,245319,2.8378876036,-6.053841177999999,7.1114687672,1233
112685,195703,245238,2.8378876036,-6.053841177999999,7.1114687672,1234
112596,195705,245204,2.8378876036,-6.053841177999999,7.1114687672,1235
112694,195695,245257,2.8378876036,-6.053841177999999,7.1114687672,1236
112819,195717,245261,2.8378876036,-6.053841177999999,7.1114687672,1237
112939,195737,245313,2.8378876036,-6.053841177999999,7.1114687672,1238
112986,195742,245280,2.8378876036,-6.053841177999999,7.1114687672,1239
113002,195739,245269,2.8378876036,-6.053841177999999,7.1114687672,1240
113010,195735,245276,2.8378876036,-6.053841177999999,7.1114687672,1241
113074,195712,245293,2.8378876036,-6.053841177999999,7.1114687672,1242
113206,195756,245263,2.8378876036,-6.053841177999999,7.1114687672,1243
113386,195765,245289,2.8378876036,-6.053841177999999,7.1114687672,1244
113576,195820,245346,2.8378876036,-6.053841177999999,7.1114687672,1245
113825,195778,245368,2.8378876036,-6.053841177999999,7.1114687672,1246
114021,195851,245369,2.8378876036,-6.053841177999999,7.1114687672,1247
114244,195844,245345,2.8378876036,-6.053841177999999,7.1114687672,1248
114449,195907,245411,2.8378876036,-6.053841177999999,7.1114687672,1249
114653,195871,245460,2.8378876036,-6.053841177999999,7.1114687672,1250
114864,195929,245443,2.8378876036,-6.053841177999999,7.1114687672,1251
115073,195974,245515,2.8378876036,-6.053841177999999,7.1114687672,1252
115262,195977,245442,2.8378876036,-6.053841177999999,7.1114687672,1253
115398,195925,245479,2.8378876036,-6.053841177999999,7.1114687672,1254
115278,195951,245447,2.8378876036,-6.053841177999999,7.1114687672,1255
114605,195831,245373,2.8378876036,-6.053841177999999,7.1114687672,1256
113785,195730,245268,2.8378876036,-6.053841177999999,7.1114687672,1257
113145,195678,245282,2.8378876036,-6.053841177999999,7.1114687672,1258
112821,195679,245188,2.8378876036,-6.053841177999999,7.1114687672,1259
112663,195658,245193,2.8378876036,-6.053841177999999,7.1114687672,1260
112693,195658,245176,2.8378876036,-6.053841177999999,7.1114687672,1261
112812,195641,245225,2.8378876036,-6.053841177999999,7.1114687672,1262
112939,195673,245256,2.8378876036,-6.053841177999999,7.1114687672,1263
112995,195681,245216,2.8378876036,-6.053841177999999,7.1114687672,1264
113004,195636,245223,2.8378876036,-6.053841177999999,7.1114687672,1265
114659,195777,245305,2.9324040963,-6.0729837587999995,7.106683122,1266
113974,195670,245318,2.9324040963,-6.0729837587999995,7.106683122,1267
113475,195612,245255,2.9324040963,-6.0729837587999995,7.106683122,1268
113278,195623,245241,2.9324040963,-6.0729837587999995,7.106683122,1269
113214,195669,245208,2.9324040963,-6.0729837587999995,7.106683122,1270
113286,195672,245255,2.9324040963,-6.0729837587999995,7.106683122,1271
113431,195690,245267,2.9324040963,-6.0729837587999995,7.106683122,1272
113568,195695,245287,2.9324040963,-6.0729837587999995,7.106683122,1273
113605,195699,245303,2.9324040963,-6.0729837587999995,7.106683122,1274
113609,195699,245281,2.9324040963,-6.0729837587999995,7.106683122,1275
113643,195697,245357,2.9324040963,-6.0729837587999995,7.106683122,1276
113765,195731,245366,2.9324040963,-6.0729837587999995,7.106683122,1277
113887,195717,245347,2.9324040963,-6.0729837587999995,7.106683122,1278
114086,195758,245350,2.9324040963,-6.0729837587999995,7.106683122,1279
114274,195763,245446,2.9324040963,-6.0729837587999995,7.106683122,1280
114476,195833,245419,2.9324040963,-6.0729837587999995,7.106683122,1281
114689,195845,245442,2.9324040963,-6.0729837587999995,7.106683122,1282
114909,195871,245483,2.9324040963,-6.0729837587999995,7.106683122,1283
115088,195882,245484,2.9324040963,-6.0729837587999995,7.106683122,1284
115214,195881,245457,2.9324040963,-6.0729837587999995,7.106683122,1285
114865,195795,245431,2.9324040963,-6.0729837587999995,7.106683122,1286
114062,195757,245380,2.9324040963,-6.0729837587999995,7.106683122,1287
113376,195678,245278,2.9324040963,-6.0729837587999995,7.106683122,1288
112959,195654,245302,2.9324040963,-6.0729837587999995,7.106683122,1289
112721,195625,245284,2.9324040963,-6.0729837587999995,7.106683122,1290
112654,195605,245283,2.9324040963,-6.0729837587999995,7.106683122,1291
112718,195655,245230,2.9324040963,-6.0729837587999995,7.106683122,1292
112871,195666,245316,2.9324040963,-6.0729837587999995,7.106683122,1293
113003,195668,245349,2.9324040963,-6.0729837587999995,7.106683122,1294
113066,195709,245355,2.9324040963,-6.0729837587999995,7.106683122,1295
113102,195676,245317,2.9324040963,-6.0729837587999995,7.106683122,1296
113162,195697,245311,2.9324040963,-6.0729837587999995,7.106683122,1297
113237,195705,245320,2.9324040963,-6.0729837587999995,7.106683122,1298
113397,195688,245340,2.9324040963,-6.0729837587999995,7.106683122,1299
113600,195776,245349,2.9324040963,-6.0729837587999995,7.106683122,1300
113789,195773,245358,2.9324040963,-6.0729837587999995,7.106683122,1301
114030,195801,245412,2.9324040963,-6.0729837587999995,7.106683122,1302
114252,195806,245415,2.9324040963,-6.0729837587999995,7.106683122,1303
114470,195833,245461,2.9324040963,-6.0729837587999995,7.106683122,1304
114697,195864,245438,2.9324040963,-6.0729837587999995,7.106683122,1305
114884,195877,245471,2.9324040963,-6.0729837587999995,7.106683122,1306
115079,195895,245477,2.9324040963,-6.0729837587999995,7.106683122,1307
113798,195753,245371,2.8618158296000002,-5.9928242016999995,7.1593252192,1308
113992,195796,245407,2.8618158296000002,-5.9928242016999995,7.1593252192,1309
114209,195834,245415,2.8618158296000002,-5.9928242016999995,7.1593252192,1310
114411,195855,245417,2.8618158296000002,-5.9928242016999995,7.1593252192,1311
114642,195881,245455,2.8618158296000002,-5.9928242016999995,7.1593252192,1312
114864,195932,245465,2.8618158296000002,-5.9928242016999995,7.1593252192,1313
115085,195925,245538,2.8618158296000002,-5.9928242016999995,7.1593252192,1314
115276,195968,245480,2.8618158296000002,-5.9928242016999995,7.1593252192,1315
115233,195941,245500,2.8618158296000002,-5.9928242016999995,7.1593252192,1316
114694,195861,245405,2.8618158296000002,-5.9928242016999995,7.1593252192,1317
113831,195728,245351,2.8618158296000002,-5.9928242016999995,7.1593252192,1318
113153,195706,245315,2.8618158296000002,-5.9928242016999995,7.1593252192,1319
112726,195654,245288,2.8618158296000002,-5.9928242016999995,7.1593252192,1320
112534,195668,245273,2.8618158296000002,-5.9928242016999995,7.1593252192,1321
112486,195680,245323,2.8618158296000002,-5.9928242016999995,7.1593252192,1322
112538,195680,245318,2.8618158296000002,-5.9928242016999995,7.1593252192,1323
112732,195671,245348,2.8618158296000002,-5.9928242016999995,7.1593252192,1324
112827,195730,245322,2.8618158296000002,-5.9928242016999995,7.1593252192,1325
112885,195729,245340,2.8618158296000002,-5.9928242016999995,7.1593252192,1326
112901,195712,245334,2.7708885708000004,-5.9916277904,7.0971118315999995,1327
112953,195720,245300,2.7708885708000004,-5.9916277904,7.0971118315999995,1328
113081,195732,245314,2.7708885708000004,-5.9916277904,7.0971118315999995,1329
113227,195737,245318,2.7708885708000004,-5.9916277904,7.0971118315999995,1330
113436,195756,245352,2.7708885708000004,-5.9916277904,7.0971118315999995,1331
113647,195788,245370,2.7708885708000004,-5.9916277904,7.0971118315999995,1332
113906,195815,245390,2.7708885708000004,-5.9916277904,7.0971118315999995,1333
114124,195855,245420,2.7708885708000004,-5.9916277904,7.0971118315999995,1334
114354,195860,245433,2.7708885708000004,-5.9916277904,7.0971118315999995,1335
114589,195883,245457,2.7708885708000004,-5.9916277904,7.0971118315999995,1336
114824,195941,245381,2.7708885708000004,-5.9916277904,7.0971118315999995,1337
115044,195955,245442,2.7708885708000004,-5.9916277904,7.0971118315999995,1338
115291,196011,245519,2.7708885708000004,-5.9916277904,7.0971118315999995,1339
115434,196002,245516,2.7708885708000004,-5.9916277904,7.0971118315999995,1340
115297,195999,245466,2.7708885708000004,-5.9916277904,7.0971118315999995,1341
114592,195870,245409,2.7708885708000004,-5.9916277904,7.0971118315999995,1342
113676,195771,245292,2.7708885708000004,-5.9916277904,7.0971118315999995,1343
113023,195755,245314,2.7708885708000004,-5.9916277904,7.0971118315999995,1344
112668,195691,245320,2.7708885708000004,-5.9916277904,7.0971118315999995,1345
112487,195661,245249,2.7708885708000004,-5.9916277904,7.0971118315999995,1346
112479,195702,245240,2.7708885708000004,-5.9916277904,7.0971118315999995,1347
112600,195702,245255,2.7708885708000004,-5.9916277904,7.0971118315999995,1348
112755,195722,245283,2.7708885708000004,-5.9916277904,7.0971118315999995,1349
112871,195728,245270,2.7708885708000004,-5.9916277904,7.0971118315999995,1350
112899,195717,245306,2.7708885708000004,-5.9916277904,7.0971118315999995,1351
112918,195722,245299,2.7708885708000004,-5.9916277904,7.0971118315999995,1352
112975,195770,245322,2.7708885708000004,-5.9916277904,7.0971118315999995,1353
113085,195743,245288,2.7708885708000004,-5.9916277904,7.0971118315999995,1354
113248,195749,245339,2.7708885708000004,-5.9916277904,7.0971118315999995,1355
113457,195793,245308,2.7708885708000004,-5.9916277904,7.0971118315999995,1356
113701,195834,245299,2.7708885708000004,-5.9916277904,7.0971118315999995,1357
113933,195845,245340,2.7708885708000004,-5.9916277904,7.0971118315999995,1358
114185,195820,245398,2.7708885708000004,-5.9916277904,7.0971118315999995,1359
114406,195854,245384,2.7708885708000004,-5.9916277904,7.0971118315999995,1360
114661,195893,245379,2.7708885708000004,-5.9916277904,7.0971118315999995,1361
114912,195977,245434,2.7708885708000004,-5.9916277904,7.0971118315999995,1362
115142,195967,245448,2.7708885708000004,-5.9916277904,7.0971118315999995,1363
115372,196019,245501,2.7708885708000004,-5.9916277904,7.0971118315999995,1364
115614,196062,245517,2.7708885708000004,-5.9916277904,7.0971118315999995,1365
115798,196064,245517,2.7708885708000004,-5.9916277904,7.0971118315999995,1366
115833,196026,245535,2.7708885708000004,-5.9916277904,7.0971118315999995,1367
115318,195954,245513,2.7708885708000004,-5.9916277904,7.0971118315999995,1368
113164,195751,245318,2.7661029256000003,-6.029912952,7.158128807899999,1369
113276,195792,245324,2.7661029256000003,-6.029912952,7.158128807899999,1370
113375,195794,245354,2.7661029256000003,-6.029912952,7.158128807899999,1371
113415,195767,245384,2.7661029256000003,-6.029912952,7.158128807899999,1372
113418,195740,245345,2.7661029256000003,-6.029912952,7.158128807899999,1373
113458,195771,245345,2.7661029256000003,-6.029912952,7.158128807899999,1374
113505,195797,245348,2.7661029256000003,-6.029912952,7.158128807899999,1375
113648,195781,245357,2.7661029256000003,-6.029912952,7.158128807899999,1376
113791,195810,245392,2.7661029256000003,-6.029912952,7.158128807899999,1377
114016,195837,245412,2.7661029256000003,-6.029912952,7.158128807899999,1378
114230,195827,245370,2.7661029256000003,-6.029912952,7.158128807899999,1379
114420,195891,245414,2.7661029256000003,-6.029912952,7.158128807899999,1380
114620,195893,245439,2.7661029256000003,-6.029912952,7.158128807899999,1381
114824,195889,245479,2.7661029256000003,-6.029912952,7.158128807899999,1382
115034,195911,245438,2.7661029256000003,-6.029912952,7.158128807899999,1383
115209,195915,245486,2.7661029256000003,-6.029912952,7.158128807899999,1384
115407,195932,245476,2.7661029256000003,-6.029912952,7.158128807899999,1385
115570,195942,245493,2.7661029256000003,-6.029912952,7.158128807899999,1386
115533,195976,245499,2.7661029256000003,-6.029912952,7.158128807899999,1387
115068,195850,245454,2.7661029256000003,-6.029912952,7.158128807899999,1388
114267,195809,245333,2.7661029256000003,-6.029912952,7.158128807899999,1389
113656,195730,245319,2.7661029256000003,-6.029912952,7.158128807899999,1390
113300,195735,245287,2.7661029256000003,-6.029912952,7.158128807899999,1391
113189,195711,245252,2.7661029256000003,-6.029912952,7.158128807899999,1392
113211,195746,245302,2.7661029256000003,-6.029912952,7.158128807899999,1393
113373,195727,245324,2.7661029256000003,-6.029912952,7.158128807899999,1394
113554,195737,245326,2.7661029256000003,-6.029912952,7.158128807899999,1395
113645,195787,245327,2.7661029256000003,-6.029912952,7.158128807899999,1396
113685,195768,245352,2.7661029256000003,-6.029912952,7.158128807899999,1397
113715,195776,245374,2.7661029256000003,-6.029912952,7.158128807899999,1398
113777,195796,245355,2.7661029256000003,-6.029912952,7.158128807899999,1399
113904,195841,245390,2.7661029256000003,-6.029912952,7.158128807899999,1400
114049,195811,245410,2.7661029256000003,-6.029912952,7.158128807899999,1401
114246,195854,245433,2.7661029256000003,-6.029912952,7.158128807899999,1402
114470,195905,245436,2.7661029256000003,-6.029912952,7.158128807899999,1403
114686,195915,245488,2.7661029256000003,-6.029912952,7.158128807899999,1404
114921,195956,245536,2.7661029256000003,-6.029912952,7.158128807899999,1405
115149,195978,245515,2.7661029256000003,-6.029912952,7.158128807899999,1406
115367,196018,245603,2.7661029256000003,-6.029912952,7.158128807899999,1407
115594,196024,245589,2.7661029256000003,-6.029912952,7.158128807899999,1408
115684,195998,245534,2.7661029256000003,-6.029912952,7.158128807899999,1409
115312,195968,245553,2.7661029256000003,-6.029912952,7.158128807899999,1410
113323,195772,245342,2.8630122409,-5.983252911299999,7.154539573999999,1411
112795,195711,245222,2.8630122409,-5.983252911299999,7.154539573999999,1412
112531,195710,245280,2.8630122409,-5.983252911299999,7.154539573999999,1413
112482,195720,245304,2.8630122409,-5.983252911299999,7.154539573999999,1414
112526,195718,245253,2.8630122409,-5.983252911299999,7.154539573999999,1415
112688,195713,245326,2.8630122409,-5.983252911299999,7.154539573999999,1416
112840,195724,245295,2.8630122409,-5.983252911299999,7.154539573999999,1417
112925,195733,245319,2.8630122409,-5.983252911299999,7.154539573999999,1418
112924,195720,245304,2.8630122409,-5.983252911299999,7.154539573999999,1419
112972,195716,245306,2.8630122409,-5.983252911299999,7.154539573999999,1420
113025,195703,245310,2.8630122409,-5.983252911299999,7.154539573999999,1421
113171,195703,245334,2.8630122409,-5.983252911299999,7.154539573999999,1422
113364,195733,245318,2.8630122409,-5.983252911299999,7.154539573999999,1423
113585,195782,245356,2.8630122409,-5.983252911299999,7.154539573999999,1424
113827,195797,245359,2.8630122409,-5.983252911299999,7.154539573999999,1425
114055,195859,245356,2.8630122409,-5.983252911299999,7.154539573999999,1426
114283,195867,245428,2.8630122409,-5.983252911299999,7.154539573999999,1427
114502,195894,245398,2.8630122409,-5.983252911299999,7.154539573999999,1428
114735,195889,245407,2.8630122409,-5.983252911299999,7.154539573999999,1429
114933,195927,245452,2.8630122409,-5.983252911299999,7.154539573999999,1430
115145,195948,245517,2.8630122409,-5.983252911299999,7.154539573999999,1431
115338,195979,245526,2.8630122409,-5.983252911299999,7.154539573999999,1432
115461,195983,245502,2.8630122409,-5.983252911299999,7.154539573999999,1433
115189,195919,245477,2.8630122409,-5.983252911299999,7.154539573999999,1434
114440,195827,245400,2.8630122409,-5.983252911299999,7.154539573999999,1435
113646,195736,245313,2.8630122409,-5.983252911299999,7.154539573999999,1436
113125,195714,245328,2.8630122409,-5.983252911299999,7.154539573999999,1437
112853,195706,245254,2.8630122409,-5.983252911299999,7.154539573999999,1438
112748,195684,245232,2.8630122409,-5.983252911299999,7.154539573999999,1439
112813,195689,245281,2.8630122409,-5.983252911299999,7.154539573999999,1440
112955,195694,245291,2.8630122409,-5.983252911299999,7.154539573999999,1441
113045,195740,245256,2.8630122409,-5.983252911299999,7.154539573999999,1442
113079,195684,245269,2.8630122409,-5.983252911299999,7.154539573999999,1443
113052,195693,245334,2.8630122409,-5.983252911299999,7.154539573999999,1444
113039,195662,245293,2.8630122409,-5.983252911299999,7.154539573999999,1445
113110,195726,245323,2.8630122409,-5.983252911299999,7.154539573999999,1446
113229,195740,245310,2.8630122409,-5.983252911299999,7.154539573999999,1447
113395,195755,245324,2.8630122409,-5.983252911299999,7.154539573999999,1448
113606,195764,245365,2.8630122409,-5.983252911299999,7.154539573999999,1449
113826,195767,245326,2.8630122409,-5.983252911299999,7.154539573999999,1450
114059,195836,245424,2.8630122409,-5.983252911299999,7.154539573999999,1451
114277,195861,245472,2.8630122409,-5.983252911299999,7.154539573999999,1452
113691,195715,245405,2.9001009912,-6.0011990808,7.1784678,1453
113916,195745,245455,2.9001009912,-6.0011990808,7.1784678,1454
114077,195776,245438,2.9001009912,-6.0011990808,7.1784678,1455
114277,195784,245449,2.9001009912,-6.0011990808,7.1784678,1456
114420,195785,245472,2.9001009912,-6.0011990808,7.1784678,1457
114323,195771,245407,2.9001009912,-6.0011990808,7.1784678,1458
113739,195696,245366,2.9001009912,-6.0011990808,7.1784678,1459
112958,195629,245307,2.9001009912,-6.0011990808,7.1784678,1460
112439,195551,245273,2.9001009912,-6.0011990808,7.1784678,1461
112171,195571,245239,2.9001009912,-6.0011990808,7.1784678,1462
112113,195581,245290,2.9001009912,-6.0011990808,7.1784678,1463
112230,195555,245304,2.9001009912,-6.0011990808,7.1784678,1464
112413,195625,245354,2.9001009912,-6.0011990808,7.1784678,1465
112615,195626,245352,2.9001009912,-6.0011990808,7.1784678,1466
112668,195591,245347,2.9001009912,-6.0011990808,7.1784678,1467
112702,195637,245384,2.9001009912,-6.0011990808,7.1784678,1468
112770,195655,245365,2.9001009912,-6.0011990808,7.1784678,1469
112872,195670,245400,2.9001009912,-6.0011990808,7.1784678,1470
113039,195661,245407,2.9001009912,-6.0011990808,7.1784678,1471
113249,195734,245413,2.9001009912,-6.0011990808,7.1784678,1472
113442,195736,245474,2.9001009912,-6.0011990808,7.1784678,1473
113679,195759,245448,2.9001009912,-6.0011990808,7.1784678,1474
113902,195781,245524,2.9001009912,-6.0011990808,7.1784678,1475
114132,195768,245500,2.9001009912,-6.0011990808,7.1784678,1476
114156,195791,245528,2.9001009912,-6.0011990808,7.1784678,1477
113679,195693,245464,2.9001009912,-6.0011990808,7.1784678,1478
112830,195600,245375,2.9001009912,-6.0011990808,7.1784678,1479
112164,195538,245320,2.9001009912,-6.0011990808,7.1784678,1480
111790,195539,245315,2.9001009912,-6.0011990808,7.1784678,1481
111603,195509,245267,2.9001009912,-6.0011990808,7.1784678,1482
111567,195528,245273,2.9001009912,-6.0011990808,7.1784678,1483
111693,195529,245295,2.9001009912,-6.0011990808,7.1784678,1484
111869,195592,245346,2.9001009912,-6.0011990808,7.1784678,1485
112041,195609,245316,2.9001009912,-6.0011990808,7.1784678,1486
112133,195615,245367,2.9001009912,-6.0011990808,7.1784678,1487
112185,195605,245348,2.9001009912,-6.0011990808,7.1784678,1488
112276,195592,245328,2.9001009912,-6.0011990808,7.1784678,1489
112397,195642,245384,2.9001009912,-6.0011990808,7.1784678,1490
112592,195651,245391,2.9001009912,-6.0011990808,7.1784678,1491
112813,195713,245399,2.9001009912,-6.0011990808,7.1784678,1492
113074,195706,245446,2.9001009912,-6.0011990808,7.1784678,1493
113331,195763,245448,2.9001009912,-6.0011990808,7.1784678,1494
112942,195693,245408,2.7960132080999998,-5.983252911299999,7.2107709050999995,1495
112934,195663,245393,2.7960132080999998,-5.983252911299999,7.2107709050999995,1496
112962,195752,245371,2.7960132080999998,-5.983252911299999,7.2107709050999995,1497
113029,195668,245405,2.7960132080999998,-5.983252911299999,7.2107709050999995,1498
113155,195761,245393,2.7960132080999998,-5.983252911299999,7.2107709050999995,1499
113327,195756,245434,2.7960132080999998,-5.983252911299999,7.2107709050999995,1500
113526,195754,245495,2.7960132080999998,-5.983252911299999,7.2107709050999995,1501
113781,195773,245394,2.7960132080999998,-5.983252911299999,7.2107709050999995,1502
113997,195821,245473,2.7960132080999998,-5.983252911299999,7.2107709050999995,1503
114200,195830,245444,2.7960132080999998,-5.983252911299999,7.2107709050999995,1504
114464,195881,245523,2.7960132080999998,-5.983252911299999,7.2107709050999995,1505
114662,195900,245502,2.7960132080999998,-5.983252911299999,7.2107709050999995,1506
114894,195975,245551,2.7960132080999998,-5.983252911299999,7.2107709050999995,1507
115123,195958,245583,2.7960132080999998,-5.983252911299999,7.2107709050999995,1508
115319,196008,245570,2.7960132080999998,-5.983252911299999,7.2107709050999995,1509
115524,196037,245606,2.7960132080999998,-5.983252911299999,7.2107709050999995,1510
115642,196040,245653,2.7960132080999998,-5.983252911299999,7.2107709050999995,1511
115354,195989,245545,2.7960132080999998,-5.983252911299999,7.2107709050999995,1512
114494,195868,245497,2.7960132080999998,-5.983252911299999,7.2107709050999995,1513
113579,195781,245402,2.7960132080999998,-5.983252911299999,7.2107709050999995,1514
112934,195756,245352,2.7960132080999998,-5.983252911299999,7.2107709050999995,1515
112573,195733,245352,2.7960132080999998,-5.983252911299999,7.2107709050999995,1516
112387,195689,245323,2.7960132080999998,-5.983252911299999,7.2107709050999995,1517
112385,195740,245357,2.7960132080999998,-5.983252911299999,7.2107709050999995,1518
112486,195739,245387,2.7960132080999998,-5.983252911299999,7.2107709050999995,1519
112644,195714,245341,2.7960132080999998,-5.983252911299999,7.2107709050999995,1520
112719,195748,245379,2.7960132080999998,-5.983252911299999,7.2107709050999995,1521
112748,195748,245378,2.9048866364,-6.0394842424,7.1736821548,1522
112758,195710,245355,2.9048866364,-6.0394842424,7.1736821548,1523
112814,195752,245373,2.9048866364,-6.0394842424,7.1736821548,1524
112957,195763,245375,2.9048866364,-6.0394842424,7.1736821548,1525
113145,195805,245386,2.9048866364,-6.0394842424,7.1736821548,1526
113358,195783,245407,2.9048866364,-6.0394842424,7.1736821548,1527
113602,195823,245422,2.9048866364,-6.0394842424,7.1736821548,1528
113843,195847,245487,2.9048866364,-6.0394842424,7.1736821548,1529
114091,195844,245475,2.9048866364,-6.0394842424,7.1736821548,1530
114332,195894,245471,2.9048866364,-6.0394842424,7.1736821548,1531
114593,195951,245493,2.9048866364,-6.0394842424,7.1736821548,1532
114825,195978,245521,2.9048866364,-6.0394842424,7.1736821548,1533
115070,196012,245525,2.9048866364,-6.0394842424,7.1736821548,1534
115290,196017,245539,2.9048866364,-6.0394842424,7.1736821548,1535
115449,196028,245570,2.9048866364,-6.0394842424,7.1736821548,1536
115258,195976,245592,2.9048866364,-6.0394842424,7.1736821548,1537
114487,195877,245516,2.9048866364,-6.0394842424,7.1736821548,1538
113589,195800,245420,2.9048866364,-6.0394842424,7.1736821548,1539
112962,195731,245370,2.9048866364,-6.0394842424,7.1736821548,1540
112641,195717,245321,2.9048866364,-6.0394842424,7.1736821548,1541
112520,195727,245367,2.9048866364,-6.0394842424,7.1736821548,1542
112562,195789,245349,2.9048866364,-6.0394842424,7.1736821548,1543
112730,195768,245343,2.9048866364,-6.0394842424,7.1736821548,1544
112915,195782,245366,2.9048866364,-6.0394842424,7.1736821548,1545
113054,195771,245391,2.9048866364,-6.0394842424,7.1736821548,1546
113104,195794,245378,2.9048866364,-6.0394842424,7.1736821548,1547
113168,195750,245403,2.9048866364,-6.0394842424,7.1736821548,1548
113234,195805,245448,2.9048866364,-6.0394842424,7.1736821548,1549
113375,195795,245354,2.9048866364,-6.0394842424,7.1736821548,1550
113572,195843,245396,2.9048866364,-6.0394842424,7.1736821548,1551
113780,195847,245420,2.9048866364,-6.0394842424,7.1736821548,1552
114017,195862,245414,2.9048866364,-6.0394842424,7.1736821548,1553
114290,195904,245446,2.9048866364,-6.0394842424,7.1736821548,1554
114501,195940,245505,2.9048866364,-6.0394842424,7.1736821548,1555
114752,195943,245508,2.9048866364,-6.0394842424,7.1736821548,1556
114985,195965,245523,2.9048866364,-6.0394842424,7.1736821548,1557
115240,196040,245591,2.9048866364,-6.0394842424,7.1736821548,1558
115475,196033,245613,2.9048866364,-6.0394842424,7.1736821548,1559
115664,196095,245571,2.9048866364,-6.0394842424,7.1736821548,1560
115661,196059,245628,2.9048866364,-6.0394842424,7.1736821548,1561
115211,195960,245511,2.9048866364,-6.0394842424,7.1736821548,1562
