green,red,IR,acc_x,acc_y,acc_z,sample_index
74969,177864,233823,7.1820570339,-4.0462630166,5.359922623999999,1
74939,177863,233860,7.2933232848,-4.1347974528,5.2271209697000005,2
75059,177944,233821,7.2801627605000006,-3.9684962821,5.371886737,3
75204,178016,233849,7.3112694543000005,-4.092923057299999,5.3527441562,4
75253,178036,233950,7.319644333399999,-4.2221354777,5.2319066149,5
75313,178119,234035,7.2442704215000004,-4.0630127748,5.306084115499999,6
75508,178307,234119,7.2873412283,-3.9984065645999998,5.252245607000001,7
75855,178491,234241,7.3962146566,-3.996013742,5.288137946,8
76206,178663,234357,7.6163543358,-3.9948173307,5.1756752837999995,9
76531,178814,234447,7.447660342499999,-3.9984065645999998,5.1780681064,10
76825,178909,234473,7.6319076827,-3.984049629,5.1433721787,11
77067,179026,234520,7.668996433,-3.9038900719000003,5.1062834284,12
77249,179093,234573,7.65703232,-3.9589249917,4.9232324995,13
77417,179113,234625,7.622336392299999,-4.1048871703,5.1182475414,14
77563,179185,234643,7.5086773188,-3.9996029759000002,5.0488556860000005,15
77486,179155,234567,7.4751778024,-3.8536407972999998,5.0141597583,16
76762,178947,234485,7.5158557866,-4.019941968,5.0237310487,17
76078,178786,234433,7.556533770800001,-4.0486558392,4.9459643142,18
75878,178771,234412,7.4931239719,-4.1359938641000005,5.112265484900001,19
75907,178770,234412,7.441678286,-3.996013742,5.0201418148,20
75985,178824,234448,7.5637122386,-3.9553357578,5.041677218199999,21
76104,178826,234458,7.635496916599999,-3.9505501125999998,4.953142782,22
76349,178889,234489,7.561319416,-4.126422573699999,5.0763731459,23
76520,178949,234520,7.5780691741999995,-4.0342989036,5.0201418148,24
76547,178931,234524,7.457231632899999,-4.0606199522,5.070391089399999,25
76527,178945,234511,7.5230342544,-3.9744783386,5.0823552024,26
76615,178988,234529,7.5134629639999995,-4.0701912426,5.070391089399999,27
76720,179010,234550,7.4991060284,-4.055834307,5.1134618962,28
76882,179058,234567,7.5804619967999995,-3.996013742,5.096712138,29
77046,179099,234622,7.7706913935,-3.9888352742,5.070391089399999,30
77187,179132,234602,7.654639497399999,-3.9062828945,5.0979085493,31
77328,179174,234624,7.3878397775,-3.9302111204999997,5.0943193154,32
77468,179217,234710,7.6271220375,-4.0953158799,4.9722853628,33
77571,179281,234673,7.6151579245,-4.019941968,4.9363930238,34
77690,179272,234682,7.720442118899999,-4.0654055974,5.0979085493,35
77839,179335,234734,7.5206414318,-4.0103706776,5.1218367753,36
77962,179331,234747,7.4919275606,-4.0223347905999995,5.060819799,37
78081,179365,234693,7.4488567538,-3.8943187815,5.140979356100001,38
77947,179305,234664,7.542176835199999,-4.0175491454,5.0273202826,39
77111,179099,234520,7.4715885685,-4.115654872,5.0201418148,40
76382,178961,234450,7.6079794567,-4.0570307183,4.9938207662,41
76154,178907,234416,7.5924261098,-3.9996029759000002,5.058426976400001,42
76219,178922,234432,7.472784979799999,-3.9158541848999997,5.0344987504,43
76321,178955,234460,7.4871419154,-4.043870194,5.0201418148,44
76435,178953,234488,7.5828548194,-4.079762533,5.036891573,45
76697,179039,234571,7.6139615132000005,-3.9864424516000003,5.029713105200001,46
76879,179074,234561,7.5278198996,-3.9505501125999998,5.1158547188000005,47
76871,179093,234573,7.5038916736,-3.9349967657,5.0309095165,48
76847,179073,234542,7.584051230699999,-3.9804603951,5.0919264928,49
76899,179107,234530,7.4823562701999995,-4.064209186099999,5.1098726623,50
76998,179134,234599,7.5242306657,-3.9720855159999995,5.1421757674,51
77151,179166,234632,7.5804619967999995,-4.0031922098,5.0273202826,52
77324,179230,234591,7.6091758679999995,-3.9433716447999996,5.0392843956,53
77482,179256,234672,7.5230342544,-3.9637106368999997,5.0979085493,54
77617,179305,234684,7.762316514399999,-4.007977855,5.0799623797999995,55
77745,179247,234702,7.530212722199999,-4.031906081,4.9555356046000005,56
77853,179371,234697,7.495516794499999,-3.9984065645999998,5.087140847600001,57
77979,179401,234680,7.621139981,-4.0223347905999995,5.0165525809,58
78109,179461,234744,7.585247642000001,-4.113262049399999,5.032105927799999,59
78242,179465,234789,7.5780691741999995,-3.9972101532999997,5.0380879843,60
78362,179528,234753,7.584051230699999,-4.0606199522,5.0273202826,61
78512,179540,234710,7.555337359499999,-4.06779842,4.9998028226999995,62
78625,179546,234796,7.6486574409,-3.9349967657,5.0213382261,63
78745,179651,234789,7.5768727629,-3.9816568063999997,5.0548377425,64
78836,179624,234774,7.6187471584,-4.0965122912,5.0344987504,65
78963,179656,234830,7.6749784895,-4.1383866867,5.0093741131,66
79074,179711,234799,7.5816584081,-3.9134613623,5.0273202826,67
79214,179735,234788,7.6821569573,-4.0295132584,5.072783911999999,68
79280,179766,234818,7.495516794499999,-4.0223347905999995,4.9926243549,69
79376,179808,234830,7.6151579245,-4.0701912426,4.8801616927,70
79487,179818,234812,7.6115686905999995,-4.0354953148999995,5.1194439527,71
79374,179783,234786,7.5290163108999995,-3.9852460403000003,4.9914279436,72
78518,179548,234681,7.5804619967999995,-4.019941968,5.0380879843,73
77713,179412,234544,7.585247642000001,-4.0175491454,5.0955157266999995,74
77449,179376,234516,7.6869426025,-3.9194434188,5.0225346374,75
77525,179394,234580,7.5888368759,-3.9529429352,5.0464628634,76
77698,179425,234578,7.6008009889000006,-4.1312082188999995,4.9698925402,77
77863,179489,234605,7.7036923607,-4.064209186099999,5.010570524399999,78
78105,179561,234621,7.5756763516,-3.9984065645999998,5.085944436299999,79
78190,179562,234700,7.495516794499999,-3.9696926934,5.1014977832,80
78139,179531,234671,7.556533770800001,-4.0247276132000005,4.9495535481,81
78041,179530,234645,7.6019974002,-4.0821553556,5.0488556860000005,82
78043,179529,234643,7.5517481256,-4.079762533,5.0679982668,83
78121,179557,234638,7.4967132058,-3.8488551521,5.071587500700001,84
78230,179594,234653,7.53739119,-4.0295132584,5.124229597899999,85
78374,179664,234714,7.5924261098,-3.9565321691,5.070391089399999,86
78519,179720,234685,7.5696942951,-4.092923057299999,5.072783911999999,87
78611,179693,234688,7.5457660691,-3.9086757171,5.1062834284,88
78725,179721,234704,7.5003024396999995,-4.0546378957,5.0751767346,89
78832,179736,234686,7.6103722793,-3.9984065645999998,5.057230565099999,90
78887,179762,234730,7.6055866341,-4.007977855,4.9603212498,91
79003,179792,234701,7.6091758679999995,-4.0247276132000005,5.0799623797999995,92
79113,179823,234704,7.4691957459,-3.8225341035,4.9363930238,93
79208,179845,234718,7.568497883799999,-3.8967116041,5.1840501629,94
79132,179795,234695,7.6725856669,-3.876372612,5.156532702999999,95
78486,179651,234630,7.6139615132000005,-4.0869410008000004,5.041677218199999,96
77893,179530,234600,7.6163543358,-4.0606199522,5.137390122199999,97
77731,179506,234562,7.6414789731,-3.9996029759000002,4.9603212498,98
77820,179418,234573,7.6319076827,-3.9661034595,5.1098726623,99
77959,179546,234587,7.6917282476999995,-3.9349967657,4.9555356046000005,100
78162,179601,234594,7.446463931199999,-3.9397824109,5.1254260092,101
78357,179702,234644,7.570890706399999,-4.0857445895,5.132604477,102
78463,179686,234673,7.53739119,-4.019941968,5.0237310487,103
78386,179671,234608,7.556533770800001,-4.007977855,5.0536413312,104
78298,179646,234633,7.4907311493,-3.8668013215999997,5.0979085493,105
78292,179660,234641,7.4979096170999995,-4.055834307,5.140979356100001,106
78405,179714,234649,7.5122665527,-3.9278182979,5.1744788725,107
78546,179752,234688,7.525427077,-3.9062828945,5.044070040799999,108
78685,179784,234688,7.477570625,-3.9684962821,5.1625147595,109
78829,179816,234667,7.6845497799,-3.8907295476,5.0033920566,110
78931,179832,234739,7.5469624804,-4.06779842,5.041677218199999,111
79027,179875,234715,7.6343005053,-3.9672998708,5.036891573,112
79093,179914,234728,7.6091758679999995,-4.1144584607,5.058426976400001,113
79228,179919,234771,7.542176835199999,-3.9493537012999997,5.0799623797999995,114
79310,179962,234750,7.53739119,-3.9433716447999996,5.1457650013,115
79204,179911,234660,7.53739119,-4.0414773714,5.0799623797999995,116
78433,179797,234624,7.4632136894,-4.019941968,5.0668018555,117
77810,179642,234541,7.651050263499999,-3.9804603951,5.0165525809,118
77578,179588,234540,7.5242306657,-4.0905302347,5.0033920566,119
77595,179595,234604,7.5134629639999995,-4.0582271296000005,5.0488556860000005,120
77678,179645,234587,7.6175507471,-4.0414773714,4.9962135888,121
77803,179661,234612,7.5577301821,-3.9565321691,4.9328037898999995,122
77955,179700,234685,7.4237321165,-4.0869410008000004,5.0536413312,123
78086,179738,234634,7.624729214899999,-4.007977855,4.965106895,124
78107,179728,234656,7.5792655855,-4.001995798499999,5.026123871299999,125
78030,179725,234639,7.6630143765,-3.9996029759000002,5.0823552024,126
78035,179740,234641,7.418946471299999,-4.0259240245,5.1864429855,127
78115,179766,234654,7.5625158273,-3.9864424516000003,5.057230565099999,128
78240,179783,234665,7.53739119,-4.0163527341,4.9028935074,129
78384,179862,234661,7.65703232,-4.0055850324,4.9495535481,130
78541,179853,234664,7.5098737301,-4.0091742663,4.961517661099999,131
78622,179871,234715,7.5182486092000005,-4.0893338234,5.1756752837999995,132
78731,179899,234689,7.5062844962,-4.1766718483,4.9866422984,133
78797,179946,234726,7.4584280442,-4.0606199522,5.0536413312,134
78916,179946,234674,7.721638530200001,-3.9864424516000003,4.8969114509,135
79020,180001,234715,7.573283529,-4.0127635002,5.0943193154,136
79089,180030,234765,7.561319416,-3.9302111204999997,5.060819799,137
79209,180040,234761,7.5326055448,-4.0725840652,5.0273202826,138
79298,180042,234769,7.4404818747,-4.113262049399999,5.071587500700001,139
79386,180067,234770,7.6307112714,-3.9756747499,5.044070040799999,140
79496,180090,234757,7.612765101899999,-4.0462630166,5.1050870171,141
79604,180141,234798,7.6187471584,-3.9421752335,5.099104960599999,142
79688,180167,234795,7.5086773188,-4.1012979364,5.000999234,143
79783,180186,234765,7.6749784895,-4.1503507997,5.0775695572,144
79882,180233,234786,7.561319416,-4.126422573699999,5.1170511301,145
79981,180239,234750,7.5038916736,-3.9469608787,4.9674997176,146
80067,180277,234770,7.4452675199,-4.258027816699999,4.9423750803,147
80167,180277,234762,7.572087117700001,-3.9864424516000003,5.058426976400001,148
80278,180317,234755,7.477570625,-3.9672998708,4.9974100001,149
79711,180162,234700,7.668996433,-4.0175491454,5.0476592747,150
78626,179930,234580,7.5876404646,-4.0618163635,4.9483571368,151
77881,179810,234526,7.639086150500001,-3.9984065645999998,5.044070040799999,152
77702,179768,234475,7.489534738000001,-4.103690759,5.1637111708,153
77718,179777,234509,7.5062844962,-4.0773697104,5.036891573,154
77823,179869,234521,7.4117680035,-3.9708891047,5.000999234,155
77899,179838,234537,7.5218378431,-4.2053857195,5.070391089399999,156
78072,179896,234574,7.6103722793,-4.0127635002,4.8466621763,157
78154,179912,234573,7.5601230047,-4.1192441059,5.0356951617,158
78064,179864,234534,7.6366933279,-3.9254254753,5.0464628634,159
77909,179862,234524,7.5242306657,-4.0869410008000004,5.169693227300001,160
77941,179856,234603,7.6701928443,-3.9445680561,5.1338008883,161
78012,179868,234539,7.5912296985,-4.0905302347,5.0919264928,162
78109,179929,234578,7.5361947787,-4.0845481781999995,5.0536413312,163
78232,179930,234573,7.555337359499999,-4.1611185014,4.9878387097,164
78366,179956,234550,7.5924261098,-4.0498522505,5.0596233877,165
78490,179979,234625,7.446463931199999,-3.9110685397,5.0500520973,166
78531,180024,234596,7.6654071991,-4.0965122912,5.02492746,167
78670,180013,234617,7.5278198996,-3.9924245080999996,5.156532702999999,168
78753,180047,234667,7.556533770800001,-4.0773697104,5.127818831799999,169
78855,180117,234658,7.4512495764,-4.007977855,5.0560341538,170
78928,180103,234654,7.5780691741999995,-4.1431723319,5.137390122199999,171
79008,180145,234694,7.6558359087,-4.0821553556,4.9507499594,172
79132,180141,234725,7.530212722199999,-3.9744783386,5.0512485086,173
79200,180178,234672,7.6654071991,-3.9804603951,5.1182475414,174
79307,180174,234661,7.6869426025,-4.1359938641000005,5.0691946781,175
79400,180213,234682,7.5661050612,-4.031906081,4.917250443,176
79490,180248,234650,7.5792655855,-3.8404802730000003,4.9674997176,177
79569,180264,234667,7.639086150500001,-4.0259240245,5.0177489922000005,178
79702,180273,234684,7.622336392299999,-3.984049629,5.0356951617,179
79697,180277,234709,7.4165536487,-4.0953158799,5.0153561695999995,180
79083,180132,234608,7.556533770800001,-4.0151563228,5.0392843956,181
78079,179885,234503,7.5900332872,-3.9565321691,5.0021956453,182
77491,179786,234401,7.651050263499999,-3.9613178143,5.0512485086,183
77405,179765,234397,7.4512495764,-4.043870194,5.0081777018,184
77495,179778,234420,7.6366933279,-3.9912280968,5.0931229041,185
77657,179836,234444,7.447660342499999,-3.8596228538,5.1649075821,186
77845,179891,234485,7.5804619967999995,-4.0342989036,5.0679982668,187
78073,179965,234548,7.441678286,-3.9278182979,5.0679982668,188
78098,179949,234520,7.441678286,-3.9278182979,5.0679982668,189
77979,179872,234439,7.441678286,-3.9278182979,5.0679982668,190
77821,179874,234456,7.441678286,-3.9278182979,5.0679982668,191
77783,179852,234455,7.441678286,-3.9278182979,5.0679982668,192
77856,179864,234462,7.441678286,-3.9278182979,5.0679982668,193
77984,179883,234503,7.441678286,-3.9278182979,5.0679982668,194
78105,179933,234518,7.441678286,-3.9278182979,5.0679982668,195
78232,179948,234524,7.441678286,-3.9278182979,5.0679982668,196
78351,179978,234521,7.441678286,-3.9278182979,5.0679982668,197
78446,180017,234554,7.441678286,-3.9278182979,5.0679982668,198
78523,180010,234499,7.441678286,-3.9278182979,5.0679982668,199
78580,179999,234562,7.441678286,-3.9278182979,5.0679982668,200
78654,180019,234576,7.441678286,-3.9278182979,5.0679982668,201
78740,180051,234547,7.441678286,-3.9278182979,5.0679982668,202
78770,180035,234550,7.441678286,-3.9278182979,5.0679982668,203
78239,179901,234474,7.441678286,-3.9278182979,5.0679982668,204
77374,179736,234380,7.441678286,-3.9278182979,5.0679982668,205
76923,179648,234317,7.441678286,-3.9278182979,5.0679982668,206
76890,179602,234353,7.441678286,-3.9278182979,5.0679982668,207
77040,179632,234339,7.441678286,-3.9278182979,5.0679982668,208
77228,179670,234353,7.441678286,-3.9278182979,5.0679982668,209
77485,179746,234404,7.441678286,-3.9278182979,5.0679982668,210
77701,179791,234476,7.441678286,-3.9278182979,5.0679982668,211
77713,179799,234435,7.441678286,-3.9278182979,5.0679982668,212
77555,179753,234365,7.441678286,-3.9278182979,5.0679982668,213
77420,179705,234377,7.441678286,-3.9278182979,5.0679982668,214
77422,179693,234380,7.441678286,-3.9278182979,5.0679982668,215
77504,179730,234431,7.441678286,-3.9278182979,5.0679982668,216
77637,179756,234456,7.441678286,-3.9278182979,5.0679982668,217
77779,179754,234433,7.441678286,-3.9278182979,5.0679982668,218
77908,179786,234465,7.441678286,-3.9278182979,5.0679982668,219
78006,179846,234511,7.441678286,-3.9278182979,5.0679982668,220
78087,179849,234481,7.441678286,-3.9278182979,5.0679982668,221
78193,179886,234497,7.441678286,-3.9278182979,5.0679982668,222
78263,179875,234493,7.441678286,-3.9278182979,5.0679982668,223
77856,179758,234418,7.441678286,-3.9278182979,5.0679982668,224
76925,179548,234323,7.441678286,-3.9278182979,5.0679982668,225
76310,179388,234280,7.441678286,-3.9278182979,5.0679982668,226
76186,179373,234250,7.6151579245,-4.1826539048,5.0787659685,227
76318,179388,234234,7.6151579245,-4.1826539048,5.0787659685,228
76469,179465,234295,7.6151579245,-4.1826539048,5.0787659685,229
76672,179490,234367,7.6151579245,-4.1826539048,5.0787659685,230
76929,179552,234415,7.6151579245,-4.1826539048,5.0787659685,231
77056,179563,234393,7.6151579245,-4.1826539048,5.0787659685,232
76969,179564,234411,7.6151579245,-4.1826539048,5.0787659685,233
76857,179543,234446,7.6151579245,-4.1826539048,5.0787659685,234
76872,179524,234379,7.6151579245,-4.1826539048,5.0787659685,235
76994,179571,234479,7.6151579245,-4.1826539048,5.0787659685,236
77131,179615,234480,7.6151579245,-4.1826539048,5.0787659685,237
77302,179653,234445,7.6151579245,-4.1826539048,5.0787659685,238
77441,179641,234484,7.6151579245,-4.1826539048,5.0787659685,239
77576,179673,234493,7.6151579245,-4.1826539048,5.0787659685,240
77694,179737,234510,7.6151579245,-4.1826539048,5.0787659685,241
77794,179766,234550,7.6151579245,-4.1826539048,5.0787659685,242
77897,179808,234508,7.6151579245,-4.1826539048,5.0787659685,243
77992,179805,234583,7.6151579245,-4.1826539048,5.0787659685,244
78109,179805,234565,7.6151579245,-4.1826539048,5.0787659685,245
77814,179762,234467,7.6151579245,-4.1826539048,5.0787659685,246
76774,179478,234421,7.6151579245,-4.1826539048,5.0787659685,247
76035,179320,234341,7.6151579245,-4.1826539048,5.0787659685,248
75883,179237,234272,7.6151579245,-4.1826539048,5.0787659685,249
75944,179265,234331,7.6151579245,-4.1826539048,5.0787659685,250
76070,179325,234359,7.6151579245,-4.1826539048,5.0787659685,251
76232,179330,234351,7.6151579245,-4.1826539048,5.0787659685,252
76457,179386,234380,7.6151579245,-4.1826539048,5.0787659685,253
76646,179440,234430,7.6151579245,-4.1826539048,5.0787659685,254
76667,179436,234419,7.6151579245,-4.1826539048,5.0787659685,255
76606,179410,234432,7.6151579245,-4.1826539048,5.0787659685,256
76611,179418,234408,7.6151579245,-4.1826539048,5.0787659685,257
76701,179430,234421,7.6151579245,-4.1826539048,5.0787659685,258
76874,179434,234478,7.6151579245,-4.1826539048,5.0787659685,259
76990,179503,234479,7.6151579245,-4.1826539048,5.0787659685,260
77187,179552,234515,7.6151579245,-4.1826539048,5.0787659685,261
77344,179591,234568,7.6151579245,-4.1826539048,5.0787659685,262
77491,179618,234523,7.6151579245,-4.1826539048,5.0787659685,263
77613,179651,234573,7.6151579245,-4.1826539048,5.0787659685,264
77761,179688,234596,7.6151579245,-4.1826539048,5.0787659685,265
77878,179744,234602,7.6151579245,-4.1826539048,5.0787659685,266
78012,179764,234607,7.6151579245,-4.1826539048,5.0787659685,267
78135,179784,234607,7.6151579245,-4.1826539048,5.0787659685,268
79498,180138,234549,7.4751778024,-4.0031922098,5.0679982668,269
79596,180100,234580,7.4751778024,-4.0031922098,5.0679982668,270
79677,180161,234600,7.4751778024,-4.0031922098,5.0679982668,271
79763,180162,234600,7.4751778024,-4.0031922098,5.0679982668,272
79862,180182,234623,7.4751778024,-4.0031922098,5.0679982668,273
79844,180193,234582,7.4751778024,-4.0031922098,5.0679982668,274
79262,179984,234460,7.4751778024,-4.0031922098,5.0679982668,275
78348,179795,234418,7.4751778024,-4.0031922098,5.0679982668,276
77767,179691,234304,7.4751778024,-4.0031922098,5.0679982668,277
77617,179670,234340,7.4751778024,-4.0031922098,5.0679982668,278
77608,179644,234357,7.4751778024,-4.0031922098,5.0679982668,279
77655,179712,234329,7.4751778024,-4.0031922098,5.0679982668,280
77792,179716,234389,7.4751778024,-4.0031922098,5.0679982668,281
77957,179764,234380,7.4751778024,-4.0031922098,5.0679982668,282
78003,179755,234383,7.4751778024,-4.0031922098,5.0679982668,283
77930,179748,234372,7.4751778024,-4.0031922098,5.0679982668,284
77817,179731,234372,7.4751778024,-4.0031922098,5.0679982668,285
77787,179743,234382,7.4751778024,-4.0031922098,5.0679982668,286
77854,179719,234390,7.4751778024,-4.0031922098,5.0679982668,287
77975,179751,234409,7.4751778024,-4.0031922098,5.0679982668,288
78094,179814,234444,7.4751778024,-4.0031922098,5.0679982668,289
78228,179813,234466,7.4751778024,-4.0031922098,5.0679982668,290
78330,179860,234466,7.4751778024,-4.0031922098,5.0679982668,291
78444,179877,234472,7.4751778024,-4.0031922098,5.0679982668,292
78537,179920,234479,7.4751778024,-4.0031922098,5.0679982668,293
78619,179914,234518,7.4751778024,-4.0031922098,5.0679982668,294
78737,179955,234516,7.4751778024,-4.0031922098,5.0679982668,295
78816,179970,234500,7.4751778024,-4.0031922098,5.0679982668,296
78914,179979,234535,7.4751778024,-4.0031922098,5.0679982668,297
78864,179962,234481,7.4751778024,-4.0031922098,5.0679982668,298
78142,179741,234353,7.4751778024,-4.0031922098,5.0679982668,299
77283,179583,234277,7.4751778024,-4.0031922098,5.0679982668,300
76884,179452,234248,7.4751778024,-4.0031922098,5.0679982668,301
76873,179493,234241,7.4751778024,-4.0031922098,5.0679982668,302
76942,179460,234267,7.4751778024,-4.0031922098,5.0679982668,303
77067,179517,234242,7.4751778024,-4.0031922098,5.0679982668,304
77279,179554,234307,7.4751778024,-4.0031922098,5.0679982668,305
77464,179612,234296,7.4751778024,-4.0031922098,5.0679982668,306
77455,179599,234278,7.4751778024,-4.0031922098,5.0679982668,307
77283,179543,234322,7.4751778024,-4.0031922098,5.0679982668,308
77211,179518,234289,7.4751778024,-4.0031922098,5.0679982668,309
77234,179535,234314,7.4751778024,-4.0031922098,5.0679982668,310
78019,179606,234441,7.6402825618,-3.8368910391,5.036891573,311
77347,179397,234349,7.6402825618,-3.8368910391,5.036891573,312
76585,179160,234192,7.6402825618,-3.8368910391,5.036891573,313
76252,179093,234229,7.6402825618,-3.8368910391,5.036891573,314
76309,179112,234239,7.6402825618,-3.8368910391,5.036891573,315
76443,179149,234255,7.6402825618,-3.8368910391,5.036891573,316
76609,179189,234316,7.6402825618,-3.8368910391,5.036891573,317
76815,179246,234315,7.6402825618,-3.8368910391,5.036891573,318
77026,179296,234375,7.6402825618,-3.8368910391,5.036891573,319
77030,179274,234374,7.6402825618,-3.8368910391,5.036891573,320
76943,179257,234415,7.6402825618,-3.8368910391,5.036891573,321
76929,179291,234360,7.6402825618,-3.8368910391,5.036891573,322
77011,179267,234357,7.6402825618,-3.8368910391,5.036891573,323
77130,179305,234410,7.6402825618,-3.8368910391,5.036891573,324
77290,179341,234419,7.6402825618,-3.8368910391,5.036891573,325
77438,179364,234433,7.6402825618,-3.8368910391,5.036891573,326
77599,179441,234486,7.6402825618,-3.8368910391,5.036891573,327
77728,179433,234505,7.6402825618,-3.8368910391,5.036891573,328
77850,179478,234526,7.6402825618,-3.8368910391,5.036891573,329
77954,179530,234532,7.6402825618,-3.8368910391,5.036891573,330
78075,179552,234551,7.6402825618,-3.8368910391,5.036891573,331
78167,179583,234537,7.6402825618,-3.8368910391,5.036891573,332
78282,179608,234545,7.6402825618,-3.8368910391,5.036891573,333
78367,179630,234568,7.6402825618,-3.8368910391,5.036891573,334
78497,179677,234564,7.6402825618,-3.8368910391,5.036891573,335
78630,179673,234597,7.6402825618,-3.8368910391,5.036891573,336
78506,179662,234588,7.6402825618,-3.8368910391,5.036891573,337
77663,179395,234437,7.6402825618,-3.8368910391,5.036891573,338
76723,179134,234337,7.6402825618,-3.8368910391,5.036891573,339
76377,179083,234295,7.6402825618,-3.8368910391,5.036891573,340
76382,179080,234351,7.6402825618,-3.8368910391,5.036891573,341
76515,179106,234345,7.6402825618,-3.8368910391,5.036891573,342
76626,179140,234372,7.6402825618,-3.8368910391,5.036891573,343
76782,179192,234400,7.6402825618,-3.8368910391,5.036891573,344
76998,179249,234461,7.6402825618,-3.8368910391,5.036891573,345
77035,179231,234456,7.6402825618,-3.8368910391,5.036891573,346
76967,179247,234476,7.6402825618,-3.8368910391,5.036891573,347
76947,179208,234456,7.6402825618,-3.8368910391,5.036891573,348
77000,179250,234545,7.6402825618,-3.8368910391,5.036891573,349
77108,179261,234480,7.6402825618,-3.8368910391,5.036891573,350
77264,179301,234557,7.6402825618,-3.8368910391,5.036891573,351
77416,179369,234549,7.6402825618,-3.8368910391,5.036891573,352
77595,179367,234595,7.668996433,-3.996013742,5.0081777018,353
77696,179402,234663,7.668996433,-3.996013742,5.0081777018,354
77645,179410,234654,7.668996433,-3.996013742,5.0081777018,355
77556,179368,234644,7.668996433,-3.996013742,5.0081777018,356
77547,179361,234632,7.668996433,-3.996013742,5.0081777018,357
77619,179378,234630,7.668996433,-3.996013742,5.0081777018,358
77683,179406,234623,7.668996433,-3.996013742,5.0081777018,359
77816,179454,234657,7.668996433,-3.996013742,5.0081777018,360
77945,179502,234681,7.668996433,-3.996013742,5.0081777018,361
78051,179518,234677,7.668996433,-3.996013742,5.0081777018,362
78137,179572,234749,7.668996433,-3.996013742,5.0081777018,363
78210,179582,234719,7.668996433,-3.996013742,5.0081777018,364
78323,179589,234744,7.668996433,-3.996013742,5.0081777018,365
78375,179596,234716,7.668996433,-3.996013742,5.0081777018,366
78485,179657,234731,7.668996433,-3.996013742,5.0081777018,367
78570,179649,234738,7.668996433,-3.996013742,5.0081777018,368
78304,179557,234703,7.668996433,-3.996013742,5.0081777018,369
77403,179331,234584,7.668996433,-3.996013742,5.0081777018,370
76681,179146,234523,7.668996433,-3.996013742,5.0081777018,371
76423,179095,234500,7.668996433,-3.996013742,5.0081777018,372
76409,179110,234515,7.668996433,-3.996013742,5.0081777018,373
76473,179106,234502,7.668996433,-3.996013742,5.0081777018,374
76560,179116,234545,7.668996433,-3.996013742,5.0081777018,375
76763,179173,234578,7.668996433,-3.996013742,5.0081777018,376
76876,179214,234591,7.668996433,-3.996013742,5.0081777018,377
76844,179194,234601,7.668996433,-3.996013742,5.0081777018,378
76749,179163,234570,7.668996433,-3.996013742,5.0081777018,379
76754,179168,234558,7.668996433,-3.996013742,5.0081777018,380
76834,179201,234616,7.668996433,-3.996013742,5.0081777018,381
76960,179224,234593,7.668996433,-3.996013742,5.0081777018,382
77099,179260,234657,7.668996433,-3.996013742,5.0081777018,383
77223,179329,234695,7.668996433,-3.996013742,5.0081777018,384
77357,179307,234665,7.668996433,-3.996013742,5.0081777018,385
77477,179361,234673,7.668996433,-3.996013742,5.0081777018,386
77569,179388,234707,7.668996433,-3.996013742,5.0081777018,387
77646,179438,234707,7.668996433,-3.996013742,5.0081777018,388
77766,179447,234700,7.668996433,-3.996013742,5.0081777018,389
77853,179474,234753,7.668996433,-3.996013742,5.0081777018,390
77972,179479,234766,7.668996433,-3.996013742,5.0081777018,391
78081,179541,234734,7.668996433,-3.996013742,5.0081777018,392
78198,179573,234785,7.668996433,-3.996013742,5.0081777018,393
78326,179604,234747,7.668996433,-3.996013742,5.0081777018,394
77800,179391,234634,7.5876404646,-3.9792639838,5.070391089399999,395
77893,179419,234667,7.5876404646,-3.9792639838,5.070391089399999,396
77982,179451,234683,7.5876404646,-3.9792639838,5.070391089399999,397
78070,179463,234630,7.5876404646,-3.9792639838,5.070391089399999,398
78140,179453,234654,7.5876404646,-3.9792639838,5.070391089399999,399
78206,179477,234691,7.5876404646,-3.9792639838,5.070391089399999,400
78299,179502,234699,7.5876404646,-3.9792639838,5.070391089399999,401
78406,179513,234690,7.5876404646,-3.9792639838,5.070391089399999,402
78495,179532,234683,7.5876404646,-3.9792639838,5.070391089399999,403
78593,179587,234690,7.5876404646,-3.9792639838,5.070391089399999,404
78354,179463,234662,7.5876404646,-3.9792639838,5.070391089399999,405
77565,179282,234587,7.5876404646,-3.9792639838,5.070391089399999,406
76928,179105,234441,7.5876404646,-3.9792639838,5.070391089399999,407
76746,179086,234448,7.5876404646,-3.9792639838,5.070391089399999,408
76832,179102,234495,7.5876404646,-3.9792639838,5.070391089399999,409
76929,179119,234506,7.5876404646,-3.9792639838,5.070391089399999,410
77141,179153,234531,7.5876404646,-3.9792639838,5.070391089399999,411
77381,179232,234543,7.5876404646,-3.9792639838,5.070391089399999,412
77403,179243,234567,7.5876404646,-3.9792639838,5.070391089399999,413
77259,179188,234555,7.5876404646,-3.9792639838,5.070391089399999,414
77139,179167,234568,7.5876404646,-3.9792639838,5.070391089399999,415
77112,179169,234551,7.5876404646,-3.9792639838,5.070391089399999,416
77198,179188,234549,7.5876404646,-3.9792639838,5.070391089399999,417
77313,179214,234548,7.5876404646,-3.9792639838,5.070391089399999,418
77427,179222,234564,7.5876404646,-3.9792639838,5.070391089399999,419
77557,179271,234608,7.5876404646,-3.9792639838,5.070391089399999,420
77657,179316,234584,7.5876404646,-3.9792639838,5.070391089399999,421
77733,179345,234604,7.5876404646,-3.9792639838,5.070391089399999,422
77786,179301,234633,7.5876404646,-3.9792639838,5.070391089399999,423
77836,179327,234594,7.5876404646,-3.9792639838,5.070391089399999,424
77918,179349,234640,7.5876404646,-3.9792639838,5.070391089399999,425
77959,179341,234627,7.5876404646,-3.9792639838,5.070391089399999,426
77547,179190,234575,7.5876404646,-3.9792639838,5.070391089399999,427
76642,178961,234458,7.5876404646,-3.9792639838,5.070391089399999,428
76003,178778,234381,7.5876404646,-3.9792639838,5.070391089399999,429
75847,178793,234377,7.5876404646,-3.9792639838,5.070391089399999,430
75914,178788,234418,7.5876404646,-3.9792639838,5.070391089399999,431
76048,178880,234454,7.5876404646,-3.9792639838,5.070391089399999,432
76206,178903,234501,7.5876404646,-3.9792639838,5.070391089399999,433
76432,179000,234570,7.5876404646,-3.9792639838,5.070391089399999,434
76545,179019,234604,7.5876404646,-3.9792639838,5.070391089399999,435
76502,179022,234540,7.5876404646,-3.9792639838,5.070391089399999,436
76886,178768,234616,7.7958160308,-4.0103706776,4.7665026192,437
77004,178781,234604,7.7958160308,-4.0103706776,4.7665026192,438
77146,178867,234624,7.7958160308,-4.0103706776,4.7665026192,439
77308,178891,234620,7.7958160308,-4.0103706776,4.7665026192,440
77439,178921,234668,7.7958160308,-4.0103706776,4.7665026192,441
77576,178967,234692,7.7958160308,-4.0103706776,4.7665026192,442
77710,178997,234702,7.7958160308,-4.0103706776,4.7665026192,443
77794,179012,234679,7.7958160308,-4.0103706776,4.7665026192,444
77898,179050,234742,7.7958160308,-4.0103706776,4.7665026192,445
77969,179076,234743,7.7958160308,-4.0103706776,4.7665026192,446
78090,179087,234753,7.7958160308,-4.0103706776,4.7665026192,447
78184,179117,234753,7.7958160308,-4.0103706776,4.7665026192,448
78290,179095,234767,7.7958160308,-4.0103706776,4.7665026192,449
78381,179163,234755,7.7958160308,-4.0103706776,4.7665026192,450
77918,178994,234662,7.7958160308,-4.0103706776,4.7665026192,451
76988,178735,234513,7.7958160308,-4.0103706776,4.7665026192,452
76432,178603,234474,7.7958160308,-4.0103706776,4.7665026192,453
76298,178548,234491,7.7958160308,-4.0103706776,4.7665026192,454
76379,178577,234520,7.7958160308,-4.0103706776,4.7665026192,455
76533,178638,234575,7.7958160308,-4.0103706776,4.7665026192,456
76729,178715,234604,7.7958160308,-4.0103706776,4.7665026192,457
76973,178769,234616,7.7958160308,-4.0103706776,4.7665026192,458
77050,178767,234641,7.7958160308,-4.0103706776,4.7665026192,459
76967,178743,234588,7.7958160308,-4.0103706776,4.7665026192,460
76845,178734,234627,7.7958160308,-4.0103706776,4.7665026192,461
76841,178712,234616,7.7958160308,-4.0103706776,4.7665026192,462
76943,178779,234607,7.7958160308,-4.0103706776,4.7665026192,463
77078,178822,234651,7.7958160308,-4.0103706776,4.7665026192,464
77218,178818,234708,7.7958160308,-4.0103706776,4.7665026192,465
77377,178859,234673,7.7958160308,-4.0103706776,4.7665026192,466
77494,178901,234715,7.7958160308,-4.0103706776,4.7665026192,467
77613,178928,234726,7.7958160308,-4.0103706776,4.7665026192,468
77725,178981,234744,7.7958160308,-4.0103706776,4.7665026192,469
77816,178992,234785,7.7958160308,-4.0103706776,4.7665026192,470
77902,178998,234801,7.7958160308,-4.0103706776,4.7665026192,471
78017,179050,234762,7.7958160308,-4.0103706776,4.7665026192,472
78119,179089,234800,7.7958160308,-4.0103706776,4.7665026192,473
77968,179035,234748,7.7958160308,-4.0103706776,4.7665026192,474
77110,178774,234622,7.7958160308,-4.0103706776,4.7665026192,475
76094,178409,234438,7.7958160308,-4.0103706776,4.7665026192,476
75482,178244,234301,7.7958160308,-4.0103706776,4.7665026192,477
75442,178238,234316,7.7958160308,-4.0103706776,4.7665026192,478
75903,178510,234791,7.5924261098,-3.996013742,4.8071806034,479
75763,178464,234775,7.5924261098,-3.996013742,4.8071806034,480
75773,178445,234739,7.5924261098,-3.996013742,4.8071806034,481
75854,178435,234742,7.5924261098,-3.996013742,4.8071806034,482
75844,178449,234750,7.5924261098,-3.996013742,4.8071806034,483
75781,178407,234748,7.5924261098,-3.996013742,4.8071806034,484
75779,178408,234731,7.5924261098,-3.996013742,4.8071806034,485
75867,178456,234756,7.5924261098,-3.996013742,4.8071806034,486
76017,178471,234771,7.5924261098,-3.996013742,4.8071806034,487
76169,178524,234827,7.5924261098,-3.996013742,4.8071806034,488
76338,178553,234797,7.5924261098,-3.996013742,4.8071806034,489
76515,178607,234840,7.5924261098,-3.996013742,4.8071806034,490
76633,178620,234844,7.5924261098,-3.996013742,4.8071806034,491
76743,178661,234905,7.5924261098,-3.996013742,4.8071806034,492
76668,178623,234840,7.5924261098,-3.996013742,4.8071806034,493
75850,178311,234692,7.5924261098,-3.996013742,4.8071806034,494
74832,178028,234505,7.5924261098,-3.996013742,4.8071806034,495
74422,177919,234452,7.5924261098,-3.996013742,4.8071806034,496
74352,177881,234439,7.5924261098,-3.996013742,4.8071806034,497
74416,177865,234495,7.5924261098,-3.996013742,4.8071806034,498
74547,177908,234488,7.5924261098,-3.996013742,4.8071806034,499
74806,177988,234529,7.5924261098,-3.996013742,4.8071806034,500
74951,178021,234575,7.5924261098,-3.996013742,4.8071806034,501
74875,177983,234544,7.5924261098,-3.996013742,4.8071806034,502
74770,177982,234543,7.5924261098,-3.996013742,4.8071806034,503
74832,178025,234591,7.5924261098,-3.996013742,4.8071806034,504
74997,178099,234653,7.5924261098,-3.996013742,4.8071806034,505
75169,178168,234638,7.5924261098,-3.996013742,4.8071806034,506
75336,178206,234648,7.5924261098,-3.996013742,4.8071806034,507
75503,178254,234685,7.5924261098,-3.996013742,4.8071806034,508
75644,178290,234705,7.5924261098,-3.996013742,4.8071806034,509
75796,178319,234738,7.5924261098,-3.996013742,4.8071806034,510
75889,178362,234697,7.5924261098,-3.996013742,4.8071806034,511
75806,178305,234700,7.6019974002,-3.9912280968,4.929214556,512
75028,178108,234680,7.6019974002,-3.9912280968,4.929214556,513
74350,177915,234541,7.6019974002,-3.9912280968,4.929214556,514
74209,177855,234506,7.6019974002,-3.9912280968,4.929214556,515
74291,177896,234581,7.6019974002,-3.9912280968,4.929214556,516
74409,177945,234584,7.6019974002,-3.9912280968,4.929214556,517
74592,177987,234622,7.6019974002,-3.9912280968,4.929214556,518
74865,178074,234666,7.6019974002,-3.9912280968,4.929214556,519
75053,178085,234695,7.6019974002,-3.9912280968,4.929214556,520
75094,178089,234695,7.6019974002,-3.9912280968,4.929214556,521
75097,178125,234694,7.6019974002,-3.9912280968,4.929214556,522
75155,178138,234705,7.6019974002,-3.9912280968,4.929214556,523
75299,178212,234744,7.6019974002,-3.9912280968,4.929214556,524
75471,178247,234779,7.6019974002,-3.9912280968,4.929214556,525
75660,178292,234788,7.6019974002,-3.9912280968,4.929214556,526
75801,178359,234794,7.6019974002,-3.9912280968,4.929214556,527
75983,178422,234797,7.6019974002,-3.9912280968,4.929214556,528
76133,178449,234884,7.6019974002,-3.9912280968,4.929214556,529
76278,178529,234864,7.6019974002,-3.9912280968,4.929214556,530
76436,178555,234887,7.6019974002,-3.9912280968,4.929214556,531
76591,178624,234915,7.6019974002,-3.9912280968,4.929214556,532
76750,178660,234906,7.6019974002,-3.9912280968,4.929214556,533
76920,178677,234924,7.6019974002,-3.9912280968,4.929214556,534
77073,178774,234961,7.6019974002,-3.9912280968,4.929214556,535
77232,178814,234973,7.6019974002,-3.9912280968,4.929214556,536
77365,178881,234973,7.6019974002,-3.9912280968,4.929214556,537
77535,178939,234996,7.6019974002,-3.9912280968,4.929214556,538
77712,178973,235030,7.6019974002,-3.9912280968,4.929214556,539
77867,179030,235046,7.6019974002,-3.9912280968,4.929214556,540
78026,179115,235053,7.6019974002,-3.9912280968,4.929214556,541
78192,179132,235069,7.6019974002,-3.9912280968,4.929214556,542
78344,179186,235084,7.6019974002,-3.9912280968,4.929214556,543
78509,179215,235119,7.6019974002,-3.9912280968,4.929214556,544
78654,179287,235072,7.6019974002,-3.9912280968,4.929214556,545
78810,179317,235144,7.6019974002,-3.9912280968,4.929214556,546
78978,179385,235117,7.6019974002,-3.9912280968,4.929214556,547
79127,179405,235109,7.6019974002,-3.9912280968,4.929214556,548
78944,179338,235127,7.6019974002,-3.9912280968,4.929214556,549
78045,179155,234972,7.6019974002,-3.9912280968,4.929214556,550
77388,179030,234922,7.6019974002,-3.9912280968,4.929214556,551
77280,179000,234886,7.6019974002,-3.9912280968,4.929214556,552
77392,179045,234941,7.6019974002,-3.9912280968,4.929214556,553
79266,179614,234943,7.645068207,-4.0761732991,4.9363930238,554
79270,179608,234927,7.645068207,-4.0761732991,4.9363930238,555
79327,179637,234958,7.645068207,-4.0761732991,4.9363930238,556
79407,179694,234975,7.645068207,-4.0761732991,4.9363930238,557
79541,179725,235017,7.645068207,-4.0761732991,4.9363930238,558
79657,179756,235039,7.645068207,-4.0761732991,4.9363930238,559
79772,179787,234985,7.645068207,-4.0761732991,4.9363930238,560
79849,179797,234966,7.645068207,-4.0761732991,4.9363930238,561
79957,179845,234994,7.645068207,-4.0761732991,4.9363930238,562
80036,179874,235000,7.645068207,-4.0761732991,4.9363930238,563
80106,179903,235018,7.645068207,-4.0761732991,4.9363930238,564
80211,179926,234997,7.645068207,-4.0761732991,4.9363930238,565
80315,179937,235045,7.645068207,-4.0761732991,4.9363930238,566
80406,179953,235059,7.645068207,-4.0761732991,4.9363930238,567
80377,179953,235070,7.645068207,-4.0761732991,4.9363930238,568
79911,179846,234994,7.645068207,-4.0761732991,4.9363930238,569
79367,179742,234897,7.645068207,-4.0761732991,4.9363930238,570
79136,179718,234924,7.645068207,-4.0761732991,4.9363930238,571
79150,179726,234950,7.645068207,-4.0761732991,4.9363930238,572
79187,179743,234900,7.645068207,-4.0761732991,4.9363930238,573
79238,179754,234901,7.645068207,-4.0761732991,4.9363930238,574
79373,179808,234958,7.645068207,-4.0761732991,4.9363930238,575
79488,179825,234932,7.645068207,-4.0761732991,4.9363930238,576
79478,179842,234945,7.645068207,-4.0761732991,4.9363930238,577
79424,179817,234953,7.645068207,-4.0761732991,4.9363930238,578
79416,179847,234956,7.645068207,-4.0761732991,4.9363930238,579
79448,179885,234977,7.645068207,-4.0761732991,4.9363930238,580
79540,179885,235006,7.645068207,-4.0761732991,4.9363930238,581
79656,179911,234996,7.645068207,-4.0761732991,4.9363930238,582
79747,179926,234969,7.645068207,-4.0761732991,4.9363930238,583
79837,179954,234986,7.645068207,-4.0761732991,4.9363930238,584
79910,179982,235042,7.645068207,-4.0761732991,4.9363930238,585
80006,179998,234953,7.645068207,-4.0761732991,4.9363930238,586
80072,180014,235007,7.7120672398000005,-4.0725840652,4.8861437492,587
80159,180042,235010,7.7120672398000005,-4.0725840652,4.8861437492,588
80246,180064,234996,7.7120672398000005,-4.0725840652,4.8861437492,589
80291,180082,235011,7.7120672398000005,-4.0725840652,4.8861437492,590
80379,180113,234993,7.7120672398000005,-4.0725840652,4.8861437492,591
80455,180143,235005,7.7120672398000005,-4.0725840652,4.8861437492,592
80542,180121,235014,7.7120672398000005,-4.0725840652,4.8861437492,593
80589,180164,235003,7.418946471299999,-4.0007993872,4.9076791526,594
80688,180183,235067,7.7001031268,-4.0701912426,4.8143590712,595
80762,180212,234999,7.7001031268,-4.0701912426,4.8143590712,596
80835,180253,235004,7.7001031268,-4.0701912426,4.8143590712,597
80903,180241,235018,7.7001031268,-4.0701912426,4.8143590712,598
80966,180269,235017,7.7001031268,-4.0701912426,4.8143590712,599
81063,180292,235010,7.7001031268,-4.0701912426,4.8143590712,600
81117,180312,235043,7.7001031268,-4.0701912426,4.8143590712,601
80998,180283,234976,7.7001031268,-4.0701912426,4.8143590712,602
80293,180097,234895,7.7001031268,-4.0701912426,4.8143590712,603
79635,179987,234832,7.7001031268,-4.0701912426,4.8143590712,604
79344,179923,234824,7.7001031268,-4.0701912426,4.8143590712,605
79322,179958,234829,7.7001031268,-4.0701912426,4.8143590712,606
79319,179967,234808,7.7001031268,-4.0701912426,4.8143590712,607
79344,179981,234817,7.7001031268,-4.0701912426,4.8143590712,608
79403,180018,234868,7.7001031268,-4.0701912426,4.8143590712,609
79469,180035,234870,7.7001031268,-4.0701912426,4.8143590712,610
79444,180026,234828,7.7001031268,-4.0701912426,4.8143590712,611
79311,180018,234848,7.7001031268,-4.0701912426,4.8143590712,612
79249,180012,234850,7.7001031268,-4.0701912426,4.8143590712,613
79229,179990,234827,7.7001031268,-4.0701912426,4.8143590712,614
79273,180028,234829,7.7001031268,-4.0701912426,4.8143590712,615
79329,180020,234854,7.7001031268,-4.0701912426,4.8143590712,616
79410,180050,234827,7.7001031268,-4.0701912426,4.8143590712,617
79465,180033,234838,7.7001031268,-4.0701912426,4.8143590712,618
79515,180052,234823,7.7001031268,-4.0701912426,4.8143590712,619
79563,180090,234842,7.7228349415,-4.1012979364,4.883750926599999,620
79585,180084,234819,7.7228349415,-4.1012979364,4.883750926599999,621
79642,180096,234820,7.7228349415,-4.1012979364,4.883750926599999,622
79683,180110,234810,7.7228349415,-4.1012979364,4.883750926599999,623
79741,180119,234809,7.7228349415,-4.1012979364,4.883750926599999,624
79767,180138,234857,7.7060851833,-4.019941968,4.9806602419,625
79840,180162,234819,7.633104094,-3.9924245080999996,4.9136612091,626
79864,180168,234799,7.6881390138,-4.115654872,4.9148576204,627
79912,180181,234836,7.6235328036,-4.1324046302,4.9316073786,628
79968,180194,234826,7.6618179652,-4.1563328562,4.9543391933,629
80022,180230,234807,7.7108708285,-4.0462630166,4.9543391933,630
80112,180214,234769,7.7539416353,-4.1240297511,4.8023949582,631
80143,180222,234792,7.5900332872,-4.0510486617999995,4.917250443,632
80057,180196,234767,7.6893354250999995,-4.1120656381,4.9076791526,633
79481,180087,234709,7.708478005899999,-3.9397824109,4.9734817741,634
78815,179943,234635,7.621139981,-4.0462630166,4.8131626599,635
78536,179901,234605,7.683353368600001,-4.0869410008000004,4.9124647978,636
78479,179911,234618,7.7300134093,-3.9481572899999997,4.8945186283,637
78559,179936,234584,7.6486574409,-4.1599220901,4.8406801198,638
78629,179965,234604,7.6845497799,-4.0043886211,4.8478585876,639
78782,179965,234650,7.7024959494,-3.9732819273,5.0691946781,640
78881,179977,234660,7.7455667562,-3.9182470075,4.8430729424,641
78813,179945,234640,7.6343005053,-4.0151563228,4.9028935074,642
78667,179990,234581,7.6761749007999995,-4.0342989036,4.8358944746,643
78550,179935,234580,7.6905318364,-3.9768711611999996,4.9100719752,644
78560,179925,234582,7.6965138929000005,-4.0247276132000005,4.9016970961,645
78590,179942,234564,7.5625158273,-4.0654055974,4.9256253221,646
78654,179969,234642,7.6343005053,-3.936193177,5.0165525809,647
78735,180024,234601,7.5349983674,-3.9302111204999997,4.917250443,648
78822,179979,234644,7.6749784895,-4.0127635002,4.7653062079,649
78858,179984,234615,7.7060851833,-3.9338003543999998,4.8717868136,650
78900,179995,234635,7.7060851833,-3.9338003543999998,4.8717868136,651
78921,179991,234592,7.7060851833,-3.9338003543999998,4.8717868136,652
78986,180023,234619,7.7443703449,-4.0366917262,4.8000021356,653
79047,180043,234672,7.6019974002,-4.0031922098,4.9136612091,654
79100,180065,234617,7.651050263499999,-3.9936209194,4.9698925402,655
79053,180033,234605,7.6905318364,-4.0821553556,4.941178669,656
78492,179921,234569,7.6462646183,-3.9326039431,4.8741796362,657
77815,179750,234563,7.5469624804,-3.9493537012999997,4.953142782,658
77479,179687,234502,7.530212722199999,-4.0295132584,4.9663033062999995,659
77440,179696,234486,7.5816584081,-3.8811582571999996,4.9100719752,660
77495,179713,234472,7.635496916599999,-4.0725840652,4.9854458871,661
77586,179813,234552,7.6474610296,-3.9732819273,4.9184468543,662
77743,179762,234543,7.6761749007999995,-3.9924245080999996,4.9220360882000005,663
77856,179823,234553,7.6187471584,-4.1455651545,4.8263231842,664
77826,179818,234577,7.556533770800001,-4.0893338234,4.8849473379,665
77642,179793,234545,7.721638530200001,-4.0773697104,4.8227339503,666
77667,179776,234544,7.5744799403,-4.126422573699999,4.8825545153,667
77699,179788,234585,7.6618179652,-3.9780675724999996,4.9076791526,668
77800,179788,234612,7.645068207,-3.9182470075,4.9627140724,669
77905,179816,234621,7.5756763516,-4.001995798499999,4.9316073786,670
78025,179829,234654,7.6139615132000005,-4.0462630166,4.8801616927,671
78109,179907,234612,7.539784012599999,-3.9553357578,4.8957150396,672
78208,179916,234687,7.683353368600001,-3.9565321691,4.8119662486,673
78268,179912,234661,7.7096744172000005,-4.019941968,4.8897329831,674
78314,179926,234664,7.6187471584,-4.0223347905999995,4.9340002012,675
78366,179947,234706,7.5768727629,-3.9852460403000003,4.7688954418,676
78442,179968,234666,7.7108708285,-4.1958144290999995,4.9435714916,677
78553,180003,234731,7.6522466748,-4.0390845488,4.9100719752,678
78568,179985,234704,7.720442118899999,-4.0031922098,4.9914279436,679
78221,179866,234691,7.735995465799999,-4.001995798499999,4.9340002012,680
77398,179689,234553,7.6857461912,-3.9912280968,4.8885365718,681
76798,179605,234557,7.65703232,-4.0247276132000005,4.8909293944,682
76651,179541,234517,7.7001031268,-4.1168512833,4.9818566531999995,683
76662,179553,234539,7.6163543358,-3.984049629,4.9076791526,684
76716,179551,234524,7.666603610399999,-4.0486558392,5.0309095165,685
76792,179615,234572,7.625925626199999,-3.9182470075,4.9136612091,686
76871,179625,234587,7.695317481599999,-3.9708891047,4.9363930238,687
77083,179635,234639,7.6857461912,-4.1168512833,4.893322217,688
77063,179645,234682,7.6043902228,-4.0510486617999995,4.883750926599999,689
77003,179637,234610,7.6522466748,-4.0821553556,4.8957150396,690
76991,179656,234698,7.645068207,-3.9804603951,4.9734817741,691
77060,179673,234660,7.5876404646,-4.0893338234,4.8909293944,692
77208,179687,234692,7.6498538522,-4.0582271296000005,4.8861437492,693
77280,179719,234695,7.777869861299999,-4.0486558392,4.90528633,694
77436,179740,234741,7.777869861299999,-4.0486558392,4.90528633,695
77535,179777,234740,7.777869861299999,-4.0486558392,4.90528633,696
77669,179773,234717,7.777869861299999,-4.0486558392,4.90528633,697
77758,179813,234768,7.777869861299999,-4.0486558392,4.90528633,698
77840,179815,234841,7.777869861299999,-4.0486558392,4.90528633,699
77949,179889,234794,7.777869861299999,-4.0486558392,4.90528633,700
78040,179883,234806,7.777869861299999,-4.0486558392,4.90528633,701
78146,179932,234828,7.777869861299999,-4.0486558392,4.90528633,702
78227,179936,234824,7.777869861299999,-4.0486558392,4.90528633,703
78381,179991,234825,7.777869861299999,-4.0486558392,4.90528633,704
78454,179994,234845,7.777869861299999,-4.0486558392,4.90528633,705
78571,180029,234815,7.777869861299999,-4.0486558392,4.90528633,706
78699,180056,234861,7.777869861299999,-4.0486558392,4.90528633,707
78804,180065,234875,7.777869861299999,-4.0486558392,4.90528633,708
78903,180107,234897,7.777869861299999,-4.0486558392,4.90528633,709
79015,180118,234883,7.777869861299999,-4.0486558392,4.90528633,710
79135,180152,234886,7.777869861299999,-4.0486558392,4.90528633,711
79062,180125,234857,7.777869861299999,-4.0486558392,4.90528633,712
78391,179970,234817,7.777869861299999,-4.0486558392,4.90528633,713
77773,179815,234760,7.777869861299999,-4.0486558392,4.90528633,714
77579,179809,234722,7.777869861299999,-4.0486558392,4.90528633,715
77625,179798,234694,7.777869861299999,-4.0486558392,4.90528633,716
77785,179849,234728,7.777869861299999,-4.0486558392,4.90528633,717
77934,179871,234773,7.777869861299999,-4.0486558392,4.90528633,718
78106,179896,234784,7.777869861299999,-4.0486558392,4.90528633,719
78298,179927,234756,7.777869861299999,-4.0486558392,4.90528633,720
78347,179948,234821,7.777869861299999,-4.0486558392,4.90528633,721
78299,179933,234782,7.777869861299999,-4.0486558392,4.90528633,722
78269,179945,234765,7.777869861299999,-4.0486558392,4.90528633,723
78340,179922,234824,7.777869861299999,-4.0486558392,4.90528633,724
78452,179965,234822,7.777869861299999,-4.0486558392,4.90528633,725
78592,180006,234823,7.777869861299999,-4.0486558392,4.90528633,726
78755,180006,234857,7.777869861299999,-4.0486558392,4.90528633,727
78884,180050,234831,7.777869861299999,-4.0486558392,4.90528633,728
79030,180092,234852,7.777869861299999,-4.0486558392,4.90528633,729
79118,180115,234839,7.777869861299999,-4.0486558392,4.90528633,730
79241,180130,234851,7.777869861299999,-4.0486558392,4.90528633,731
79337,180138,234870,7.777869861299999,-4.0486558392,4.90528633,732
79428,180158,234872,7.777869861299999,-4.0486558392,4.90528633,733
79524,180164,234889,7.777869861299999,-4.0486558392,4.90528633,734
79630,180235,234858,7.777869861299999,-4.0486558392,4.90528633,735
79290,180103,234797,7.637889739199999,-4.0247276132000005,4.9232324995,736
79422,180130,234790,7.637889739199999,-4.0247276132000005,4.9232324995,737
79412,180071,234768,7.637889739199999,-4.0247276132000005,4.9232324995,738
79334,180091,234776,7.637889739199999,-4.0247276132000005,4.9232324995,739
79258,180096,234755,7.637889739199999,-4.0247276132000005,4.9232324995,740
79285,180056,234786,7.637889739199999,-4.0247276132000005,4.9232324995,741
79358,180110,234737,7.637889739199999,-4.0247276132000005,4.9232324995,742
79452,180142,234756,7.637889739199999,-4.0247276132000005,4.9232324995,743
79557,180135,234781,7.637889739199999,-4.0247276132000005,4.9232324995,744
79679,180166,234788,7.637889739199999,-4.0247276132000005,4.9232324995,745
79764,180194,234813,7.637889739199999,-4.0247276132000005,4.9232324995,746
79853,180199,234830,7.637889739199999,-4.0247276132000005,4.9232324995,747
79927,180257,234829,7.637889739199999,-4.0247276132000005,4.9232324995,748
80010,180252,234842,7.637889739199999,-4.0247276132000005,4.9232324995,749
80075,180266,234853,7.637889739199999,-4.0247276132000005,4.9232324995,750
80157,180290,234838,7.637889739199999,-4.0247276132000005,4.9232324995,751
80083,180246,234817,7.637889739199999,-4.0247276132000005,4.9232324995,752
79534,180135,234709,7.637889739199999,-4.0247276132000005,4.9232324995,753
78876,179987,234648,7.637889739199999,-4.0247276132000005,4.9232324995,754
78524,179901,234630,7.637889739199999,-4.0247276132000005,4.9232324995,755
78430,179920,234643,7.637889739199999,-4.0247276132000005,4.9232324995,756
78454,179947,234669,7.637889739199999,-4.0247276132000005,4.9232324995,757
78489,179917,234652,7.637889739199999,-4.0247276132000005,4.9232324995,758
78581,179973,234656,7.637889739199999,-4.0247276132000005,4.9232324995,759
78681,179986,234731,7.637889739199999,-4.0247276132000005,4.9232324995,760
78708,179985,234679,7.637889739199999,-4.0247276132000005,4.9232324995,761
78598,179975,234665,7.637889739199999,-4.0247276132000005,4.9232324995,762
78547,179959,234695,7.637889739199999,-4.0247276132000005,4.9232324995,763
78561,179950,234688,7.637889739199999,-4.0247276132000005,4.9232324995,764
78603,179979,234712,7.637889739199999,-4.0247276132000005,4.9232324995,765
78701,179990,234695,7.637889739199999,-4.0247276132000005,4.9232324995,766
78787,180042,234744,7.637889739199999,-4.0247276132000005,4.9232324995,767
78872,180058,234721,7.637889739199999,-4.0247276132000005,4.9232324995,768
78959,180044,234699,7.637889739199999,-4.0247276132000005,4.9232324995,769
79051,180094,234708,7.637889739199999,-4.0247276132000005,4.9232324995,770
79102,180115,234708,7.637889739199999,-4.0247276132000005,4.9232324995,771
79185,180148,234778,7.637889739199999,-4.0247276132000005,4.9232324995,772
79248,180162,234753,7.637889739199999,-4.0247276132000005,4.9232324995,773
79326,180150,234740,7.637889739199999,-4.0247276132000005,4.9232324995,774
79386,180159,234737,7.637889739199999,-4.0247276132000005,4.9232324995,775
79007,180049,234692,7.637889739199999,-4.0247276132000005,4.9232324995,776
78218,179859,234635,7.637889739199999,-4.0247276132000005,4.9232324995,777
77591,179764,234613,7.6402825618,-3.9517465239000003,4.9244289108,778
77676,179784,234624,7.6402825618,-3.9517465239000003,4.9244289108,779
77812,179817,234615,7.6402825618,-3.9517465239000003,4.9244289108,780
77928,179849,234667,7.6402825618,-3.9517465239000003,4.9244289108,781
78028,179864,234678,7.6402825618,-3.9517465239000003,4.9244289108,782
78117,179893,234742,7.6402825618,-3.9517465239000003,4.9244289108,783
78185,179903,234673,7.6402825618,-3.9517465239000003,4.9244289108,784
78257,179911,234727,7.6402825618,-3.9517465239000003,4.9244289108,785
78315,179947,234705,7.6402825618,-3.9517465239000003,4.9244289108,786
78381,179918,234703,7.6402825618,-3.9517465239000003,4.9244289108,787
78452,179962,234683,7.6558359087,-3.9852460403000003,4.9232324995,788
78518,179983,234682,7.6558359087,-3.9852460403000003,4.9232324995,789
78615,180014,234709,7.637889739199999,-3.9984065645999998,4.9280181447,790
78697,180017,234694,7.633104094,-4.0701912426,4.9304109673,791
78783,180003,234714,7.6426753844,-4.1072799929,4.7557349175,792
78848,180066,234686,7.6426753844,-3.9278182979,4.9316073786,793
78534,179958,234685,7.6426753844,-3.9278182979,4.9316073786,794
77671,179754,234555,7.6426753844,-3.9278182979,4.9316073786,795
77058,179621,234465,7.6426753844,-3.9278182979,4.9316073786,796
76923,179544,234452,7.6426753844,-3.9278182979,4.9316073786,797
76975,179563,234451,7.6426753844,-3.9278182979,4.9316073786,798
77099,179591,234480,7.6426753844,-3.9278182979,4.9316073786,799
77234,179660,234543,7.6426753844,-3.9278182979,4.9316073786,800
77443,179688,234579,7.6426753844,-3.9278182979,4.9316073786,801
77516,179692,234562,7.6426753844,-3.9278182979,4.9316073786,802
77471,179652,234586,7.6426753844,-3.9278182979,4.9316073786,803
77316,179616,234537,7.6426753844,-3.9278182979,4.9316073786,804
77248,179601,234547,7.6426753844,-3.9278182979,4.9316073786,805
77299,179623,234599,7.6426753844,-3.9278182979,4.9316073786,806
77377,179627,234547,7.6426753844,-3.9278182979,4.9316073786,807
77504,179675,234559,7.6426753844,-3.9278182979,4.9316073786,808
77611,179691,234624,7.6426753844,-3.9278182979,4.9316073786,809
77735,179735,234619,7.6426753844,-3.9278182979,4.9316073786,810
77811,179745,234619,7.749155990099999,-4.055834307,4.9028935074,811
77892,179764,234660,7.749155990099999,-4.055834307,4.9028935074,812
77995,179802,234613,7.749155990099999,-4.055834307,4.9028935074,813
78068,179800,234680,7.749155990099999,-4.055834307,4.9028935074,814
78113,179847,234650,7.65703232,-3.9421752335,4.9005006848,815
78225,179867,234661,7.6773713121,-4.092923057299999,4.9028935074,816
78330,179904,234641,7.5637122386,-4.007977855,4.869393991,817
78398,179874,234658,7.7012995381,-3.8703905555,5.0057848792,818
78073,179804,234634,7.7132636511,-4.103690759,4.990231532299999,819
77204,179589,234531,7.6713892556,-4.0534414844,4.857429878,820
76561,179428,234443,7.5828548194,-4.001995798499999,4.9435714916,821
76382,179375,234467,7.7587272805,-4.0630127748,4.9184468543,822
76475,179381,234474,7.718049296299999,-4.0905302347,4.9136612091,823
76576,179407,234470,7.763512925700001,-4.0570307183,4.8981078622,824
76728,179445,234522,7.6965138929000005,-4.0630127748,4.9196432655999995,825
76917,179487,234522,7.716852885,-3.9744783386,4.9830530645,826
77049,179529,234514,7.622336392299999,-3.9948173307,4.8227339503,827
77048,179517,234571,7.5194450205,-4.0151563228,4.8897329831,828
76949,179497,234561,7.5326055448,-4.0522450731,4.850251410199999,829
76925,179492,234570,7.6965138929000005,-4.0055850324,4.8861437492,830
76996,179474,234573,7.6139615132000005,-3.9517465239000003,4.8681975797,831
77113,179529,234599,7.654639497399999,-4.0701912426,4.8598227006,832
77242,179571,234631,7.6019974002,-4.0462630166,4.9974100001,833
77398,179619,234628,7.5900332872,-4.091726646,4.9064827413000005,834
77529,179642,234644,7.7036923607,-4.1431723319,4.9016970961,835
77628,179665,234657,7.621139981,-3.9349967657,4.9220360882000005,836
77738,179664,234693,7.666603610399999,-4.0845481781999995,4.8885365718,837
77844,179694,234661,7.6283184488,-4.0283168471,4.9435714916,838
77930,179723,234712,7.6989067155,-3.9828532177,4.8430729424,839
78020,179734,234687,7.6187471584,-4.1551364449,4.9663033062999995,840
78112,179778,234685,7.6594251426,-4.1383866867,4.8023949582,841
78176,179784,234687,7.5792655855,-4.0630127748,4.8885365718,842
78311,179792,234741,7.5804619967999995,-3.8584264425,4.8646083458,843
78365,179818,234767,7.7300134093,-3.9541393465,4.8490549989,844
77946,179709,234652,7.6558359087,-4.0175491454,4.9351966125,845
76957,179435,234560,7.6151579245,-4.0582271296000005,4.8239303616,846
76346,179272,234468,7.6977103042,-4.0163527341,4.869393991,847
76202,179245,234467,7.7946196195,-3.996013742,4.9112683865,848
76299,179254,234428,7.6043902228,-3.9134613623,4.8215375389999995,849
76429,179292,234474,7.7587272805,-4.0211383793,4.8909293944,850
76585,179314,234568,7.65703232,-4.0414773714,4.7665026192,851
76782,179377,234548,7.6319076827,-4.0713876539,4.9148576204,852
76923,179404,234630,7.5529445369,-4.0534414844,4.8143590712,853
76895,179399,234604,7.7312098206,-3.9314075318,4.9399822577,854
76826,179380,234618,7.7994052647,-4.0366917262,4.8275195955,855
76793,179351,234596,7.6761749007999995,-4.0546378957,4.9304109673,856
76871,179374,234599,7.5804619967999995,-3.984049629,4.9507499594,857
76991,179353,234640,7.6091758679999995,-3.9661034595,4.8969114509,858
77133,179436,234620,7.570890706399999,-4.0893338234,4.8885365718,859
77285,179499,234661,7.561319416,-4.0654055974,4.9878387097,860
77424,179540,234695,7.6283184488,-4.091726646,4.8670011684,861
77565,179567,234742,7.7300134093,-4.1336010414999995,4.8753760475,862
77635,179561,234700,7.721638530200001,-4.0989051138,5.032105927799999,863
77749,179597,234722,7.5158557866,-4.0103706776,4.7413779819,864
77847,179618,234731,7.6462646183,-4.0414773714,5.045266452099999,865
77920,179630,234751,7.5589265934,-4.0366917262,4.8418765311,866
78014,179680,234696,7.6103722793,-3.9756747499,5.0033920566,867
78126,179668,234728,7.6163543358,-3.8859439023999998,4.8000021356,868
78233,179712,234778,7.6725856669,-4.0271204358,4.8311088294,869
78356,179721,234738,7.6019974002,-3.9349967657,4.9459643142,870
78410,179766,234755,7.6283184488,-4.0654055974,4.9016970961,871
78507,179785,234769,7.6163543358,-3.9445680561,4.8598227006,872
78067,179645,234704,7.7706913935,-4.007977855,4.8000021356,873
77152,179397,234561,7.6307112714,-4.0785661217,4.9136612091,874
76586,179267,234489,7.6893354250999995,-4.055834307,4.9591248385,875
76515,179254,234536,7.6019974002,-4.0247276132000005,4.917250443,876
76631,179292,234540,7.6283184488,-3.984049629,4.8311088294,877
76788,179306,234553,7.7108708285,-4.0223347905999995,4.8047877808,878
77000,179360,234571,7.585247642000001,-3.9349967657,4.9076791526,879
77256,179408,234651,7.65703232,-3.8751762007000004,4.9076791526,880
77379,179440,234633,7.763512925700001,-3.9338003543999998,4.8023949582,881
77327,179406,234652,7.737191877099999,-4.0701912426,4.9758745967,882
77197,179373,234637,7.6163543358,-4.1359938641000005,4.857429878,883
77175,179383,234608,7.6235328036,-3.9888352742,4.8670011684,884
77234,179457,234646,7.7539416353,-4.0342989036,4.9639104837,885
77370,179412,234640,7.6893354250999995,-4.06779842,4.878965281399999,886
77517,179462,234712,7.6474610296,-4.0354953148999995,4.9878387097,887
77677,179499,234655,7.6618179652,-4.1431723319,4.8670011684,888
77808,179579,234732,7.4979096170999995,-4.1012979364,4.9040899186999996,889
77854,179560,234719,7.6031938115,-4.0486558392,4.9220360882000005,890
78057,179598,234731,7.6426753844,-3.9936209194,4.9028935074,891
78162,179607,234757,7.7898339743,-3.9888352742,4.9507499594,892
78271,179657,234743,7.6522466748,-4.0067814437,4.9734817741,893
78359,179674,234712,7.5996045776,-4.007977855,4.9399822577,894
78452,179701,234763,7.7419775223,-4.0654055974,4.833501652,895
78570,179703,234723,7.5936225210999995,-4.091726646,4.9926243549,896
78573,179673,234720,7.7132636511,-3.8871403137,4.9244289108,897
77965,179490,234716,7.7144600624,-3.9984065645999998,4.881358104,898
77191,179294,234571,7.5637122386,-4.0594235409,4.8921258057,899
76851,179215,234529,7.6199435697,-3.9732819273,4.9363930238,900
76856,179246,234521,7.5876404646,-3.9026936606000002,4.8861437492,901
77001,179255,234618,7.737191877099999,-4.2006000743,4.8873401605,902
77178,179304,234580,7.6713892556,-4.0737804765,4.8430729424,903
77404,179360,234657,7.633104094,-3.9792639838,4.8466621763,904
77641,179432,234670,7.573283529,-4.0271204358,4.8430729424,905
77703,179466,234729,7.6869426025,-4.0725840652,4.833501652,906
77628,179385,234675,7.6582287313,-4.0857445895,4.9459643142,907
77564,179393,234698,7.704888771999999,-4.0271204358,4.9639104837,908
77620,179413,234683,7.7383882884,-4.1024943476999995,4.953142782,909
77736,179466,234735,7.597211754999999,-3.9972101532999997,4.8550370553999995,910
77864,179477,234733,7.737191877099999,-4.0031922098,4.9746781854,911
77934,179475,234739,7.5924261098,-4.1012979364,4.9639104837,912
78184,179575,234772,7.5122665527,-4.055834307,4.8885365718,913
78323,179594,234783,7.539784012599999,-4.079762533,4.929214556,914
78452,179652,234745,7.539784012599999,-4.0809589443,4.9830530645,915
78609,179632,234797,7.746763167499999,-4.0941194686,4.845465765,916
78685,179701,234808,7.6881390138,-3.9553357578,4.9340002012,917
78777,179701,234838,7.6785677234,-4.0402809601,4.926821733400001,918
78919,179753,234874,7.5661050612,-4.0259240245,4.9495535481,919
78987,179784,234856,7.6343005053,-4.1527436223,5.0524449199,920
78686,179672,234828,7.556533770800001,-3.9661034595,4.9435714916,921
77808,179426,234641,7.5385876013,-4.0510486617999995,4.8717868136,922
77204,179304,234620,7.6163543358,-4.0103706776,4.8957150396,923
77063,179250,234610,7.6462646183,-4.0342989036,4.8406801198,924
77106,179276,234648,7.5445696578,-3.9158541848999997,4.9435714916,925
77196,179302,234677,7.746763167499999,-3.9744783386,4.9710889515,926
77327,179344,234680,7.645068207,-4.103690759,4.809573426,927
77528,179368,234713,7.5900332872,-3.9541393465,4.8550370553999995,928
77686,179409,234754,7.6737820782,-3.984049629,4.8634119345,929
77690,179429,234742,7.733602643199999,-4.126422573699999,4.8957150396,930
77649,179424,234735,7.7156564737,-3.9948173307,4.883750926599999,931
77624,179382,234767,7.6115686905999995,-4.0163527341,4.8598227006,932
77695,179428,234764,7.65703232,-3.984049629,4.9471607255,933
77811,179526,234774,7.6785677234,-4.0366917262,4.965106895,934
78009,179501,234824,7.7551380466,-3.9720855159999995,4.9124647978,935
78114,179515,234816,7.708478005899999,-4.1144584607,4.9674997176,936
78251,179584,234842,7.6725856669,-4.0534414844,4.9160540317,937
78372,179607,234828,7.6522466748,-4.0618163635,4.7988057243,938
78483,179630,234855,7.6977103042,-4.091726646,4.8622155232,939
78591,179663,234852,7.6402825618,-3.9816568063999997,5.0165525809,940
78708,179712,234851,7.6905318364,-4.0785661217,4.850251410199999,941
78808,179689,234894,7.6989067155,-4.0462630166,4.8646083458,942
78898,179739,234905,7.8532437732,-3.9661034595,4.797609313,943
79000,179740,234896,7.5828548194,-3.9828532177,4.7928236678,944
79092,179810,234945,7.5780691741999995,-4.0510486617999995,4.953142782,945
79127,179788,234898,7.5948189324,-4.0701912426,4.899304273499999,946
78526,179613,234803,7.666603610399999,-3.9780675724999996,4.8562334667,947
77699,179374,234728,7.721638530200001,-4.0606199522,4.8777688701,948
77304,179313,234653,7.7060851833,-3.9014972492999997,4.8311088294,949
77249,179332,234700,7.737191877099999,-3.9014972492999997,4.8083770147,950
77325,179307,234708,7.6498538522,-3.9397824109,4.929214556,951
77454,179382,234697,7.8305119585,-4.0606199522,4.7724846757,952
77656,179408,234750,7.6139615132000005,-3.9302111204999997,4.8658047571,953
77839,179458,234765,7.8017980873,-4.1312082188999995,4.9220360882000005,954
77832,179446,234784,7.7060851833,-4.0366917262,4.8849473379,955
77763,179454,234771,7.645068207,-3.9816568063999997,4.8550370553999995,956
77641,179427,234738,7.572087117700001,-4.0893338234,4.8801616927,957
77639,179431,234758,7.5038916736,-4.079762533,4.9686961289000005,958
77704,179435,234813,7.6163543358,-4.0331024923,4.7760739096,959
77837,179393,234798,7.501498850999999,-4.1192441059,4.8203411277,960
77971,179500,234757,7.5158557866,-4.0007993872,4.8670011684,961
78106,179527,234840,7.621139981,-4.0354953148999995,4.845465765,962
78199,179601,234834,7.7036923607,-3.9541393465,4.8705904022999995,963
78279,179595,234823,7.752745224,-4.06779842,4.8741796362,964
78387,179616,234843,7.622336392299999,-4.043870194,4.9076791526,965
78468,179609,234868,7.683353368600001,-4.1575292675,4.9543391933,966
78505,179674,234835,7.740781111,-4.055834307,4.8370908858999995,967
78587,179650,234861,7.637889739199999,-4.0235312019,5.045266452099999,968
78697,179690,234798,7.7682985709,-3.924229064,4.893322217,969
78787,179692,234837,7.556533770800001,-3.9505501125999998,4.953142782,970
78495,179595,234803,7.6989067155,-4.1359938641000005,4.917250443,971
77632,179401,234720,7.6654071991,-4.007977855,4.9304109673,972
76965,179238,234608,7.6737820782,-4.126422573699999,4.90528633,973
76790,179201,234624,7.6654071991,-4.0510486617999995,4.8263231842,974
76839,179206,234616,7.573283529,-4.019941968,4.990231532299999,975
76952,179240,234667,7.720442118899999,-4.0235312019,4.8873401605,976
77133,179274,234672,7.708478005899999,-4.0510486617999995,4.9591248385,977
77358,179364,234737,7.6438717957,-4.1204405172000005,4.9148576204,978
77496,179393,234772,7.6283184488,-4.0067814437,4.8227339503,979
77439,179380,234755,7.556533770800001,-3.9720855159999995,4.8945186283,980
77341,179353,234752,7.584051230699999,-3.9326039431,4.8622155232,981
77294,179355,234731,7.6725856669,-3.9230326527000003,4.8801616927,982
77371,179355,234758,7.6594251426,-3.9421752335,4.9232324995,983
77495,179405,234775,7.6295148601000005,-4.0187455567,4.8358944746,984
77634,179442,234792,7.6642107878,-4.0103706776,4.8000021356,985
77773,179486,234821,7.6594251426,-4.1479579771,4.8622155232,986
77889,179498,234858,7.625925626199999,-3.9565321691,4.899304273499999,987
78024,179540,234849,7.7012995381,-3.9505501125999998,4.782055966100001,988
78124,179546,234857,7.6821569573,-4.0630127748,4.8406801198,989
78206,179577,234799,7.633104094,-4.1060835816,4.9830530645,990
78307,179606,234865,7.6941210703,-4.103690759,4.9543391933,991
78415,179689,234912,7.6283184488,-4.0342989036,4.8945186283,992
78519,179657,234909,7.728816998,-4.001995798499999,4.857429878,993
78607,179696,234888,7.5876404646,-4.0749768878,4.9698925402,994
78474,179614,234843,7.7970124421,-3.8967116041,4.8287160068,995
77605,179378,234707,7.7802626839,-4.0498522505,4.8382872972,996
76742,179174,234608,7.6175507471,-3.9266218866,4.9399822577,997
76348,179092,234579,7.6151579245,-4.1300118076,4.8406801198,998
76317,179102,234654,7.6283184488,-4.0067814437,4.8741796362,999
76297,179075,234691,7.5194450205,-3.9409788222,5.0237310487,1000
76484,179106,234624,7.6283184488,-4.0127635002,4.9076791526,1001
76659,179182,234684,7.6031938115,-3.9756747499,4.850251410199999,1002
76840,179181,234740,7.6031938115,-3.9756747499,4.850251410199999,1003
76928,179235,234758,7.6031938115,-3.9756747499,4.850251410199999,1004
76871,179196,234717,7.6031938115,-3.9756747499,4.850251410199999,1005
76789,179200,234734,7.6031938115,-3.9756747499,4.850251410199999,1006
76814,179214,234750,7.6031938115,-3.9756747499,4.850251410199999,1007
76893,179256,234799,7.6031938115,-3.9756747499,4.850251410199999,1008
77032,179246,234801,7.6031938115,-3.9756747499,4.850251410199999,1009
77186,179304,234847,7.6031938115,-3.9756747499,4.850251410199999,1010
77331,179368,234814,7.6031938115,-3.9756747499,4.850251410199999,1011
77477,179381,234840,7.6031938115,-3.9756747499,4.850251410199999,1012
77601,179404,234874,7.6031938115,-3.9756747499,4.850251410199999,1013
77708,179420,234893,7.6031938115,-3.9756747499,4.850251410199999,1014
77815,179449,234909,7.6031938115,-3.9756747499,4.850251410199999,1015
77912,179486,234878,7.6031938115,-3.9756747499,4.850251410199999,1016
78014,179492,234941,7.6031938115,-3.9756747499,4.850251410199999,1017
78119,179578,234951,7.6031938115,-3.9756747499,4.850251410199999,1018
78199,179558,234951,7.6031938115,-3.9756747499,4.850251410199999,1019
78287,179583,234931,7.6031938115,-3.9756747499,4.850251410199999,1020
78383,179614,234909,7.6031938115,-3.9756747499,4.850251410199999,1021
78481,179629,234940,7.692924659,-4.0510486617999995,4.8490549989,1022
78546,179636,234960,7.692924659,-4.0510486617999995,4.8490549989,1023
78673,179703,234958,7.692924659,-4.0510486617999995,4.8490549989,1024
78780,179723,234942,7.692924659,-4.0510486617999995,4.8490549989,1025
78647,179648,234954,7.692924659,-4.0510486617999995,4.8490549989,1026
77792,179429,234820,7.692924659,-4.0510486617999995,4.8490549989,1027
76857,179195,234730,7.692924659,-4.0510486617999995,4.8490549989,1028
76453,179101,234671,7.692924659,-4.0510486617999995,4.8490549989,1029
76428,179094,234657,7.692924659,-4.0510486617999995,4.8490549989,1030
76563,179127,234688,7.692924659,-4.0510486617999995,4.8490549989,1031
76746,179178,234754,7.692924659,-4.0510486617999995,4.8490549989,1032
76986,179258,234745,7.692924659,-4.0510486617999995,4.8490549989,1033
77204,179283,234798,7.692924659,-4.0510486617999995,4.8490549989,1034
77217,179283,234791,7.692924659,-4.0510486617999995,4.8490549989,1035
77067,179206,234770,7.692924659,-4.0510486617999995,4.8490549989,1036
76923,179210,234743,7.692924659,-4.0510486617999995,4.8490549989,1037
76899,179202,234763,7.692924659,-4.0510486617999995,4.8490549989,1038
76973,179200,234745,7.692924659,-4.0510486617999995,4.8490549989,1039
77087,179273,234812,7.692924659,-4.0510486617999995,4.8490549989,1040
77218,179287,234832,7.692924659,-4.0510486617999995,4.8490549989,1041
77340,179297,234847,7.692924659,-4.0510486617999995,4.8490549989,1042
77474,179372,234855,7.692924659,-4.0510486617999995,4.8490549989,1043
77578,179388,234865,7.692924659,-4.0510486617999995,4.8490549989,1044
77668,179385,234839,7.692924659,-4.0510486617999995,4.8490549989,1045
77774,179398,234872,7.692924659,-4.0510486617999995,4.8490549989,1046
77859,179444,234852,7.692924659,-4.0510486617999995,4.8490549989,1047
77944,179499,234919,7.692924659,-4.0510486617999995,4.8490549989,1048
78054,179512,234896,7.692924659,-4.0510486617999995,4.8490549989,1049
78020,179474,234892,7.692924659,-4.0510486617999995,4.8490549989,1050
77281,179233,234835,7.692924659,-4.0510486617999995,4.8490549989,1051
76364,179049,234687,7.692924659,-4.0510486617999995,4.8490549989,1052
75918,178899,234631,7.692924659,-4.0510486617999995,4.8490549989,1053
75901,178908,234674,7.692924659,-4.0510486617999995,4.8490549989,1054
76020,178932,234669,7.692924659,-4.0510486617999995,4.8490549989,1055
76182,178969,234679,7.692924659,-4.0510486617999995,4.8490549989,1056
76360,179034,234774,7.692924659,-4.0510486617999995,4.8490549989,1057
76615,179078,234817,7.692924659,-4.0510486617999995,4.8490549989,1058
76717,179098,234847,7.692924659,-4.0510486617999995,4.8490549989,1059
76619,179053,234819,7.692924659,-4.0510486617999995,4.8490549989,1060
76511,179062,234825,7.692924659,-4.0510486617999995,4.8490549989,1061
76518,179044,234782,7.692924659,-4.0510486617999995,4.8490549989,1062
76639,179101,234840,7.692924659,-4.0510486617999995,4.8490549989,1063
76128,178868,234793,7.651050263499999,-3.9206398301,4.899304273499999,1064
76367,178950,234857,7.651050263499999,-3.9206398301,4.899304273499999,1065
76422,178937,234814,7.651050263499999,-3.9206398301,4.899304273499999,1066
76346,178938,234862,7.651050263499999,-3.9206398301,4.899304273499999,1067
76255,178889,234843,7.651050263499999,-3.9206398301,4.899304273499999,1068
76289,178904,234863,7.651050263499999,-3.9206398301,4.899304273499999,1069
76357,178949,234886,7.651050263499999,-3.9206398301,4.899304273499999,1070
76496,178970,234938,7.651050263499999,-3.9206398301,4.899304273499999,1071
76665,179045,234895,7.651050263499999,-3.9206398301,4.899304273499999,1072
76809,179045,234880,7.651050263499999,-3.9206398301,4.899304273499999,1073
76945,179088,234943,7.651050263499999,-3.9206398301,4.899304273499999,1074
77077,179126,234968,7.651050263499999,-3.9206398301,4.899304273499999,1075
77172,179152,234981,7.651050263499999,-3.9206398301,4.899304273499999,1076
77272,179155,234940,7.651050263499999,-3.9206398301,4.899304273499999,1077
77370,179223,234979,7.651050263499999,-3.9206398301,4.899304273499999,1078
77495,179244,234929,7.651050263499999,-3.9206398301,4.899304273499999,1079
77586,179253,234977,7.651050263499999,-3.9206398301,4.899304273499999,1080
77516,179225,235020,7.651050263499999,-3.9206398301,4.899304273499999,1081
76737,178955,234847,7.651050263499999,-3.9206398301,4.899304273499999,1082
75955,178749,234798,7.651050263499999,-3.9206398301,4.899304273499999,1083
75675,178686,234761,7.651050263499999,-3.9206398301,4.899304273499999,1084
75713,178707,234773,7.651050263499999,-3.9206398301,4.899304273499999,1085
75872,178736,234782,7.651050263499999,-3.9206398301,4.899304273499999,1086
76057,178740,234791,7.651050263499999,-3.9206398301,4.899304273499999,1087
76306,178852,234835,7.651050263499999,-3.9206398301,4.899304273499999,1088
76502,178882,234870,7.651050263499999,-3.9206398301,4.899304273499999,1089
76465,178871,234844,7.651050263499999,-3.9206398301,4.899304273499999,1090
76370,178828,234872,7.651050263499999,-3.9206398301,4.899304273499999,1091
76298,178808,234854,7.651050263499999,-3.9206398301,4.899304273499999,1092
76349,178842,234841,7.651050263499999,-3.9206398301,4.899304273499999,1093
76454,178879,234904,7.651050263499999,-3.9206398301,4.899304273499999,1094
76654,178926,234889,7.651050263499999,-3.9206398301,4.899304273499999,1095
76784,178941,234926,7.651050263499999,-3.9206398301,4.899304273499999,1096
76941,179019,234965,7.651050263499999,-3.9206398301,4.899304273499999,1097
77064,179039,234944,7.651050263499999,-3.9206398301,4.899304273499999,1098
77182,179038,234984,7.651050263499999,-3.9206398301,4.899304273499999,1099
77305,179091,234947,7.651050263499999,-3.9206398301,4.899304273499999,1100
77422,179145,235012,7.651050263499999,-3.9206398301,4.899304273499999,1101
77513,179153,235032,7.651050263499999,-3.9206398301,4.899304273499999,1102
77213,179033,234935,7.651050263499999,-3.9206398301,4.899304273499999,1103
76314,178780,234858,7.651050263499999,-3.9206398301,4.899304273499999,1104
75727,178604,234759,7.651050263499999,-3.9206398301,4.899304273499999,1105
76938,178944,235016,7.6845497799,-4.1012979364,5.0177489922000005,1106
76927,178897,235004,7.6845497799,-4.1012979364,5.0177489922000005,1107
77003,178950,235006,7.6845497799,-4.1012979364,5.0177489922000005,1108
77115,178969,235009,7.6845497799,-4.1012979364,5.0177489922000005,1109
77254,179031,235017,7.6845497799,-4.1012979364,5.0177489922000005,1110
77423,179066,235062,7.6845497799,-4.1012979364,5.0177489922000005,1111
77580,179095,235026,7.6845497799,-4.1012979364,5.0177489922000005,1112
77715,179138,235074,7.6845497799,-4.1012979364,5.0177489922000005,1113
77835,179188,235112,7.6845497799,-4.1012979364,5.0177489922000005,1114
77956,179216,235091,7.6845497799,-4.1012979364,5.0177489922000005,1115
78082,179257,235082,7.6845497799,-4.1012979364,5.0177489922000005,1116
78185,179316,235110,7.6845497799,-4.1012979364,5.0177489922000005,1117
78320,179310,235135,7.6845497799,-4.1012979364,5.0177489922000005,1118
78423,179355,235140,7.6845497799,-4.1012979364,5.0177489922000005,1119
78545,179374,235148,7.6845497799,-4.1012979364,5.0177489922000005,1120
78665,179444,235156,7.6845497799,-4.1012979364,5.0177489922000005,1121
78791,179461,235145,7.6845497799,-4.1012979364,5.0177489922000005,1122
78888,179466,235184,7.6845497799,-4.1012979364,5.0177489922000005,1123
78450,179310,235103,7.6845497799,-4.1012979364,5.0177489922000005,1124
77623,179116,235000,7.6845497799,-4.1012979364,5.0177489922000005,1125
77157,179005,234933,7.6019974002,-3.9577285803999995,4.857429878,1126
77082,179013,234944,7.6019974002,-3.9577285803999995,4.857429878,1127
77165,179031,234937,7.6019974002,-3.9577285803999995,4.857429878,1128
77302,179047,234977,7.6019974002,-3.9577285803999995,4.857429878,1129
77503,179129,235008,7.6019974002,-3.9577285803999995,4.857429878,1130
77697,179172,235049,7.6019974002,-3.9577285803999995,4.857429878,1131
77715,179178,235024,7.6019974002,-3.9577285803999995,4.857429878,1132
77635,179137,234978,7.6019974002,-3.9577285803999995,4.857429878,1133
77537,179137,234997,7.6019974002,-3.9577285803999995,4.857429878,1134
77535,179090,234989,7.6019974002,-3.9577285803999995,4.857429878,1135
77609,179162,234998,7.6019974002,-3.9577285803999995,4.857429878,1136
77744,179204,235056,7.6019974002,-3.9577285803999995,4.857429878,1137
77862,179198,235010,7.6019974002,-3.9577285803999995,4.857429878,1138
78000,179270,235059,7.6019974002,-3.9577285803999995,4.857429878,1139
78106,179301,235063,7.6019974002,-3.9577285803999995,4.857429878,1140
78189,179341,235077,7.6019974002,-3.9577285803999995,4.857429878,1141
78262,179342,235104,7.6019974002,-3.9577285803999995,4.857429878,1142
78332,179393,235107,7.6019974002,-3.9577285803999995,4.857429878,1143
78419,179387,235083,7.6019974002,-3.9577285803999995,4.857429878,1144
78522,179439,235126,7.6019974002,-3.9577285803999995,4.857429878,1145
78629,179446,235149,7.6019974002,-3.9577285803999995,4.857429878,1146
78628,179450,235145,7.6019974002,-3.9577285803999995,4.857429878,1147
78068,179294,235069,7.6019974002,-3.9577285803999995,4.857429878,1148
77237,179088,234959,7.6019974002,-3.9577285803999995,4.857429878,1149
76751,178973,234912,7.6019974002,-3.9577285803999995,4.857429878,1150
76630,178972,234920,7.6019974002,-3.9577285803999995,4.857429878,1151
76636,178982,234900,7.6019974002,-3.9577285803999995,4.857429878,1152
76725,179000,234927,7.6019974002,-3.9577285803999995,4.857429878,1153
76854,179053,234962,7.6019974002,-3.9577285803999995,4.857429878,1154
77042,179077,235000,7.6019974002,-3.9577285803999995,4.857429878,1155
77075,179088,235007,7.6019974002,-3.9577285803999995,4.857429878,1156
76995,179059,234984,7.6019974002,-3.9577285803999995,4.857429878,1157
76922,179091,234982,7.6019974002,-3.9577285803999995,4.857429878,1158
76946,179081,234979,7.5780691741999995,-3.9517465239000003,4.7186461672,1159
77035,179095,234964,7.5780691741999995,-3.9517465239000003,4.7186461672,1160
77168,179117,234970,7.5780691741999995,-3.9517465239000003,4.7186461672,1161
77322,179187,235044,7.5780691741999995,-3.9517465239000003,4.7186461672,1162
77440,179231,235059,7.5780691741999995,-3.9517465239000003,4.7186461672,1163
77549,179255,235090,7.5780691741999995,-3.9517465239000003,4.7186461672,1164
77661,179291,235070,7.5780691741999995,-3.9517465239000003,4.7186461672,1165
77752,179302,235107,7.5780691741999995,-3.9517465239000003,4.7186461672,1166
77836,179330,235094,7.5780691741999995,-3.9517465239000003,4.7186461672,1167
77927,179375,235111,7.5780691741999995,-3.9517465239000003,4.7186461672,1168
77993,179404,235126,7.5780691741999995,-3.9517465239000003,4.7186461672,1169
78135,179406,235103,7.5780691741999995,-3.9517465239000003,4.7186461672,1170
78237,179449,235128,7.5780691741999995,-3.9517465239000003,4.7186461672,1171
78198,179434,235122,7.5780691741999995,-3.9517465239000003,4.7186461672,1172
77459,179216,235017,7.5780691741999995,-3.9517465239000003,4.7186461672,1173
76485,178939,234859,7.5780691741999995,-3.9517465239000003,4.7186461672,1174
76035,178862,234811,7.5780691741999995,-3.9517465239000003,4.7186461672,1175
75949,178820,234828,7.5780691741999995,-3.9517465239000003,4.7186461672,1176
75983,178861,234854,7.5780691741999995,-3.9517465239000003,4.7186461672,1177
76113,178913,234859,7.5780691741999995,-3.9517465239000003,4.7186461672,1178
76250,178944,234887,7.5780691741999995,-3.9517465239000003,4.7186461672,1179
76460,178974,234916,7.5780691741999995,-3.9517465239000003,4.7186461672,1180
76502,178979,234975,7.5780691741999995,-3.9517465239000003,4.7186461672,1181
76437,178963,234950,7.5780691741999995,-3.9517465239000003,4.7186461672,1182
76383,178955,234951,7.5780691741999995,-3.9517465239000003,4.7186461672,1183
76371,178963,234957,7.5780691741999995,-3.9517465239000003,4.7186461672,1184
76474,178980,234975,7.5780691741999995,-3.9517465239000003,4.7186461672,1185
76642,179049,234991,7.5780691741999995,-3.9517465239000003,4.7186461672,1186
76794,179098,235004,7.5780691741999995,-3.9517465239000003,4.7186461672,1187
76940,179151,235040,7.5780691741999995,-3.9517465239000003,4.7186461672,1188
77055,179120,235080,7.5780691741999995,-3.9517465239000003,4.7186461672,1189
77163,179183,235054,7.5780691741999995,-3.9517465239000003,4.7186461672,1190
77272,179209,235094,7.5780691741999995,-3.9517465239000003,4.7186461672,1191
77364,179217,235080,7.5780691741999995,-3.9517465239000003,4.7186461672,1192
77433,179238,235078,7.5780691741999995,-3.9517465239000003,4.7186461672,1193
77539,179287,235082,7.5780691741999995,-3.9517465239000003,4.7186461672,1194
77628,179295,235085,7.5780691741999995,-3.9517465239000003,4.7186461672,1195
77736,179327,235091,7.5780691741999995,-3.9517465239000003,4.7186461672,1196
77841,179347,235099,7.5780691741999995,-3.9517465239000003,4.7186461672,1197
77953,179380,235145,7.5780691741999995,-3.9517465239000003,4.7186461672,1198
77964,179389,235162,7.5780691741999995,-3.9517465239000003,4.7186461672,1199
77351,179197,235024,7.5780691741999995,-3.9517465239000003,4.7186461672,1200
76365,178809,234823,7.622336392299999,-4.0606199522,4.7760739096,1201
75719,178668,234754,7.622336392299999,-4.0606199522,4.7760739096,1202
75666,178672,234833,7.622336392299999,-4.0606199522,4.7760739096,1203
75867,178762,234870,7.622336392299999,-4.0606199522,4.7760739096,1204
76026,178778,234836,7.622336392299999,-4.0606199522,4.7760739096,1205
76178,178814,234894,7.622336392299999,-4.0606199522,4.7760739096,1206
76401,178902,234982,7.622336392299999,-4.0606199522,4.7760739096,1207
76509,178899,234947,7.622336392299999,-4.0606199522,4.7760739096,1208
76449,178900,234937,7.622336392299999,-4.0606199522,4.7760739096,1209
76379,178869,234928,7.622336392299999,-4.0606199522,4.7760739096,1210
76415,178878,234966,7.622336392299999,-4.0606199522,4.7760739096,1211
76516,178872,234982,7.622336392299999,-4.0606199522,4.7760739096,1212
76668,178952,234996,7.622336392299999,-4.0606199522,4.7760739096,1213
76814,178966,235010,7.622336392299999,-4.0606199522,4.7760739096,1214
76929,179017,235042,7.622336392299999,-4.0606199522,4.7760739096,1215
77079,179058,235085,7.622336392299999,-4.0606199522,4.7760739096,1216
77206,179105,235090,7.622336392299999,-4.0606199522,4.7760739096,1217
77265,179062,235057,7.622336392299999,-4.0606199522,4.7760739096,1218
77225,178975,234978,7.622336392299999,-4.0606199522,4.7760739096,1219
77167,178937,234926,7.622336392299999,-4.0606199522,4.7760739096,1220
77271,178992,234999,7.6606215538999995,-4.001995798499999,4.7234318124,1221
77436,179100,235009,7.6606215538999995,-4.001995798499999,4.7234318124,1222
77648,179204,235069,7.6606215538999995,-4.001995798499999,4.7234318124,1223
77809,179234,235144,7.6606215538999995,-4.001995798499999,4.7234318124,1224
77262,179106,235079,7.6821569573,-4.043870194,4.9938207662,1225
76317,178844,234943,7.6821569573,-4.043870194,4.9938207662,1226
75743,178720,234914,7.6821569573,-4.043870194,4.9938207662,1227
75597,178622,234867,7.572087117700001,-4.0869410008000004,4.9112683865,1228
75661,178665,234871,7.6366933279,-4.0271204358,4.9160540317,1229
75737,178703,234902,7.606783045399999,-4.0450666053,4.9591248385,1230
75942,178773,234929,7.7862447404,-4.0618163635,4.9112683865,1231
76172,178847,234999,7.653443086099999,-4.0510486617999995,4.8777688701,1232
76284,178876,235074,7.6917282476999995,-3.9182470075,4.7808595548,1233
76218,178833,234990,7.6905318364,-4.0175491454,5.000999234,1234
76150,178796,235044,7.6606215538999995,-4.247260115,4.782055966100001,1235
76168,178818,234995,7.7108708285,-3.888336725,4.6959143525,1236
76264,178858,234982,7.6618179652,-3.9672998708,4.850251410199999,1237
76460,178896,235035,7.654639497399999,-4.2329031794,4.8598227006,1238
76657,178950,235110,7.6773713121,-4.0223347905999995,4.8670011684,1239
76843,179024,235099,7.6773713121,-4.0402809601,4.8610191119,1240
76978,179034,235087,7.6737820782,-3.9672998708,4.7988057243,1241
77112,179058,235094,7.6785677234,-3.9373895883000003,4.9316073786,1242
77243,179071,235054,7.5122665527,-3.9529429352,5.0883372589,1243
77337,179094,235089,7.6151579245,-4.0725840652,4.9423750803,1244
77417,179121,235115,7.716852885,-3.8201412809,5.0548377425,1245
77524,179148,235146,7.692924659,-3.9098721283999995,4.9160540317,1246
77646,179212,235169,7.7300134093,-3.9290147091999996,4.941178669,1247
77730,179219,235152,7.633104094,-3.9780675724999996,4.9340002012,1248
77271,179096,235063,7.804190909899999,-3.8823546685,4.6360937875,1249
76277,178798,234947,7.7072815945999995,-3.8668013215999997,4.8670011684,1250
75662,178660,234888,7.896314579999999,-3.996013742,4.9962135888,1251
75420,178522,234820,7.6761749007999995,-4.0103706776,4.7856452,1252
75545,178540,234849,7.7252277641000004,-4.0151563228,4.9028935074,1253
75723,178596,234853,7.645068207,-3.9828532177,4.893322217,1254
75983,178693,234938,7.6642107878,-3.9613178143,5.000999234,1255
76219,178740,234972,7.6606215538999995,-3.8715869668,4.878965281399999,1256
76309,178785,235004,7.6115686905999995,-3.9936209194,4.7904308452,1257
76254,178778,235023,7.7012995381,-3.7878381758,4.917250443,1258
76169,178749,235037,7.6283184488,-4.0115670889,4.9854458871,1259
76195,178770,235004,7.716852885,-3.864408499,4.8418765311,1260
76321,178805,234986,7.606783045399999,-4.0821553556,4.9459643142,1261
76483,178858,235038,7.720442118899999,-3.9900316855,4.850251410199999,1262
76667,178908,235064,7.6139615132000005,-3.9529429352,4.9124647978,1263
76729,178974,235080,7.737191877099999,-4.0606199522,4.8646083458,1264
76982,178953,235087,7.6091758679999995,-3.9816568063999997,4.9507499594,1265
77092,179026,235133,7.5948189324,-4.0175491454,4.961517661099999,1266
77206,179071,235116,7.683353368600001,-4.0366917262,4.893322217,1267
77324,179076,235163,7.6749784895,-3.9074793058,4.9878387097,1268
77460,179111,235174,7.6343005053,-4.1312082188999995,4.7856452,1269
77592,179146,235209,7.505088084900001,-3.9912280968,4.9842494758,1270
77328,179071,235167,7.7228349415,-4.0055850324,4.8945186283,1271
76371,178831,235037,7.465606512,-3.9254254753,4.9351966125,1272
75896,178694,234957,7.6139615132000005,-4.0175491454,5.0117669357,1273
75809,178681,234914,7.6402825618,-3.9672998708,4.8897329831,1274
75953,178676,234988,7.5900332872,-3.9672998708,4.9543391933,1275
76161,178752,235009,7.5601230047,-3.9565321691,4.9076791526,1276
76374,178806,235072,7.6761749007999995,-3.8991044267,4.90528633,1277
76673,178914,235117,7.6761749007999995,-3.8991044267,4.90528633,1278
76798,178954,235148,7.6761749007999995,-3.8991044267,4.90528633,1279
76745,178930,235115,7.625925626199999,-4.1060835816,4.9016970961,1280
76689,178913,235090,7.5876404646,-4.0689948312999995,4.8646083458,1281
76788,178945,235104,7.4847490928,-4.0067814437,4.9974100001,1282
76924,178964,235177,7.514659375300001,-3.9505501125999998,4.8741796362,1283
77126,179046,235191,7.5218378431,-3.9744783386,4.878965281399999,1284
77319,179095,235205,7.716852885,-4.0486558392,4.8478585876,1285
77503,179154,235261,7.5996045776,-3.9517465239000003,4.8191447164,1286
77694,179195,235250,7.65703232,-3.8703905555,4.9340002012,1287
77795,179220,235284,7.6498538522,-3.9014972492999997,4.9926243549,1288
77924,179235,235316,7.6474610296,-3.8536407972999998,4.8765724588,1289
78059,179310,235286,7.4799634476,-4.113262049399999,4.9184468543,1290
78219,179360,235347,7.6187471584,-4.0462630166,4.8047877808,1291
78316,179401,235365,7.4907311493,-3.9649070482,4.9184468543,1292
77899,179271,235274,7.8089765551,-3.8907295476,4.8670011684,1293
77084,179072,235124,7.5816584081,-3.9230326527000003,4.8143590712,1294
76651,178947,235098,7.621139981,-3.9792639838,4.8957150396,1295
76650,178962,235123,7.7240313528,-3.960121403,4.9746781854,1296
76769,178999,235116,7.633104094,-3.8787654346,4.9591248385,1297
76934,179025,235157,7.6558359087,-4.1934216065,4.8670011684,1298
77070,179085,235163,7.5649086499,-3.9625142255999997,4.9734817741,1299
77313,179163,235250,7.6965138929000005,-3.9038900719000003,4.9579284272,1300
77395,179196,235229,7.6606215538999995,-3.9218362414,4.8670011684,1301
77399,179193,235234,7.6965138929000005,-4.0031922098,4.9447679029,1302
77371,179177,235227,7.6271220375,-4.0989051138,4.990231532299999,1303
77457,179206,235254,7.4931239719,-4.0139599115,5.012963347,1304
77575,179227,235267,7.6486574409,-4.0103706776,4.8981078622,1305
77797,179309,235322,7.735995465799999,-4.0857445895,4.8311088294,1306
77939,179354,235306,7.5984081663000005,-4.0833517669,4.9866422984,1307
78107,179374,235344,7.5541409482,-4.0546378957,4.9184468543,1308
78253,179458,235383,7.7108708285,-3.9828532177,4.9005006848,1309
78386,179493,235360,7.5996045776,-3.9637106368999997,4.9555356046000005,1310
78569,179540,235387,7.6163543358,-4.0402809601,4.8550370553999995,1311
78638,179555,235402,7.6737820782,-3.9864424516000003,4.989035121000001,1312
78791,179572,235376,7.6115686905999995,-3.9744783386,4.9232324995,1313
78890,179634,235404,7.5457660691,-4.06779842,4.9005006848,1314
78523,179525,235383,7.645068207,-3.9517465239000003,4.8861437492,1315
77705,179309,235228,7.637889739199999,-3.9541393465,4.9005006848,1316
77182,179218,235195,7.5912296985,-4.0414773714,4.9316073786,1317
77098,179188,235182,7.6522466748,-3.8895331363000003,4.9351966125,1318
77186,179218,235218,7.763512925700001,-3.8368910391,4.8275195955,1319
77300,179250,235225,7.6187471584,-4.1682969692,4.9507499594,1320
77427,179277,235250,7.7994052647,-3.9888352742,4.9830530645,1321
77642,179346,235280,7.7994052647,-3.9888352742,4.9830530645,1322
77724,179383,235291,7.7994052647,-3.9888352742,4.9830530645,1323
77685,179401,235276,7.7994052647,-3.9888352742,4.9830530645,1324
77640,179389,235275,7.7994052647,-3.9888352742,4.9830530645,1325
77671,179422,235289,7.7994052647,-3.9888352742,4.9830530645,1326
77784,179444,235274,7.6163543358,-3.8596228538,4.917250443,1327
77908,179487,235305,7.7395846997,-4.0295132584,4.9304109673,1328
78069,179510,235342,7.5242306657,-3.9565321691,5.0344987504,1329
78219,179554,235377,7.633104094,-3.9098721283999995,4.8753760475,1330
78348,179596,235394,7.6271220375,-3.9038900719000003,4.833501652,1331
78452,179561,235354,7.7120672398000005,-4.055834307,4.9686961289000005,1332
78552,179657,235382,7.597211754999999,-3.9218362414,4.9124647978,1333
78657,179693,235351,7.5912296985,-4.0007993872,4.8885365718,1334
78762,179724,235386,7.6845497799,-3.8632120877,4.9567320159,1335
78861,179754,235381,7.6881390138,-4.0845481781999995,4.8382872972,1336
78952,179774,235408,7.7479595788,-4.0103706776,4.9028935074,1337
79075,179820,235434,7.721638530200001,-3.9397824109,4.883750926599999,1338
79152,179834,235451,7.645068207,-3.924229064,4.9710889515,1339
79278,179757,235466,7.6462646183,-3.9816568063999997,4.9340002012,1340
79376,179888,235434,7.633104094,-3.8715869668,4.9710889515,1341
79426,179907,235463,7.6654071991,-3.8967116041,4.9196432655999995,1342
78823,179732,235369,7.6713892556,-3.8967116041,4.9734817741,1343
77776,179518,235245,7.6713892556,-3.8967116041,4.9734817741,1344
77179,179403,235194,7.6713892556,-3.8967116041,4.9734817741,1345
77095,179420,235177,7.6713892556,-3.8967116041,4.9734817741,1346
77164,179432,235183,7.6713892556,-3.8967116041,4.9734817741,1347
77258,179431,235179,7.6713892556,-3.8967116041,4.9734817741,1348
77413,179472,235213,7.6713892556,-3.8967116041,4.9734817741,1349
77613,179527,235247,7.6713892556,-3.8967116041,4.9734817741,1350
77623,179519,235299,7.6713892556,-3.8967116041,4.9734817741,1351
77504,179511,235209,7.6713892556,-3.8967116041,4.9734817741,1352
77406,179479,235194,7.6713892556,-3.8967116041,4.9734817741,1353
77421,179512,235207,7.6713892556,-3.8967116041,4.9734817741,1354
77531,179515,235239,7.6713892556,-3.8967116041,4.9734817741,1355
77649,179555,235288,7.6713892556,-3.8967116041,4.9734817741,1356
77774,179618,235249,7.6713892556,-3.8967116041,4.9734817741,1357
77892,179608,235291,7.6713892556,-3.8967116041,4.9734817741,1358
78007,179653,235321,7.6713892556,-3.8967116041,4.9734817741,1359
78092,179667,235300,7.6713892556,-3.8967116041,4.9734817741,1360
78171,179726,235320,7.6713892556,-3.8967116041,4.9734817741,1361
78259,179739,235288,7.6713892556,-3.8967116041,4.9734817741,1362
78320,179756,235313,7.6713892556,-3.8967116041,4.9734817741,1363
78410,179773,235322,7.6713892556,-3.8967116041,4.9734817741,1364
78510,179799,235298,7.6713892556,-3.8967116041,4.9734817741,1365
78599,179837,235342,7.6713892556,-3.8967116041,4.9734817741,1366
78709,179832,235337,7.6713892556,-3.8967116041,4.9734817741,1367
78812,179889,235359,7.6713892556,-3.8967116041,4.9734817741,1368
78875,179925,235318,7.6713892556,-3.8967116041,4.9734817741,1369
78964,179940,235343,7.6713892556,-3.8967116041,4.9734817741,1370
79045,179938,235330,7.6713892556,-3.8967116041,4.9734817741,1371
79127,179943,235338,7.6713892556,-3.8967116041,4.9734817741,1372
79220,180006,235331,7.6713892556,-3.8967116041,4.9734817741,1373
79282,179992,235360,7.6713892556,-3.8967116041,4.9734817741,1374
78782,179848,235313,7.6713892556,-3.8967116041,4.9734817741,1375
77679,179586,235120,7.6713892556,-3.8967116041,4.9734817741,1376
77007,179452,235062,7.6713892556,-3.8967116041,4.9734817741,1377
76862,179418,235066,7.6713892556,-3.8967116041,4.9734817741,1378
76974,179447,235026,7.6713892556,-3.8967116041,4.9734817741,1379
77125,179489,235036,7.6713892556,-3.8967116041,4.9734817741,1380
77324,179521,235120,7.6713892556,-3.8967116041,4.9734817741,1381
77571,179615,235128,7.6713892556,-3.8967116041,4.9734817741,1382
77568,179565,235111,7.6713892556,-3.8967116041,4.9734817741,1383
77374,179539,235132,7.6713892556,-3.8967116041,4.9734817741,1384
76681,179337,234984,7.5314091335,-3.8859439023999998,4.9399822577,1385
76743,179353,235033,7.5314091335,-3.8859439023999998,4.9399822577,1386
76853,179391,235047,7.5314091335,-3.8859439023999998,4.9399822577,1387
77004,179417,235038,7.5314091335,-3.8859439023999998,4.9399822577,1388
77188,179452,235067,7.5314091335,-3.8859439023999998,4.9399822577,1389
77330,179492,235074,7.5314091335,-3.8859439023999998,4.9399822577,1390
77461,179513,235123,7.5314091335,-3.8859439023999998,4.9399822577,1391
77575,179558,235117,7.5314091335,-3.8859439023999998,4.9399822577,1392
77683,179560,235125,7.5314091335,-3.8859439023999998,4.9399822577,1393
77751,179597,235138,7.5314091335,-3.8859439023999998,4.9399822577,1394
77850,179659,235107,7.5314091335,-3.8859439023999998,4.9399822577,1395
77960,179648,235123,7.5314091335,-3.8859439023999998,4.9399822577,1396
78053,179669,235186,7.5314091335,-3.8859439023999998,4.9399822577,1397
78189,179706,235154,7.5314091335,-3.8859439023999998,4.9399822577,1398
78297,179728,235168,7.5314091335,-3.8859439023999998,4.9399822577,1399
78403,179771,235175,7.5314091335,-3.8859439023999998,4.9399822577,1400
78513,179812,235195,7.5314091335,-3.8859439023999998,4.9399822577,1401
78606,179838,235195,7.5314091335,-3.8859439023999998,4.9399822577,1402
78697,179853,235232,7.5314091335,-3.8859439023999998,4.9399822577,1403
78824,179833,235207,7.5314091335,-3.8859439023999998,4.9399822577,1404
78933,179912,235236,7.5314091335,-3.8859439023999998,4.9399822577,1405
78865,179857,235188,7.5314091335,-3.8859439023999998,4.9399822577,1406
77973,179581,235067,7.5314091335,-3.8859439023999998,4.9399822577,1407
76836,179314,234886,7.5314091335,-3.8859439023999998,4.9399822577,1408
76295,179193,234859,7.5314091335,-3.8859439023999998,4.9399822577,1409
76266,179213,234854,7.5314091335,-3.8859439023999998,4.9399822577,1410
76395,179197,234846,7.5314091335,-3.8859439023999998,4.9399822577,1411
76559,179238,234926,7.5314091335,-3.8859439023999998,4.9399822577,1412
76751,179278,234932,7.5314091335,-3.8859439023999998,4.9399822577,1413
76963,179320,234957,7.5314091335,-3.8859439023999998,4.9399822577,1414
76997,179361,234969,7.5314091335,-3.8859439023999998,4.9399822577,1415
76861,179279,234967,7.5314091335,-3.8859439023999998,4.9399822577,1416
76732,179258,234981,7.5314091335,-3.8859439023999998,4.9399822577,1417
76712,179245,234906,7.5314091335,-3.8859439023999998,4.9399822577,1418
76807,179268,234972,7.5314091335,-3.8859439023999998,4.9399822577,1419
76935,179294,234948,7.5314091335,-3.8859439023999998,4.9399822577,1420
77106,179330,234980,7.5314091335,-3.8859439023999998,4.9399822577,1421
77261,179400,234997,7.5314091335,-3.8859439023999998,4.9399822577,1422
77389,179418,235017,7.5314091335,-3.8859439023999998,4.9399822577,1423
77493,179422,235007,7.5314091335,-3.8859439023999998,4.9399822577,1424
77597,179441,235043,7.5314091335,-3.8859439023999998,4.9399822577,1425
77692,179473,235053,7.5314091335,-3.8859439023999998,4.9399822577,1426
76756,179044,234824,7.737191877099999,-4.1084764042,4.7904308452,1427
76682,178999,234798,7.737191877099999,-4.1084764042,4.7904308452,1428
76604,179026,234806,7.737191877099999,-4.1084764042,4.7904308452,1429
76679,179021,234833,7.737191877099999,-4.1084764042,4.7904308452,1430
76801,179061,234815,7.737191877099999,-4.1084764042,4.7904308452,1431
76965,179088,234865,7.737191877099999,-4.1084764042,4.7904308452,1432
77118,179155,234845,7.737191877099999,-4.1084764042,4.7904308452,1433
77271,179196,234865,7.737191877099999,-4.1084764042,4.7904308452,1434
77429,179213,234932,7.737191877099999,-4.1084764042,4.7904308452,1435
77546,179226,234904,7.737191877099999,-4.1084764042,4.7904308452,1436
77649,179225,234965,7.737191877099999,-4.1084764042,4.7904308452,1437
77762,179257,234938,7.737191877099999,-4.1084764042,4.7904308452,1438
77845,179312,234958,7.737191877099999,-4.1084764042,4.7904308452,1439
77985,179384,234962,7.737191877099999,-4.1084764042,4.7904308452,1440
78066,179350,234983,7.737191877099999,-4.1084764042,4.7904308452,1441
78205,179406,235005,7.737191877099999,-4.1084764042,4.7904308452,1442
78344,179435,234986,7.737191877099999,-4.1084764042,4.7904308452,1443
78465,179483,235019,7.737191877099999,-4.1084764042,4.7904308452,1444
78490,179452,235001,7.737191877099999,-4.1084764042,4.7904308452,1445
77814,179245,234940,7.737191877099999,-4.1084764042,4.7904308452,1446
76788,179000,234731,7.737191877099999,-4.1084764042,4.7904308452,1447
76346,178885,234692,7.737191877099999,-4.1084764042,4.7904308452,1448
76314,178884,234665,7.737191877099999,-4.1084764042,4.7904308452,1449
76452,178940,234746,7.737191877099999,-4.1084764042,4.7904308452,1450
76643,178980,234749,7.737191877099999,-4.1084764042,4.7904308452,1451
76860,179026,234800,7.737191877099999,-4.1084764042,4.7904308452,1452
77095,179071,234823,7.737191877099999,-4.1084764042,4.7904308452,1453
77165,179079,234800,7.737191877099999,-4.1084764042,4.7904308452,1454
77070,179030,234782,7.737191877099999,-4.1084764042,4.7904308452,1455
76937,179050,234777,7.737191877099999,-4.1084764042,4.7904308452,1456
76985,179058,234780,7.737191877099999,-4.1084764042,4.7904308452,1457
77074,179076,234803,7.737191877099999,-4.1084764042,4.7904308452,1458
77223,179105,234860,7.737191877099999,-4.1084764042,4.7904308452,1459
77414,179142,234837,7.737191877099999,-4.1084764042,4.7904308452,1460
77579,179198,234901,7.737191877099999,-4.1084764042,4.7904308452,1461
77737,179234,234912,7.737191877099999,-4.1084764042,4.7904308452,1462
77883,179281,234875,7.737191877099999,-4.1084764042,4.7904308452,1463
77999,179295,234955,7.737191877099999,-4.1084764042,4.7904308452,1464
78113,179316,234970,7.737191877099999,-4.1084764042,4.7904308452,1465
78215,179348,234918,7.737191877099999,-4.1084764042,4.7904308452,1466
78358,179371,234918,7.737191877099999,-4.1084764042,4.7904308452,1467
78481,179390,234925,7.737191877099999,-4.1084764042,4.7904308452,1468
78509,179498,234723,7.5409804239,-4.139583098,4.878965281399999,1469
78611,179518,234751,7.5409804239,-4.139583098,4.878965281399999,1470
78678,179535,234799,7.5409804239,-4.139583098,4.878965281399999,1471
78767,179583,234773,7.5409804239,-4.139583098,4.878965281399999,1472
78894,179591,234822,7.5409804239,-4.139583098,4.878965281399999,1473
78990,179613,234801,7.5409804239,-4.139583098,4.878965281399999,1474
79078,179638,234777,7.5409804239,-4.139583098,4.878965281399999,1475
79162,179669,234816,7.5409804239,-4.139583098,4.878965281399999,1476
79255,179684,234774,7.5409804239,-4.139583098,4.878965281399999,1477
79341,179715,234806,7.5409804239,-4.139583098,4.878965281399999,1478
79250,179638,234809,7.5409804239,-4.139583098,4.878965281399999,1479
78323,179390,234599,7.5409804239,-4.139583098,4.878965281399999,1480
77300,179174,234527,7.5409804239,-4.139583098,4.878965281399999,1481
76859,179070,234478,7.5409804239,-4.139583098,4.878965281399999,1482
76873,179073,234459,7.5409804239,-4.139583098,4.878965281399999,1483
76986,179130,234480,7.5409804239,-4.139583098,4.878965281399999,1484
77200,179176,234540,7.5409804239,-4.139583098,4.878965281399999,1485
77441,179280,234547,7.5409804239,-4.139583098,4.878965281399999,1486
77636,179282,234595,7.5409804239,-4.139583098,4.878965281399999,1487
77617,179294,234570,7.5409804239,-4.139583098,4.878965281399999,1488
77410,179262,234564,7.5409804239,-4.139583098,4.878965281399999,1489
77272,179225,234552,7.5409804239,-4.139583098,4.878965281399999,1490
77268,179229,234594,7.5409804239,-4.139583098,4.878965281399999,1491
77376,179223,234625,7.5409804239,-4.139583098,4.878965281399999,1492
77517,179299,234660,7.5409804239,-4.139583098,4.878965281399999,1493
77698,179314,234639,7.5409804239,-4.139583098,4.878965281399999,1494
77831,179350,234669,7.5409804239,-4.139583098,4.878965281399999,1495
77935,179378,234694,7.5409804239,-4.139583098,4.878965281399999,1496
78044,179395,234665,7.5409804239,-4.139583098,4.878965281399999,1497
78130,179450,234678,7.5409804239,-4.139583098,4.878965281399999,1498
78220,179468,234694,7.5409804239,-4.139583098,4.878965281399999,1499
78311,179491,234723,7.5409804239,-4.139583098,4.878965281399999,1500
78410,179521,234758,7.5409804239,-4.139583098,4.878965281399999,1501
78520,179558,234735,7.5409804239,-4.139583098,4.878965281399999,1502
78648,179602,234762,7.5409804239,-4.139583098,4.878965281399999,1503
78750,179647,234770,7.5409804239,-4.139583098,4.878965281399999,1504
78463,179527,234711,7.5409804239,-4.139583098,4.878965281399999,1505
77360,179264,234567,7.5409804239,-4.139583098,4.878965281399999,1506
76430,179043,234512,7.5409804239,-4.139583098,4.878965281399999,1507
76146,178985,234442,7.5409804239,-4.139583098,4.878965281399999,1508
76217,178990,234438,7.5409804239,-4.139583098,4.878965281399999,1509
76356,179033,234529,7.5409804239,-4.139583098,4.878965281399999,1510
78520,179632,234821,7.6845497799,-3.9493537012999997,4.869393991,1511
78664,179633,234834,7.6845497799,-3.9493537012999997,4.869393991,1512
78806,179732,234828,7.6845497799,-3.9493537012999997,4.869393991,1513
78768,179672,234849,7.6845497799,-3.9493537012999997,4.869393991,1514
77917,179422,234772,7.6845497799,-3.9493537012999997,4.869393991,1515
76973,179244,234638,7.6845497799,-3.9493537012999997,4.869393991,1516
76649,179199,234570,7.6845497799,-3.9493537012999997,4.869393991,1517
76761,179195,234576,7.6845497799,-3.9493537012999997,4.869393991,1518
76980,179246,234664,7.6845497799,-3.9493537012999997,4.869393991,1519
77171,179300,234683,7.6845497799,-3.9493537012999997,4.869393991,1520
77433,179345,234726,7.6845497799,-3.9493537012999997,4.869393991,1521
77677,179416,234714,7.5385876013,-3.9936209194,4.941178669,1522
77718,179420,234759,7.5385876013,-3.9936209194,4.941178669,1523
77625,179410,234731,7.5385876013,-3.9936209194,4.941178669,1524
77545,179415,234678,7.5385876013,-3.9936209194,4.941178669,1525
77578,179412,234677,7.5385876013,-3.9936209194,4.941178669,1526
77727,179458,234739,7.5385876013,-3.9936209194,4.941178669,1527
77897,179494,234803,7.5385876013,-3.9936209194,4.941178669,1528
78076,179522,234797,7.5385876013,-3.9936209194,4.941178669,1529
