green,red,IR,acc_x,acc_y,acc_z,sample_index
88804,182963,221936,3.7746776515,9.3236332609,0.8446663778000001,1
88803,182953,221967,3.7483566029,9.5258267706,0.9463613382999999,2
88890,182980,221957,3.7280176108,9.367900479,0.8901300072,3
88999,182964,221939,3.6358939407,9.3655076564,0.8985048863,4
89091,182998,221957,3.8177484582999996,9.4851487864,0.897308475,5
89226,183004,221956,3.6239298277,9.5677011661,0.8434699665000001,6
89329,183016,221987,3.7172499091,9.5294160045,0.9260223462,7
89446,183028,222008,3.7423745464,9.4468636248,0.9224331123,8
89578,183054,222018,3.6119657146999997,9.456434915200001,0.9164510558,9
89756,183020,222008,3.8823546685,9.4265246327,1.0396814197,10
89681,183032,221994,3.6550365215,9.4660062056,0.8805587168,11
89430,182983,221955,3.7136606752,9.4325066892,0.8757730716000001,12
88759,182965,221957,3.7710884175999997,9.4803631412,1.0731809361,13
88406,182879,221895,3.7698920062999997,9.3870430598,0.9523433948,14
88122,182871,221870,3.6705898684,9.4097748745,0.8518448456000001,15
87956,182866,221866,3.7387853125,9.5617191096,0.9116654106,16
87973,182811,221819,3.6670006345,9.403792818,1.0348957745,17
87871,182862,221850,3.8153556357,9.522237536699999,1.0121639598,18
87975,182850,221911,3.6933216830999998,9.5748796339,1.0468598875,19
88032,182863,221876,3.7567314819999997,9.5784688678,0.801595571,20
88073,182885,221869,3.6945180944,9.371489712899999,1.0779665813,21
88103,182888,221918,3.7543386594,9.5342016497,0.861416136,22
88189,182889,221914,3.7459637803,9.523433948000001,0.9619146851999999,23
88293,182882,221868,3.7663027724,9.4528456813,0.8829515394,24
88420,182878,221903,3.5844482548,9.5258267706,0.9164510558,25
88569,182954,221911,3.6777683362,9.5007021333,0.8542376682,26
88699,182931,221923,3.7962130549,9.4540420926,0.8697910151,27
88783,182929,221926,3.7136606752,9.509077012399999,0.9200402897,28
88958,182938,221962,3.8679977328999997,9.4803631412,0.8650053699,29
89087,182955,221957,3.7734812402,9.5700939887,0.8626125473,30
89236,182965,221955,3.7160534978000004,9.4061856406,0.945164927,31
89348,182970,221967,3.5844482548,9.4325066892,1.0205388389,32
89217,182894,221984,3.5341989802,9.531808827099999,0.9990034355,33
88642,182959,221940,3.5952159565,9.4576313265,0.8901300072,34
88256,182860,221892,3.6765719249,9.4253282214,1.0360921858,35
88048,182832,221822,3.6299118841999998,9.5282195932,0.8685946038000001,36
87768,182801,221812,3.7064822074,9.4731846734,1.0229316615,37
87759,182830,221811,3.517449222,9.3870430598,0.921236701,38
87779,182835,221860,3.6681970457999995,9.5437729401,0.9954142015999999,39
87914,182851,221871,3.5222348672,9.4372923344,1.0097711372,40
87941,182854,221851,3.6119657146999997,9.4707918508,0.897308475,41
88048,182816,221887,3.649054465,9.3954179389,1.0181460163,42
88058,182822,221891,3.8273197486999995,9.5820581017,0.981057266,43
88174,182826,221874,3.6717862797,9.5748796339,0.9140582332,44
88282,182872,221867,3.6023944243,9.3427758417,0.9607182739,45
88415,182842,221921,3.7794632967,9.5162554802,0.8446663778000001,46
88571,182894,221925,3.7363924898999996,9.5198447141,0.909272588,47
88752,182883,221930,3.6801611588,9.5162554802,0.9894321450999999,48
88853,182931,221959,3.6514472876,9.5078806011,0.9966106129000001,49
89017,182924,221944,3.6909288605,9.403792818,0.9164510558,50
89188,182938,221965,3.7220355542999997,9.487541608999999,1.0301101293000001,51
89352,182950,221998,3.7663027724,9.518648302799999,0.9308079913999999,52
89477,182984,222023,3.6693934571,9.4803631412,0.9834500885999999,53
89434,182946,221980,3.6681970457999995,9.379864592,0.9667003303999999,54
89028,182877,221965,3.8249269261,9.463613383,0.9667003303999999,55
88576,182822,221920,3.8009987001,9.509077012399999,0.9284151688,56
88349,182787,221870,3.6765719249,9.3188476157,1.0097711372,57
88254,182769,221876,3.6346975294,9.5808616904,1.0109675485,58
88241,182787,221839,3.7770704741,9.4456672135,0.9116654106,59
88314,182768,221882,3.8895331363000003,9.3212404383,0.9379864592,60
88412,182797,221871,3.6610185779999997,9.4660062056,0.8685946038000001,61
88545,182799,221871,3.6693934571,9.4540420926,0.8961120637,62
88636,182838,221935,3.6574293441,9.3523471321,0.8638089586000001,63
88709,182828,221900,3.8464623295,9.3212404383,0.9942177902999999,64
88775,182863,221937,3.5724841418,9.4253282214,0.9738787981999999,65
88901,182838,221938,3.8081771679,9.475577496,0.861416136,66
89018,182853,221937,3.7555350706999997,9.5485585853,0.9343972253,67
89202,182856,221955,3.7076786186999997,9.3379901965,0.7704888772,68
89315,182865,221942,3.7160534978000004,9.367900479,0.8231309743999999,69
89541,182883,221963,3.8416766843000003,9.345168664300001,0.9260223462,70
89603,182921,221994,3.8009987001,9.5294160045,0.8662017812,71
89860,182903,222030,3.8536407972999998,9.3774717694,0.8793623055,72
89958,182920,222000,3.7543386594,9.4049892293,0.8949156524,73
90001,182927,222052,3.7184463204,9.6382894328,0.9535398061,74
89756,182885,222011,3.7172499091,9.4719882621,0.8590233134,75
89306,182821,221951,3.8895331363000003,9.510273423700001,0.8470592004,76
89123,182817,221948,3.7770704741,9.4348995118,0.8985048863,77
88947,182805,221944,3.8344982165,9.403792818,0.9403792818,78
88952,182806,221939,3.768695595,9.487541608999999,0.9798608547,79
88952,182815,221959,3.7974094662,9.397810761499999,0.9164510558,80
89115,182836,221968,3.8093735792,9.5007021333,1.0827522265,81
89231,182828,221959,3.7280176108,9.4504528587,0.9260223462,82
89288,182844,221958,3.7351960786,9.4313102779,0.8793623055,83
89299,182851,222004,3.7519458368,9.4325066892,0.8709874264,84
89377,182858,221988,3.7770704741,9.4504528587,0.8602197247000001,85
89508,182864,222008,3.8464623295,9.4695954395,0.7525427077,86
89577,182897,222015,3.8775690233,9.4253282214,0.921236701,87
89712,182865,222024,3.7519458368,9.3774717694,0.8985048863,88
89789,182929,221997,3.6646078119,9.4887380203,0.8877371846000001,89
89966,182947,222072,3.7639099498,9.3702933016,0.8877371846000001,90
90023,182921,222104,3.888336725,9.510273423700001,0.9391828704999999,91
90099,182945,222105,3.7842489418999996,9.464809794299999,0.9032905315,92
90283,182960,222108,3.7351960786,9.549754996599999,0.9260223462,93
90174,182940,222095,3.6729826909999996,9.391828705,0.789631458,94
89782,182903,222075,3.9505501125999998,9.3523471321,0.861416136,95
89387,182852,222029,3.6969109170000003,9.5294160045,0.9355936366,96
89044,182800,221974,3.8009987001,9.5844509243,0.9140582332,97
88812,182783,221957,3.720839143,9.3607220112,0.9164510558,98
88718,182796,221972,3.7507494254999996,9.4827559638,0.9164510558,99
88728,182765,221944,3.8488551521,9.5557370531,0.7956135145,100
88739,182758,222018,3.6239298277,9.320044027,0.8626125473,101
88807,182747,221986,3.6466616424,9.3332045513,0.8829515394,102
88764,182780,221970,3.6897324492,9.4133641084,0.8291130308999999,103
88729,182759,221988,3.7052857961,9.1549392676,1.0995019847,104
88693,182781,221913,3.7591243046000002,9.499505722,0.981057266,105
88658,182771,221948,3.7866417645,9.5605226983,0.8925228298,106
88737,182788,221945,3.6945180944,9.511469835,1.0109675485,107
88785,182754,221945,3.720839143,9.5126662463,0.9128618219,108
88916,182792,221955,3.7351960786,9.3511507208,0.8159525066,109
89162,182811,222006,3.7447673690000003,9.4851487864,0.753739119,110
89368,182859,221996,3.9409788222,9.4540420926,0.8638089586000001,111
89511,182855,222037,3.7040893848,9.438488745699999,0.969093153,112
89668,182855,222051,3.7734812402,9.531808827099999,0.9020941202,113
89765,182856,222065,3.6873396266,9.3726861242,0.9870393224999999,114
89450,182827,222052,3.8584264425,9.5198447141,0.8757730716000001,115
88928,182753,221991,3.7974094662,9.4923272542,0.9511469834999999,116
88580,182723,221959,3.7064822074,9.384650237199999,1.0013962581,117
88401,182681,221945,3.6550365215,9.5162554802,0.885344362,118
88271,182721,221923,3.6705898684,9.5557370531,0.9236295236,119
88109,182669,221950,3.7064822074,9.3487578982,0.909272588,120
88203,182664,221934,3.5976087790999998,9.4360959231,0.9367900479,121
88273,182705,221946,3.684946804,9.4492564474,0.9116654106,122
88354,182712,221915,3.5904303113,9.439685157,0.885344362,123
88396,182707,221970,3.7734812402,9.4540420926,0.9032905315,124
88466,182696,221951,3.7280176108,9.4025964067,0.8303094421999999,125
88554,182730,221955,3.6466616424,9.559326287,0.9355936366,126
88566,182716,221969,3.7160534978000004,9.5282195932,1.0001998468,127
88649,182733,221953,3.6167513599,9.5210411254,0.9595218625999999,128
88708,182706,221937,3.7399817238,9.5425765288,1.0037890807,129
88767,182726,221979,3.6574293441,9.5605226983,0.909272588,130
89042,182750,222033,3.7148570865,9.438488745699999,0.9535398061,131
89217,182804,222026,3.6586257553999997,9.5246303593,1.0121639598,132
89388,182795,221998,3.8967116041,9.4660062056,1.0516455327,133
89553,182828,222060,3.8967116041,9.4660062056,1.0516455327,134
89440,182791,222036,3.8967116041,9.4660062056,1.0516455327,135
89014,182711,222005,3.8967116041,9.4660062056,1.0516455327,136
88570,182681,221950,3.8967116041,9.4660062056,1.0516455327,137
88304,182662,221944,3.8967116041,9.4660062056,1.0516455327,138
88177,182645,221990,3.8967116041,9.4660062056,1.0516455327,139
88107,182652,221982,3.8967116041,9.4660062056,1.0516455327,140
88143,182637,221969,3.8967116041,9.4660062056,1.0516455327,141
88253,182640,221989,3.8967116041,9.4660062056,1.0516455327,142
88348,182651,221982,3.8967116041,9.4660062056,1.0516455327,143
88443,182669,222000,3.8967116041,9.4660062056,1.0516455327,144
88507,182658,222024,3.8967116041,9.4660062056,1.0516455327,145
88614,182673,222044,3.8967116041,9.4660062056,1.0516455327,146
88702,182702,222010,3.8967116041,9.4660062056,1.0516455327,147
88867,182709,222035,3.8967116041,9.4660062056,1.0516455327,148
89011,182699,222037,3.8967116041,9.4660062056,1.0516455327,149
89185,182731,222049,3.8967116041,9.4660062056,1.0516455327,150
89353,182755,222077,3.8967116041,9.4660062056,1.0516455327,151
89533,182790,222063,3.8967116041,9.4660062056,1.0516455327,152
89709,182787,222102,3.8967116041,9.4660062056,1.0516455327,153
89881,182804,222117,3.8967116041,9.4660062056,1.0516455327,154
90049,182810,222153,3.8967116041,9.4660062056,1.0516455327,155
89975,182779,222113,3.8967116041,9.4660062056,1.0516455327,156
89646,182738,222117,3.7064822074,9.5007021333,0.9140582332,157
89230,182700,222049,3.7064822074,9.5007021333,0.9140582332,158
89050,182657,222012,3.7064822074,9.5007021333,0.9140582332,159
88965,182664,222032,3.7064822074,9.5007021333,0.9140582332,160
88964,182648,222051,3.7064822074,9.5007021333,0.9140582332,161
89067,182652,222064,3.7064822074,9.5007021333,0.9140582332,162
89184,182698,222060,3.7064822074,9.5007021333,0.9140582332,163
89306,182689,222053,3.7064822074,9.5007021333,0.9140582332,164
89378,182702,222059,3.7064822074,9.5007021333,0.9140582332,165
89476,182690,222065,3.7064822074,9.5007021333,0.9140582332,166
89565,182680,222116,3.7064822074,9.5007021333,0.9140582332,167
89693,182719,222081,3.7064822074,9.5007021333,0.9140582332,168
89789,182720,222118,3.7064822074,9.5007021333,0.9140582332,169
89950,182769,222112,3.613162126,9.4695954395,1.0061819033000001,170
90112,182755,222118,3.613162126,9.4695954395,1.0061819033000001,171
90251,182791,222158,3.613162126,9.4695954395,1.0061819033000001,172
90392,182785,222163,3.613162126,9.4695954395,1.0061819033000001,173
90557,182823,222219,3.613162126,9.4695954395,1.0061819033000001,174
90716,182842,222161,3.613162126,9.4695954395,1.0061819033000001,175
90688,182826,222146,3.613162126,9.4695954395,1.0061819033000001,176
90394,182742,222158,3.613162126,9.4695954395,1.0061819033000001,177
90054,182709,222080,3.613162126,9.4695954395,1.0061819033000001,178
89872,182679,222068,3.613162126,9.4695954395,1.0061819033000001,179
89798,182687,222069,3.613162126,9.4695954395,1.0061819033000001,180
89812,182682,222093,3.613162126,9.4695954395,1.0061819033000001,181
89894,182710,222071,3.613162126,9.4695954395,1.0061819033000001,182
90001,182710,222093,3.613162126,9.4695954395,1.0061819033000001,183
90091,182726,222116,3.613162126,9.4695954395,1.0061819033000001,184
90167,182724,222123,3.613162126,9.4695954395,1.0061819033000001,185
90178,182702,222144,3.613162126,9.4695954395,1.0061819033000001,186
90263,182767,222156,3.613162126,9.4695954395,1.0061819033000001,187
90372,182764,222162,3.613162126,9.4695954395,1.0061819033000001,188
90468,182795,222171,3.613162126,9.4695954395,1.0061819033000001,189
90587,182789,222188,3.613162126,9.4695954395,1.0061819033000001,190
90691,182826,222176,3.613162126,9.4695954395,1.0061819033000001,191
90797,182843,222225,3.613162126,9.4695954395,1.0061819033000001,192
90910,182853,222210,3.613162126,9.4695954395,1.0061819033000001,193
91012,182863,222246,3.613162126,9.4695954395,1.0061819033000001,194
90903,182839,222202,3.613162126,9.4695954395,1.0061819033000001,195
90508,182768,222164,3.613162126,9.4695954395,1.0061819033000001,196
90058,182737,222148,3.613162126,9.4695954395,1.0061819033000001,197
89732,182702,222065,3.613162126,9.4695954395,1.0061819033000001,198
89566,182666,222066,3.613162126,9.4695954395,1.0061819033000001,199
89441,182665,222112,3.613162126,9.4695954395,1.0061819033000001,200
89403,182684,222099,3.613162126,9.4695954395,1.0061819033000001,201
89453,182668,222085,3.613162126,9.4695954395,1.0061819033000001,202
89460,182681,222073,3.613162126,9.4695954395,1.0061819033000001,203
89496,182688,222084,3.613162126,9.4695954395,1.0061819033000001,204
89525,182690,222119,3.613162126,9.4695954395,1.0061819033000001,205
89559,182686,222083,3.613162126,9.4695954395,1.0061819033000001,206
89609,182691,222119,3.613162126,9.4695954395,1.0061819033000001,207
89676,182691,222066,3.613162126,9.4695954395,1.0061819033000001,208
89784,182750,222110,3.613162126,9.4695954395,1.0061819033000001,209
89897,182743,222101,3.613162126,9.4695954395,1.0061819033000001,210
89983,182756,222134,3.613162126,9.4695954395,1.0061819033000001,211
88977,182577,221971,3.8153556357,9.4360959231,0.8446663778000001,212
89020,182578,221953,3.8153556357,9.4360959231,0.8446663778000001,213
89056,182592,222006,3.8153556357,9.4360959231,0.8446663778000001,214
89073,182586,221991,3.8153556357,9.4360959231,0.8446663778000001,215
89193,182624,222028,3.8153556357,9.4360959231,0.8446663778000001,216
89298,182606,222028,3.8153556357,9.4360959231,0.8446663778000001,217
89371,182635,222069,3.8153556357,9.4360959231,0.8446663778000001,218
89476,182666,222035,3.8153556357,9.4360959231,0.8446663778000001,219
89583,182664,222022,3.8153556357,9.4360959231,0.8446663778000001,220
89757,182647,222087,3.8153556357,9.4360959231,0.8446663778000001,221
89886,182691,222058,3.8153556357,9.4360959231,0.8446663778000001,222
90041,182701,222106,3.8153556357,9.4360959231,0.8446663778000001,223
90230,182762,222146,3.8153556357,9.4360959231,0.8446663778000001,224
90359,182732,222141,3.8153556357,9.4360959231,0.8446663778000001,225
90479,182747,222096,3.8153556357,9.4360959231,0.8446663778000001,226
90686,182750,222151,3.8153556357,9.4360959231,0.8446663778000001,227
90875,182787,222151,3.8153556357,9.4360959231,0.8446663778000001,228
90789,182738,222121,3.8153556357,9.4360959231,0.8446663778000001,229
90502,182717,222121,3.8153556357,9.4360959231,0.8446663778000001,230
90188,182680,222072,3.8153556357,9.4360959231,0.8446663778000001,231
90032,182661,222034,3.8153556357,9.4360959231,0.8446663778000001,232
89992,182617,222023,3.8153556357,9.4360959231,0.8446663778000001,233
89995,182638,222093,3.8153556357,9.4360959231,0.8446663778000001,234
90100,182660,222053,3.8153556357,9.4360959231,0.8446663778000001,235
90202,182654,222045,3.8153556357,9.4360959231,0.8446663778000001,236
90295,182676,222089,3.8153556357,9.4360959231,0.8446663778000001,237
90364,182706,222070,3.8153556357,9.4360959231,0.8446663778000001,238
90434,182671,222078,3.8153556357,9.4360959231,0.8446663778000001,239
90527,182686,222066,3.8153556357,9.4360959231,0.8446663778000001,240
90627,182734,222065,3.8153556357,9.4360959231,0.8446663778000001,241
90741,182733,222090,3.8153556357,9.4360959231,0.8446663778000001,242
90836,182728,222112,3.8153556357,9.4360959231,0.8446663778000001,243
90970,182735,222091,3.6945180944,9.5018985446,0.8171489179,244
91106,182770,222094,3.6945180944,9.5018985446,0.8171489179,245
91263,182760,222137,3.6945180944,9.5018985446,0.8171489179,246
91392,182805,222163,3.6945180944,9.5018985446,0.8171489179,247
91440,182801,222165,3.6945180944,9.5018985446,0.8171489179,248
91279,182748,222150,3.6945180944,9.5018985446,0.8171489179,249
90817,182698,222099,3.6945180944,9.5018985446,0.8171489179,250
90562,182670,222105,3.6945180944,9.5018985446,0.8171489179,251
90400,182666,222028,3.6945180944,9.5018985446,0.8171489179,252
90304,182668,222067,3.6945180944,9.5018985446,0.8171489179,253
90302,182657,222117,3.6945180944,9.5018985446,0.8171489179,254
90352,182703,222080,3.6945180944,9.5018985446,0.8171489179,255
90390,182698,222061,3.6945180944,9.5018985446,0.8171489179,256
90410,182716,222103,3.6945180944,9.5018985446,0.8171489179,257
90405,182687,222060,3.6945180944,9.5018985446,0.8171489179,258
90434,182721,222074,3.6945180944,9.5018985446,0.8171489179,259
90484,182717,222117,3.6945180944,9.5018985446,0.8171489179,260
90549,182749,222112,3.6945180944,9.5018985446,0.8171489179,261
90620,182737,222144,3.6945180944,9.5018985446,0.8171489179,262
90723,182742,222113,3.6945180944,9.5018985446,0.8171489179,263
90770,182772,222100,3.6945180944,9.5018985446,0.8171489179,264
90838,182759,222080,3.6945180944,9.5018985446,0.8171489179,265
90942,182792,222145,3.6945180944,9.5018985446,0.8171489179,266
90898,182792,222092,3.6945180944,9.5018985446,0.8171489179,267
90548,182738,222090,3.6945180944,9.5018985446,0.8171489179,268
90051,182653,222052,3.6945180944,9.5018985446,0.8171489179,269
89653,182610,221978,3.6945180944,9.5018985446,0.8171489179,270
89413,182598,221967,3.6945180944,9.5018985446,0.8171489179,271
89239,182588,221971,3.6945180944,9.5018985446,0.8171489179,272
89138,182581,221949,3.6945180944,9.5018985446,0.8171489179,273
89146,182560,221964,3.6945180944,9.5018985446,0.8171489179,274
89194,182584,221947,3.6945180944,9.5018985446,0.8171489179,275
89203,182566,222017,3.6945180944,9.5018985446,0.8171489179,276
89224,182599,221997,3.6945180944,9.5018985446,0.8171489179,277
89259,182585,221989,3.6945180944,9.5018985446,0.8171489179,278
89289,182616,221966,3.6945180944,9.5018985446,0.8171489179,279
89365,182616,221970,3.6945180944,9.5018985446,0.8171489179,280
89476,182625,221977,3.6945180944,9.5018985446,0.8171489179,281
89585,182657,221952,3.6945180944,9.5018985446,0.8171489179,282
89711,182612,221962,3.6945180944,9.5018985446,0.8171489179,283
89820,182659,222022,3.6945180944,9.5018985446,0.8171489179,284
89960,182694,222036,3.6945180944,9.5018985446,0.8171489179,285
88625,182498,221863,3.7016965622000004,9.353543543399999,0.9116654106,286
88708,182525,221877,3.7016965622000004,9.353543543399999,0.9116654106,287
88898,182544,221943,3.7016965622000004,9.353543543399999,0.9116654106,288
88991,182564,221923,3.7016965622000004,9.353543543399999,0.9116654106,289
89074,182570,221937,3.7016965622000004,9.353543543399999,0.9116654106,290
89227,182592,221941,3.7016965622000004,9.353543543399999,0.9116654106,291
89457,182647,221945,3.7016965622000004,9.353543543399999,0.9116654106,292
89516,182606,221964,3.7016965622000004,9.353543543399999,0.9116654106,293
89685,182641,222026,3.7016965622000004,9.353543543399999,0.9116654106,294
89824,182682,222020,3.7016965622000004,9.353543543399999,0.9116654106,295
89599,182636,221950,3.7016965622000004,9.353543543399999,0.9116654106,296
89057,182557,221901,3.7016965622000004,9.353543543399999,0.9116654106,297
88635,182507,221897,3.7016965622000004,9.353543543399999,0.9116654106,298
88387,182463,221890,3.7016965622000004,9.353543543399999,0.9116654106,299
88227,182437,221885,3.7016965622000004,9.353543543399999,0.9116654106,300
88199,182474,221828,3.7016965622000004,9.353543543399999,0.9116654106,301
88177,182479,221864,3.7016965622000004,9.353543543399999,0.9116654106,302
88323,182466,221846,3.7016965622000004,9.353543543399999,0.9116654106,303
88381,182499,221904,3.7016965622000004,9.353543543399999,0.9116654106,304
88433,182501,221851,3.7016965622000004,9.353543543399999,0.9116654106,305
88548,182484,221914,3.7016965622000004,9.353543543399999,0.9116654106,306
88595,182524,221892,3.6957145057000003,9.455238503899999,1.052841944,307
88727,182508,221908,3.6957145057000003,9.455238503899999,1.052841944,308
88844,182526,221928,3.6957145057000003,9.455238503899999,1.052841944,309
88972,182566,221912,3.6957145057000003,9.455238503899999,1.052841944,310
89158,182563,221936,3.6957145057000003,9.455238503899999,1.052841944,311
89323,182595,221991,3.6957145057000003,9.455238503899999,1.052841944,312
89480,182647,221989,3.6957145057000003,9.455238503899999,1.052841944,313
89639,182646,222013,3.6957145057000003,9.455238503899999,1.052841944,314
89800,182636,222007,3.6957145057000003,9.455238503899999,1.052841944,315
89983,182697,222078,3.6957145057000003,9.455238503899999,1.052841944,316
90100,182692,222056,3.6957145057000003,9.455238503899999,1.052841944,317
89890,182624,222048,3.6957145057000003,9.455238503899999,1.052841944,318
89467,182594,221967,3.6957145057000003,9.455238503899999,1.052841944,319
89078,182550,221937,3.6957145057000003,9.455238503899999,1.052841944,320
88843,182486,221942,3.6957145057000003,9.455238503899999,1.052841944,321
88736,182519,221907,3.6957145057000003,9.455238503899999,1.052841944,322
88736,182485,221955,3.6957145057000003,9.455238503899999,1.052841944,323
88791,182497,221934,3.6957145057000003,9.455238503899999,1.052841944,324
88884,182496,221914,3.6957145057000003,9.455238503899999,1.052841944,325
88968,182549,221955,3.6957145057000003,9.455238503899999,1.052841944,326
89030,182512,221948,3.6957145057000003,9.455238503899999,1.052841944,327
89105,182533,221944,3.6957145057000003,9.455238503899999,1.052841944,328
89178,182559,222002,3.6957145057000003,9.455238503899999,1.052841944,329
89291,182573,221975,3.6957145057000003,9.455238503899999,1.052841944,330
89426,182575,222008,3.6957145057000003,9.455238503899999,1.052841944,331
89569,182590,221998,3.6957145057000003,9.455238503899999,1.052841944,332
89726,182593,222022,3.6957145057000003,9.455238503899999,1.052841944,333
89877,182612,222061,3.6957145057000003,9.455238503899999,1.052841944,334
90016,182668,222063,3.6957145057000003,9.455238503899999,1.052841944,335
90233,182689,222052,3.6957145057000003,9.455238503899999,1.052841944,336
90371,182673,222065,3.6957145057000003,9.455238503899999,1.052841944,337
90570,182703,222085,3.6957145057000003,9.455238503899999,1.052841944,338
90678,182713,222142,3.6957145057000003,9.455238503899999,1.052841944,339
90565,182649,222084,3.6957145057000003,9.455238503899999,1.052841944,340
90205,182612,222040,3.6957145057000003,9.455238503899999,1.052841944,341
89880,182576,222038,3.6957145057000003,9.455238503899999,1.052841944,342
89712,182528,221979,3.6957145057000003,9.455238503899999,1.052841944,343
89644,182568,222022,3.6957145057000003,9.455238503899999,1.052841944,344
89644,182537,221970,3.6957145057000003,9.455238503899999,1.052841944,345
89707,182559,222017,3.6957145057000003,9.455238503899999,1.052841944,346
89792,182549,221976,3.6957145057000003,9.455238503899999,1.052841944,347
89873,182568,221975,3.6957145057000003,9.455238503899999,1.052841944,348
90169,182598,222084,3.7555350706999997,9.463613383,0.8829515394,349
89773,182587,221997,3.7555350706999997,9.463613383,0.8829515394,350
89605,182535,222005,3.7555350706999997,9.463613383,0.8829515394,351
89410,182577,221954,3.7555350706999997,9.463613383,0.8829515394,352
89398,182554,221994,3.7555350706999997,9.463613383,0.8829515394,353
89381,182566,221924,3.7555350706999997,9.463613383,0.8829515394,354
89388,182582,221964,3.7555350706999997,9.463613383,0.8829515394,355
89401,182560,221944,3.7555350706999997,9.463613383,0.8829515394,356
89374,182557,221976,3.7555350706999997,9.463613383,0.8829515394,357
89354,182557,222006,3.7555350706999997,9.463613383,0.8829515394,358
89452,182564,221936,3.7555350706999997,9.463613383,0.8829515394,359
89497,182592,221971,3.7555350706999997,9.463613383,0.8829515394,360
89609,182612,221976,3.7555350706999997,9.463613383,0.8829515394,361
89712,182653,221998,3.7555350706999997,9.463613383,0.8829515394,362
89806,182607,221982,3.7555350706999997,9.463613383,0.8829515394,363
89902,182644,221984,3.7555350706999997,9.463613383,0.8829515394,364
90025,182663,222000,3.7555350706999997,9.463613383,0.8829515394,365
90164,182657,222012,3.7555350706999997,9.463613383,0.8829515394,366
90141,182663,222007,3.7555350706999997,9.463613383,0.8829515394,367
89752,182591,221996,3.7555350706999997,9.463613383,0.8829515394,368
89201,182572,221938,3.7555350706999997,9.463613383,0.8829515394,369
88799,182511,221881,3.7555350706999997,9.463613383,0.8829515394,370
88543,182467,221866,3.7555350706999997,9.463613383,0.8829515394,371
88369,182445,221871,3.7555350706999997,9.463613383,0.8829515394,372
88313,182450,221859,3.7555350706999997,9.463613383,0.8829515394,373
88352,182474,221866,3.7555350706999997,9.463613383,0.8829515394,374
88419,182468,221881,3.7555350706999997,9.463613383,0.8829515394,375
88459,182455,221863,3.7555350706999997,9.463613383,0.8829515394,376
88488,182478,221889,3.7555350706999997,9.463613383,0.8829515394,377
88548,182489,221916,3.7555350706999997,9.463613383,0.8829515394,378
88617,182514,221930,3.7555350706999997,9.463613383,0.8829515394,379
88730,182489,221930,3.7555350706999997,9.463613383,0.8829515394,380
88870,182525,221910,3.7555350706999997,9.463613383,0.8829515394,381
89013,182566,221924,3.7555350706999997,9.463613383,0.8829515394,382
89177,182575,221955,3.7555350706999997,9.463613383,0.8829515394,383
89334,182592,221983,3.7555350706999997,9.463613383,0.8829515394,384
89493,182641,222029,3.7555350706999997,9.463613383,0.8829515394,385
89663,182632,222000,3.7555350706999997,9.463613383,0.8829515394,386
89799,182645,222010,3.7555350706999997,9.463613383,0.8829515394,387
89884,182658,221995,3.7555350706999997,9.463613383,0.8829515394,388
89554,182608,222032,3.7555350706999997,9.463613383,0.8829515394,389
89051,182486,221964,3.7555350706999997,9.463613383,0.8829515394,390
88953,182484,221945,3.7758740628,9.4540420926,1.0121639598,391
89013,182528,221916,3.7758740628,9.4540420926,1.0121639598,392
89095,182546,221930,3.7758740628,9.4540420926,1.0121639598,393
89169,182558,221924,3.7758740628,9.4540420926,1.0121639598,394
89233,182539,221909,3.7758740628,9.4540420926,1.0121639598,395
89263,182541,221947,3.7758740628,9.4540420926,1.0121639598,396
89399,182546,221948,3.7758740628,9.4540420926,1.0121639598,397
89536,182567,221974,3.7758740628,9.4540420926,1.0121639598,398
89652,182583,221972,3.7758740628,9.4540420926,1.0121639598,399
89825,182613,221990,3.7758740628,9.4540420926,1.0121639598,400
89956,182647,222020,3.7758740628,9.4540420926,1.0121639598,401
90115,182641,221996,3.7758740628,9.4540420926,1.0121639598,402
90275,182660,222007,3.7758740628,9.4540420926,1.0121639598,403
90405,182654,222050,3.7758740628,9.4540420926,1.0121639598,404
90655,182701,222043,3.7758740628,9.4540420926,1.0121639598,405
90712,182716,222058,3.7758740628,9.4540420926,1.0121639598,406
90667,182665,222058,3.7758740628,9.4540420926,1.0121639598,407
90235,182609,222033,3.7758740628,9.4540420926,1.0121639598,408
89924,182568,222032,3.7758740628,9.4540420926,1.0121639598,409
89790,182520,221976,3.7758740628,9.4540420926,1.0121639598,410
89711,182539,221980,3.7758740628,9.4540420926,1.0121639598,411
89752,182564,221980,3.7758740628,9.4540420926,1.0121639598,412
89814,182554,221943,3.7758740628,9.4540420926,1.0121639598,413
89914,182586,221987,3.7758740628,9.4540420926,1.0121639598,414
90005,182557,222043,3.7758740628,9.4540420926,1.0121639598,415
90040,182590,222022,3.7758740628,9.4540420926,1.0121639598,416
90120,182580,222033,3.7758740628,9.4540420926,1.0121639598,417
90221,182608,222037,3.7758740628,9.4540420926,1.0121639598,418
90336,182601,222060,3.7758740628,9.4540420926,1.0121639598,419
90451,182603,222058,3.7758740628,9.4540420926,1.0121639598,420
90592,182666,222089,3.7758740628,9.4540420926,1.0121639598,421
90736,182679,222089,3.7758740628,9.4540420926,1.0121639598,422
90865,182688,222103,3.7758740628,9.4540420926,1.0121639598,423
90979,182673,222109,3.7758740628,9.4540420926,1.0121639598,424
91165,182714,222133,3.7758740628,9.4540420926,1.0121639598,425
91262,182745,222142,3.7758740628,9.4540420926,1.0121639598,426
91279,182741,222167,3.7758740628,9.4540420926,1.0121639598,427
91021,182698,222144,3.7758740628,9.4540420926,1.0121639598,428
90596,182633,222099,3.7758740628,9.4540420926,1.0121639598,429
90327,182629,222046,3.7758740628,9.4540420926,1.0121639598,430
90151,182612,222046,3.7758740628,9.4540420926,1.0121639598,431
90064,182578,222062,3.7758740628,9.4540420926,1.0121639598,432
89945,182565,221999,3.8524443859999997,9.410971285799999,0.9379864592,433
90004,182606,222006,3.8524443859999997,9.410971285799999,0.9379864592,434
90120,182621,222011,3.8524443859999997,9.410971285799999,0.9379864592,435
90245,182634,222061,3.8524443859999997,9.410971285799999,0.9379864592,436
90408,182630,222106,3.8524443859999997,9.410971285799999,0.9379864592,437
90504,182635,222022,3.8524443859999997,9.410971285799999,0.9379864592,438
90275,182603,222014,3.8524443859999997,9.410971285799999,0.9379864592,439
89788,182525,222001,3.8524443859999997,9.410971285799999,0.9379864592,440
89345,182491,221997,3.8524443859999997,9.410971285799999,0.9379864592,441
89054,182464,221926,3.8524443859999997,9.410971285799999,0.9379864592,442
88964,182449,221929,3.8524443859999997,9.410971285799999,0.9379864592,443
88843,182474,221911,3.8524443859999997,9.410971285799999,0.9379864592,444
88876,182447,221922,3.8524443859999997,9.410971285799999,0.9379864592,445
88951,182445,221913,3.8524443859999997,9.410971285799999,0.9379864592,446
88980,182466,221930,3.8524443859999997,9.410971285799999,0.9379864592,447
89065,182506,221911,3.8524443859999997,9.410971285799999,0.9379864592,448
89097,182487,221932,3.8524443859999997,9.410971285799999,0.9379864592,449
89181,182496,221926,3.8524443859999997,9.410971285799999,0.9379864592,450
89252,182524,221929,3.8524443859999997,9.410971285799999,0.9379864592,451
89388,182504,221957,3.8524443859999997,9.410971285799999,0.9379864592,452
89485,182540,221975,3.8524443859999997,9.410971285799999,0.9379864592,453
89652,182544,221966,3.8524443859999997,9.410971285799999,0.9379864592,454
89790,182576,222043,3.8524443859999997,9.410971285799999,0.9379864592,455
89929,182579,221998,3.8524443859999997,9.410971285799999,0.9379864592,456
90082,182621,222035,3.8524443859999997,9.410971285799999,0.9379864592,457
90241,182626,222023,3.8524443859999997,9.410971285799999,0.9379864592,458
90380,182638,222037,3.8524443859999997,9.410971285799999,0.9379864592,459
90381,182591,222012,3.8524443859999997,9.410971285799999,0.9379864592,460
90017,182570,221996,3.8524443859999997,9.410971285799999,0.9379864592,461
89557,182506,221987,3.8524443859999997,9.410971285799999,0.9379864592,462
89245,182454,221915,3.8524443859999997,9.410971285799999,0.9379864592,463
89068,182476,221871,3.8524443859999997,9.410971285799999,0.9379864592,464
88990,182434,221911,3.8524443859999997,9.410971285799999,0.9379864592,465
88964,182455,221895,3.8524443859999997,9.410971285799999,0.9379864592,466
89029,182463,221924,3.8524443859999997,9.410971285799999,0.9379864592,467
89128,182494,221913,3.8524443859999997,9.410971285799999,0.9379864592,468
89185,182466,221904,3.8524443859999997,9.410971285799999,0.9379864592,469
89251,182484,221959,3.8524443859999997,9.410971285799999,0.9379864592,470
89359,182540,221958,3.8524443859999997,9.410971285799999,0.9379864592,471
89411,182483,221989,3.8524443859999997,9.410971285799999,0.9379864592,472
89515,182536,221948,3.8524443859999997,9.410971285799999,0.9379864592,473
89667,182527,222003,3.8524443859999997,9.410971285799999,0.9379864592,474
91169,182679,222084,3.7160534978000004,9.4887380203,0.8662017812,475
90886,182602,222070,3.7160534978000004,9.4887380203,0.8662017812,476
90523,182542,222038,3.7160534978000004,9.4887380203,0.8662017812,477
90349,182566,221973,3.7160534978000004,9.4887380203,0.8662017812,478
90246,182523,222011,3.7160534978000004,9.4887380203,0.8662017812,479
90252,182518,221979,3.7160534978000004,9.4887380203,0.8662017812,480
90304,182554,221986,3.7160534978000004,9.4887380203,0.8662017812,481
90379,182547,222021,3.7160534978000004,9.4887380203,0.8662017812,482
90444,182563,222052,3.7160534978000004,9.4887380203,0.8662017812,483
90484,182565,222035,3.7160534978000004,9.4887380203,0.8662017812,484
90514,182567,222038,3.7160534978000004,9.4887380203,0.8662017812,485
90624,182574,222048,3.7160534978000004,9.4887380203,0.8662017812,486
90745,182602,222020,3.7160534978000004,9.4887380203,0.8662017812,487
90795,182620,222067,3.7160534978000004,9.4887380203,0.8662017812,488
90909,182627,222060,3.7160534978000004,9.4887380203,0.8662017812,489
91024,182636,222041,3.7160534978000004,9.4887380203,0.8662017812,490
91120,182666,222091,3.7160534978000004,9.4887380203,0.8662017812,491
91252,182668,222054,3.7160534978000004,9.4887380203,0.8662017812,492
91384,182705,222129,3.7160534978000004,9.4887380203,0.8662017812,493
91508,182714,222098,3.7160534978000004,9.4887380203,0.8662017812,494
91488,182710,222141,3.7160534978000004,9.4887380203,0.8662017812,495
91141,182660,222076,3.7160534978000004,9.4887380203,0.8662017812,496
90706,182600,222034,3.7160534978000004,9.4887380203,0.8662017812,497
90382,182561,222015,3.7160534978000004,9.4887380203,0.8662017812,498
90208,182578,222000,3.7160534978000004,9.4887380203,0.8662017812,499
90112,182522,222019,3.7160534978000004,9.4887380203,0.8662017812,500
90093,182542,222019,3.7160534978000004,9.4887380203,0.8662017812,501
90094,182551,222029,3.7160534978000004,9.4887380203,0.8662017812,502
90148,182574,222015,3.7160534978000004,9.4887380203,0.8662017812,503
90169,182553,221989,3.7160534978000004,9.4887380203,0.8662017812,504
90186,182588,222018,3.7160534978000004,9.4887380203,0.8662017812,505
90202,182565,222018,3.7160534978000004,9.4887380203,0.8662017812,506
90256,182594,222026,3.6251262389999996,9.4540420926,0.8566304908000001,507
90410,182614,222019,3.6251262389999996,9.4540420926,0.8566304908000001,508
90423,182601,222058,3.6251262389999996,9.4540420926,0.8566304908000001,509
90545,182651,222034,3.6251262389999996,9.4540420926,0.8566304908000001,510
90676,182637,222063,3.6251262389999996,9.4540420926,0.8566304908000001,511
90726,182656,222090,3.6251262389999996,9.4540420926,0.8566304908000001,512
90932,182679,222074,3.6251262389999996,9.4540420926,0.8566304908000001,513
90960,182691,222111,3.6251262389999996,9.4540420926,0.8566304908000001,514
90818,182640,222038,3.6251262389999996,9.4540420926,0.8566304908000001,515
90347,182588,222008,3.6251262389999996,9.4540420926,0.8566304908000001,516
89854,182514,221966,3.6251262389999996,9.4540420926,0.8566304908000001,517
89497,182498,221996,3.6251262389999996,9.4540420926,0.8566304908000001,518
89305,182479,221910,3.6251262389999996,9.4540420926,0.8566304908000001,519
89165,182461,221930,3.6251262389999996,9.4540420926,0.8566304908000001,520
89119,182472,221935,3.6251262389999996,9.4540420926,0.8566304908000001,521
89159,182445,221917,3.6251262389999996,9.4540420926,0.8566304908000001,522
89212,182494,221882,3.6251262389999996,9.4540420926,0.8566304908000001,523
89260,182480,221923,3.6251262389999996,9.4540420926,0.8566304908000001,524
89304,182480,221936,3.6251262389999996,9.4540420926,0.8566304908000001,525
89356,182494,221972,3.6957145057000003,9.5210411254,0.9798608547,526
89427,182519,221958,3.6957145057000003,9.5210411254,0.9798608547,527
89534,182542,221959,3.6957145057000003,9.5210411254,0.9798608547,528
89637,182542,221996,3.6957145057000003,9.5210411254,0.9798608547,529
89791,182574,221973,3.6957145057000003,9.5210411254,0.9798608547,530
89943,182584,222003,3.6957145057000003,9.5210411254,0.9798608547,531
90074,182597,222002,3.6957145057000003,9.5210411254,0.9798608547,532
90213,182624,222060,3.6957145057000003,9.5210411254,0.9798608547,533
90368,182606,222045,3.6957145057000003,9.5210411254,0.9798608547,534
90375,182607,222019,3.6957145057000003,9.5210411254,0.9798608547,535
90023,182544,221997,3.6957145057000003,9.5210411254,0.9798608547,536
89526,182501,221926,3.6957145057000003,9.5210411254,0.9798608547,537
89130,182488,221908,3.6957145057000003,9.5210411254,0.9798608547,538
88924,182460,221853,3.6957145057000003,9.5210411254,0.9798608547,539
88811,182435,221867,3.6957145057000003,9.5210411254,0.9798608547,540
88785,182450,221885,3.6957145057000003,9.5210411254,0.9798608547,541
88835,182474,221927,3.6957145057000003,9.5210411254,0.9798608547,542
88911,182455,221886,3.6957145057000003,9.5210411254,0.9798608547,543
88984,182469,221896,3.6957145057000003,9.5210411254,0.9798608547,544
89034,182482,221913,3.6957145057000003,9.5210411254,0.9798608547,545
89114,182497,221907,3.6957145057000003,9.5210411254,0.9798608547,546
89193,182495,221933,3.6957145057000003,9.5210411254,0.9798608547,547
89313,182514,221952,3.6957145057000003,9.5210411254,0.9798608547,548
89452,182494,221899,3.6957145057000003,9.5210411254,0.9798608547,549
89613,182541,221963,3.6957145057000003,9.5210411254,0.9798608547,550
89770,182578,221955,3.6957145057000003,9.5210411254,0.9798608547,551
89867,182608,221968,3.7627135385,9.5078806011,0.801595571,552
90095,182590,222039,3.7627135385,9.5078806011,0.801595571,553
90231,182621,222039,3.7627135385,9.5078806011,0.801595571,554
90462,182647,222065,3.7627135385,9.5078806011,0.801595571,555
90492,182654,222045,3.7627135385,9.5078806011,0.801595571,556
90189,182582,221996,3.7627135385,9.5078806011,0.801595571,557
89718,182517,221982,3.7627135385,9.5078806011,0.801595571,558
89385,182473,221954,3.7627135385,9.5078806011,0.801595571,559
89247,182450,221943,3.7627135385,9.5078806011,0.801595571,560
89181,182470,221965,3.7627135385,9.5078806011,0.801595571,561
89201,182445,221931,3.7627135385,9.5078806011,0.801595571,562
89272,182447,221927,3.7627135385,9.5078806011,0.801595571,563
89421,182476,221912,3.7627135385,9.5078806011,0.801595571,564
89507,182511,221977,3.7627135385,9.5078806011,0.801595571,565
89580,182490,221948,3.7627135385,9.5078806011,0.801595571,566
89671,182465,221980,3.7627135385,9.5078806011,0.801595571,567
89778,182514,221996,3.7627135385,9.5078806011,0.801595571,568
89903,182521,222009,3.7627135385,9.5078806011,0.801595571,569
90054,182549,222012,3.7627135385,9.5078806011,0.801595571,570
90211,182571,221987,3.7627135385,9.5078806011,0.801595571,571
90375,182565,222039,3.7627135385,9.5078806011,0.801595571,572
90535,182584,222052,3.7627135385,9.5078806011,0.801595571,573
90708,182607,222053,3.7627135385,9.5078806011,0.801595571,574
90873,182622,222077,3.7627135385,9.5078806011,0.801595571,575
91045,182646,222106,3.7627135385,9.5078806011,0.801595571,576
91117,182651,222077,3.7627135385,9.5078806011,0.801595571,577
90977,182585,222053,3.7627135385,9.5078806011,0.801595571,578
90555,182584,222049,3.7627135385,9.5078806011,0.801595571,579
90270,182523,221992,3.7627135385,9.5078806011,0.801595571,580
90170,182512,222004,3.7627135385,9.5078806011,0.801595571,581
90138,182526,221986,3.7627135385,9.5078806011,0.801595571,582
90185,182563,222019,3.7627135385,9.5078806011,0.801595571,583
90295,182565,221967,3.7627135385,9.5078806011,0.801595571,584
90412,182581,222030,3.7627135385,9.5078806011,0.801595571,585
90482,182595,222007,3.7627135385,9.5078806011,0.801595571,586
90542,182562,222018,3.7627135385,9.5078806011,0.801595571,587
90610,182603,222043,3.7627135385,9.5078806011,0.801595571,588
90707,182569,222060,3.7627135385,9.5078806011,0.801595571,589
90796,182595,222049,3.7627135385,9.5078806011,0.801595571,590
90950,182668,222043,3.7627135385,9.5078806011,0.801595571,591
91085,182640,222090,3.7627135385,9.5078806011,0.801595571,592
91201,182647,222129,3.7627135385,9.5078806011,0.801595571,593
90615,182605,222044,3.7902309983999998,9.5401837062,0.8434699665000001,594
90776,182623,222079,3.7902309983999998,9.5401837062,0.8434699665000001,595
90883,182639,222064,3.7902309983999998,9.5401837062,0.8434699665000001,596
90904,182647,222042,3.7902309983999998,9.5401837062,0.8434699665000001,597
91027,182683,222087,3.7902309983999998,9.5401837062,0.8434699665000001,598
91135,182688,222121,3.7902309983999998,9.5401837062,0.8434699665000001,599
91287,182724,222101,3.7902309983999998,9.5401837062,0.8434699665000001,600
91230,182684,222111,3.7902309983999998,9.5401837062,0.8434699665000001,601
90874,182627,222059,3.7902309983999998,9.5401837062,0.8434699665000001,602
90255,182539,221994,3.7902309983999998,9.5401837062,0.8434699665000001,603
89845,182543,221946,3.7902309983999998,9.5401837062,0.8434699665000001,604
89613,182493,221959,3.7902309983999998,9.5401837062,0.8434699665000001,605
89427,182477,221907,3.7866417645,9.420542576199999,0.8434699665000001,606
89337,182475,221898,3.7866417645,9.420542576199999,0.8434699665000001,607
89406,182506,221919,3.7866417645,9.420542576199999,0.8434699665000001,608
89430,182508,221914,3.7866417645,9.420542576199999,0.8434699665000001,609
89482,182506,221955,3.7866417645,9.420542576199999,0.8434699665000001,610
89499,182514,221983,3.7866417645,9.420542576199999,0.8434699665000001,611
89553,182518,221919,3.7866417645,9.420542576199999,0.8434699665000001,612
89616,182531,221956,3.7866417645,9.420542576199999,0.8434699665000001,613
89684,182533,221934,3.7866417645,9.420542576199999,0.8434699665000001,614
89788,182542,221973,3.7866417645,9.420542576199999,0.8434699665000001,615
89917,182567,222002,3.7866417645,9.420542576199999,0.8434699665000001,616
90056,182586,221996,3.7866417645,9.420542576199999,0.8434699665000001,617
90197,182600,221978,3.7866417645,9.420542576199999,0.8434699665000001,618
90313,182634,221997,3.7866417645,9.420542576199999,0.8434699665000001,619
90456,182619,222032,3.7866417645,9.420542576199999,0.8434699665000001,620
90580,182675,222018,3.7866417645,9.420542576199999,0.8434699665000001,621
90566,182644,222042,3.7866417645,9.420542576199999,0.8434699665000001,622
90139,182576,222012,3.7866417645,9.420542576199999,0.8434699665000001,623
89627,182503,221954,3.7866417645,9.420542576199999,0.8434699665000001,624
89234,182461,221899,3.7866417645,9.420542576199999,0.8434699665000001,625
89013,182415,221903,3.7866417645,9.420542576199999,0.8434699665000001,626
88906,182434,221887,3.7866417645,9.420542576199999,0.8434699665000001,627
88901,182447,221859,3.7866417645,9.420542576199999,0.8434699665000001,628
88946,182455,221903,3.7866417645,9.420542576199999,0.8434699665000001,629
89041,182454,221919,3.7866417645,9.420542576199999,0.8434699665000001,630
89127,182470,221905,3.7866417645,9.420542576199999,0.8434699665000001,631
89181,182459,221945,3.7866417645,9.420542576199999,0.8434699665000001,632
89248,182480,221910,3.7866417645,9.420542576199999,0.8434699665000001,633
89333,182486,221914,3.7866417645,9.420542576199999,0.8434699665000001,634
89456,182532,221944,3.7866417645,9.420542576199999,0.8434699665000001,635
89589,182526,221941,3.7866417645,9.420542576199999,0.8434699665000001,636
89745,182555,221969,3.7866417645,9.420542576199999,0.8434699665000001,637
89903,182579,222031,3.7866417645,9.420542576199999,0.8434699665000001,638
90055,182591,221984,3.7866417645,9.420542576199999,0.8434699665000001,639
90274,182595,222045,3.7866417645,9.420542576199999,0.8434699665000001,640
90365,182608,222015,3.7866417645,9.420542576199999,0.8434699665000001,641
90552,182640,222036,3.7866417645,9.420542576199999,0.8434699665000001,642
90672,182660,222044,3.7866417645,9.420542576199999,0.8434699665000001,643
90485,182596,222011,3.7866417645,9.420542576199999,0.8434699665000001,644
90049,182551,221999,3.7866417645,9.420542576199999,0.8434699665000001,645
89683,182459,221960,3.7866417645,9.420542576199999,0.8434699665000001,646
89486,182482,221944,3.7866417645,9.420542576199999,0.8434699665000001,647
90468,182586,222015,3.7016965622000004,9.4851487864,0.885344362,648
90621,182603,222060,3.7016965622000004,9.4851487864,0.885344362,649
90808,182623,222073,3.7016965622000004,9.4851487864,0.885344362,650
90935,182653,222078,3.7016965622000004,9.4851487864,0.885344362,651
91160,182636,222059,3.7016965622000004,9.4851487864,0.885344362,652
91355,182693,222087,3.7016965622000004,9.4851487864,0.885344362,653
91408,182678,222144,3.7016965622000004,9.4851487864,0.885344362,654
91285,182627,222090,3.7016965622000004,9.4851487864,0.885344362,655
90993,182612,222051,3.7016965622000004,9.4851487864,0.885344362,656
90722,182586,221985,3.7830525306,9.4612205604,0.933200814,657
90626,182567,222037,3.7830525306,9.4612205604,0.933200814,658
90633,182558,222026,3.8069807566000002,9.451649269999999,0.9415756931,659
90726,182563,222013,3.8261233374,9.4348995118,0.9164510558,660
90772,182603,222051,3.5665020853000002,9.497112899400001,0.921236701,661
90932,182582,222060,3.5665020853000002,9.497112899400001,0.921236701,662
90982,182580,222019,3.5665020853000002,9.497112899400001,0.921236701,663
91054,182598,222050,3.5665020853000002,9.497112899400001,0.921236701,664
91122,182607,222046,3.5665020853000002,9.497112899400001,0.921236701,665
91236,182611,222033,3.5665020853000002,9.497112899400001,0.921236701,666
91348,182632,222084,3.5665020853000002,9.497112899400001,0.921236701,667
91503,182646,222066,3.5665020853000002,9.497112899400001,0.921236701,668
91596,182675,222108,3.5665020853000002,9.497112899400001,0.921236701,669
91724,182665,222111,3.5665020853000002,9.497112899400001,0.921236701,670
91857,182689,222099,3.5665020853000002,9.497112899400001,0.921236701,671
91978,182705,222128,3.5665020853000002,9.497112899400001,0.921236701,672
92126,182703,222145,3.5665020853000002,9.497112899400001,0.921236701,673
92063,182695,222110,3.5665020853000002,9.497112899400001,0.921236701,674
91785,182634,222081,3.5665020853000002,9.497112899400001,0.921236701,675
91490,182619,222055,3.5665020853000002,9.497112899400001,0.921236701,676
91287,182573,222069,3.5665020853000002,9.497112899400001,0.921236701,677
91206,182584,222049,3.5665020853000002,9.497112899400001,0.921236701,678
91174,182602,222045,3.5665020853000002,9.497112899400001,0.921236701,679
91225,182639,222072,3.5665020853000002,9.497112899400001,0.921236701,680
91308,182633,222110,3.5665020853000002,9.497112899400001,0.921236701,681
91342,182636,222064,3.5665020853000002,9.497112899400001,0.921236701,682
91369,182635,222106,3.5665020853000002,9.497112899400001,0.921236701,683
91386,182624,222080,3.5665020853000002,9.497112899400001,0.921236701,684
91435,182638,222100,3.5665020853000002,9.497112899400001,0.921236701,685
91500,182658,222098,3.5665020853000002,9.497112899400001,0.921236701,686
91585,182700,222098,3.5665020853000002,9.497112899400001,0.921236701,687
91680,182702,222156,3.5665020853000002,9.497112899400001,0.921236701,688
91748,182707,222123,3.5665020853000002,9.497112899400001,0.921236701,689
91832,182719,222135,3.5665020853000002,9.497112899400001,0.921236701,690
91941,182709,222161,3.5665020853000002,9.497112899400001,0.921236701,691
91907,182728,222144,3.5665020853000002,9.497112899400001,0.921236701,692
91634,182679,222085,3.5665020853000002,9.497112899400001,0.921236701,693
91172,182605,222051,3.5665020853000002,9.497112899400001,0.921236701,694
90785,182577,221995,3.5665020853000002,9.497112899400001,0.921236701,695
90544,182533,222039,3.5665020853000002,9.497112899400001,0.921236701,696
90390,182546,221989,3.5665020853000002,9.497112899400001,0.921236701,697
90312,182537,221989,3.5665020853000002,9.497112899400001,0.921236701,698
90306,182536,221985,3.5665020853000002,9.497112899400001,0.921236701,699
90324,182549,221965,3.5665020853000002,9.497112899400001,0.921236701,700
90357,182534,221958,3.5665020853000002,9.497112899400001,0.921236701,701
90360,182554,221958,3.5665020853000002,9.497112899400001,0.921236701,702
89075,182413,221841,3.6813575701,9.415756931,0.9128618219,703
89145,182463,221851,3.6813575701,9.415756931,0.9128618219,704
89308,182426,221877,3.6813575701,9.415756931,0.9128618219,705
89279,182450,221857,3.6813575701,9.415756931,0.9128618219,706
89363,182444,221862,3.6813575701,9.415756931,0.9128618219,707
89463,182490,221877,3.6813575701,9.415756931,0.9128618219,708
89572,182489,221881,3.6813575701,9.415756931,0.9128618219,709
89737,182513,221897,3.6813575701,9.415756931,0.9128618219,710
89901,182539,221893,3.6813575701,9.415756931,0.9128618219,711
90064,182547,221946,3.6813575701,9.415756931,0.9128618219,712
90230,182519,221968,3.6813575701,9.415756931,0.9128618219,713
90418,182571,221973,3.6813575701,9.415756931,0.9128618219,714
90500,182551,221952,3.6813575701,9.415756931,0.9128618219,715
90242,182531,221975,3.6813575701,9.415756931,0.9128618219,716
89871,182445,221885,3.6813575701,9.415756931,0.9128618219,717
89589,182430,221864,3.6813575701,9.415756931,0.9128618219,718
89454,182430,221855,3.6813575701,9.415756931,0.9128618219,719
89421,182411,221845,3.6813575701,9.415756931,0.9128618219,720
89463,182457,221851,3.6813575701,9.415756931,0.9128618219,721
89570,182428,221876,3.6813575701,9.415756931,0.9128618219,722
89678,182455,221879,3.6813575701,9.415756931,0.9128618219,723
89751,182448,221865,3.6813575701,9.415756931,0.9128618219,724
89843,182440,221878,3.6813575701,9.415756931,0.9128618219,725
89921,182487,221883,3.6813575701,9.415756931,0.9128618219,726
90035,182467,221906,3.6813575701,9.415756931,0.9128618219,727
90104,182463,221910,3.6813575701,9.415756931,0.9128618219,728
90193,182505,221875,3.8524443859999997,9.4372923344,1.0181460163,729
90195,182496,221904,3.8524443859999997,9.4372923344,1.0181460163,730
90310,182504,221860,3.8524443859999997,9.4372923344,1.0181460163,731
90432,182514,221890,3.8524443859999997,9.4372923344,1.0181460163,732
90513,182528,221871,3.8524443859999997,9.4372923344,1.0181460163,733
90542,182497,221832,3.8524443859999997,9.4372923344,1.0181460163,734
90171,182475,221850,3.8524443859999997,9.4372923344,1.0181460163,735
89866,182407,221853,3.8524443859999997,9.4372923344,1.0181460163,736
89683,182395,221802,3.8524443859999997,9.4372923344,1.0181460163,737
89602,182404,221815,3.8524443859999997,9.4372923344,1.0181460163,738
89608,182377,221805,3.8524443859999997,9.4372923344,1.0181460163,739
89713,182428,221825,3.8524443859999997,9.4372923344,1.0181460163,740
89853,182422,221831,3.8524443859999997,9.4372923344,1.0181460163,741
89949,182439,221838,3.8524443859999997,9.4372923344,1.0181460163,742
90039,182452,221819,3.8524443859999997,9.4372923344,1.0181460163,743
90141,182463,221830,3.8524443859999997,9.4372923344,1.0181460163,744
90255,182497,221918,3.8524443859999997,9.4372923344,1.0181460163,745
90404,182524,221896,3.8524443859999997,9.4372923344,1.0181460163,746
90548,182530,221893,3.8524443859999997,9.4372923344,1.0181460163,747
90714,182558,221915,3.8524443859999997,9.4372923344,1.0181460163,748
90867,182540,221962,3.8524443859999997,9.4372923344,1.0181460163,749
90991,182595,221976,3.8524443859999997,9.4372923344,1.0181460163,750
91156,182616,221998,3.8524443859999997,9.4372923344,1.0181460163,751
91256,182629,221986,3.8524443859999997,9.4372923344,1.0181460163,752
91072,182592,221952,3.8524443859999997,9.4372923344,1.0181460163,753
90642,182504,221935,3.8524443859999997,9.4372923344,1.0181460163,754
90349,182523,221897,3.8524443859999997,9.4372923344,1.0181460163,755
90147,182515,221895,3.8524443859999997,9.4372923344,1.0181460163,756
90026,182462,221902,3.8524443859999997,9.4372923344,1.0181460163,757
89985,182495,221887,3.8524443859999997,9.4372923344,1.0181460163,758
90011,182502,221906,3.8524443859999997,9.4372923344,1.0181460163,759
90097,182517,221921,3.8524443859999997,9.4372923344,1.0181460163,760
90131,182523,221857,3.8524443859999997,9.4372923344,1.0181460163,761
90159,182510,221877,3.8524443859999997,9.4372923344,1.0181460163,762
90194,182482,221897,3.8524443859999997,9.4372923344,1.0181460163,763
90241,182515,221872,3.8524443859999997,9.4372923344,1.0181460163,764
90319,182509,221892,3.8524443859999997,9.4372923344,1.0181460163,765
90417,182594,221917,3.8524443859999997,9.4372923344,1.0181460163,766
90496,182574,221939,3.8524443859999997,9.4372923344,1.0181460163,767
90596,182595,221948,3.8524443859999997,9.4372923344,1.0181460163,768
90704,182574,221936,3.8524443859999997,9.4372923344,1.0181460163,769
90824,182589,221912,3.8524443859999997,9.4372923344,1.0181460163,770
89642,182520,221824,3.7746776515,9.475577496,0.8542376682,771
89742,182503,221823,3.7746776515,9.475577496,0.8542376682,772
89926,182545,221825,3.7746776515,9.475577496,0.8542376682,773
89966,182538,221831,3.7746776515,9.475577496,0.8542376682,774
89770,182510,221812,3.7746776515,9.475577496,0.8542376682,775
89302,182431,221798,3.7746776515,9.475577496,0.8542376682,776
88920,182405,221734,3.7746776515,9.475577496,0.8542376682,777
88731,182332,221749,3.7746776515,9.475577496,0.8542376682,778
88603,182344,221717,3.7746776515,9.475577496,0.8542376682,779
88632,182330,221704,3.7746776515,9.475577496,0.8542376682,780
88719,182360,221731,3.7746776515,9.475577496,0.8542376682,781
88762,182402,221731,3.7746776515,9.475577496,0.8542376682,782
88903,182340,221792,3.7746776515,9.475577496,0.8542376682,783
89016,182392,221753,3.7746776515,9.475577496,0.8542376682,784
89096,182398,221767,3.7746776515,9.475577496,0.8542376682,785
89192,182431,221814,3.7746776515,9.475577496,0.8542376682,786
89339,182398,221810,3.7746776515,9.475577496,0.8542376682,787
89482,182431,221768,3.7746776515,9.475577496,0.8542376682,788
89646,182443,221808,3.7746776515,9.475577496,0.8542376682,789
89841,182480,221868,3.7746776515,9.475577496,0.8542376682,790
90008,182495,221845,3.7746776515,9.475577496,0.8542376682,791
90183,182516,221895,3.7746776515,9.475577496,0.8542376682,792
90359,182543,221913,3.7746776515,9.475577496,0.8542376682,793
90491,182541,221919,3.7746776515,9.475577496,0.8542376682,794
90357,182508,221886,3.7746776515,9.475577496,0.8542376682,795
89955,182466,221843,3.7746776515,9.475577496,0.8542376682,796
89635,182411,221796,3.7746776515,9.475577496,0.8542376682,797
89463,182372,221800,3.7746776515,9.475577496,0.8542376682,798
89437,182376,221795,3.7746776515,9.475577496,0.8542376682,799
89480,182417,221785,3.7746776515,9.475577496,0.8542376682,800
89586,182380,221831,3.7746776515,9.475577496,0.8542376682,801
89698,182420,221823,3.7746776515,9.475577496,0.8542376682,802
89794,182433,221817,3.7746776515,9.475577496,0.8542376682,803
89869,182422,221840,3.7746776515,9.475577496,0.8542376682,804
89947,182431,221841,3.7746776515,9.475577496,0.8542376682,805
90040,182450,221854,3.7746776515,9.475577496,0.8542376682,806
90183,182470,221902,3.7746776515,9.475577496,0.8542376682,807
90307,182494,221865,3.7746776515,9.475577496,0.8542376682,808
90456,182532,221894,3.7746776515,9.475577496,0.8542376682,809
90582,182491,221906,3.7746776515,9.475577496,0.8542376682,810
90715,182560,221884,3.7746776515,9.475577496,0.8542376682,811
90875,182567,221914,3.7746776515,9.475577496,0.8542376682,812
88793,182356,221787,3.637090352,9.3499543095,0.9284151688,813
88527,182331,221758,3.637090352,9.3499543095,0.9284151688,814
88373,182331,221718,3.637090352,9.3499543095,0.9284151688,815
88300,182323,221746,3.637090352,9.3499543095,0.9284151688,816
88339,182309,221777,3.637090352,9.3499543095,0.9284151688,817
88390,182341,221748,3.637090352,9.3499543095,0.9284151688,818
88552,182341,221800,3.637090352,9.3499543095,0.9284151688,819
88556,182360,221778,3.637090352,9.3499543095,0.9284151688,820
88606,182358,221784,3.637090352,9.3499543095,0.9284151688,821
88696,182391,221811,3.637090352,9.3499543095,0.9284151688,822
88820,182371,221815,3.637090352,9.3499543095,0.9284151688,823
88999,182406,221841,3.637090352,9.3499543095,0.9284151688,824
89097,182417,221874,3.637090352,9.3499543095,0.9284151688,825
89265,182477,221864,3.637090352,9.3499543095,0.9284151688,826
89420,182465,221826,3.637090352,9.3499543095,0.9284151688,827
89650,182487,221879,3.637090352,9.3499543095,0.9284151688,828
89757,182513,221912,3.637090352,9.3499543095,0.9284151688,829
89935,182536,221917,3.637090352,9.3499543095,0.9284151688,830
90011,182515,221939,3.637090352,9.3499543095,0.9284151688,831
89711,182481,221906,3.637090352,9.3499543095,0.9284151688,832
89269,182425,221855,3.637090352,9.3499543095,0.9284151688,833
88830,182365,221802,3.637090352,9.3499543095,0.9284151688,834
88630,182360,221773,3.637090352,9.3499543095,0.9284151688,835
88525,182341,221770,3.637090352,9.3499543095,0.9284151688,836
88519,182345,221781,3.637090352,9.3499543095,0.9284151688,837
88594,182350,221778,3.637090352,9.3499543095,0.9284151688,838
88694,182390,221816,3.637090352,9.3499543095,0.9284151688,839
88766,182391,221812,3.637090352,9.3499543095,0.9284151688,840
88849,182362,221848,3.637090352,9.3499543095,0.9284151688,841
88920,182402,221815,3.637090352,9.3499543095,0.9284151688,842
89032,182362,221827,3.637090352,9.3499543095,0.9284151688,843
89163,182437,221841,3.637090352,9.3499543095,0.9284151688,844
89317,182448,221855,3.637090352,9.3499543095,0.9284151688,845
89476,182480,221896,3.637090352,9.3499543095,0.9284151688,846
89649,182486,221916,3.637090352,9.3499543095,0.9284151688,847
89835,182489,221886,3.637090352,9.3499543095,0.9284151688,848
90013,182480,221916,3.637090352,9.3499543095,0.9284151688,849
90191,182538,221928,3.637090352,9.3499543095,0.9284151688,850
90370,182554,221992,3.637090352,9.3499543095,0.9284151688,851
90481,182565,221940,3.637090352,9.3499543095,0.9284151688,852
90266,182492,221966,3.637090352,9.3499543095,0.9284151688,853
89866,182450,221941,3.637090352,9.3499543095,0.9284151688,854
89393,182397,221868,3.6059836581999996,9.5617191096,0.9535398061,855
89532,182409,221892,3.6059836581999996,9.5617191096,0.9535398061,856
89623,182432,221891,3.6059836581999996,9.5617191096,0.9535398061,857
89751,182433,221902,3.6059836581999996,9.5617191096,0.9535398061,858
89756,182424,221937,3.6059836581999996,9.5617191096,0.9535398061,859
89879,182451,221923,3.6059836581999996,9.5617191096,0.9535398061,860
89943,182459,221871,3.6059836581999996,9.5617191096,0.9535398061,861
90150,182473,221931,3.6059836581999996,9.5617191096,0.9535398061,862
90249,182487,221933,3.6059836581999996,9.5617191096,0.9535398061,863
90379,182531,221972,3.6059836581999996,9.5617191096,0.9535398061,864
90524,182503,221965,3.6059836581999996,9.5617191096,0.9535398061,865
90666,182573,221999,3.6059836581999996,9.5617191096,0.9535398061,866
90824,182536,222006,3.6059836581999996,9.5617191096,0.9535398061,867
90977,182563,222018,3.6059836581999996,9.5617191096,0.9535398061,868
91004,182571,221984,3.6059836581999996,9.5617191096,0.9535398061,869
90730,182503,221993,3.6059836581999996,9.5617191096,0.9535398061,870
90377,182468,221949,3.6059836581999996,9.5617191096,0.9535398061,871
90150,182430,221909,3.6059836581999996,9.5617191096,0.9535398061,872
90052,182448,221880,3.6059836581999996,9.5617191096,0.9535398061,873
90031,182414,221906,3.6059836581999996,9.5617191096,0.9535398061,874
90090,182458,221922,3.6059836581999996,9.5617191096,0.9535398061,875
90211,182482,221931,3.6059836581999996,9.5617191096,0.9535398061,876
90292,182485,221946,3.6059836581999996,9.5617191096,0.9535398061,877
90295,182504,221936,3.6059836581999996,9.5617191096,0.9535398061,878
90338,182519,221959,3.6059836581999996,9.5617191096,0.9535398061,879
90403,182500,221982,3.6059836581999996,9.5617191096,0.9535398061,880
90489,182556,221997,3.6059836581999996,9.5617191096,0.9535398061,881
90601,182513,221980,3.6059836581999996,9.5617191096,0.9535398061,882
90699,182569,222019,3.6059836581999996,9.5617191096,0.9535398061,883
90799,182595,222058,3.6059836581999996,9.5617191096,0.9535398061,884
90877,182572,222007,3.6059836581999996,9.5617191096,0.9535398061,885
90997,182603,222046,3.6059836581999996,9.5617191096,0.9535398061,886
91096,182609,222063,3.6059836581999996,9.5617191096,0.9535398061,887
90990,182614,222078,3.6059836581999996,9.5617191096,0.9535398061,888
90585,182543,221991,3.6059836581999996,9.5617191096,0.9535398061,889
90091,182494,221962,3.6059836581999996,9.5617191096,0.9535398061,890
89761,182452,221944,3.6059836581999996,9.5617191096,0.9535398061,891
89541,182419,221904,3.6059836581999996,9.5617191096,0.9535398061,892
89421,182411,221901,3.6059836581999996,9.5617191096,0.9535398061,893
89379,182444,221913,3.6059836581999996,9.5617191096,0.9535398061,894
89396,182428,221909,3.6059836581999996,9.5617191096,0.9535398061,895
89448,182437,221897,3.6059836581999996,9.5617191096,0.9535398061,896
89740,182517,222018,3.9086757171,9.4002035841,0.8685946038000001,897
89904,182540,222000,3.9086757171,9.4002035841,0.8685946038000001,898
90152,182547,222035,3.9086757171,9.4002035841,0.8685946038000001,899
90228,182552,222063,3.9086757171,9.4002035841,0.8685946038000001,900
90089,182516,222020,3.9086757171,9.4002035841,0.8685946038000001,901
89649,182433,221974,3.9086757171,9.4002035841,0.8685946038000001,902
89212,182395,221952,3.9086757171,9.4002035841,0.8685946038000001,903
89012,182396,221914,3.9086757171,9.4002035841,0.8685946038000001,904
88906,182374,221921,3.9086757171,9.4002035841,0.8685946038000001,905
88918,182377,221874,3.9086757171,9.4002035841,0.8685946038000001,906
88984,182399,221916,3.9086757171,9.4002035841,0.8685946038000001,907
89076,182389,221976,3.9086757171,9.4002035841,0.8685946038000001,908
89179,182404,221932,3.9086757171,9.4002035841,0.8685946038000001,909
89262,182417,221920,3.9086757171,9.4002035841,0.8685946038000001,910
89337,182390,221923,3.9086757171,9.4002035841,0.8685946038000001,911
89477,182422,221956,3.9086757171,9.4002035841,0.8685946038000001,912
89601,182447,221981,3.9086757171,9.4002035841,0.8685946038000001,913
89755,182469,221953,3.9086757171,9.4002035841,0.8685946038000001,914
89930,182459,221984,3.9086757171,9.4002035841,0.8685946038000001,915
90091,182484,221981,3.9086757171,9.4002035841,0.8685946038000001,916
90244,182492,222018,3.9086757171,9.4002035841,0.8685946038000001,917
90360,182545,222032,3.9086757171,9.4002035841,0.8685946038000001,918
90510,182552,222033,3.9086757171,9.4002035841,0.8685946038000001,919
90649,182560,222036,3.9086757171,9.4002035841,0.8685946038000001,920
90754,182569,222037,3.9086757171,9.4002035841,0.8685946038000001,921
90620,182523,222065,3.9086757171,9.4002035841,0.8685946038000001,922
90214,182468,221977,3.9086757171,9.4002035841,0.8685946038000001,923
89883,182401,221967,3.9086757171,9.4002035841,0.8685946038000001,924
89757,182395,221974,3.9086757171,9.4002035841,0.8685946038000001,925
89748,182390,221974,3.9086757171,9.4002035841,0.8685946038000001,926
89827,182458,221979,3.9086757171,9.4002035841,0.8685946038000001,927
89933,182465,221974,3.9086757171,9.4002035841,0.8685946038000001,928
90069,182462,222008,3.9086757171,9.4002035841,0.8685946038000001,929
90134,182468,222016,3.9086757171,9.4002035841,0.8685946038000001,930
90209,182464,222019,3.9086757171,9.4002035841,0.8685946038000001,931
90360,182488,222058,3.9086757171,9.4002035841,0.8685946038000001,932
90397,182491,222039,3.9086757171,9.4002035841,0.8685946038000001,933
90515,182489,222037,3.9086757171,9.4002035841,0.8685946038000001,934
90639,182526,222050,3.9086757171,9.4002035841,0.8685946038000001,935
90778,182531,222068,3.9086757171,9.4002035841,0.8685946038000001,936
90908,182548,222080,3.9086757171,9.4002035841,0.8685946038000001,937
91040,182597,222077,3.9086757171,9.4002035841,0.8685946038000001,938
90232,182486,222011,3.8081771679,9.6059863277,0.9583254512999999,939
90316,182502,222006,3.8081771679,9.6059863277,0.9583254512999999,940
90334,182513,221994,3.8081771679,9.6059863277,0.9583254512999999,941
90422,182482,222017,3.8081771679,9.6059863277,0.9583254512999999,942
90448,182557,221990,3.8081771679,9.6059863277,0.9583254512999999,943
90514,182521,222040,3.8081771679,9.6059863277,0.9583254512999999,944
90582,182530,222076,3.8081771679,9.6059863277,0.9583254512999999,945
90644,182550,222077,3.8081771679,9.6059863277,0.9583254512999999,946
90781,182587,222038,3.8081771679,9.6059863277,0.9583254512999999,947
90840,182592,222052,3.8081771679,9.6059863277,0.9583254512999999,948
90955,182591,222040,3.8081771679,9.6059863277,0.9583254512999999,949
91050,182607,222101,3.8081771679,9.6059863277,0.9583254512999999,950
91052,182630,222106,3.8081771679,9.6059863277,0.9583254512999999,951
90757,182553,222051,3.8081771679,9.6059863277,0.9583254512999999,952
90236,182477,221971,3.8081771679,9.6059863277,0.9583254512999999,953
89814,182456,221946,3.8081771679,9.6059863277,0.9583254512999999,954
89546,182438,221965,3.8081771679,9.6059863277,0.9583254512999999,955
89355,182415,221917,3.8081771679,9.6059863277,0.9583254512999999,956
89246,182418,221908,3.8081771679,9.6059863277,0.9583254512999999,957
89276,182413,221955,3.8081771679,9.6059863277,0.9583254512999999,958
89299,182410,221954,3.8081771679,9.6059863277,0.9583254512999999,959
89302,182428,221924,3.8081771679,9.6059863277,0.9583254512999999,960
89333,182421,221892,3.8081771679,9.6059863277,0.9583254512999999,961
89359,182426,221926,3.8081771679,9.6059863277,0.9583254512999999,962
89420,182425,221908,3.8081771679,9.6059863277,0.9583254512999999,963
89506,182483,221902,3.8081771679,9.6059863277,0.9583254512999999,964
89612,182443,221952,3.8081771679,9.6059863277,0.9583254512999999,965
89715,182489,221929,3.8081771679,9.6059863277,0.9583254512999999,966
89834,182486,221961,3.8081771679,9.6059863277,0.9583254512999999,967
89966,182490,221963,3.8081771679,9.6059863277,0.9583254512999999,968
90100,182505,221953,3.8081771679,9.6059863277,0.9583254512999999,969
90232,182573,222025,3.8081771679,9.6059863277,0.9583254512999999,970
90169,182554,221972,3.8081771679,9.6059863277,0.9583254512999999,971
89732,182463,221943,3.8081771679,9.6059863277,0.9583254512999999,972
89202,182399,221878,3.8081771679,9.6059863277,0.9583254512999999,973
88859,182366,221881,3.8081771679,9.6059863277,0.9583254512999999,974
88641,182354,221846,3.8081771679,9.6059863277,0.9583254512999999,975
88501,182337,221870,3.8081771679,9.6059863277,0.9583254512999999,976
88473,182344,221819,3.8081771679,9.6059863277,0.9583254512999999,977
88542,182349,221847,3.8081771679,9.6059863277,0.9583254512999999,978
88651,182347,221836,3.8081771679,9.6059863277,0.9583254512999999,979
88720,182383,221839,3.8081771679,9.6059863277,0.9583254512999999,980
88974,182349,221900,3.7998022888,9.4803631412,0.933200814,981
88765,182324,221853,3.7998022888,9.4803631412,0.933200814,982
88582,182304,221848,3.7998022888,9.4803631412,0.933200814,983
88496,182322,221838,3.7998022888,9.4803631412,0.933200814,984
88546,182325,221875,3.7998022888,9.4803631412,0.933200814,985
88602,182354,221871,3.7998022888,9.4803631412,0.933200814,986
88711,182354,221931,3.7998022888,9.4803631412,0.933200814,987
88743,182352,221876,3.7998022888,9.4803631412,0.933200814,988
88853,182373,221895,3.7998022888,9.4803631412,0.933200814,989
88895,182386,221912,3.7998022888,9.4803631412,0.933200814,990
88998,182365,221919,3.7998022888,9.4803631412,0.933200814,991
89152,182406,221931,3.7998022888,9.4803631412,0.933200814,992
89322,182440,221959,3.7998022888,9.4803631412,0.933200814,993
89405,182430,221974,3.7998022888,9.4803631412,0.933200814,994
89564,182455,221982,3.7998022888,9.4803631412,0.933200814,995
89755,182497,221973,3.7998022888,9.4803631412,0.933200814,996
89989,182512,222026,3.7998022888,9.4803631412,0.933200814,997
89911,182507,222031,3.7998022888,9.4803631412,0.933200814,998
89443,182433,221920,3.7998022888,9.4803631412,0.933200814,999
89045,182382,221925,3.7998022888,9.4803631412,0.933200814,1000
88774,182344,221878,3.7998022888,9.4803631412,0.933200814,1001
88593,182297,221890,3.7998022888,9.4803631412,0.933200814,1002
88488,182340,221885,3.7998022888,9.4803631412,0.933200814,1003
88509,182311,221855,3.7998022888,9.4803631412,0.933200814,1004
88604,182338,221909,3.7998022888,9.4803631412,0.933200814,1005
88720,182353,221921,3.7998022888,9.4803631412,0.933200814,1006
88808,182333,221880,3.7998022888,9.4803631412,0.933200814,1007
88902,182345,221899,3.7998022888,9.4803631412,0.933200814,1008
88995,182333,221899,3.7998022888,9.4803631412,0.933200814,1009
89130,182384,221935,3.7998022888,9.4803631412,0.933200814,1010
89272,182384,221930,3.7998022888,9.4803631412,0.933200814,1011
89469,182407,221989,3.7998022888,9.4803631412,0.933200814,1012
89653,182431,221990,3.7998022888,9.4803631412,0.933200814,1013
89846,182456,222030,3.7998022888,9.4803631412,0.933200814,1014
90039,182482,222023,3.7998022888,9.4803631412,0.933200814,1015
90218,182489,222015,3.7998022888,9.4803631412,0.933200814,1016
90433,182503,222034,3.7998022888,9.4803631412,0.933200814,1017
90586,182514,222075,3.7998022888,9.4803631412,0.933200814,1018
90460,182478,222047,3.7998022888,9.4803631412,0.933200814,1019
90089,182443,221974,3.7998022888,9.4803631412,0.933200814,1020
89793,182375,221982,3.7998022888,9.4803631412,0.933200814,1021
89662,182363,221975,3.7998022888,9.4803631412,0.933200814,1022
89949,182437,222017,3.7184463204,9.410971285799999,0.9535398061,1023
90084,182432,221979,3.7184463204,9.410971285799999,0.9535398061,1024
90157,182402,221984,3.7184463204,9.410971285799999,0.9535398061,1025
90238,182463,221985,3.7184463204,9.410971285799999,0.9535398061,1026
90369,182482,222021,3.7184463204,9.410971285799999,0.9535398061,1027
90458,182469,222061,3.7184463204,9.410971285799999,0.9535398061,1028
90643,182499,222078,3.7184463204,9.410971285799999,0.9535398061,1029
90778,182514,222083,3.7184463204,9.410971285799999,0.9535398061,1030
90973,182501,222099,3.7184463204,9.410971285799999,0.9535398061,1031
91083,182552,222103,3.7184463204,9.410971285799999,0.9535398061,1032
91246,182593,222091,3.7184463204,9.410971285799999,0.9535398061,1033
91406,182585,222100,3.7184463204,9.410971285799999,0.9535398061,1034
91459,182568,222150,3.7184463204,9.410971285799999,0.9535398061,1035
91269,182525,222093,3.7184463204,9.410971285799999,0.9535398061,1036
90977,182487,222058,3.7184463204,9.410971285799999,0.9535398061,1037
90767,182466,222045,3.7184463204,9.410971285799999,0.9535398061,1038
90685,182480,222061,3.7184463204,9.410971285799999,0.9535398061,1039
90669,182460,222022,3.7184463204,9.410971285799999,0.9535398061,1040
90734,182474,222041,3.7184463204,9.410971285799999,0.9535398061,1041
90808,182485,222086,3.7363924898999996,9.4911308429,0.8829515394,1042
90961,182509,222097,3.7363924898999996,9.4911308429,0.8829515394,1043
91010,182520,222056,3.7363924898999996,9.4911308429,0.8829515394,1044
91093,182522,222109,3.7363924898999996,9.4911308429,0.8829515394,1045
91120,182542,222061,3.7363924898999996,9.4911308429,0.8829515394,1046
91201,182566,222097,3.7363924898999996,9.4911308429,0.8829515394,1047
91328,182558,222098,3.7363924898999996,9.4911308429,0.8829515394,1048
91431,182605,222162,3.7363924898999996,9.4911308429,0.8829515394,1049
91515,182583,222127,3.7363924898999996,9.4911308429,0.8829515394,1050
91654,182609,222138,3.7363924898999996,9.4911308429,0.8829515394,1051
91762,182610,222129,3.7363924898999996,9.4911308429,0.8829515394,1052
91893,182660,222201,3.7363924898999996,9.4911308429,0.8829515394,1053
91907,182660,222180,3.7363924898999996,9.4911308429,0.8829515394,1054
91632,182604,222158,3.7363924898999996,9.4911308429,0.8829515394,1055
91249,182535,222120,3.7363924898999996,9.4911308429,0.8829515394,1056
90947,182540,222089,3.7363924898999996,9.4911308429,0.8829515394,1057
90750,182512,222056,3.7363924898999996,9.4911308429,0.8829515394,1058
90594,182502,222044,3.7363924898999996,9.4911308429,0.8829515394,1059
90566,182496,222026,3.7363924898999996,9.4911308429,0.8829515394,1060
90559,182509,222053,3.7363924898999996,9.4911308429,0.8829515394,1061
90607,182511,222013,3.5629128513999997,9.4911308429,0.8877371846000001,1062
90662,182504,222066,3.5629128513999997,9.4911308429,0.8877371846000001,1063
90618,182521,222042,3.5629128513999997,9.4911308429,0.8877371846000001,1064
90619,182522,222026,3.5629128513999997,9.4911308429,0.8877371846000001,1065
90704,182541,222072,3.5629128513999997,9.4911308429,0.8877371846000001,1066
90766,182547,222063,3.5629128513999997,9.4911308429,0.8877371846000001,1067
90870,182535,222063,3.5629128513999997,9.4911308429,0.8877371846000001,1068
90962,182562,222083,3.5629128513999997,9.4911308429,0.8877371846000001,1069
91077,182612,222078,3.5629128513999997,9.4911308429,0.8877371846000001,1070
91191,182605,222067,3.5629128513999997,9.4911308429,0.8877371846000001,1071
91301,182582,222083,3.5629128513999997,9.4911308429,0.8877371846000001,1072
91381,182609,222070,3.5629128513999997,9.4911308429,0.8877371846000001,1073
91245,182606,222083,3.5629128513999997,9.4911308429,0.8877371846000001,1074
90862,182543,222025,3.5629128513999997,9.4911308429,0.8877371846000001,1075
90431,182496,222012,3.5629128513999997,9.4911308429,0.8877371846000001,1076
90159,182444,221958,3.5629128513999997,9.4911308429,0.8877371846000001,1077
89989,182451,221961,3.5629128513999997,9.4911308429,0.8877371846000001,1078
89868,182438,221922,3.5629128513999997,9.4911308429,0.8877371846000001,1079
89855,182448,221969,3.5629128513999997,9.4911308429,0.8877371846000001,1080
89899,182436,221973,3.5629128513999997,9.4911308429,0.8877371846000001,1081
89946,182458,221954,3.5629128513999997,9.4911308429,0.8877371846000001,1082
89968,182461,221975,3.5629128513999997,9.4911308429,0.8877371846000001,1083
89999,182439,221937,3.5629128513999997,9.4911308429,0.8877371846000001,1084
90056,182465,221949,3.5629128513999997,9.4911308429,0.8877371846000001,1085
90122,182457,221929,3.5629128513999997,9.4911308429,0.8877371846000001,1086
90202,182463,221944,3.5629128513999997,9.4911308429,0.8877371846000001,1087
90346,182505,221966,3.5629128513999997,9.4911308429,0.8877371846000001,1088
90454,182544,222012,3.5629128513999997,9.4911308429,0.8877371846000001,1089
90573,182560,222007,3.5629128513999997,9.4911308429,0.8877371846000001,1090
90720,182575,222041,3.5629128513999997,9.4911308429,0.8877371846000001,1091
90852,182566,222057,3.5629128513999997,9.4911308429,0.8877371846000001,1092
90953,182567,222073,3.5629128513999997,9.4911308429,0.8877371846000001,1093
90808,182543,222029,3.5629128513999997,9.4911308429,0.8877371846000001,1094
90387,182501,221995,3.5629128513999997,9.4911308429,0.8877371846000001,1095
89972,182460,221943,3.5629128513999997,9.4911308429,0.8877371846000001,1096
89708,182412,221944,3.5629128513999997,9.4911308429,0.8877371846000001,1097
89557,182423,221883,3.5629128513999997,9.4911308429,0.8877371846000001,1098
89517,182381,221895,3.5629128513999997,9.4911308429,0.8877371846000001,1099
89534,182417,221916,3.5629128513999997,9.4911308429,0.8877371846000001,1100
89607,182422,221894,3.5629128513999997,9.4911308429,0.8877371846000001,1101
89671,182441,221946,3.5629128513999997,9.4911308429,0.8877371846000001,1102
89713,182430,221929,3.5629128513999997,9.4911308429,0.8877371846000001,1103
90830,182587,222045,3.6897324492,9.4337031005,0.8685946038000001,1104
90640,182530,222041,3.6897324492,9.4337031005,0.8685946038000001,1105
90272,182503,221966,3.6897324492,9.4337031005,0.8685946038000001,1106
89873,182442,221938,3.6897324492,9.4337031005,0.8685946038000001,1107
89690,182415,221922,3.6897324492,9.4337031005,0.8685946038000001,1108
89569,182402,221935,3.6897324492,9.4337031005,0.8685946038000001,1109
89580,182400,221933,3.6897324492,9.4337031005,0.8685946038000001,1110
89608,182387,221908,3.6897324492,9.4337031005,0.8685946038000001,1111
89802,182405,221944,3.6897324492,9.4337031005,0.8685946038000001,1112
89833,182420,221971,3.6897324492,9.4337031005,0.8685946038000001,1113
89896,182428,221941,3.6897324492,9.4337031005,0.8685946038000001,1114
89985,182442,221947,3.6897324492,9.4337031005,0.8685946038000001,1115
90062,182437,221972,3.6897324492,9.4337031005,0.8685946038000001,1116
90165,182467,221972,3.6897324492,9.4337031005,0.8685946038000001,1117
90305,182458,221954,3.6897324492,9.4337031005,0.8685946038000001,1118
90457,182506,222004,3.6897324492,9.4337031005,0.8685946038000001,1119
90597,182531,222004,3.6897324492,9.4337031005,0.8685946038000001,1120
90748,182538,222033,3.6897324492,9.4337031005,0.8685946038000001,1121
90877,182569,222048,3.6897324492,9.4337031005,0.8685946038000001,1122
91060,182557,222034,3.6897324492,9.4337031005,0.8685946038000001,1123
91139,182559,222037,3.6897324492,9.4337031005,0.8685946038000001,1124
90945,182535,222018,3.6897324492,9.4337031005,0.8685946038000001,1125
90574,182455,221980,3.6897324492,9.4337031005,0.8685946038000001,1126
90313,182420,221936,3.6897324492,9.4337031005,0.8685946038000001,1127
90175,182414,221887,3.6897324492,9.4337031005,0.8685946038000001,1128
90159,182421,221894,3.6897324492,9.4337031005,0.8685946038000001,1129
90207,182456,221948,3.6897324492,9.4337031005,0.8685946038000001,1130
90315,182478,221926,3.6897324492,9.4337031005,0.8685946038000001,1131
90418,182472,221953,3.6897324492,9.4337031005,0.8685946038000001,1132
90475,182470,222026,3.6897324492,9.4337031005,0.8685946038000001,1133
90554,182480,222018,3.6897324492,9.4337031005,0.8685946038000001,1134
90620,182478,221965,3.6897324492,9.4337031005,0.8685946038000001,1135
90722,182493,221973,3.6897324492,9.4337031005,0.8685946038000001,1136
90832,182522,221982,3.6897324492,9.4337031005,0.8685946038000001,1137
90939,182547,221962,3.6897324492,9.4337031005,0.8685946038000001,1138
91068,182562,222015,3.6897324492,9.4337031005,0.8685946038000001,1139
91197,182547,222040,3.6897324492,9.4337031005,0.8685946038000001,1140
91336,182596,222054,3.6897324492,9.4337031005,0.8685946038000001,1141
91488,182587,222069,3.6897324492,9.4337031005,0.8685946038000001,1142
91501,182599,222057,3.6897324492,9.4337031005,0.8685946038000001,1143
91243,182547,222017,3.6897324492,9.4337031005,0.8685946038000001,1144
90857,182476,221979,3.6897324492,9.4337031005,0.8685946038000001,1145
89536,182413,221860,3.7866417645,9.3894358824,0.8877371846000001,1146
89612,182385,221869,3.7866417645,9.3894358824,0.8877371846000001,1147
89694,182410,221869,3.7866417645,9.3894358824,0.8877371846000001,1148
89646,182409,221896,3.7866417645,9.3894358824,0.8877371846000001,1149
89719,182402,221893,3.7866417645,9.3894358824,0.8877371846000001,1150
89793,182424,221848,3.7866417645,9.3894358824,0.8877371846000001,1151
89871,182424,221902,3.7866417645,9.3894358824,0.8877371846000001,1152
89952,182433,221897,3.7866417645,9.3894358824,0.8877371846000001,1153
90027,182442,221919,3.7866417645,9.3894358824,0.8877371846000001,1154
90162,182430,221919,3.7866417645,9.3894358824,0.8877371846000001,1155
90326,182480,221919,3.7866417645,9.3894358824,0.8877371846000001,1156
90427,182503,221955,3.7866417645,9.3894358824,0.8877371846000001,1157
90272,182467,221907,3.6514472876,9.4061856406,0.969093153,1158
89816,182412,221902,3.6514472876,9.4061856406,0.969093153,1159
89366,182357,221870,3.6514472876,9.4061856406,0.969093153,1160
89045,182319,221805,3.6514472876,9.4061856406,0.969093153,1161
88850,182284,221796,3.6514472876,9.4061856406,0.969093153,1162
88749,182300,221808,3.6514472876,9.4061856406,0.969093153,1163
88712,182279,221829,3.6514472876,9.4061856406,0.969093153,1164
88774,182309,221809,3.6514472876,9.4061856406,0.969093153,1165
88886,182329,221771,3.6514472876,9.4061856406,0.969093153,1166
88964,182311,221800,3.6514472876,9.4061856406,0.969093153,1167
89018,182344,221818,3.6514472876,9.4061856406,0.969093153,1168
89071,182342,221831,3.6514472876,9.4061856406,0.969093153,1169
89157,182348,221815,3.6514472876,9.4061856406,0.969093153,1170
89297,182336,221852,3.6514472876,9.4061856406,0.969093153,1171
89417,182394,221853,3.6514472876,9.4061856406,0.969093153,1172
89540,182393,221848,3.6514472876,9.4061856406,0.969093153,1173
89695,182441,221904,3.6514472876,9.4061856406,0.969093153,1174
89861,182468,221899,3.6514472876,9.4061856406,0.969093153,1175
89923,182443,221892,3.6514472876,9.4061856406,0.969093153,1176
89667,182410,221912,3.6514472876,9.4061856406,0.969093153,1177
89189,182332,221833,3.6514472876,9.4061856406,0.969093153,1178
88803,182288,221792,3.6514472876,9.4061856406,0.969093153,1179
88599,182246,221769,3.6514472876,9.4061856406,0.969093153,1180
88471,182261,221745,3.6514472876,9.4061856406,0.969093153,1181
88456,182250,221779,3.6514472876,9.4061856406,0.969093153,1182
88522,182266,221748,3.6514472876,9.4061856406,0.969093153,1183
88599,182260,221818,3.8213376922,9.5210411254,0.921236701,1184
88698,182262,221783,3.8213376922,9.5210411254,0.921236701,1185
88771,182300,221811,3.8213376922,9.5210411254,0.921236701,1186
88885,182318,221815,3.8213376922,9.5210411254,0.921236701,1187
88971,182305,221851,3.8213376922,9.5210411254,0.921236701,1188
89089,182314,221860,3.8213376922,9.5210411254,0.921236701,1189
89253,182342,221832,3.8213376922,9.5210411254,0.921236701,1190
89412,182344,221858,3.8213376922,9.5210411254,0.921236701,1191
89575,182391,221879,3.8213376922,9.5210411254,0.921236701,1192
89763,182407,221889,3.8213376922,9.5210411254,0.921236701,1193
89954,182426,221928,3.8213376922,9.5210411254,0.921236701,1194
90050,182440,221929,3.8213376922,9.5210411254,0.921236701,1195
89805,182377,221940,3.8213376922,9.5210411254,0.921236701,1196
89413,182339,221854,4.0007993872,9.391828705,0.8721838377000001,1197
89095,182281,221808,4.0007993872,9.391828705,0.8721838377000001,1198
88891,182269,221820,4.0007993872,9.391828705,0.8721838377000001,1199
88857,182258,221815,4.0007993872,9.391828705,0.8721838377000001,1200
88882,182221,221845,4.0007993872,9.391828705,0.8721838377000001,1201
88963,182263,221816,4.0007993872,9.391828705,0.8721838377000001,1202
89087,182268,221840,4.0007993872,9.391828705,0.8721838377000001,1203
89190,182278,221805,4.0007993872,9.391828705,0.8721838377000001,1204
89271,182316,221852,4.0007993872,9.391828705,0.8721838377000001,1205
89350,182321,221862,4.0007993872,9.391828705,0.8721838377000001,1206
89485,182311,221905,4.0007993872,9.391828705,0.8721838377000001,1207
89611,182340,221896,4.0007993872,9.391828705,0.8721838377000001,1208
89763,182377,221912,4.0007993872,9.391828705,0.8721838377000001,1209
89899,182381,221941,4.0007993872,9.391828705,0.8721838377000001,1210
90053,182414,221907,4.0007993872,9.391828705,0.8721838377000001,1211
90240,182438,221970,4.0007993872,9.391828705,0.8721838377000001,1212
90393,182450,221984,4.0007993872,9.391828705,0.8721838377000001,1213
90396,182421,221953,4.0007993872,9.391828705,0.8721838377000001,1214
90070,182391,221978,4.0007993872,9.391828705,0.8721838377000001,1215
89722,182343,221940,4.0007993872,9.391828705,0.8721838377000001,1216
89513,182293,221863,4.0007993872,9.391828705,0.8721838377000001,1217
89412,182279,221858,4.0007993872,9.391828705,0.8721838377000001,1218
89407,182306,221860,4.0007993872,9.391828705,0.8721838377000001,1219
89506,182324,221885,4.0007993872,9.391828705,0.8721838377000001,1220
89636,182330,221860,4.0007993872,9.391828705,0.8721838377000001,1221
89687,182342,221911,4.0007993872,9.391828705,0.8721838377000001,1222
89772,182332,221922,4.0007993872,9.391828705,0.8721838377000001,1223
89829,182353,221947,4.0007993872,9.391828705,0.8721838377000001,1224
89924,182373,221942,4.0007993872,9.391828705,0.8721838377000001,1225
90022,182390,221925,4.0007993872,9.391828705,0.8721838377000001,1226
90144,182419,221943,4.0007993872,9.391828705,0.8721838377000001,1227
90278,182419,221954,4.0007993872,9.391828705,0.8721838377000001,1228
90401,182433,221981,4.0007993872,9.391828705,0.8721838377000001,1229
90529,182472,222018,4.0007993872,9.391828705,0.8721838377000001,1230
90680,182493,222003,4.0007993872,9.391828705,0.8721838377000001,1231
90744,182487,222000,4.0007993872,9.391828705,0.8721838377000001,1232
90527,182448,221970,4.0007993872,9.391828705,0.8721838377000001,1233
90094,182360,221955,4.0007993872,9.391828705,0.8721838377000001,1234
89511,182327,221922,3.6610185779999997,9.5868437469,0.9116654106,1235
89465,182325,221904,3.6610185779999997,9.5868437469,0.9116654106,1236
89362,182289,221903,3.6610185779999997,9.5868437469,0.9116654106,1237
89456,182340,221878,3.6610185779999997,9.5868437469,0.9116654106,1238
89540,182343,221901,3.6610185779999997,9.5868437469,0.9116654106,1239
89571,182331,221920,3.6610185779999997,9.5868437469,0.9116654106,1240
89597,182356,221906,3.6610185779999997,9.5868437469,0.9116654106,1241
89631,182350,221980,3.6610185779999997,9.5868437469,0.9116654106,1242
89706,182391,221923,3.6610185779999997,9.5868437469,0.9116654106,1243
89787,182383,221937,3.6610185779999997,9.5868437469,0.9116654106,1244
89875,182388,221925,3.6610185779999997,9.5868437469,0.9116654106,1245
89976,182399,221945,3.6610185779999997,9.5868437469,0.9116654106,1246
90102,182435,221968,3.6610185779999997,9.5868437469,0.9116654106,1247
90227,182449,221963,3.6610185779999997,9.5868437469,0.9116654106,1248
90336,182446,221971,3.6610185779999997,9.5868437469,0.9116654106,1249
90276,182442,221984,3.6610185779999997,9.5868437469,0.9116654106,1250
89869,182386,221921,3.6610185779999997,9.5868437469,0.9116654106,1251
89379,182309,221927,3.6610185779999997,9.5868437469,0.9116654106,1252
89007,182247,221846,3.6610185779999997,9.5868437469,0.9116654106,1253
88782,182265,221838,3.6610185779999997,9.5868437469,0.9116654106,1254
88615,182232,221865,3.6610185779999997,9.5868437469,0.9116654106,1255
88615,182232,221815,3.6610185779999997,9.5868437469,0.9116654106,1256
88646,182241,221824,3.6610185779999997,9.5868437469,0.9116654106,1257
88777,182232,221836,3.6610185779999997,9.5868437469,0.9116654106,1258
88773,182242,221831,3.6610185779999997,9.5868437469,0.9116654106,1259
88812,182256,221849,3.6610185779999997,9.5868437469,0.9116654106,1260
88868,182284,221852,3.6610185779999997,9.5868437469,0.9116654106,1261
88958,182305,221895,3.6610185779999997,9.5868437469,0.9116654106,1262
89056,182292,221865,3.6610185779999997,9.5868437469,0.9116654106,1263
89199,182299,221879,3.6610185779999997,9.5868437469,0.9116654106,1264
89338,182308,221874,3.6610185779999997,9.5868437469,0.9116654106,1265
89473,182342,221916,3.6610185779999997,9.5868437469,0.9116654106,1266
89611,182387,221917,3.6610185779999997,9.5868437469,0.9116654106,1267
89763,182397,221934,3.6610185779999997,9.5868437469,0.9116654106,1268
89875,182402,221954,3.6610185779999997,9.5868437469,0.9116654106,1269
89626,182354,221916,3.6610185779999997,9.5868437469,0.9116654106,1270
89124,182298,221880,3.6610185779999997,9.5868437469,0.9116654106,1271
88711,182214,221860,3.6610185779999997,9.5868437469,0.9116654106,1272
88454,182221,221809,3.6610185779999997,9.5868437469,0.9116654106,1273
88314,182209,221793,3.6610185779999997,9.5868437469,0.9116654106,1274
88270,182215,221835,3.6610185779999997,9.5868437469,0.9116654106,1275
88302,182197,221797,3.6610185779999997,9.5868437469,0.9116654106,1276
88860,182293,221886,3.7064822074,9.655039191,1.016949605,1277
88891,182255,221879,3.7064822074,9.655039191,1.016949605,1278
89038,182297,221885,3.7064822074,9.655039191,1.016949605,1279
89117,182285,221855,3.7064822074,9.655039191,1.016949605,1280
89249,182324,221930,3.7064822074,9.655039191,1.016949605,1281
89388,182334,221941,3.7064822074,9.655039191,1.016949605,1282
89567,182362,221897,3.7064822074,9.655039191,1.016949605,1283
89753,182369,221978,3.7064822074,9.655039191,1.016949605,1284
89911,182387,221982,3.7064822074,9.655039191,1.016949605,1285
90059,182409,221933,3.7064822074,9.655039191,1.016949605,1286
90276,182429,221994,3.7064822074,9.655039191,1.016949605,1287
90430,182435,221999,3.7064822074,9.655039191,1.016949605,1288
90624,182464,222035,3.7064822074,9.655039191,1.016949605,1289
90729,182472,222046,3.7064822074,9.655039191,1.016949605,1290
90544,182394,222026,3.7064822074,9.655039191,1.016949605,1291
90131,182354,221971,3.7064822074,9.655039191,1.016949605,1292
89836,182333,221972,3.7064822074,9.655039191,1.016949605,1293
89691,182301,221901,3.7064822074,9.655039191,1.016949605,1294
89635,182349,221935,3.7064822074,9.655039191,1.016949605,1295
89668,182351,221939,3.7064822074,9.655039191,1.016949605,1296
89745,182330,221921,3.7064822074,9.655039191,1.016949605,1297
89848,182360,221964,3.7064822074,9.655039191,1.016949605,1298
89925,182356,221950,3.7064822074,9.655039191,1.016949605,1299
89967,182362,221950,3.7064822074,9.655039191,1.016949605,1300
90059,182384,221972,3.7064822074,9.655039191,1.016949605,1301
90129,182363,221957,3.7064822074,9.655039191,1.016949605,1302
90252,182414,221987,3.7064822074,9.655039191,1.016949605,1303
90374,182386,222033,3.7064822074,9.655039191,1.016949605,1304
90511,182431,221997,3.7064822074,9.655039191,1.016949605,1305
90648,182446,222026,3.7064822074,9.655039191,1.016949605,1306
90783,182477,222032,3.7064822074,9.655039191,1.016949605,1307
90914,182500,222038,3.7064822074,9.655039191,1.016949605,1308
91067,182479,222081,3.7064822074,9.655039191,1.016949605,1309
91201,182525,222090,3.7064822074,9.655039191,1.016949605,1310
91110,182482,222092,3.7064822074,9.655039191,1.016949605,1311
90772,182448,221987,3.7064822074,9.655039191,1.016949605,1312
90403,182390,221967,3.7064822074,9.655039191,1.016949605,1313
90202,182362,221932,3.7064822074,9.655039191,1.016949605,1314
90102,182379,221942,3.7064822074,9.655039191,1.016949605,1315
90084,182378,221938,3.7064822074,9.655039191,1.016949605,1316
90154,182405,221951,3.7064822074,9.655039191,1.016949605,1317
90222,182396,221976,3.7064822074,9.655039191,1.016949605,1318
89963,182448,221962,3.7447673690000003,9.443274390900001,0.9726823869,1319
90090,182459,221969,3.7447673690000003,9.443274390900001,0.9726823869,1320
90199,182465,222033,3.7447673690000003,9.443274390900001,0.9726823869,1321
90275,182478,222055,3.7447673690000003,9.443274390900001,0.9726823869,1322
89864,182419,221949,3.7447673690000003,9.443274390900001,0.9726823869,1323
89354,182352,221902,3.7447673690000003,9.443274390900001,0.9726823869,1324
88917,182324,221878,3.7447673690000003,9.443274390900001,0.9726823869,1325
88735,182273,221839,3.7447673690000003,9.443274390900001,0.9726823869,1326
88553,182251,221883,3.7447673690000003,9.443274390900001,0.9726823869,1327
88496,182265,221828,3.7447673690000003,9.443274390900001,0.9726823869,1328
88529,182259,221845,3.7447673690000003,9.443274390900001,0.9726823869,1329
88562,182282,221856,3.7447673690000003,9.443274390900001,0.9726823869,1330
88609,182282,221850,3.7447673690000003,9.443274390900001,0.9726823869,1331
88666,182296,221870,3.7447673690000003,9.443274390900001,0.9726823869,1332
88732,182285,221869,3.7447673690000003,9.443274390900001,0.9726823869,1333
88807,182293,221904,3.7447673690000003,9.443274390900001,0.9726823869,1334
88920,182305,221879,3.7447673690000003,9.443274390900001,0.9726823869,1335
89046,182362,221922,3.7447673690000003,9.443274390900001,0.9726823869,1336
89184,182374,221910,3.7447673690000003,9.443274390900001,0.9726823869,1337
89349,182370,221935,3.7304104334000003,9.4911308429,0.9068797654,1338
89514,182409,221939,3.7304104334000003,9.4911308429,0.9068797654,1339
89618,182434,221962,3.7304104334000003,9.4911308429,0.9068797654,1340
89786,182446,221995,3.7304104334000003,9.4911308429,0.9068797654,1341
89951,182445,222005,3.7304104334000003,9.4911308429,0.9068797654,1342
89984,182439,222016,3.7304104334000003,9.4911308429,0.9068797654,1343
89654,182405,221938,3.7304104334000003,9.4911308429,0.9068797654,1344
89127,182310,221908,3.7304104334000003,9.4911308429,0.9068797654,1345
88751,182265,221895,3.7304104334000003,9.4911308429,0.9068797654,1346
88519,182277,221865,3.7304104334000003,9.4911308429,0.9068797654,1347
88405,182260,221855,3.7304104334000003,9.4911308429,0.9068797654,1348
88392,182259,221826,3.7304104334000003,9.4911308429,0.9068797654,1349
88455,182279,221833,3.7304104334000003,9.4911308429,0.9068797654,1350
88547,182265,221839,3.7304104334000003,9.4911308429,0.9068797654,1351
88627,182295,221879,3.7304104334000003,9.4911308429,0.9068797654,1352
88688,182301,221865,3.7304104334000003,9.4911308429,0.9068797654,1353
88782,182287,221921,3.7304104334000003,9.4911308429,0.9068797654,1354
88875,182307,221890,3.7304104334000003,9.4911308429,0.9068797654,1355
88996,182314,221927,3.7304104334000003,9.4911308429,0.9068797654,1356
89143,182353,221937,3.7304104334000003,9.4911308429,0.9068797654,1357
89311,182368,221945,3.7304104334000003,9.4911308429,0.9068797654,1358
89491,182383,221975,3.7304104334000003,9.4911308429,0.9068797654,1359
89658,182385,221965,3.7304104334000003,9.4911308429,0.9068797654,1360
89840,182423,221967,3.7304104334000003,9.4911308429,0.9068797654,1361
90010,182409,222023,3.7304104334000003,9.4911308429,0.9068797654,1362
90202,182444,222039,3.7304104334000003,9.4911308429,0.9068797654,1363
90374,182469,222012,3.7304104334000003,9.4911308429,0.9068797654,1364
90288,182423,222005,3.7304104334000003,9.4911308429,0.9068797654,1365
89889,182388,221955,3.7304104334000003,9.4911308429,0.9068797654,1366
89488,182312,221967,3.7304104334000003,9.4911308429,0.9068797654,1367
89288,182291,221929,3.7304104334000003,9.4911308429,0.9068797654,1368
89200,182305,221930,3.7304104334000003,9.4911308429,0.9068797654,1369
89180,182298,221934,3.7304104334000003,9.4911308429,0.9068797654,1370
89249,182291,221951,3.7304104334000003,9.4911308429,0.9068797654,1371
89367,182325,221933,3.7304104334000003,9.4911308429,0.9068797654,1372
89466,182314,221939,3.7304104334000003,9.4911308429,0.9068797654,1373
89546,182353,221939,3.7304104334000003,9.4911308429,0.9068797654,1374
89616,182340,221965,3.7304104334000003,9.4911308429,0.9068797654,1375
89720,182340,221969,3.7304104334000003,9.4911308429,0.9068797654,1376
89842,182370,221999,3.7304104334000003,9.4911308429,0.9068797654,1377
89955,182386,221955,3.7304104334000003,9.4911308429,0.9068797654,1378
90123,182382,221977,3.7304104334000003,9.4911308429,0.9068797654,1379
89859,182369,221961,3.6777683362,9.3906322937,0.9200402897,1380
89943,182405,221954,3.6777683362,9.3906322937,0.9200402897,1381
89995,182415,221979,3.6777683362,9.3906322937,0.9200402897,1382
90128,182403,221958,3.6777683362,9.3906322937,0.9200402897,1383
90227,182437,221992,3.6777683362,9.3906322937,0.9200402897,1384
90363,182437,221988,3.6777683362,9.3906322937,0.9200402897,1385
90431,182459,221996,3.6777683362,9.3906322937,0.9200402897,1386
90521,182484,222043,3.6777683362,9.3906322937,0.9200402897,1387
90619,182473,222054,3.6777683362,9.3906322937,0.9200402897,1388
90521,182466,222003,3.6777683362,9.3906322937,0.9200402897,1389
90079,182392,221953,3.6777683362,9.3906322937,0.9200402897,1390
89588,182354,221945,3.6777683362,9.3906322937,0.9200402897,1391
89175,182289,221867,3.6777683362,9.3906322937,0.9200402897,1392
88955,182257,221856,3.6777683362,9.3906322937,0.9200402897,1393
88826,182274,221871,3.6777683362,9.3906322937,0.9200402897,1394
88759,182234,221841,3.6777683362,9.3906322937,0.9200402897,1395
88757,182293,221830,3.6777683362,9.3906322937,0.9200402897,1396
88760,182286,221823,3.6777683362,9.3906322937,0.9200402897,1397
88745,182265,221845,3.6777683362,9.3906322937,0.9200402897,1398
88766,182262,221835,3.6777683362,9.3906322937,0.9200402897,1399
88864,182264,221855,3.6777683362,9.3906322937,0.9200402897,1400
88978,182286,221875,3.6777683362,9.3906322937,0.9200402897,1401
89118,182322,221879,3.6777683362,9.3906322937,0.9200402897,1402
89255,182340,221855,3.6777683362,9.3906322937,0.9200402897,1403
89420,182358,221905,3.6777683362,9.3906322937,0.9200402897,1404
89572,182357,221934,3.6777683362,9.3906322937,0.9200402897,1405
89714,182392,221907,3.6777683362,9.3906322937,0.9200402897,1406
89898,182409,221956,3.6777683362,9.3906322937,0.9200402897,1407
90040,182455,221957,3.6777683362,9.3906322937,0.9200402897,1408
89984,182420,221968,3.6777683362,9.3906322937,0.9200402897,1409
89565,182340,221914,3.6777683362,9.3906322937,0.9200402897,1410
89049,182284,221863,3.6777683362,9.3906322937,0.9200402897,1411
88740,182273,221823,3.6777683362,9.3906322937,0.9200402897,1412
88569,182221,221805,3.6777683362,9.3906322937,0.9200402897,1413
88461,182217,221829,3.6777683362,9.3906322937,0.9200402897,1414
88477,182239,221812,3.6777683362,9.3906322937,0.9200402897,1415
88550,182246,221830,3.6777683362,9.3906322937,0.9200402897,1416
88632,182261,221882,3.6777683362,9.3906322937,0.9200402897,1417
88701,182273,221836,3.6777683362,9.3906322937,0.9200402897,1418
88791,182274,221858,3.7184463204,9.5557370531,0.9020941202,1419
88849,182275,221862,3.7184463204,9.5557370531,0.9020941202,1420
88970,182287,221913,3.7184463204,9.5557370531,0.9020941202,1421
89111,182299,221900,3.7184463204,9.5557370531,0.9020941202,1422
89246,182318,221888,3.7184463204,9.5557370531,0.9020941202,1423
89417,182364,221943,3.7184463204,9.5557370531,0.9020941202,1424
89567,182374,221974,3.7184463204,9.5557370531,0.9020941202,1425
89746,182385,221937,3.7184463204,9.5557370531,0.9020941202,1426
89913,182418,221970,3.7184463204,9.5557370531,0.9020941202,1427
90064,182409,221998,3.7184463204,9.5557370531,0.9020941202,1428
90241,182466,221953,3.7184463204,9.5557370531,0.9020941202,1429
90151,182446,221975,3.7184463204,9.5557370531,0.9020941202,1430
89684,182350,221946,3.7351960786,9.410971285799999,0.8925228298,1431
89306,182328,221875,3.7351960786,9.410971285799999,0.8925228298,1432
89015,182258,221896,3.7351960786,9.410971285799999,0.8925228298,1433
88934,182256,221892,3.7351960786,9.410971285799999,0.8925228298,1434
88916,182278,221890,3.7351960786,9.410971285799999,0.8925228298,1435
88947,182284,221866,3.7351960786,9.410971285799999,0.8925228298,1436
89060,182286,221897,3.7351960786,9.410971285799999,0.8925228298,1437
89168,182311,221903,3.7351960786,9.410971285799999,0.8925228298,1438
89244,182288,221912,3.7351960786,9.410971285799999,0.8925228298,1439
89348,182303,221900,3.7351960786,9.410971285799999,0.8925228298,1440
89440,182321,221945,3.7351960786,9.410971285799999,0.8925228298,1441
89567,182346,221921,3.7351960786,9.410971285799999,0.8925228298,1442
89714,182344,221937,3.7351960786,9.410971285799999,0.8925228298,1443
89882,182376,221979,3.7351960786,9.410971285799999,0.8925228298,1444
90050,182371,221976,3.7351960786,9.410971285799999,0.8925228298,1445
90210,182380,221955,3.7351960786,9.410971285799999,0.8925228298,1446
90372,182425,222005,3.7351960786,9.410971285799999,0.8925228298,1447
90544,182466,221997,3.7351960786,9.410971285799999,0.8925228298,1448
90728,182420,222043,3.7351960786,9.410971285799999,0.8925228298,1449
90836,182472,222040,3.7351960786,9.410971285799999,0.8925228298,1450
90629,182429,222014,3.7351960786,9.410971285799999,0.8925228298,1451
90261,182338,221953,3.7351960786,9.410971285799999,0.8925228298,1452
89948,182323,221941,3.7351960786,9.410971285799999,0.8925228298,1453
89803,182303,221940,3.7351960786,9.410971285799999,0.8925228298,1454
89760,182313,221927,3.7351960786,9.410971285799999,0.8925228298,1455
89811,182332,221913,3.7351960786,9.410971285799999,0.8925228298,1456
89924,182339,221944,3.7351960786,9.410971285799999,0.8925228298,1457
90047,182349,221943,3.7351960786,9.410971285799999,0.8925228298,1458
90111,182357,221967,3.7351960786,9.410971285799999,0.8925228298,1459
90181,182386,221946,3.7351960786,9.410971285799999,0.8925228298,1460
90239,182387,221967,3.7351960786,9.410971285799999,0.8925228298,1461
90376,182374,221957,3.7351960786,9.410971285799999,0.8925228298,1462
90440,182433,221974,3.7351960786,9.410971285799999,0.8925228298,1463
90539,182435,221975,3.7351960786,9.410971285799999,0.8925228298,1464
90695,182434,222024,3.7351960786,9.410971285799999,0.8925228298,1465
90829,182471,222005,3.7351960786,9.410971285799999,0.8925228298,1466
90956,182475,222052,3.7351960786,9.410971285799999,0.8925228298,1467
91098,182511,222073,3.7351960786,9.410971285799999,0.8925228298,1468
91238,182501,222054,3.7351960786,9.410971285799999,0.8925228298,1469
91249,182462,222037,3.7351960786,9.410971285799999,0.8925228298,1470
90921,182437,221991,3.7351960786,9.410971285799999,0.8925228298,1471
90537,182397,221991,3.7351960786,9.410971285799999,0.8925228298,1472
91025,182534,222064,3.7579278933,9.4013999954,0.9260223462,1473
90594,182431,222029,3.7579278933,9.4013999954,0.9260223462,1474
90078,182365,221952,3.7579278933,9.4013999954,0.9260223462,1475
89743,182350,221953,3.7579278933,9.4013999954,0.9260223462,1476
89482,182338,221947,3.7579278933,9.4013999954,0.9260223462,1477
89306,182323,221899,3.7579278933,9.4013999954,0.9260223462,1478
89270,182314,221871,3.7579278933,9.4013999954,0.9260223462,1479
89277,182324,221891,3.7579278933,9.4013999954,0.9260223462,1480
89331,182315,221924,3.7579278933,9.4013999954,0.9260223462,1481
89352,182292,221970,3.7579278933,9.4013999954,0.9260223462,1482
89385,182339,221916,3.7579278933,9.4013999954,0.9260223462,1483
89417,182332,221911,3.7579278933,9.4013999954,0.9260223462,1484
89487,182333,221914,3.7579278933,9.4013999954,0.9260223462,1485
89558,182368,221931,3.7579278933,9.4013999954,0.9260223462,1486
89671,182374,221922,3.7579278933,9.4013999954,0.9260223462,1487
89801,182416,221945,3.7579278933,9.4013999954,0.9260223462,1488
89910,182423,221975,3.7579278933,9.4013999954,0.9260223462,1489
90058,182449,222009,3.7579278933,9.4013999954,0.9260223462,1490
90269,182451,221992,3.7579278933,9.4013999954,0.9260223462,1491
90349,182450,221989,3.7579278933,9.4013999954,0.9260223462,1492
90179,182439,222001,3.7579278933,9.4013999954,0.9260223462,1493
89664,182346,221952,3.7579278933,9.4013999954,0.9260223462,1494
89158,182288,221873,3.7579278933,9.4013999954,0.9260223462,1495
88806,182259,221849,3.7579278933,9.4013999954,0.9260223462,1496
88613,182228,221884,3.7579278933,9.4013999954,0.9260223462,1497
88493,182221,221800,3.7579278933,9.4013999954,0.9260223462,1498
88490,182236,221826,3.7579278933,9.4013999954,0.9260223462,1499
88552,182231,221830,3.7579278933,9.4013999954,0.9260223462,1500
88650,182256,221812,3.7579278933,9.4013999954,0.9260223462,1501
88710,182267,221837,3.7579278933,9.4013999954,0.9260223462,1502
88781,182295,221842,3.7579278933,9.4013999954,0.9260223462,1503
88847,182291,221858,3.7579278933,9.4013999954,0.9260223462,1504
88959,182319,221878,3.7579278933,9.4013999954,0.9260223462,1505
89071,182349,221886,3.7579278933,9.4013999954,0.9260223462,1506
89211,182334,221924,3.7579278933,9.4013999954,0.9260223462,1507
89365,182373,221919,3.7579278933,9.4013999954,0.9260223462,1508
89571,182394,221906,3.7579278933,9.4013999954,0.9260223462,1509
89668,182414,221971,3.7579278933,9.4013999954,0.9260223462,1510
89836,182437,221957,3.7579278933,9.4013999954,0.9260223462,1511
90011,182442,221957,3.7579278933,9.4013999954,0.9260223462,1512
90090,182467,221979,3.7579278933,9.4013999954,0.9260223462,1513
89799,182384,221961,3.7579278933,9.4013999954,0.9260223462,1514
90472,182406,221986,3.7112678526000002,9.5162554802,0.9631110964999999,1515
90679,182458,222025,3.7112678526000002,9.5162554802,0.9631110964999999,1516
90846,182489,222001,3.7112678526000002,9.5162554802,0.9631110964999999,1517
90955,182472,222010,3.7112678526000002,9.5162554802,0.9631110964999999,1518
90788,182425,221985,3.7112678526000002,9.5162554802,0.9631110964999999,1519
90405,182358,221953,3.7112678526000002,9.5162554802,0.9631110964999999,1520
90118,182355,221944,3.7112678526000002,9.5162554802,0.9631110964999999,1521
90003,182342,221905,3.7112678526000002,9.5162554802,0.9631110964999999,1522
89927,182307,221937,3.7112678526000002,9.5162554802,0.9631110964999999,1523
89986,182342,221900,3.7112678526000002,9.5162554802,0.9631110964999999,1524
90067,182372,221896,3.7112678526000002,9.5162554802,0.9631110964999999,1525
90211,182373,221927,3.7112678526000002,9.5162554802,0.9631110964999999,1526
90353,182383,221938,3.7112678526000002,9.5162554802,0.9631110964999999,1527
90354,182371,221952,3.7112678526000002,9.5162554802,0.9631110964999999,1528
90413,182399,221940,3.7112678526000002,9.5162554802,0.9631110964999999,1529
90597,182423,221928,3.7112678526000002,9.5162554802,0.9631110964999999,1530
90661,182411,221945,3.7112678526000002,9.5162554802,0.9631110964999999,1531
90789,182439,222006,3.7112678526000002,9.5162554802,0.9631110964999999,1532
90925,182472,221994,3.7112678526000002,9.5162554802,0.9631110964999999,1533
91030,182485,221983,3.7112678526000002,9.5162554802,0.9631110964999999,1534
91103,182509,221989,3.7112678526000002,9.5162554802,0.9631110964999999,1535
91258,182523,222033,3.7112678526000002,9.5162554802,0.9631110964999999,1536
91422,182540,222056,3.7112678526000002,9.5162554802,0.9631110964999999,1537
91374,182524,222064,3.7112678526000002,9.5162554802,0.9631110964999999,1538
91042,182451,222002,3.7112678526000002,9.5162554802,0.9631110964999999,1539
90587,182467,221999,3.7112678526000002,9.5162554802,0.9631110964999999,1540
90235,182410,221946,3.7112678526000002,9.5162554802,0.9631110964999999,1541
90056,182377,221899,3.7112678526000002,9.5162554802,0.9631110964999999,1542
89967,182360,221947,3.7112678526000002,9.5162554802,0.9631110964999999,1543
89943,182390,221919,3.7112678526000002,9.5162554802,0.9631110964999999,1544
90025,182406,221947,3.7112678526000002,9.5162554802,0.9631110964999999,1545
90074,182395,221939,3.7112678526000002,9.5162554802,0.9631110964999999,1546
90088,182400,221953,3.7112678526000002,9.5162554802,0.9631110964999999,1547
90089,182407,221933,3.7112678526000002,9.5162554802,0.9631110964999999,1548
90134,182424,221948,3.7112678526000002,9.5162554802,0.9631110964999999,1549
90180,182424,221921,3.7112678526000002,9.5162554802,0.9631110964999999,1550
90252,182423,221942,3.7112678526000002,9.5162554802,0.9631110964999999,1551
