green,red,IR,acc_x,acc_y,acc_z,sample_index
63455,187245,207617,-3.46959277,8.227720510100001,3.7651063610999995,1
63639,187219,207602,-3.6179477712,8.1068829688,3.7710884175999997,2
63854,187219,207614,-3.7160534978000004,8.4729848266,3.9625142255999997,3
63991,187228,207629,-3.5940195452,8.291130309,3.8799618459,4
63890,187329,207674,-3.457628657,8.182256880699999,3.8380874503999998,5
63385,187392,207721,-3.4468609552999996,8.2707913169,3.7890345870999997,6
62758,187302,207683,-3.6454652310999998,8.3018980107,3.7088750299999997,7
62303,187244,207664,-3.5880374887,8.3784683339,3.6562329328,8
62078,187108,207583,-3.6526436989,8.1906317598,3.6514472876,9
62042,187037,207543,-3.5796626096,8.3449688175,3.7998022888,10
62190,187070,207540,-3.505485109,8.3700934548,3.7483566029,11
62451,187072,207598,-3.4133614389,8.2456666796,3.6526436989,12
62704,187121,207642,-3.5234312785000004,8.173882001600001,3.7710884175999997,13
62895,187166,207653,-3.5700913192,8.4251283746,3.8428730956,14
63054,187093,207629,-3.684946804,8.446663778,3.7076786186999997,15
63188,187125,207615,-3.4671999473999997,8.1068829688,3.7950166436,16
63277,187184,207654,-3.6550365215,8.267202082999999,3.6897324492,17
63548,187269,207691,-3.5748769644,8.1882389372,3.732803256,18
63741,187261,207735,-3.6406795858999996,8.316254946299999,3.8703905555,19
63931,187308,207777,-3.5234312785000004,8.2504523248,3.8464623295,20
64128,187328,207729,-3.5736805531,8.2289169214,3.8105699905,21
64264,187302,207769,-3.3954152694,8.0853475654,3.8476587407999996,22
64104,187495,207844,-3.6705898684,8.3365939384,3.8751762007000004,23
63554,187596,207890,-3.6981073283,8.1224363157,3.8321053939,24
62934,187505,207829,-3.6227334164,8.1080793801,3.8380874503999998,25
62519,187421,207837,-3.6263226502999997,8.1272219609,3.8524443859999997,26
62357,187390,207800,-3.5665020853000002,8.3054872446,3.9948173307,27
62366,187356,207791,-3.541377448,8.2600236152,3.8177484582999996,28
62569,187348,207793,-3.4947174072999996,8.249255913499999,3.9373895883000003,29
62815,187319,207769,-3.5988051904000002,8.1942209937,3.7902309983999998,30
63035,187371,207789,-3.5461630932,8.316254946299999,3.7938202323,31
63232,187414,207829,-3.5234312785000004,8.279166196,3.9003008379999997,32
63366,187425,207899,-3.5892339,8.2636128491,3.8572300312,33
63507,187432,207843,-3.5928231339,8.249255913499999,3.9218362414,34
63674,187458,207885,-3.3463624061,8.1930245824,3.8033915226999997,35
63839,187490,207875,-3.5330025689,8.2600236152,3.7998022888,36
64015,187524,207882,-3.5282169237,8.173882001600001,3.9469608787,37
64196,187502,207938,-3.5796626096,8.1320076061,3.9182470075,38
64382,187526,207920,-3.6693934571,8.2743805508,3.8428730956,39
64561,187571,207954,-3.5892339,8.2504523248,3.7387853125,40
64527,187580,207951,-3.5844482548,8.3342011158,3.7280176108,41
64071,187626,207983,-3.5796626096,8.3365939384,3.7471601916,42
63397,187570,207946,-3.6143585373000002,8.3078800672,3.8333018051999996,43
62875,187382,207835,-3.5090743428999995,8.239684623099999,3.8153556357,44
62584,187254,207737,-3.5090743428999995,8.1451681304,3.8955151927999996,45
62514,187132,207703,-3.613162126,8.2588272039,3.8476587407999996,46
62617,187107,207634,-3.6179477712,8.236095389199999,3.8093735792,47
62835,186962,207594,-3.4983066412,8.293523131599999,3.82851616,48
63042,186912,207563,-3.5856446661000003,8.169096356399999,3.7579278933,49
63187,186862,207497,-3.4229327293,8.183453292,3.8727833781,50
63303,186795,207466,-3.445664544,8.3401831723,3.8715869668,51
63418,186706,207425,-3.4612178908999995,8.1774712355,3.9768711611999996,52
63539,186627,207359,-3.3846475676999996,8.183453292,3.7818561193,53
63684,186559,207291,-3.3846475676999996,8.173882001600001,4.0426737827,54
63836,186465,207303,-3.4169506728,8.1643107112,3.9672998708,55
63987,186408,207260,-3.541377448,8.3784683339,3.9672998708,56
64125,186349,207181,-3.3882368016,8.159525066,3.9290147091999996,57
64289,186324,207179,-3.5988051904000002,8.249255913499999,4.0725840652,58
64465,186247,207129,-3.3320054705,8.3114693011,3.9684962821,59
64441,186240,207115,-3.4169506728,8.1774712355,3.9912280968,60
64018,186249,207128,-3.2362925665,8.231309744,3.9290147091999996,61
63351,186177,207074,-3.3834511564,8.2695949056,3.9110685397,62
62839,186018,206960,-3.2458638569,8.3210405915,3.9613178143,63
62596,185915,206910,-3.3451659948,8.2025958728,4.0390845488,64
62598,185825,206869,-3.5401810367,8.2683984943,4.0570307183,65
62765,185789,206850,-3.3511480513,8.3748791,3.9577285803999995,66
62963,185794,206852,-3.4408788988000003,8.293523131599999,3.8823546685,67
63213,185812,206831,-3.2829526072,8.2372918005,3.8955151927999996,68
63356,185830,206896,-3.5210384559,8.2468630909,3.8572300312,69
63475,185878,206881,-3.5557343836,8.3018980107,3.996013742,70
63610,185918,206918,-3.3894332128999998,8.3784683339,3.8201412809,71
63751,185958,206929,-3.5270205124,8.3126657124,3.7998022888,72
63932,186012,207011,-3.5066815203,8.327022648,3.9182470075,73
64094,186082,207023,-3.4348968423,8.1882389372,3.8572300312,74
64279,186117,207022,-3.326023414,8.293523131599999,3.8081771679,75
64473,186254,207106,-3.4516466004999997,8.3318082932,3.8668013215999997,76
64672,186374,207137,-3.397808092,8.373682688699999,3.9373895883000003,77
64846,186286,207177,-3.505485109,8.3880396243,3.8620156764,78
64827,186576,207298,-3.3738798660000002,8.2133635745,3.8476587407999996,79
64364,186703,207306,-3.5078779316,8.3018980107,3.7375889012,80
63708,186709,207290,-3.5545379723,8.3796647452,3.7938202323,81
63209,186645,207255,-3.5916267225999996,8.3820575678,3.7244283769,82
62992,186571,207235,-3.7064822074,8.4131642616,3.7615171272,83
63012,186474,207208,-3.3020951879999996,8.4442709554,3.4516466004999997,84
63160,186350,207134,-3.4791640604,8.2648092604,3.7172499091,85
63337,186165,207016,-3.2362925665,8.0590265168,3.2554351473,86
63455,185944,206885,-3.4013973259,8.482556117,3.4875389395,87
63487,185783,206795,-3.5688949079,8.583054666199999,3.5318061576,88
63487,185647,206697,-3.7040893848,8.5555372063,3.7902309983999998,89
63505,185474,206627,-3.5186456333,8.316254946299999,3.493520996,90
63499,185394,206568,-3.3846475676999996,8.398807326,3.5557343836,91
63494,185344,206549,-3.7316068447,8.3593257531,3.7316068447,92
63464,185340,206540,-3.6047872469,8.1978102276,3.6275190616,93
63454,185285,206521,-3.5952159565,8.1978102276,3.6179477712,94
63467,185296,206541,-3.7698920062999997,8.1367932513,3.7710884175999997,95
63502,185277,206553,-3.7100714413,8.2779697847,3.7507494254999996,96
63333,185362,206547,-3.7459637803,8.1882389372,3.6466616424,97
62754,185325,206519,-3.6562329328,8.316254946299999,3.6801611588,98
61958,185229,206482,-3.7746776515,8.2600236152,3.6502508763,99
61372,185174,206378,-3.5820554322,8.25523797,3.613162126,100
61091,185026,206381,-3.7088750299999997,8.159525066,3.5641092626999997,101
61039,184971,206325,-3.5665020853000002,8.2456666796,3.6454652310999998,102
61154,184949,206299,-3.7902309983999998,8.2648092604,3.5844482548,103
61351,184914,206302,-3.7519458368,8.2875410751,3.6358939407,104
61491,184958,206331,-3.6957145057000003,8.2025958728,3.5473595045,105
61543,184938,206356,-3.7531422481,8.2923267203,3.6981073283,106
61597,184901,206355,-3.6993037396,8.2121671632,3.6933216830999998,107
61660,184991,206383,-3.732803256,8.2923267203,3.6083764808,108
61779,185001,206371,-3.7028929734999996,8.2205420423,3.565305674,109
61911,184996,206419,-3.7339996673,8.3210405915,3.6897324492,110
62072,185017,206402,-3.6813575701,8.1547394208,3.5557343836,111
62224,185051,206505,-3.8476587407999996,8.2420774457,3.4791640604,112
62392,185083,206515,-3.780659708,8.3306118819,3.6311082955,113
62558,185127,206509,-3.7627135385,8.2121671632,3.5473595045,114
62613,185186,206541,-3.6957145057000003,8.169096356399999,3.6179477712,115
62215,185257,206540,-3.8512479747,8.2839518412,3.6981073283,116
61479,185210,206513,-3.8943187815,8.0793655089,3.5557343836,117
60895,185049,206447,-3.9050864832,8.074579863699999,3.5832518435,118
60628,184984,206422,-3.7758740628,8.1308111948,3.6215370051,119
60593,184982,206408,-3.9003008379999997,8.3318082932,3.6311082955,120
60703,184939,206423,-3.9278182979,8.2588272039,3.6179477712,121
60945,184982,206423,-3.5856446661000003,8.1451681304,3.4791640604,122
61185,184988,206429,-3.7471601916,8.231309744,3.5545379723,123
61340,185002,206437,-3.7387853125,8.2683984943,3.6454652310999998,124
61443,185003,206491,-3.5904303113,8.3018980107,3.46959277,125
61541,185005,206494,-3.6143585373000002,8.2683984943,3.6119657146999997,126
61662,184993,206467,-3.7148570865,8.240881034400001,3.5341989802,127
61805,184984,206503,-3.8476587407999996,8.2109707519,3.4995030524999997,128
61960,184992,206505,-3.9182470075,8.2983087768,3.517449222,129
62144,185090,206497,-3.7854453531999996,8.4215391407,3.6658042232,130
62320,185067,206569,-3.6765719249,8.207381518,3.5270205124,131
62496,185120,206562,-3.8859439023999998,8.2827554299,3.5605200288,132
62652,185166,206589,-3.7926238210000003,8.3461652288,3.6047872469,133
62563,185210,206638,-3.7387853125,8.1320076061,3.5461630932,134
62021,185214,206613,-3.637090352,8.1511501869,3.5078779316,135
61352,185166,206547,-3.7950166436,8.350950873999999,3.5509487384000002,136
60961,185017,206548,-3.7794632967,8.226524098799999,3.5796626096,137
60859,184943,206515,-3.9445680561,8.2372918005,3.5377882141000003,138
60932,184959,206505,-3.6681970457999995,8.2468630909,3.4803604716999996,139
61121,184907,206520,-3.8380874503999998,8.231309744,3.517449222,140
61392,184921,206484,-3.7615171272,8.4215391407,3.4743784152000003,141
61604,184938,206513,-3.6514472876,8.3413795836,3.5868410774,142
61749,184955,206580,-3.8512479747,8.1403824852,3.6311082955,143
61788,184967,206587,-3.8703905555,8.3353975271,3.5126635768,144
61999,184981,206557,-3.82851616,8.183453292,3.4600214796,145
62165,185046,206569,-3.6430724085,8.3353975271,3.5593236175,146
62365,185086,206587,-3.8093735792,8.1463645417,3.5497523270999998,147
62544,185054,206628,-3.7758740628,8.2325061553,3.5461630932,148
62740,185033,206639,-3.9720855159999995,8.279166196,3.6753755136,149
62928,185104,206627,-3.7280176108,8.2683984943,3.4971102299,150
63124,185129,206664,-3.7770704741,8.13559684,3.4660035360999997,151
63265,185147,206637,-3.7818561193,8.2612200265,3.5988051904000002,152
63080,185242,206733,-3.8799618459,8.3844503904,3.5365918028000003,153
62530,185208,206729,-3.7998022888,8.155935832099999,3.517449222,154
62003,185181,206655,-3.8715869668,8.2743805508,3.4408788988000003,155
61733,185055,206580,-3.8715869668,8.2743805508,3.4408788988000003,156
61730,185012,206573,-3.8715869668,8.2743805508,3.4408788988000003,157
61872,184960,206576,-3.8715869668,8.2743805508,3.4408788988000003,158
62112,184996,206593,-3.8715869668,8.2743805508,3.4408788988000003,159
62356,185005,206612,-3.8715869668,8.2743805508,3.4408788988000003,160
62516,185028,206631,-3.8715869668,8.2743805508,3.4408788988000003,161
62623,185027,206598,-3.8715869668,8.2743805508,3.4408788988000003,162
62740,185041,206636,-3.8715869668,8.2743805508,3.4408788988000003,163
62869,185041,206610,-3.8715869668,8.2743805508,3.4408788988000003,164
63013,185070,206638,-3.8715869668,8.2743805508,3.4408788988000003,165
63182,185051,206608,-3.8715869668,8.2743805508,3.4408788988000003,166
63354,185105,206639,-3.8715869668,8.2743805508,3.4408788988000003,167
63515,185114,206663,-3.8715869668,8.2743805508,3.4408788988000003,168
63698,185133,206635,-3.8715869668,8.2743805508,3.4408788988000003,169
63840,185190,206691,-3.8715869668,8.2743805508,3.4408788988000003,170
63941,185214,206719,-3.8715869668,8.2743805508,3.4408788988000003,171
63699,185229,206744,-3.8715869668,8.2743805508,3.4408788988000003,172
63173,185253,206747,-3.8715869668,8.2743805508,3.4408788988000003,173
62733,185181,206682,-3.8715869668,8.2743805508,3.4408788988000003,174
62569,185073,206632,-3.8715869668,8.2743805508,3.4408788988000003,175
62609,185046,206611,-3.8715869668,8.2743805508,3.4408788988000003,176
62778,185034,206619,-3.8715869668,8.2743805508,3.4408788988000003,177
63027,185087,206613,-3.8715869668,8.2743805508,3.4408788988000003,178
63216,185062,206621,-3.8715869668,8.2743805508,3.4408788988000003,179
63312,185140,206638,-3.8715869668,8.2743805508,3.4408788988000003,180
63383,185145,206667,-3.8715869668,8.2743805508,3.4408788988000003,181
63472,185180,206717,-3.8715869668,8.2743805508,3.4408788988000003,182
63593,185127,206664,-3.8715869668,8.2743805508,3.4408788988000003,183
63713,185151,206640,-3.8715869668,8.2743805508,3.4408788988000003,184
63875,185216,206696,-3.8715869668,8.2743805508,3.4408788988000003,185
64028,185262,206667,-3.8715869668,8.2743805508,3.4408788988000003,186
64170,185273,206703,-3.8715869668,8.2743805508,3.4408788988000003,187
64331,185237,206697,-3.8715869668,8.2743805508,3.4408788988000003,188
64452,185297,206733,-3.8715869668,8.2743805508,3.4408788988000003,189
64448,185351,206748,-3.8715869668,8.2743805508,3.4408788988000003,190
64080,185393,206783,-3.8715869668,8.2743805508,3.4408788988000003,191
63558,185324,206759,-3.8715869668,8.2743805508,3.4408788988000003,192
63182,185283,206686,-3.8715869668,8.2743805508,3.4408788988000003,193
63068,185162,206616,-3.8715869668,8.2743805508,3.4408788988000003,194
63145,185132,206592,-3.8715869668,8.2743805508,3.4408788988000003,195
63335,185115,206611,-3.8715869668,8.2743805508,3.4408788988000003,196
63318,185156,206533,-3.4193434953999997,8.1655071225,3.5988051904000002,197
63355,185143,206551,-3.4193434953999997,8.1655071225,3.5988051904000002,198
63434,185142,206543,-3.4193434953999997,8.1655071225,3.5988051904000002,199
63530,185169,206539,-3.4193434953999997,8.1655071225,3.5988051904000002,200
63650,185209,206568,-3.4193434953999997,8.1655071225,3.5988051904000002,201
63757,185229,206601,-3.4193434953999997,8.1655071225,3.5988051904000002,202
63887,185231,206626,-3.4193434953999997,8.1655071225,3.5988051904000002,203
63970,185271,206629,-3.4193434953999997,8.1655071225,3.5988051904000002,204
63767,185326,206621,-3.4193434953999997,8.1655071225,3.5988051904000002,205
63315,185294,206614,-3.4193434953999997,8.1655071225,3.5988051904000002,206
62931,185247,206604,-3.4193434953999997,8.1655071225,3.5988051904000002,207
62790,185176,206547,-3.4193434953999997,8.1655071225,3.5988051904000002,208
62885,185166,206545,-3.4193434953999997,8.1655071225,3.5988051904000002,209
63111,185185,206595,-3.4193434953999997,8.1655071225,3.5988051904000002,210
63339,185181,206589,-3.4193434953999997,8.1655071225,3.5988051904000002,211
63465,185187,206584,-3.4193434953999997,8.1655071225,3.5988051904000002,212
63495,185225,206615,-3.4193434953999997,8.1655071225,3.5988051904000002,213
63509,185300,206618,-3.4193434953999997,8.1655071225,3.5988051904000002,214
63536,185228,206610,-3.4193434953999997,8.1655071225,3.5988051904000002,215
63578,185241,206602,-3.4193434953999997,8.1655071225,3.5988051904000002,216
63646,185278,206640,-3.4193434953999997,8.1655071225,3.5988051904000002,217
63752,185269,206652,-3.4193434953999997,8.1655071225,3.5988051904000002,218
63846,185295,206643,-3.4193434953999997,8.1655071225,3.5988051904000002,219
63952,185306,206673,-3.4193434953999997,8.1655071225,3.5988051904000002,220
63937,185350,206651,-3.4193434953999997,8.1655071225,3.5988051904000002,221
63607,185348,206686,-3.4193434953999997,8.1655071225,3.5988051904000002,222
63151,185292,206629,-3.4193434953999997,8.1655071225,3.5988051904000002,223
62862,185187,206604,-3.4193434953999997,8.1655071225,3.5988051904000002,224
62809,185171,206541,-3.4193434953999997,8.1655071225,3.5988051904000002,225
62969,185171,206572,-3.4193434953999997,8.1655071225,3.5988051904000002,226
63178,185153,206605,-3.4193434953999997,8.1655071225,3.5988051904000002,227
63348,185194,206614,-3.4193434953999997,8.1655071225,3.5988051904000002,228
63414,185245,206617,-3.4193434953999997,8.1655071225,3.5988051904000002,229
63421,185234,206627,-3.4193434953999997,8.1655071225,3.5988051904000002,230
63428,185241,206640,-3.4193434953999997,8.1655071225,3.5988051904000002,231
63473,185216,206616,-3.4193434953999997,8.1655071225,3.5988051904000002,232
63536,185263,206640,-3.4193434953999997,8.1655071225,3.5988051904000002,233
63608,185263,206650,-3.4193434953999997,8.1655071225,3.5988051904000002,234
63705,185328,206685,-3.4193434953999997,8.1655071225,3.5988051904000002,235
63814,185295,206671,-3.4193434953999997,8.1655071225,3.5988051904000002,236
63808,185332,206685,-3.4193434953999997,8.1655071225,3.5988051904000002,237
63547,185367,206727,-3.4193434953999997,8.1655071225,3.5988051904000002,238
64666,186450,207301,-3.6741791022999997,7.9298140964,4.609772738899999,239
64424,186241,207279,-3.6741791022999997,7.9298140964,4.609772738899999,240
64412,186199,207231,-3.6741791022999997,7.9298140964,4.609772738899999,241
64568,186192,207232,-3.6741791022999997,7.9298140964,4.609772738899999,242
64803,186258,207254,-3.6741791022999997,7.9298140964,4.609772738899999,243
65037,186388,207299,-3.6741791022999997,7.9298140964,4.609772738899999,244
65205,186526,207390,-3.6741791022999997,7.9298140964,4.609772738899999,245
65332,186649,207479,-3.6741791022999997,7.9298140964,4.609772738899999,246
65439,186738,207483,-3.6741791022999997,7.9298140964,4.609772738899999,247
65570,186858,207545,-3.6741791022999997,7.9298140964,4.609772738899999,248
65710,186922,207605,-3.6741791022999997,7.9298140964,4.609772738899999,249
65877,187048,207682,-3.6741791022999997,7.9298140964,4.609772738899999,250
66040,187205,207764,-3.6741791022999997,7.9298140964,4.609772738899999,251
66134,187298,207806,-3.6741791022999997,7.9298140964,4.609772738899999,252
65981,187434,207871,-3.6741791022999997,7.9298140964,4.609772738899999,253
65683,187501,207913,-3.6741791022999997,7.9298140964,4.609772738899999,254
65464,187501,207942,-3.6741791022999997,7.9298140964,4.609772738899999,255
65420,187473,207882,-3.6741791022999997,7.9298140964,4.609772738899999,256
65546,187532,207917,-3.6741791022999997,7.9298140964,4.609772738899999,257
65754,187562,207960,-3.6741791022999997,7.9298140964,4.609772738899999,258
65965,187657,207988,-3.6741791022999997,7.9298140964,4.609772738899999,259
66124,187750,208032,-3.6741791022999997,7.9298140964,4.609772738899999,260
66239,187787,208074,-3.6741791022999997,7.9298140964,4.609772738899999,261
66339,187767,208066,-3.6741791022999997,7.9298140964,4.609772738899999,262
66437,187804,208031,-3.6741791022999997,7.9298140964,4.609772738899999,263
66536,187929,208076,-3.6741791022999997,7.9298140964,4.609772738899999,264
66712,188355,208230,-3.6741791022999997,7.9298140964,4.609772738899999,265
66895,188740,208404,-3.6741791022999997,7.9298140964,4.609772738899999,266
66954,189006,208530,-3.6741791022999997,7.9298140964,4.609772738899999,267
66759,189218,208592,-3.6741791022999997,7.9298140964,4.609772738899999,268
66476,189319,208643,-3.6741791022999997,7.9298140964,4.609772738899999,269
66250,189060,208516,-3.6741791022999997,7.9298140964,4.609772738899999,270
66164,188815,208376,-3.6741791022999997,7.9298140964,4.609772738899999,271
66224,188641,208252,-3.6741791022999997,7.9298140964,4.609772738899999,272
66338,188415,208119,-3.6741791022999997,7.9298140964,4.609772738899999,273
66433,188322,208068,-3.6741791022999997,7.9298140964,4.609772738899999,274
66533,188403,208071,-3.6741791022999997,7.9298140964,4.609772738899999,275
66610,188560,208192,-3.6741791022999997,7.9298140964,4.609772738899999,276
66692,188673,208268,-3.6741791022999997,7.9298140964,4.609772738899999,277
66775,188717,208275,-3.6741791022999997,7.9298140964,4.609772738899999,278
66869,188777,208274,-3.6741791022999997,7.9298140964,4.609772738899999,279
66982,188821,208308,-3.6741791022999997,7.9298140964,4.609772738899999,280
65762,187459,207518,-3.5330025689,7.7994052647,4.522434714,281
65195,187376,207441,-3.5330025689,7.7994052647,4.522434714,282
64700,187270,207379,-3.5330025689,7.7994052647,4.522434714,283
64473,187197,207316,-3.5330025689,7.7994052647,4.522434714,284
64460,187195,207333,-3.5330025689,7.7994052647,4.522434714,285
64552,187122,207309,-3.5330025689,7.7994052647,4.522434714,286
64665,187150,207267,-3.5330025689,7.7994052647,4.522434714,287
64759,187326,207385,-3.5330025689,7.7994052647,4.522434714,288
64790,187412,207469,-3.5330025689,7.7994052647,4.522434714,289
64769,187383,207420,-3.5330025689,7.7994052647,4.522434714,290
64762,187506,207494,-3.5330025689,7.7994052647,4.522434714,291
64821,187760,207666,-3.5330025689,7.7994052647,4.522434714,292
64830,187878,207707,-3.5330025689,7.7994052647,4.522434714,293
64524,187968,207735,-3.5330025689,7.7994052647,4.522434714,294
63928,187983,207732,-3.5330025689,7.7994052647,4.522434714,295
63324,187884,207686,-3.5330025689,7.7994052647,4.522434714,296
62958,187832,207636,-3.5330025689,7.7994052647,4.522434714,297
62828,187726,207591,-3.5330025689,7.7994052647,4.522434714,298
62891,187677,207533,-3.5330025689,7.7994052647,4.522434714,299
63027,187624,207541,-3.5330025689,7.7994052647,4.522434714,300
63108,187661,207572,-3.5330025689,7.7994052647,4.522434714,301
63105,187724,207610,-3.5330025689,7.7994052647,4.522434714,302
63057,187798,207614,-3.5330025689,7.7994052647,4.522434714,303
63040,187775,207640,-3.5330025689,7.7994052647,4.522434714,304
63096,187803,207683,-3.5330025689,7.7994052647,4.522434714,305
63157,187847,207685,-3.5330025689,7.7994052647,4.522434714,306
62964,187878,207669,-3.5330025689,7.7994052647,4.522434714,307
62394,187889,207661,-3.5330025689,7.7994052647,4.522434714,308
61734,187854,207654,-3.5330025689,7.7994052647,4.522434714,309
61276,187786,207647,-3.5330025689,7.7994052647,4.522434714,310
61078,187703,207609,-3.5330025689,7.7994052647,4.522434714,311
61090,187618,207618,-3.5330025689,7.7994052647,4.522434714,312
61265,187667,207589,-3.5330025689,7.7994052647,4.522434714,313
61437,187709,207611,-3.5330025689,7.7994052647,4.522434714,314
61552,187720,207654,-3.5330025689,7.7994052647,4.522434714,315
61601,187746,207669,-3.5330025689,7.7994052647,4.522434714,316
61656,187759,207695,-3.5330025689,7.7994052647,4.522434714,317
61744,187794,207694,-3.5330025689,7.7994052647,4.522434714,318
61857,187755,207734,-3.5330025689,7.7994052647,4.522434714,319
61861,187785,207760,-3.5330025689,7.7994052647,4.522434714,320
61426,187680,207731,-3.5330025689,7.7994052647,4.522434714,321
60777,187570,207632,-3.5330025689,7.7994052647,4.522434714,322
64130,187632,208066,-3.6167513599,7.9669028467,4.4841495524,323
64283,187636,208095,-3.6167513599,7.9669028467,4.4841495524,324
64458,187663,208091,-3.6167513599,7.9669028467,4.4841495524,325
64638,187702,208106,-3.6167513599,7.9669028467,4.4841495524,326
64838,187711,208118,-3.6167513599,7.9669028467,4.4841495524,327
65030,187762,208135,-3.6167513599,7.9669028467,4.4841495524,328
65222,187827,208151,-3.6167513599,7.9669028467,4.4841495524,329
65407,187837,208188,-3.6167513599,7.9669028467,4.4841495524,330
65595,187851,208175,-3.6167513599,7.9669028467,4.4841495524,331
65766,187873,208185,-3.6167513599,7.9669028467,4.4841495524,332
65963,187918,208222,-3.6167513599,7.9669028467,4.4841495524,333
66117,187979,208226,-3.6167513599,7.9669028467,4.4841495524,334
66073,188059,208271,-3.6167513599,7.9669028467,4.4841495524,335
65653,188093,208281,-3.6167513599,7.9669028467,4.4841495524,336
65038,188031,208257,-3.6167513599,7.9669028467,4.4841495524,337
64491,187967,208185,-3.6167513599,7.9669028467,4.4841495524,338
64110,187864,208127,-3.6167513599,7.9669028467,4.4841495524,339
63880,187740,208070,-3.6167513599,7.9669028467,4.4841495524,340
63838,187665,208038,-3.6167513599,7.9669028467,4.4841495524,341
63905,187626,208038,-3.6167513599,7.9669028467,4.4841495524,342
64024,187652,208015,-3.6167513599,7.9669028467,4.4841495524,343
64080,187635,208032,-3.6167513599,7.9669028467,4.4841495524,344
64154,187631,208040,-3.6167513599,7.9669028467,4.4841495524,345
64246,187662,208060,-3.6167513599,7.9669028467,4.4841495524,346
64339,187662,207988,-3.6167513599,7.9669028467,4.4841495524,347
64480,187687,208035,-3.6167513599,7.9669028467,4.4841495524,348
64608,187682,208037,-3.6167513599,7.9669028467,4.4841495524,349
64767,187709,208071,-3.6167513599,7.9669028467,4.4841495524,350
64923,187730,208019,-3.6167513599,7.9669028467,4.4841495524,351
65078,187745,208055,-3.6167513599,7.9669028467,4.4841495524,352
65223,187767,208074,-3.6167513599,7.9669028467,4.4841495524,353
65375,187820,208114,-3.6167513599,7.9669028467,4.4841495524,354
65527,187841,208133,-3.6167513599,7.9669028467,4.4841495524,355
65663,187878,208157,-3.6167513599,7.9669028467,4.4841495524,356
65814,187888,208124,-3.6167513599,7.9669028467,4.4841495524,357
65873,187964,208189,-3.6167513599,7.9669028467,4.4841495524,358
65620,188066,208206,-3.6167513599,7.9669028467,4.4841495524,359
64961,188004,208204,-3.6167513599,7.9669028467,4.4841495524,360
64240,187931,208136,-3.6167513599,7.9669028467,4.4841495524,361
63665,187820,208049,-3.6167513599,7.9669028467,4.4841495524,362
63293,187689,207945,-3.6167513599,7.9669028467,4.4841495524,363
63128,187549,207871,-3.6167513599,7.9669028467,4.4841495524,364
65378,187984,208098,-3.565305674,7.816155022899999,4.5260239479,365
65579,188024,208123,-3.565305674,7.816155022899999,4.5260239479,366
65765,188050,208134,-3.565305674,7.816155022899999,4.5260239479,367
65938,188063,208155,-3.565305674,7.816155022899999,4.5260239479,368
66111,188122,208162,-3.565305674,7.816155022899999,4.5260239479,369
66277,188160,208239,-3.565305674,7.816155022899999,4.5260239479,370
66312,188242,208241,-3.565305674,7.816155022899999,4.5260239479,371
65986,188343,208231,-3.565305674,7.816155022899999,4.5260239479,372
65409,188298,208279,-3.565305674,7.816155022899999,4.5260239479,373
64837,188216,208194,-3.565305674,7.816155022899999,4.5260239479,374
64472,188108,208121,-3.565305674,7.816155022899999,4.5260239479,375
64294,188088,208127,-3.565305674,7.816155022899999,4.5260239479,376
64257,188001,208079,-3.565305674,7.816155022899999,4.5260239479,377
64343,187952,208040,-3.565305674,7.816155022899999,4.5260239479,378
64452,187948,208012,-3.565305674,7.816155022899999,4.5260239479,379
64551,187961,208056,-3.565305674,7.816155022899999,4.5260239479,380
64622,187993,208074,-3.565305674,7.816155022899999,4.5260239479,381
64690,187996,208076,-3.565305674,7.816155022899999,4.5260239479,382
64791,188036,208051,-3.565305674,7.816155022899999,4.5260239479,383
64913,188066,208063,-3.565305674,7.816155022899999,4.5260239479,384
65044,188021,208103,-3.565305674,7.816155022899999,4.5260239479,385
65190,188073,208129,-3.565305674,7.816155022899999,4.5260239479,386
65352,188095,208102,-3.565305674,7.816155022899999,4.5260239479,387
65510,188129,208098,-3.565305674,7.816155022899999,4.5260239479,388
65681,188159,208099,-3.565305674,7.816155022899999,4.5260239479,389
65838,188146,208128,-3.565305674,7.816155022899999,4.5260239479,390
66000,188169,208152,-3.565305674,7.816155022899999,4.5260239479,391
66163,188240,208152,-3.565305674,7.816155022899999,4.5260239479,392
66321,188273,208175,-3.565305674,7.816155022899999,4.5260239479,393
66471,188274,208234,-3.565305674,7.816155022899999,4.5260239479,394
66624,188284,208220,-3.565305674,7.816155022899999,4.5260239479,395
66741,188397,208255,-3.565305674,7.816155022899999,4.5260239479,396
66594,188453,208250,-3.565305674,7.816155022899999,4.5260239479,397
66097,188481,208267,-3.565305674,7.816155022899999,4.5260239479,398
65460,188430,208249,-3.565305674,7.816155022899999,4.5260239479,399
64929,188317,208226,-3.565305674,7.816155022899999,4.5260239479,400
64613,188199,208141,-3.565305674,7.816155022899999,4.5260239479,401
64434,188125,208072,-3.565305674,7.816155022899999,4.5260239479,402
64395,188076,207994,-3.565305674,7.816155022899999,4.5260239479,403
64464,188037,207988,-3.565305674,7.816155022899999,4.5260239479,404
64510,187945,207962,-3.565305674,7.816155022899999,4.5260239479,405
64530,187980,207950,-3.565305674,7.816155022899999,4.5260239479,406
65570,188017,207788,-3.5509487384000002,7.8424760715,4.6325045536000005,407
65755,188040,207781,-3.5509487384000002,7.8424760715,4.6325045536000005,408
65934,187994,207798,-3.5509487384000002,7.8424760715,4.6325045536000005,409
66116,187964,207754,-3.5509487384000002,7.8424760715,4.6325045536000005,410
66225,187995,207787,-3.5509487384000002,7.8424760715,4.6325045536000005,411
66016,188111,207831,-3.5509487384000002,7.8424760715,4.6325045536000005,412
65516,188141,207820,-3.5509487384000002,7.8424760715,4.6325045536000005,413
65004,188043,207840,-3.5509487384000002,7.8424760715,4.6325045536000005,414
64651,187936,207715,-3.5509487384000002,7.8424760715,4.6325045536000005,415
64489,187876,207663,-3.5509487384000002,7.8424760715,4.6325045536000005,416
64468,187776,207633,-3.5509487384000002,7.8424760715,4.6325045536000005,417
64559,187714,207583,-3.5509487384000002,7.8424760715,4.6325045536000005,418
64684,187716,207601,-3.5509487384000002,7.8424760715,4.6325045536000005,419
64794,187725,207593,-3.5509487384000002,7.8424760715,4.6325045536000005,420
64856,187708,207578,-3.5509487384000002,7.8424760715,4.6325045536000005,421
64919,187679,207552,-3.5509487384000002,7.8424760715,4.6325045536000005,422
65008,187621,207515,-3.5509487384000002,7.8424760715,4.6325045536000005,423
65117,187584,207550,-3.5509487384000002,7.8424760715,4.6325045536000005,424
65249,187687,207577,-3.5509487384000002,7.8424760715,4.6325045536000005,425
65411,187682,207559,-3.5509487384000002,7.8424760715,4.6325045536000005,426
65575,187821,207626,-3.5509487384000002,7.8424760715,4.6325045536000005,427
65766,187952,207681,-3.6753755136,7.9956167179,4.474578262,428
65947,188034,207759,-3.6753755136,7.9956167179,4.474578262,429
66129,188138,207827,-3.6753755136,7.9956167179,4.474578262,430
66301,188214,207871,-3.6753755136,7.9956167179,4.474578262,431
66478,188263,207882,-3.6753755136,7.9956167179,4.474578262,432
66477,188418,207952,-3.6753755136,7.9956167179,4.474578262,433
66139,188464,207980,-3.6753755136,7.9956167179,4.474578262,434
65605,188437,207939,-3.6753755136,7.9956167179,4.474578262,435
65136,188385,207943,-3.6753755136,7.9956167179,4.474578262,436
64836,188314,207885,-3.6753755136,7.9956167179,4.474578262,437
64710,188270,207809,-3.6753755136,7.9956167179,4.474578262,438
64720,188241,207818,-3.6753755136,7.9956167179,4.474578262,439
64825,188203,207847,-3.6753755136,7.9956167179,4.474578262,440
64923,188277,207871,-3.6753755136,7.9956167179,4.474578262,441
65009,188309,207898,-3.6753755136,7.9956167179,4.474578262,442
65068,188319,207876,-3.6753755136,7.9956167179,4.474578262,443
65148,188343,207862,-3.6753755136,7.9956167179,4.474578262,444
65244,188344,207915,-3.6753755136,7.9956167179,4.474578262,445
65370,188351,207902,-3.6753755136,7.9956167179,4.474578262,446
65493,188376,207933,-3.6753755136,7.9956167179,4.474578262,447
65653,188415,207905,-3.6753755136,7.9956167179,4.474578262,448
65791,188406,207972,-3.6753755136,7.9956167179,4.474578262,449
65957,188449,207918,-3.6753755136,7.9956167179,4.474578262,450
66111,188481,207969,-3.6753755136,7.9956167179,4.474578262,451
66275,188518,207959,-3.5796626096,7.8807612331,4.5798624564,452
66413,188566,208015,-3.5796626096,7.8807612331,4.5798624564,453
66277,188612,208004,-3.5796626096,7.8807612331,4.5798624564,454
65753,188648,208033,-3.5796626096,7.8807612331,4.5798624564,455
65087,188590,207996,-3.5796626096,7.8807612331,4.5798624564,456
64523,188477,207937,-3.7172499091,8.0470624038,4.5032921331999995,457
64151,188381,207873,-3.6430724085,7.858029418399999,4.589433746799999,458
63944,188157,207824,-3.4277183745,8.051848049,4.498506487999999,459
63872,188228,207793,-3.6287154729,7.968099258,4.6025942711,460
63910,188207,207750,-3.6035908356,7.858029418399999,4.4901316089,461
63986,188186,207734,-3.4612178908999995,7.896314579999999,4.4362931003999995,462
64039,188198,207763,-3.5952159565,7.9011002251999995,4.4219361648,463
64062,188168,207750,-3.6514472876,7.8532437732,4.522434714,464
64116,188185,207742,-3.5569307949000004,7.9011002251999995,4.4937208428,465
64197,188147,207738,-3.6275190616,7.8341011924,4.42672181,466
64304,188167,207723,-3.5078779316,7.9190463947000005,4.5690947547,467
64438,188139,207719,-3.7172499091,7.7383882884,4.5882373355,468
64572,188157,207741,-3.5473595045,7.7108708285,4.498506487999999,469
64724,188255,207746,-3.7172499091,7.9764741371,4.5978086259,470
64879,188252,207774,-3.6239298277,7.763512925700001,4.54636294,471
65037,188274,207813,-3.6897324492,7.7144600624,4.474578262,472
65201,188287,207793,-3.433700431,7.858029418399999,4.522434714,473
65203,188324,207850,-3.4983066412,7.8520473619,4.42672181,474
64781,188397,207807,-3.7459637803,7.9011002251999995,4.5834516903,475
64104,188358,207742,-3.5700913192,7.8149586116,4.5308095931,476
63441,188196,207727,-3.4995030524999997,7.8879397009000005,4.570291166,477
62984,188083,207636,-3.5665020853000002,8.0482588151,4.4937208428,478
62735,188019,207582,-3.4552358344000003,7.872386354,4.4697926167999995,479
62652,187962,207549,-3.6179477712,7.953742322399999,4.4458643908,480
62725,187879,207559,-3.5700913192,7.8532437732,4.4458643908,481
62836,187884,207548,-3.3655049869,7.986045427500001,4.5690947547,482
62956,187855,207532,-3.7543386594,7.8472617167,4.5750768112,483
62991,187917,207577,-3.5952159565,7.848458128,4.522434714,484
63073,187920,207554,-3.6239298277,7.824529902,4.527220359199999,485
63172,187923,207548,-3.6993037396,7.9633136127999995,4.570291166,486
63304,187917,207580,-3.4719855926,7.986045427500001,4.5595234643,487
63465,187915,207582,-3.5186456333,7.872386354,4.4602213264,488
63652,187931,207599,-3.6035908356,7.928617685100001,4.560719875599999,489
63856,187947,207614,-3.5318061576,7.9334033303,4.4135612857,490
64026,187994,207656,-3.4995030524999997,7.8628150636,4.378865358,491
64213,188009,207642,-3.7028929734999996,7.695317481599999,4.5655055207999995,492
64403,187982,207657,-3.6179477712,7.9956167179,4.5451665287,493
64529,188118,207665,-3.5330025689,7.829315547199999,4.5954158033,494
64294,188152,207715,-3.684946804,7.8915289348,4.5080777784,495
63655,188074,207693,-3.6227334164,7.9716884919,4.522434714,496
62956,187993,207664,-3.6095728921,7.872386354,4.5451665287,497
62470,187893,207545,-3.5856446661000003,7.8053873212000005,4.5176490688,498
62199,187800,207516,-3.4851461168999998,7.8149586116,4.492524431500001,499
62120,187721,207505,-3.4839497056,7.8771719992,4.492524431500001,500
62189,187694,207437,-3.7136606752,7.9106715156,4.5846481016,501
62361,187696,207458,-3.517449222,7.8568330071,4.570291166,502
62503,187659,207456,-3.5988051904000002,7.6965138929000005,4.5212383027000005,503
62612,187663,207478,-3.5665020853000002,7.7395846997,4.5655055207999995,504
62728,187696,207488,-3.5665020853000002,7.9525459111,4.4937208428,505
62835,187667,207494,-3.6035908356,7.970492080600001,4.5415772948,506
62974,187629,207474,-3.6610185779999997,7.8341011924,4.4997028993,507
63120,187640,207493,-3.6215370051,7.915457160799999,4.465006971599999,508
63320,187676,207481,-3.6418759972,7.8388868376,4.474578262,509
63510,187693,207495,-3.4002009146,7.928617685100001,4.498506487999999,510
63722,187723,207536,-3.4815568829999997,7.9238320399,4.3597227772,511
63904,187678,207560,-3.5940195452,7.8687971201,4.527220359199999,512
64112,187787,207535,-3.5282169237,7.7300134093,4.6265224971,513
64308,187805,207565,-3.7040893848,7.873582765299999,4.5738803999,514
64388,187858,207578,-3.5425738593,7.8341011924,4.5511485852,515
64063,187804,207647,-3.6658042232,7.9381889755,4.560719875599999,516
63411,187832,207604,-3.613162126,7.8472617167,4.6313081423,517
62788,187719,207514,-3.684946804,7.800601675999999,4.5128634236,518
62368,187570,207424,-3.5138599880999997,7.9908310727,4.4937208428,519
62198,187456,207370,-3.5330025689,7.9956167179,4.637290198800001,520
62182,187392,207333,-3.6406795858999996,7.9046894591,4.594219392,521
62218,187342,207326,-3.5473595045,7.8149586116,4.5559342304,522
62468,187330,207324,-3.4947174072999996,7.7814590952,4.465006971599999,523
62610,187331,207315,-3.4648071248,7.8999038139,4.5655055207999995,524
62739,187363,207299,-3.4085757937,7.970492080600001,4.5750768112,525
62852,187388,207345,-3.5270205124,7.763512925700001,4.54636294,526
62993,187333,207328,-3.5617164401,7.7970124421,4.5559342304,527
63163,187314,207307,-3.5330025689,7.8185478454999995,4.5032921331999995,528
63354,187331,207318,-3.6095728921,7.9489566772,4.570291166,529
63543,187307,207322,-3.5186456333,7.8759755879,4.6121655615,530
63751,187366,207352,-3.4600214796,7.7682985709,4.5188454800999995,531
63955,187376,207365,-3.4289147858,7.9381889755,4.6456650779,532
64173,187381,207365,-3.5617164401,7.8915289348,4.5750768112,533
64373,187404,207358,-3.541377448,7.7862447404,4.6049870937,534
64594,187436,207395,-3.4995030524999997,7.984849016199999,4.4937208428,535
64626,187547,207441,-3.4959138186,7.8520473619,4.5176490688,536
64299,187573,207478,-3.3846475676999996,7.9190463947000005,4.5559342304,537
63752,187599,207471,-3.5736805531,7.886743289599999,4.6695933039,538
63311,187575,207415,-3.5030922864000003,7.6821569573,4.5798624564,539
63088,187509,207452,-3.5090743428999995,7.9381889755,4.5427737061,540
63034,187458,207431,-3.5090743428999995,7.9381889755,4.5427737061,541
63108,187457,207401,-3.4899317621,7.819744256799999,4.6695933039,542
63266,187464,207382,-3.5138599880999997,7.9477602659,4.6516471344,543
63431,187490,207392,-3.4755748265,7.9477602659,4.5379880609,544
63550,187543,207454,-3.6335011181000003,7.8807612331,4.6743789491,545
63674,187602,207465,-3.5282169237,7.7575308692,4.6037906824000006,546
63812,187625,207522,-3.5138599880999997,7.7718878047999995,4.689932296,547
63963,187615,207504,-3.4803604716999996,7.8771719992,4.560719875599999,548
64157,187702,207527,-3.637090352,7.8113693777,4.5667019321,549
64355,187733,207550,-3.5700913192,7.9011002251999995,4.5367916496,550
64539,187791,207617,-3.6227334164,7.8532437732,4.6025942711,551
64746,187834,207617,-3.6227334164,7.8532437732,4.6025942711,552
64943,187883,207638,-3.6227334164,7.8532437732,4.6025942711,553
65159,187931,207673,-3.6227334164,7.8532437732,4.6025942711,554
65373,187953,207713,-3.6227334164,7.8532437732,4.6025942711,555
65569,188012,207762,-3.6227334164,7.8532437732,4.6025942711,556
65614,188092,207752,-3.6227334164,7.8532437732,4.6025942711,557
65305,188140,207801,-3.6227334164,7.8532437732,4.6025942711,558
64779,188137,207770,-3.6227334164,7.8532437732,4.6025942711,559
64315,188020,207738,-3.6227334164,7.8532437732,4.6025942711,560
64017,188014,207684,-3.6227334164,7.8532437732,4.6025942711,561
63864,187918,207670,-3.6227334164,7.8532437732,4.6025942711,562
63836,187852,207629,-3.6227334164,7.8532437732,4.6025942711,563
63935,187852,207589,-3.6227334164,7.8532437732,4.6025942711,564
64055,187800,207622,-3.6227334164,7.8532437732,4.6025942711,565
64182,187792,207585,-3.6227334164,7.8532437732,4.6025942711,566
64274,187871,207627,-3.7603207159,7.7814590952,4.5547378191000005,567
64378,187876,207612,-3.7603207159,7.7814590952,4.5547378191000005,568
64516,187880,207651,-3.7603207159,7.7814590952,4.5547378191000005,569
64667,187863,207639,-3.7603207159,7.7814590952,4.5547378191000005,570
64822,187946,207626,-3.7603207159,7.7814590952,4.5547378191000005,571
64992,187949,207656,-3.7603207159,7.7814590952,4.5547378191000005,572
65168,187986,207687,-3.7603207159,7.7814590952,4.5547378191000005,573
65322,188007,207681,-3.7603207159,7.7814590952,4.5547378191000005,574
65505,188032,207700,-3.7603207159,7.7814590952,4.5547378191000005,575
65680,188041,207706,-3.7603207159,7.7814590952,4.5547378191000005,576
65865,188113,207706,-3.7603207159,7.7814590952,4.5547378191000005,577
65981,188188,207791,-3.7603207159,7.7814590952,4.5547378191000005,578
65822,188247,207782,-3.7603207159,7.7814590952,4.5547378191000005,579
65323,188205,207784,-3.7603207159,7.7814590952,4.5547378191000005,580
64759,188144,207751,-3.7603207159,7.7814590952,4.5547378191000005,581
64307,188043,207700,-3.7603207159,7.7814590952,4.5547378191000005,582
64027,187941,207629,-3.7603207159,7.7814590952,4.5547378191000005,583
63906,187894,207589,-3.7603207159,7.7814590952,4.5547378191000005,584
63906,187873,207578,-3.7603207159,7.7814590952,4.5547378191000005,585
63995,187851,207564,-3.4528430117999998,7.8915289348,4.4793639072,586
64077,187805,207564,-3.4528430117999998,7.8915289348,4.4793639072,587
64152,187862,207588,-3.4528430117999998,7.8915289348,4.4793639072,588
64202,187882,207536,-3.4528430117999998,7.8915289348,4.4793639072,589
64291,187871,207584,-3.4528430117999998,7.8915289348,4.4793639072,590
64383,187871,207559,-3.4528430117999998,7.8915289348,4.4793639072,591
64509,187881,207545,-3.4528430117999998,7.8915289348,4.4793639072,592
64634,187894,207591,-3.4528430117999998,7.8915289348,4.4793639072,593
64802,187945,207641,-3.4528430117999998,7.8915289348,4.4793639072,594
64949,187937,207583,-3.4528430117999998,7.8915289348,4.4793639072,595
65116,187993,207640,-3.4528430117999998,7.8915289348,4.4793639072,596
65271,187994,207622,-3.4528430117999998,7.8915289348,4.4793639072,597
65432,188031,207639,-3.4528430117999998,7.8915289348,4.4793639072,598
65590,188027,207650,-3.4528430117999998,7.8915289348,4.4793639072,599
65703,188108,207693,-3.4528430117999998,7.8915289348,4.4793639072,600
65500,188164,207687,-3.4528430117999998,7.8915289348,4.4793639072,601
64926,188107,207659,-3.4528430117999998,7.8915289348,4.4793639072,602
64255,188031,207637,-3.4528430117999998,7.8915289348,4.4793639072,603
63734,187920,207540,-3.4528430117999998,7.8915289348,4.4793639072,604
63389,187772,207469,-3.4528430117999998,7.8915289348,4.4793639072,605
63220,187667,207390,-3.4528430117999998,7.8915289348,4.4793639072,606
63194,187548,207375,-3.4528430117999998,7.8915289348,4.4793639072,607
63254,187499,207315,-3.4528430117999998,7.8915289348,4.4793639072,608
63315,187474,207258,-3.4528430117999998,7.8915289348,4.4793639072,609
63366,187469,207250,-3.4528430117999998,7.8915289348,4.4793639072,610
63406,187511,207256,-3.4528430117999998,7.8915289348,4.4793639072,611
63471,187457,207247,-3.4528430117999998,7.8915289348,4.4793639072,612
63568,187413,207253,-3.4528430117999998,7.8915289348,4.4793639072,613
63688,187469,207261,-3.4528430117999998,7.8915289348,4.4793639072,614
63832,187425,207274,-3.4528430117999998,7.8915289348,4.4793639072,615
63957,187485,207273,-3.4528430117999998,7.8915289348,4.4793639072,616
64123,187490,207299,-3.4528430117999998,7.8915289348,4.4793639072,617
64281,187505,207270,-3.4528430117999998,7.8915289348,4.4793639072,618
64444,187507,207256,-3.4528430117999998,7.8915289348,4.4793639072,619
64616,187531,207301,-3.4528430117999998,7.8915289348,4.4793639072,620
64781,187540,207310,-3.4528430117999998,7.8915289348,4.4793639072,621
64912,187590,207343,-3.4528430117999998,7.8915289348,4.4793639072,622
64705,187623,207366,-3.4528430117999998,7.8915289348,4.4793639072,623
64102,187580,207325,-3.4528430117999998,7.8915289348,4.4793639072,624
63424,187524,207259,-3.4528430117999998,7.8915289348,4.4793639072,625
62920,187350,207210,-3.4528430117999998,7.8915289348,4.4793639072,626
62653,187238,207114,-3.4528430117999998,7.8915289348,4.4793639072,627
62630,187496,207206,-3.6897324492,7.9058858704,4.7042892316,628
62816,187495,207255,-3.6897324492,7.9058858704,4.7042892316,629
63003,187533,207253,-3.6897324492,7.9058858704,4.7042892316,630
63214,187576,207263,-3.6897324492,7.9058858704,4.7042892316,631
63416,187622,207293,-3.6897324492,7.9058858704,4.7042892316,632
63626,187634,207351,-3.6897324492,7.9058858704,4.7042892316,633
63856,187684,207336,-3.6897324492,7.9058858704,4.7042892316,634
64072,187744,207381,-3.6897324492,7.9058858704,4.7042892316,635
64252,187781,207429,-3.6897324492,7.9058858704,4.7042892316,636
64153,187867,207470,-3.6897324492,7.9058858704,4.7042892316,637
63622,187838,207469,-3.6897324492,7.9058858704,4.7042892316,638
62996,187784,207411,-3.6897324492,7.9058858704,4.7042892316,639
62523,187668,207348,-3.6897324492,7.9058858704,4.7042892316,640
62267,187599,207299,-3.6897324492,7.9058858704,4.7042892316,641
62182,187535,207283,-3.6897324492,7.9058858704,4.7042892316,642
62257,187521,207198,-3.6897324492,7.9058858704,4.7042892316,643
62426,187490,207212,-3.6897324492,7.9058858704,4.7042892316,644
62611,187469,207207,-3.6897324492,7.9058858704,4.7042892316,645
62756,187507,207277,-3.6897324492,7.9058858704,4.7042892316,646
62899,187522,207251,-3.6897324492,7.9058858704,4.7042892316,647
63023,187550,207308,-3.6897324492,7.9058858704,4.7042892316,648
63192,187556,207276,-3.6897324492,7.9058858704,4.7042892316,649
63373,187572,207270,-3.6897324492,7.9058858704,4.7042892316,650
63585,187608,207304,-3.6897324492,7.9058858704,4.7042892316,651
63794,187643,207350,-3.6897324492,7.9058858704,4.7042892316,652
64002,187707,207330,-3.6897324492,7.9058858704,4.7042892316,653
64223,187726,207410,-3.6897324492,7.9058858704,4.7042892316,654
64423,187762,207430,-3.6897324492,7.9058858704,4.7042892316,655
64654,187785,207451,-3.6897324492,7.9058858704,4.7042892316,656
64855,187851,207483,-3.6897324492,7.9058858704,4.7042892316,657
64813,187956,207489,-3.6897324492,7.9058858704,4.7042892316,658
64405,187898,207467,-3.6897324492,7.9058858704,4.7042892316,659
63831,187872,207469,-3.6897324492,7.9058858704,4.7042892316,660
63397,187762,207404,-3.6897324492,7.9058858704,4.7042892316,661
63148,187617,207282,-3.6897324492,7.9058858704,4.7042892316,662
63060,187565,207281,-3.6897324492,7.9058858704,4.7042892316,663
63107,187494,207204,-3.6897324492,7.9058858704,4.7042892316,664
63259,187432,207184,-3.6897324492,7.9058858704,4.7042892316,665
63410,187444,207169,-3.4516466004999997,7.8532437732,4.589433746799999,666
63533,187417,207208,-3.4516466004999997,7.8532437732,4.589433746799999,667
63641,187438,207183,-3.4516466004999997,7.8532437732,4.589433746799999,668
63770,187430,207157,-3.4516466004999997,7.8532437732,4.589433746799999,669
63890,187419,207215,-3.4516466004999997,7.8532437732,4.589433746799999,670
64054,187395,207167,-3.4516466004999997,7.8532437732,4.589433746799999,671
64225,187417,207160,-3.4516466004999997,7.8532437732,4.589433746799999,672
64394,187395,207189,-3.4516466004999997,7.8532437732,4.589433746799999,673
64567,187407,207204,-3.4516466004999997,7.8532437732,4.589433746799999,674
64729,187379,207148,-3.4516466004999997,7.8532437732,4.589433746799999,675
64914,187361,207164,-3.4516466004999997,7.8532437732,4.589433746799999,676
65099,187374,207150,-3.4516466004999997,7.8532437732,4.589433746799999,677
65237,187383,207113,-3.4516466004999997,7.8532437732,4.589433746799999,678
65138,187429,207190,-3.4516466004999997,7.8532437732,4.589433746799999,679
64697,187461,207178,-3.4516466004999997,7.8532437732,4.589433746799999,680
64168,187279,207079,-3.4516466004999997,7.8532437732,4.589433746799999,681
63783,187161,207007,-3.4516466004999997,7.8532437732,4.589433746799999,682
63563,187077,206929,-3.4516466004999997,7.8532437732,4.589433746799999,683
63507,186957,206881,-3.4516466004999997,7.8532437732,4.589433746799999,684
63570,186856,206816,-3.4516466004999997,7.8532437732,4.589433746799999,685
63687,186883,206834,-3.4516466004999997,7.8532437732,4.589433746799999,686
63783,186883,206777,-3.4516466004999997,7.8532437732,4.589433746799999,687
63849,186833,206793,-3.4516466004999997,7.8532437732,4.589433746799999,688
63915,186819,206793,-3.4516466004999997,7.8532437732,4.589433746799999,689
63995,186777,206753,-3.4516466004999997,7.8532437732,4.589433746799999,690
64096,186763,206740,-3.4516466004999997,7.8532437732,4.589433746799999,691
64218,186780,206745,-3.4516466004999997,7.8532437732,4.589433746799999,692
64352,186743,206714,-3.4516466004999997,7.8532437732,4.589433746799999,693
64518,186789,206688,-3.4516466004999997,7.8532437732,4.589433746799999,694
64663,186809,206713,-3.4516466004999997,7.8532437732,4.589433746799999,695
64820,186841,206736,-3.4516466004999997,7.8532437732,4.589433746799999,696
64988,186884,206856,-3.4516466004999997,7.8532437732,4.589433746799999,697
65143,187032,206878,-3.4516466004999997,7.8532437732,4.589433746799999,698
65068,187161,206948,-3.4516466004999997,7.8532437732,4.589433746799999,699
64621,187330,206998,-3.4516466004999997,7.8532437732,4.589433746799999,700
64019,187359,207022,-3.4516466004999997,7.8532437732,4.589433746799999,701
63537,187329,206989,-3.4516466004999997,7.8532437732,4.589433746799999,702
63230,187285,207002,-3.4516466004999997,7.8532437732,4.589433746799999,703
63112,187254,206974,-3.4516466004999997,7.8532437732,4.589433746799999,704
63135,187277,206968,-3.4516466004999997,7.8532437732,4.589433746799999,705
63246,187308,206983,-3.4516466004999997,7.8532437732,4.589433746799999,706
63359,187343,207001,-3.4516466004999997,7.8532437732,4.589433746799999,707
63717,187466,207091,-3.4983066412,7.8628150636,4.6037906824000006,708
63850,187499,207072,-3.4983066412,7.8628150636,4.6037906824000006,709
64013,187517,207100,-3.4983066412,7.8628150636,4.6037906824000006,710
64179,187563,207134,-3.4983066412,7.8628150636,4.6037906824000006,711
64343,187598,207179,-3.4983066412,7.8628150636,4.6037906824000006,712
64511,187641,207192,-3.4983066412,7.8628150636,4.6037906824000006,713
64689,187686,207204,-3.4983066412,7.8628150636,4.6037906824000006,714
64840,187745,207275,-3.4983066412,7.8628150636,4.6037906824000006,715
64739,187818,207314,-3.4983066412,7.8628150636,4.6037906824000006,716
64187,187841,207270,-3.4983066412,7.8628150636,4.6037906824000006,717
63402,187761,207237,-3.4983066412,7.8628150636,4.6037906824000006,718
62736,187633,207115,-3.4983066412,7.8628150636,4.6037906824000006,719
62277,187526,207068,-3.4983066412,7.8628150636,4.6037906824000006,720
62013,187407,206984,-3.4983066412,7.8628150636,4.6037906824000006,721
61942,187377,206963,-3.4983066412,7.8628150636,4.6037906824000006,722
62003,187326,206946,-3.4983066412,7.8628150636,4.6037906824000006,723
62126,187327,206982,-3.4983066412,7.8628150636,4.6037906824000006,724
62223,187361,206947,-3.4983066412,7.8628150636,4.6037906824000006,725
62311,187356,206992,-3.4983066412,7.8628150636,4.6037906824000006,726
62405,187369,206971,-3.4983066412,7.8628150636,4.6037906824000006,727
62529,187381,206993,-3.4983066412,7.8628150636,4.6037906824000006,728
62678,187412,206964,-3.4983066412,7.8628150636,4.6037906824000006,729
62857,187451,207008,-3.4983066412,7.8628150636,4.6037906824000006,730
63038,187458,206990,-3.4983066412,7.8628150636,4.6037906824000006,731
63229,187499,207028,-3.4983066412,7.8628150636,4.6037906824000006,732
63414,187526,207113,-3.4983066412,7.8628150636,4.6037906824000006,733
63610,187542,207081,-3.4983066412,7.8628150636,4.6037906824000006,734
63801,187616,207094,-3.4983066412,7.8628150636,4.6037906824000006,735
63748,187661,207141,-3.4983066412,7.8628150636,4.6037906824000006,736
63238,187648,207128,-3.4983066412,7.8628150636,4.6037906824000006,737
62469,187578,207081,-3.4983066412,7.8628150636,4.6037906824000006,738
61835,187493,207020,-3.4983066412,7.8628150636,4.6037906824000006,739
61440,187372,206926,-3.4983066412,7.8628150636,4.6037906824000006,740
61268,187258,206877,-3.4983066412,7.8628150636,4.6037906824000006,741
61283,187170,206816,-3.4983066412,7.8628150636,4.6037906824000006,742
61430,187148,206823,-3.4983066412,7.8628150636,4.6037906824000006,743
61605,187143,206790,-3.4983066412,7.8628150636,4.6037906824000006,744
61765,187132,206760,-3.4983066412,7.8628150636,4.6037906824000006,745
61882,187098,206799,-3.4983066412,7.8628150636,4.6037906824000006,746
61999,187057,206830,-3.4983066412,7.8628150636,4.6037906824000006,747
62149,187037,206776,-3.4983066412,7.8628150636,4.6037906824000006,748
62317,186985,206760,-3.4983066412,7.8628150636,4.6037906824000006,749
61287,187391,206663,-3.493520996,7.8664042975,4.4793639072,750
61413,187295,206669,-3.493520996,7.8664042975,4.4793639072,751
61643,187319,206725,-3.493520996,7.8664042975,4.4793639072,752
61851,187326,206726,-3.493520996,7.8664042975,4.4793639072,753
62008,187370,206773,-3.493520996,7.8664042975,4.4793639072,754
62180,187436,206771,-3.493520996,7.8664042975,4.4793639072,755
62337,187410,206766,-3.493520996,7.8664042975,4.4793639072,756
62524,187359,206729,-3.493520996,7.8664042975,4.4793639072,757
62726,187387,206759,-3.493520996,7.8664042975,4.4793639072,758
62945,187409,206766,-3.493520996,7.8664042975,4.4793639072,759
63161,187372,206746,-3.493520996,7.8664042975,4.4793639072,760
63378,187359,206742,-3.493520996,7.8664042975,4.4793639072,761
63594,187332,206775,-3.493520996,7.8664042975,4.4793639072,762
63723,187370,206744,-3.493520996,7.8664042975,4.4793639072,763
63422,187394,206790,-3.493520996,7.8664042975,4.4793639072,764
62774,187366,206727,-3.493520996,7.8664042975,4.4793639072,765
62163,187195,206630,-3.493520996,7.8664042975,4.4793639072,766
61797,187013,206520,-3.493520996,7.8664042975,4.4793639072,767
61641,186900,206421,-3.493520996,7.8664042975,4.4793639072,768
61658,186742,206389,-3.493520996,7.8664042975,4.4793639072,769
61839,186680,206325,-3.493520996,7.8664042975,4.4793639072,770
62036,186609,206276,-3.493520996,7.8664042975,4.4793639072,771
62223,186582,206304,-3.493520996,7.8664042975,4.4793639072,772
62375,186569,206257,-3.493520996,7.8664042975,4.4793639072,773
62500,186525,206257,-3.493520996,7.8664042975,4.4793639072,774
62658,186485,206253,-3.493520996,7.8664042975,4.4793639072,775
62837,186447,206180,-3.493520996,7.8664042975,4.4793639072,776
63041,186436,206178,-3.493520996,7.8664042975,4.4793639072,777
63232,186403,206161,-3.493520996,7.8664042975,4.4793639072,778
63434,186392,206165,-3.493520996,7.8664042975,4.4793639072,779
63636,186399,206168,-3.493520996,7.8664042975,4.4793639072,780
63849,186377,206164,-3.493520996,7.8664042975,4.4793639072,781
63906,186458,206172,-3.493520996,7.8664042975,4.4793639072,782
63582,186506,206251,-3.493520996,7.8664042975,4.4793639072,783
63022,186456,206165,-3.493520996,7.8664042975,4.4793639072,784
62598,186355,206175,-3.493520996,7.8664042975,4.4793639072,785
62389,186304,206114,-3.493520996,7.8664042975,4.4793639072,786
62373,186257,206076,-3.493520996,7.8664042975,4.4793639072,787
62505,186284,206084,-3.493520996,7.8664042975,4.4793639072,788
62733,186400,206120,-3.493520996,7.8664042975,4.4793639072,789
62950,186502,206212,-3.493520996,7.8664042975,4.4793639072,790
63096,186653,206310,-3.493520996,7.8664042975,4.4793639072,791
63249,187766,207034,-3.7220355542999997,7.9908310727,4.6612184248,792
63114,187663,206982,-3.7220355542999997,7.9908310727,4.6612184248,793
63181,187624,206972,-3.7220355542999997,7.9908310727,4.6612184248,794
63309,187514,206886,-3.7220355542999997,7.9908310727,4.6612184248,795
63417,187503,206876,-3.7220355542999997,7.9908310727,4.6612184248,796
63515,187465,206847,-3.7220355542999997,7.9908310727,4.6612184248,797
63592,187417,206833,-3.7220355542999997,7.9908310727,4.6612184248,798
63677,187416,206816,-3.7220355542999997,7.9908310727,4.6612184248,799
63789,187344,206780,-3.7220355542999997,7.9908310727,4.6612184248,800
63932,187292,206802,-3.7220355542999997,7.9908310727,4.6612184248,801
64062,187300,206752,-3.7220355542999997,7.9908310727,4.6612184248,802
64221,187285,206701,-3.7220355542999997,7.9908310727,4.6612184248,803
64367,187267,206730,-3.7220355542999997,7.9908310727,4.6612184248,804
64511,187212,206703,-3.7220355542999997,7.9908310727,4.6612184248,805
64687,187194,206678,-3.7220355542999997,7.9908310727,4.6612184248,806
64830,187196,206662,-3.7220355542999997,7.9908310727,4.6612184248,807
64708,187207,206689,-3.7220355542999997,7.9908310727,4.6612184248,808
64167,187188,206646,-3.7220355542999997,7.9908310727,4.6612184248,809
63479,187086,206626,-3.7220355542999997,7.9908310727,4.6612184248,810
62935,186904,206519,-3.7220355542999997,7.9908310727,4.6612184248,811
62658,186795,206427,-3.7220355542999997,7.9908310727,4.6612184248,812
62578,186678,206362,-3.7220355542999997,7.9908310727,4.6612184248,813
62682,186619,206313,-3.7220355542999997,7.9908310727,4.6612184248,814
62856,186591,206325,-3.7220355542999997,7.9908310727,4.6612184248,815
62966,186596,206313,-3.7220355542999997,7.9908310727,4.6612184248,816
63062,186633,206359,-3.7220355542999997,7.9908310727,4.6612184248,817
63145,186733,206395,-3.7220355542999997,7.9908310727,4.6612184248,818
63268,186810,206469,-3.7220355542999997,7.9908310727,4.6612184248,819
63421,186994,206560,-3.7220355542999997,7.9908310727,4.6612184248,820
63601,187141,206674,-3.7220355542999997,7.9908310727,4.6612184248,821
63794,187292,206738,-3.7220355542999997,7.9908310727,4.6612184248,822
63989,187392,206807,-3.7220355542999997,7.9908310727,4.6612184248,823
64160,187480,206821,-3.7220355542999997,7.9908310727,4.6612184248,824
64339,187572,206882,-3.7220355542999997,7.9908310727,4.6612184248,825
64507,187622,206948,-3.7220355542999997,7.9908310727,4.6612184248,826
64473,187763,207004,-3.7220355542999997,7.9908310727,4.6612184248,827
63967,187825,207107,-3.7220355542999997,7.9908310727,4.6612184248,828
63250,187802,207032,-3.7220355542999997,7.9908310727,4.6612184248,829
62654,187671,207009,-3.7220355542999997,7.9908310727,4.6612184248,830
62328,187597,206903,-3.6227334164,7.8436724828,4.5738803999,831
62240,187541,206860,-3.6227334164,7.8436724828,4.5738803999,832
62322,187550,206890,-3.6227334164,7.8436724828,4.5738803999,833
62503,187526,206917,-3.6227334164,7.8436724828,4.5738803999,834
62680,187585,206951,-3.6227334164,7.8436724828,4.5738803999,835
62826,187648,206997,-3.6227334164,7.8436724828,4.5738803999,836
62939,187664,207016,-3.6227334164,7.8436724828,4.5738803999,837
63067,187689,207034,-3.6227334164,7.8436724828,4.5738803999,838
63243,187703,207078,-3.6227334164,7.8436724828,4.5738803999,839
63423,187730,207075,-3.6227334164,7.8436724828,4.5738803999,840
63603,187808,207149,-3.6227334164,7.8436724828,4.5738803999,841
63803,187812,207124,-3.6227334164,7.8436724828,4.5738803999,842
63999,187850,207163,-3.6227334164,7.8436724828,4.5738803999,843
64197,187900,207187,-3.6227334164,7.8436724828,4.5738803999,844
64413,187924,207213,-3.6227334164,7.8436724828,4.5738803999,845
64510,187999,207264,-3.6227334164,7.8436724828,4.5738803999,846
64175,188061,207298,-3.6227334164,7.8436724828,4.5738803999,847
63441,188021,207249,-3.6227334164,7.8436724828,4.5738803999,848
62715,187881,207179,-3.6227334164,7.8436724828,4.5738803999,849
62215,187751,207121,-3.6227334164,7.8436724828,4.5738803999,850
61960,187698,207072,-3.6227334164,7.8436724828,4.5738803999,851
61900,187635,206989,-3.6227334164,7.8436724828,4.5738803999,852
62023,187583,207012,-3.6227334164,7.8436724828,4.5738803999,853
62196,187566,207021,-3.6227334164,7.8436724828,4.5738803999,854
62378,187570,207022,-3.6227334164,7.8436724828,4.5738803999,855
62524,187596,207052,-3.6227334164,7.8436724828,4.5738803999,856
62660,187637,207035,-3.6227334164,7.8436724828,4.5738803999,857
62810,187620,207059,-3.6227334164,7.8436724828,4.5738803999,858
62982,187616,207073,-3.6227334164,7.8436724828,4.5738803999,859
63171,187701,207101,-3.6227334164,7.8436724828,4.5738803999,860
63361,187725,207128,-3.6227334164,7.8436724828,4.5738803999,861
63575,187743,207117,-3.6227334164,7.8436724828,4.5738803999,862
63789,187747,207193,-3.6227334164,7.8436724828,4.5738803999,863
64001,187814,207198,-3.6227334164,7.8436724828,4.5738803999,864
64174,187902,207275,-3.6227334164,7.8436724828,4.5738803999,865
63985,187942,207278,-3.6227334164,7.8436724828,4.5738803999,866
63376,187913,207221,-3.6227334164,7.8436724828,4.5738803999,867
62699,187818,207176,-3.6227334164,7.8436724828,4.5738803999,868
62238,187714,207122,-3.6227334164,7.8436724828,4.5738803999,869
61993,187603,207093,-3.6227334164,7.8436724828,4.5738803999,870
61954,187518,207071,-3.6227334164,7.8436724828,4.5738803999,871
62083,187545,207033,-3.6227334164,7.8436724828,4.5738803999,872
63974,188187,207777,-3.5126635768,7.8149586116,4.6468614892,873
63501,188234,207803,-3.5126635768,7.8149586116,4.6468614892,874
62783,188179,207820,-3.5126635768,7.8149586116,4.6468614892,875
62224,188095,207753,-3.5126635768,7.8149586116,4.6468614892,876
61894,187982,207728,-3.5126635768,7.8149586116,4.6468614892,877
61762,187941,207715,-3.5126635768,7.8149586116,4.6468614892,878
61826,187896,207646,-3.5126635768,7.8149586116,4.6468614892,879
62026,187916,207685,-3.5126635768,7.8149586116,4.6468614892,880
62255,187920,207675,-3.5126635768,7.8149586116,4.6468614892,881
62449,187916,207665,-3.5126635768,7.8149586116,4.6468614892,882
62605,187988,207687,-3.5126635768,7.8149586116,4.6468614892,883
62743,187909,207714,-3.5126635768,7.8149586116,4.6468614892,884
62907,187888,207664,-3.5126635768,7.8149586116,4.6468614892,885
63077,187933,207707,-3.5126635768,7.8149586116,4.6468614892,886
63261,187907,207680,-3.5126635768,7.8149586116,4.6468614892,887
63437,187909,207689,-3.5126635768,7.8149586116,4.6468614892,888
63617,187969,207754,-3.5126635768,7.8149586116,4.6468614892,889
63801,187987,207723,-3.5126635768,7.8149586116,4.6468614892,890
64010,187989,207734,-3.5126635768,7.8149586116,4.6468614892,891
64101,187999,207721,-3.5126635768,7.8149586116,4.6468614892,892
63759,188073,207754,-3.5126635768,7.8149586116,4.6468614892,893
63032,188006,207685,-3.5126635768,7.8149586116,4.6468614892,894
62361,187927,207671,-3.5126635768,7.8149586116,4.6468614892,895
61945,187825,207629,-3.5126635768,7.8149586116,4.6468614892,896
61780,187726,207518,-3.5126635768,7.8149586116,4.6468614892,897
61814,187667,207504,-3.5126635768,7.8149586116,4.6468614892,898
62020,187597,207497,-3.5126635768,7.8149586116,4.6468614892,899
62257,187546,207501,-3.5126635768,7.8149586116,4.6468614892,900
62460,187579,207470,-3.5126635768,7.8149586116,4.6468614892,901
62625,187559,207456,-3.5126635768,7.8149586116,4.6468614892,902
62760,187526,207483,-3.5126635768,7.8149586116,4.6468614892,903
62904,187511,207448,-3.5126635768,7.8149586116,4.6468614892,904
63091,187495,207480,-3.5126635768,7.8149586116,4.6468614892,905
63256,187498,207445,-3.5126635768,7.8149586116,4.6468614892,906
63448,187491,207445,-3.5126635768,7.8149586116,4.6468614892,907
63633,187440,207458,-3.5126635768,7.8149586116,4.6468614892,908
63818,187452,207421,-3.5126635768,7.8149586116,4.6468614892,909
64030,187463,207466,-3.5126635768,7.8149586116,4.6468614892,910
64196,187492,207423,-3.5126635768,7.8149586116,4.6468614892,911
64085,187568,207452,-3.5126635768,7.8149586116,4.6468614892,912
63522,187638,207509,-3.5126635768,7.8149586116,4.6468614892,913
62850,187614,207446,-3.5126635768,7.8149586116,4.6468614892,914
63848,188690,208013,-3.5796626096,7.9058858704,4.570291166,915
64023,188704,207984,-3.5796626096,7.9058858704,4.570291166,916
64197,188702,208004,-3.5796626096,7.9058858704,4.570291166,917
64374,188707,208016,-3.5796626096,7.9058858704,4.570291166,918
64547,188699,207973,-3.5796626096,7.9058858704,4.570291166,919
64742,188718,207993,-3.5796626096,7.9058858704,4.570291166,920
64836,188730,208002,-3.5796626096,7.9058858704,4.570291166,921
64519,188781,208048,-3.5796626096,7.9058858704,4.570291166,922
63790,188771,208012,-3.5796626096,7.9058858704,4.570291166,923
63073,188668,207938,-3.5796626096,7.9058858704,4.570291166,924
62631,188540,207848,-3.5796626096,7.9058858704,4.570291166,925
62484,188399,207820,-3.5796626096,7.9058858704,4.570291166,926
62538,188339,207771,-3.5796626096,7.9058858704,4.570291166,927
62738,188319,207742,-3.5796626096,7.9058858704,4.570291166,928
62959,188330,207774,-3.5796626096,7.9058858704,4.570291166,929
63129,188364,207765,-3.5796626096,7.9058858704,4.570291166,930
63270,188420,207809,-3.5796626096,7.9058858704,4.570291166,931
63378,188529,207879,-3.5796626096,7.9058858704,4.570291166,932
63528,188562,207859,-3.5796626096,7.9058858704,4.570291166,933
63687,188627,207927,-3.5796626096,7.9058858704,4.570291166,934
63858,188714,207966,-3.5796626096,7.9058858704,4.570291166,935
64043,188812,208052,-3.5796626096,7.9058858704,4.570291166,936
64242,188908,208076,-3.5796626096,7.9058858704,4.570291166,937
64438,188976,208090,-3.5796626096,7.9058858704,4.570291166,938
64637,189024,208171,-3.5796626096,7.9058858704,4.570291166,939
64844,189107,208184,-3.5796626096,7.9058858704,4.570291166,940
64974,189173,208200,-3.5796626096,7.9058858704,4.570291166,941
64757,189313,208261,-3.5796626096,7.9058858704,4.570291166,942
64084,189304,208244,-3.5796626096,7.9058858704,4.570291166,943
63342,189247,208230,-3.5796626096,7.9058858704,4.570291166,944
62868,189158,208175,-3.5796626096,7.9058858704,4.570291166,945
62661,189080,208138,-3.5796626096,7.9058858704,4.570291166,946
62690,189034,208088,-3.5796626096,7.9058858704,4.570291166,947
62880,189012,208099,-3.5796626096,7.9058858704,4.570291166,948
63119,189027,208146,-3.5796626096,7.9058858704,4.570291166,949
63326,189051,208124,-3.5796626096,7.9058858704,4.570291166,950
63472,189078,208143,-3.5796626096,7.9058858704,4.570291166,951
63598,189123,208178,-3.5796626096,7.9058858704,4.570291166,952
63748,189134,208178,-3.5796626096,7.9058858704,4.570291166,953
63896,189152,208236,-3.5796626096,7.9058858704,4.570291166,954
64057,189190,208201,-3.5796626096,7.9058858704,4.570291166,955
64244,189221,208201,-3.5796626096,7.9058858704,4.570291166,956
64956,189174,208162,-3.5282169237,7.9142607494999995,4.5451665287,957
65068,189251,208166,-3.5282169237,7.9142607494999995,4.5451665287,958
64819,189314,208202,-3.5282169237,7.9142607494999995,4.5451665287,959
64145,189273,208239,-3.5282169237,7.9142607494999995,4.5451665287,960
63433,189200,208133,-3.5282169237,7.9142607494999995,4.5451665287,961
62961,189088,208052,-3.5282169237,7.9142607494999995,4.5451665287,962
62684,188969,208019,-3.5282169237,7.9142607494999995,4.5451665287,963
62604,188893,207957,-3.5282169237,7.9142607494999995,4.5451665287,964
62707,188864,207957,-3.5282169237,7.9142607494999995,4.5451665287,965
62870,188825,207951,-3.5282169237,7.9142607494999995,4.5451665287,966
63015,188852,207937,-3.5282169237,7.9142607494999995,4.5451665287,967
63125,188869,207918,-3.5282169237,7.9142607494999995,4.5451665287,968
63213,188877,207979,-3.5282169237,7.9142607494999995,4.5451665287,969
63316,188877,207937,-3.5282169237,7.9142607494999995,4.5451665287,970
63439,188888,207950,-3.5282169237,7.9142607494999995,4.5451665287,971
63598,188877,207994,-3.5282169237,7.9142607494999995,4.5451665287,972
63767,188919,207994,-3.5282169237,7.9142607494999995,4.5451665287,973
63945,188923,208008,-3.5282169237,7.9142607494999995,4.5451665287,974
64120,188976,208039,-3.5282169237,7.9142607494999995,4.5451665287,975
64302,188992,208065,-3.5282169237,7.9142607494999995,4.5451665287,976
64476,188978,208041,-3.5282169237,7.9142607494999995,4.5451665287,977
64552,189043,208079,-3.5282169237,7.9142607494999995,4.5451665287,978
64219,189108,208114,-3.5282169237,7.9142607494999995,4.5451665287,979
63515,189049,208083,-3.5282169237,7.9142607494999995,4.5451665287,980
62851,188977,208025,-3.5282169237,7.9142607494999995,4.5451665287,981
62413,188817,207947,-3.5282169237,7.9142607494999995,4.5451665287,982
62220,188727,207867,-3.5282169237,7.9142607494999995,4.5451665287,983
62217,188663,207841,-3.5282169237,7.9142607494999995,4.5451665287,984
62364,188601,207837,-3.5282169237,7.9142607494999995,4.5451665287,985
62543,188624,207805,-3.5282169237,7.9142607494999995,4.5451665287,986
62693,188651,207821,-3.5282169237,7.9142607494999995,4.5451665287,987
62812,188693,207825,-3.5282169237,7.9142607494999995,4.5451665287,988
62919,188677,207830,-3.5282169237,7.9142607494999995,4.5451665287,989
63054,188670,207854,-3.5282169237,7.9142607494999995,4.5451665287,990
63180,188671,207863,-3.5282169237,7.9142607494999995,4.5451665287,991
63347,188691,207893,-3.5282169237,7.9142607494999995,4.5451665287,992
63524,188746,207924,-3.5282169237,7.9142607494999995,4.5451665287,993
63725,188749,207918,-3.5282169237,7.9142607494999995,4.5451665287,994
63900,188787,207937,-3.5282169237,7.9142607494999995,4.5451665287,995
64092,188790,207947,-3.5282169237,7.9142607494999995,4.5451665287,996
64267,188814,207959,-3.5282169237,7.9142607494999995,4.5451665287,997
64340,188860,207995,-3.5282169237,7.9142607494999995,4.5451665287,998
62230,188666,207837,-3.6502508763,7.8759755879,4.6791645943,999
62056,188564,207781,-3.6502508763,7.8759755879,4.6791645943,1000
62074,188485,207733,-3.6502508763,7.8759755879,4.6791645943,1001
62238,188473,207724,-3.6502508763,7.8759755879,4.6791645943,1002
62427,188490,207744,-3.6502508763,7.8759755879,4.6791645943,1003
62586,188480,207766,-3.6502508763,7.8759755879,4.6791645943,1004
62707,188520,207785,-3.6502508763,7.8759755879,4.6791645943,1005
62821,188491,207783,-3.6502508763,7.8759755879,4.6791645943,1006
62949,188514,207801,-3.6502508763,7.8759755879,4.6791645943,1007
63101,188529,207794,-3.6502508763,7.8759755879,4.6791645943,1008
63257,188505,207813,-3.6502508763,7.8759755879,4.6791645943,1009
63445,188570,207845,-3.6502508763,7.8759755879,4.6791645943,1010
63637,188621,207851,-3.6502508763,7.8759755879,4.6791645943,1011
63816,188631,207887,-3.6502508763,7.8759755879,4.6791645943,1012
63997,188651,207922,-3.6502508763,7.8759755879,4.6791645943,1013
64189,188656,207902,-3.6502508763,7.8759755879,4.6791645943,1014
64308,188738,207924,-3.6502508763,7.8759755879,4.6791645943,1015
64041,188762,207990,-3.6502508763,7.8759755879,4.6791645943,1016
63375,188741,207960,-3.6502508763,7.8759755879,4.6791645943,1017
62734,188669,207867,-3.6502508763,7.8759755879,4.6791645943,1018
62311,188586,207835,-3.6502508763,7.8759755879,4.6791645943,1019
62123,188449,207791,-3.6502508763,7.8759755879,4.6791645943,1020
62118,188418,207764,-3.6502508763,7.8759755879,4.6791645943,1021
62248,188386,207769,-3.6502508763,7.8759755879,4.6791645943,1022
62460,188383,207703,-3.6502508763,7.8759755879,4.6791645943,1023
62629,188404,207779,-3.6502508763,7.8759755879,4.6791645943,1024
62756,188400,207770,-3.6502508763,7.8759755879,4.6791645943,1025
62875,188419,207793,-3.6502508763,7.8759755879,4.6791645943,1026
63021,188440,207782,-3.6502508763,7.8759755879,4.6791645943,1027
63164,188465,207767,-3.6502508763,7.8759755879,4.6791645943,1028
63345,188411,207800,-3.6502508763,7.8759755879,4.6791645943,1029
63535,188522,207806,-3.6502508763,7.8759755879,4.6791645943,1030
63736,188525,207861,-3.6502508763,7.8759755879,4.6791645943,1031
63916,188515,207827,-3.6502508763,7.8759755879,4.6791645943,1032
64101,188545,207822,-3.6502508763,7.8759755879,4.6791645943,1033
64310,188572,207900,-3.6502508763,7.8759755879,4.6791645943,1034
64493,188610,207870,-3.6502508763,7.8759755879,4.6791645943,1035
64497,188705,207949,-3.6502508763,7.8759755879,4.6791645943,1036
64054,188736,207936,-3.6502508763,7.8759755879,4.6791645943,1037
63408,188675,207892,-3.6502508763,7.8759755879,4.6791645943,1038
62874,188522,207820,-3.6502508763,7.8759755879,4.6791645943,1039
62572,188421,207748,-3.6502508763,7.8759755879,4.6791645943,1040
63323,187670,207383,-3.5760733757,7.800601675999999,4.5595234643,1041
63510,187651,207394,-3.5760733757,7.800601675999999,4.5595234643,1042
63676,187622,207379,-3.5760733757,7.800601675999999,4.5595234643,1043
63871,187625,207381,-3.5760733757,7.800601675999999,4.5595234643,1044
64063,187659,207448,-3.5760733757,7.800601675999999,4.5595234643,1045
64073,187764,207472,-3.5760733757,7.800601675999999,4.5595234643,1046
63696,187816,207486,-3.5760733757,7.800601675999999,4.5595234643,1047
63122,187793,207494,-3.5760733757,7.800601675999999,4.5595234643,1048
62669,187743,207442,-3.5760733757,7.800601675999999,4.5595234643,1049
62431,187717,207401,-3.5760733757,7.800601675999999,4.5595234643,1050
62368,187689,207456,-3.5760733757,7.800601675999999,4.5595234643,1051
62459,187693,207413,-3.5760733757,7.800601675999999,4.5595234643,1052
62638,187706,207454,-3.5760733757,7.800601675999999,4.5595234643,1053
62786,187776,207455,-3.5760733757,7.800601675999999,4.5595234643,1054
62913,187849,207512,-3.5760733757,7.800601675999999,4.5595234643,1055
63005,187862,207550,-3.5760733757,7.800601675999999,4.5595234643,1056
63137,187898,207561,-3.5760733757,7.800601675999999,4.5595234643,1057
63276,187927,207550,-3.5760733757,7.800601675999999,4.5595234643,1058
63451,187997,207570,-3.5760733757,7.800601675999999,4.5595234643,1059
63626,188078,207616,-3.5760733757,7.800601675999999,4.5595234643,1060
63810,188078,207645,-3.5760733757,7.800601675999999,4.5595234643,1061
63988,188116,207662,-3.5760733757,7.800601675999999,4.5595234643,1062
64166,188165,207685,-3.5760733757,7.800601675999999,4.5595234643,1063
64351,188248,207741,-3.5760733757,7.800601675999999,4.5595234643,1064
64416,188278,207758,-3.5760733757,7.800601675999999,4.5595234643,1065
64050,188349,207760,-3.5760733757,7.800601675999999,4.5595234643,1066
63432,188306,207729,-3.5760733757,7.800601675999999,4.5595234643,1067
62878,188158,207689,-3.5760733757,7.800601675999999,4.5595234643,1068
62539,188041,207608,-3.5760733757,7.800601675999999,4.5595234643,1069
62368,187964,207607,-3.5760733757,7.800601675999999,4.5595234643,1070
62374,187913,207554,-3.5760733757,7.800601675999999,4.5595234643,1071
62486,187944,207570,-3.5760733757,7.800601675999999,4.5595234643,1072
62660,187927,207560,-3.5760733757,7.800601675999999,4.5595234643,1073
62794,187951,207584,-3.5760733757,7.800601675999999,4.5595234643,1074
62889,187972,207592,-3.5760733757,7.800601675999999,4.5595234643,1075
63012,187994,207575,-3.5760733757,7.800601675999999,4.5595234643,1076
63152,187993,207611,-3.5760733757,7.800601675999999,4.5595234643,1077
63295,188010,207606,-3.5760733757,7.800601675999999,4.5595234643,1078
63479,188028,207579,-3.5760733757,7.800601675999999,4.5595234643,1079
63648,188046,207634,-3.5760733757,7.800601675999999,4.5595234643,1080
63822,188096,207673,-3.5760733757,7.800601675999999,4.5595234643,1081
64002,188109,207678,-3.5760733757,7.800601675999999,4.5595234643,1082
62544,187894,207473,-3.6801611588,7.925028451199999,4.618147618,1083
62426,187881,207444,-3.6801611588,7.925028451199999,4.618147618,1084
62476,187768,207398,-3.6801611588,7.925028451199999,4.618147618,1085
62638,187771,207392,-3.6801611588,7.925028451199999,4.618147618,1086
62796,187797,207366,-3.6801611588,7.925028451199999,4.618147618,1087
62943,187822,207360,-3.6801611588,7.925028451199999,4.618147618,1088
63065,187855,207412,-3.6801611588,7.925028451199999,4.618147618,1089
63186,187849,207423,-3.6801611588,7.925028451199999,4.618147618,1090
63313,187877,207446,-3.6801611588,7.925028451199999,4.618147618,1091
63504,187876,207437,-3.6801611588,7.925028451199999,4.618147618,1092
63681,187947,207446,-3.6801611588,7.925028451199999,4.618147618,1093
63873,187954,207474,-3.6801611588,7.925028451199999,4.618147618,1094
64074,188027,207501,-3.6801611588,7.925028451199999,4.618147618,1095
64270,188050,207519,-3.6801611588,7.925028451199999,4.618147618,1096
64474,188043,207545,-3.6801611588,7.925028451199999,4.618147618,1097
64648,188113,207496,-3.6801611588,7.925028451199999,4.618147618,1098
64669,188145,207597,-3.6801611588,7.925028451199999,4.618147618,1099
64237,188159,207562,-3.6801611588,7.925028451199999,4.618147618,1100
63572,188097,207577,-3.6801611588,7.925028451199999,4.618147618,1101
63010,188025,207444,-3.6801611588,7.925028451199999,4.618147618,1102
62701,187945,207447,-3.6801611588,7.925028451199999,4.618147618,1103
62571,187871,207424,-3.6801611588,7.925028451199999,4.618147618,1104
62608,187818,207336,-3.6801611588,7.925028451199999,4.618147618,1105
62751,187772,207352,-3.6801611588,7.925028451199999,4.618147618,1106
62908,187779,207337,-3.6801611588,7.925028451199999,4.618147618,1107
63051,187781,207327,-3.6801611588,7.925028451199999,4.618147618,1108
63142,187781,207378,-3.6801611588,7.925028451199999,4.618147618,1109
63257,187789,207324,-3.6801611588,7.925028451199999,4.618147618,1110
63397,187763,207327,-3.6801611588,7.925028451199999,4.618147618,1111
63551,187790,207321,-3.6801611588,7.925028451199999,4.618147618,1112
63729,187804,207356,-3.6801611588,7.925028451199999,4.618147618,1113
63909,187830,207366,-3.6801611588,7.925028451199999,4.618147618,1114
64091,187861,207388,-3.6801611588,7.925028451199999,4.618147618,1115
64281,187861,207402,-3.6801611588,7.925028451199999,4.618147618,1116
64478,187913,207399,-3.6801611588,7.925028451199999,4.618147618,1117
64643,187928,207387,-3.6801611588,7.925028451199999,4.618147618,1118
64590,187944,207472,-3.6801611588,7.925028451199999,4.618147618,1119
64106,187994,207437,-3.6801611588,7.925028451199999,4.618147618,1120
63421,187871,207372,-3.6801611588,7.925028451199999,4.618147618,1121
62864,187729,207266,-3.6801611588,7.925028451199999,4.618147618,1122
62561,187587,207213,-3.6801611588,7.925028451199999,4.618147618,1123
62457,187502,207135,-3.6801611588,7.925028451199999,4.618147618,1124
62038,187598,207172,-3.5330025689,7.9669028467,4.6217368519,1125
62155,187594,207160,-3.5330025689,7.9669028467,4.6217368519,1126
62302,187633,207161,-3.5330025689,7.9669028467,4.6217368519,1127
62468,187621,207200,-3.5330025689,7.9669028467,4.6217368519,1128
62631,187706,207221,-3.5330025689,7.9669028467,4.6217368519,1129
62818,187742,207222,-3.5330025689,7.9669028467,4.6217368519,1130
62997,187753,207242,-3.5330025689,7.9669028467,4.6217368519,1131
63186,187777,207262,-3.5330025689,7.9669028467,4.6217368519,1132
63330,187827,207318,-3.5330025689,7.9669028467,4.6217368519,1133
63125,187866,207237,-3.5330025689,7.9669028467,4.6217368519,1134
62522,187789,207244,-3.5330025689,7.9669028467,4.6217368519,1135
61847,187642,207173,-3.5330025689,7.9669028467,4.6217368519,1136
61382,187508,207075,-3.5330025689,7.9669028467,4.6217368519,1137
61158,187378,207001,-3.5330025689,7.9669028467,4.6217368519,1138
61129,187250,206959,-3.5330025689,7.9669028467,4.6217368519,1139
61253,187234,206932,-3.5330025689,7.9669028467,4.6217368519,1140
61439,187211,206883,-3.5330025689,7.9669028467,4.6217368519,1141
61611,187211,206910,-3.5330025689,7.9669028467,4.6217368519,1142
61746,187171,206901,-3.5330025689,7.9669028467,4.6217368519,1143
61842,187173,206941,-3.5330025689,7.9669028467,4.6217368519,1144
61988,187140,206868,-3.5330025689,7.9669028467,4.6217368519,1145
62127,187129,206864,-3.5330025689,7.9669028467,4.6217368519,1146
62292,187101,206898,-3.5330025689,7.9669028467,4.6217368519,1147
62467,187128,206881,-3.5330025689,7.9669028467,4.6217368519,1148
62631,187083,206900,-3.5330025689,7.9669028467,4.6217368519,1149
62840,187109,206894,-3.5330025689,7.9669028467,4.6217368519,1150
63029,187112,206872,-3.5330025689,7.9669028467,4.6217368519,1151
63041,187129,206897,-3.5330025689,7.9669028467,4.6217368519,1152
62595,187144,206909,-3.5330025689,7.9669028467,4.6217368519,1153
61962,187051,206847,-3.5330025689,7.9669028467,4.6217368519,1154
61466,186912,206726,-3.5330025689,7.9669028467,4.6217368519,1155
61209,186781,206706,-3.5330025689,7.9669028467,4.6217368519,1156
61141,186687,206656,-3.5330025689,7.9669028467,4.6217368519,1157
61246,186650,206581,-3.5330025689,7.9669028467,4.6217368519,1158
61432,186660,206620,-3.5330025689,7.9669028467,4.6217368519,1159
61628,186684,206655,-3.5330025689,7.9669028467,4.6217368519,1160
61762,186812,206697,-3.5330025689,7.9669028467,4.6217368519,1161
61899,186865,206793,-3.5330025689,7.9669028467,4.6217368519,1162
62049,186951,206817,-3.5330025689,7.9669028467,4.6217368519,1163
62246,187048,206895,-3.5330025689,7.9669028467,4.6217368519,1164
62444,187151,206938,-3.5330025689,7.9669028467,4.6217368519,1165
62639,187257,207022,-3.5330025689,7.9669028467,4.6217368519,1166
63838,188076,207490,-3.6801611588,7.8855468783,4.5559342304,1167
64011,188063,207444,-3.6801611588,7.8855468783,4.5559342304,1168
64207,188070,207459,-3.6801611588,7.8855468783,4.5559342304,1169
64390,188103,207515,-3.6801611588,7.8855468783,4.5559342304,1170
64431,188144,207534,-3.6801611588,7.8855468783,4.5559342304,1171
64026,188177,207520,-3.6801611588,7.8855468783,4.5559342304,1172
63224,188086,207459,-3.6801611588,7.8855468783,4.5559342304,1173
62483,187926,207405,-3.6801611588,7.8855468783,4.5559342304,1174
62050,187767,207300,-3.6801611588,7.8855468783,4.5559342304,1175
61885,187702,207234,-3.6801611588,7.8855468783,4.5559342304,1176
61938,187627,207188,-3.6801611588,7.8855468783,4.5559342304,1177
62119,187550,207173,-3.6801611588,7.8855468783,4.5559342304,1178
62327,187526,207128,-3.6801611588,7.8855468783,4.5559342304,1179
62469,187509,207132,-3.6801611588,7.8855468783,4.5559342304,1180
62604,187566,207145,-3.6801611588,7.8855468783,4.5559342304,1181
62718,187565,207123,-3.6801611588,7.8855468783,4.5559342304,1182
62867,187580,207116,-3.6801611588,7.8855468783,4.5559342304,1183
63023,187604,207158,-3.6801611588,7.8855468783,4.5559342304,1184
63215,187684,207226,-3.6801611588,7.8855468783,4.5559342304,1185
63406,187781,207254,-3.6801611588,7.8855468783,4.5559342304,1186
63602,187900,207348,-3.6801611588,7.8855468783,4.5559342304,1187
63811,187977,207385,-3.6801611588,7.8855468783,4.5559342304,1188
64026,188143,207438,-3.6801611588,7.8855468783,4.5559342304,1189
64211,188228,207487,-3.6801611588,7.8855468783,4.5559342304,1190
64176,188393,207589,-3.6801611588,7.8855468783,4.5559342304,1191
63590,188419,207632,-3.6801611588,7.8855468783,4.5559342304,1192
62769,188354,207562,-3.6801611588,7.8855468783,4.5559342304,1193
62163,188277,207474,-3.6801611588,7.8855468783,4.5559342304,1194
61881,188209,207434,-3.6801611588,7.8855468783,4.5559342304,1195
61856,188193,207425,-3.6801611588,7.8855468783,4.5559342304,1196
62034,188177,207416,-3.6801611588,7.8855468783,4.5559342304,1197
62286,188189,207434,-3.6801611588,7.8855468783,4.5559342304,1198
62512,188220,207460,-3.6801611588,7.8855468783,4.5559342304,1199
62676,188270,207508,-3.6801611588,7.8855468783,4.5559342304,1200
62805,188321,207492,-3.6801611588,7.8855468783,4.5559342304,1201
62956,188329,207490,-3.6801611588,7.8855468783,4.5559342304,1202
63132,188393,207509,-3.6801611588,7.8855468783,4.5559342304,1203
63299,188399,207547,-3.6801611588,7.8855468783,4.5559342304,1204
63505,188416,207599,-3.6801611588,7.8855468783,4.5559342304,1205
63689,188482,207578,-3.6801611588,7.8855468783,4.5559342304,1206
63884,188497,207622,-3.6801611588,7.8855468783,4.5559342304,1207
64078,188532,207657,-3.6801611588,7.8855468783,4.5559342304,1208
62205,188038,207341,-3.4851461168999998,7.7671021596,4.689932296,1209
62356,188069,207359,-3.4851461168999998,7.7671021596,4.689932296,1210
62481,188101,207389,-3.4851461168999998,7.7671021596,4.689932296,1211
62651,188121,207424,-3.4851461168999998,7.7671021596,4.689932296,1212
62848,188107,207406,-3.4851461168999998,7.7671021596,4.689932296,1213
63028,188175,207450,-3.4851461168999998,7.7671021596,4.689932296,1214
63237,188227,207441,-3.4851461168999998,7.7671021596,4.689932296,1215
63421,188251,207508,-3.4851461168999998,7.7671021596,4.689932296,1216
63628,188257,207514,-3.4851461168999998,7.7671021596,4.689932296,1217
63844,188274,207567,-3.4851461168999998,7.7671021596,4.689932296,1218
63956,188384,207560,-3.4851461168999998,7.7671021596,4.689932296,1219
63615,188409,207548,-3.4851461168999998,7.7671021596,4.689932296,1220
62816,188334,207504,-3.4851461168999998,7.7671021596,4.689932296,1221
62089,188232,207439,-3.4851461168999998,7.7671021596,4.689932296,1222
61624,188068,207367,-3.4851461168999998,7.7671021596,4.689932296,1223
61432,187974,207303,-3.4851461168999998,7.7671021596,4.689932296,1224
61429,187929,207298,-3.4851461168999998,7.7671021596,4.689932296,1225
61602,187885,207230,-3.4851461168999998,7.7671021596,4.689932296,1226
61824,187911,207300,-3.4851461168999998,7.7671021596,4.689932296,1227
62028,187977,207272,-3.4851461168999998,7.7671021596,4.689932296,1228
62188,187948,207263,-3.4851461168999998,7.7671021596,4.689932296,1229
62343,188018,207333,-3.4851461168999998,7.7671021596,4.689932296,1230
62503,188015,207339,-3.4851461168999998,7.7671021596,4.689932296,1231
62672,188001,207319,-3.4851461168999998,7.7671021596,4.689932296,1232
62856,188051,207384,-3.4851461168999998,7.7671021596,4.689932296,1233
63070,188075,207349,-3.4851461168999998,7.7671021596,4.689932296,1234
63276,188141,207426,-3.4851461168999998,7.7671021596,4.689932296,1235
63458,188195,207438,-3.4851461168999998,7.7671021596,4.689932296,1236
63677,188201,207454,-3.4851461168999998,7.7671021596,4.689932296,1237
63858,188213,207476,-3.4851461168999998,7.7671021596,4.689932296,1238
63775,188299,207469,-3.4851461168999998,7.7671021596,4.689932296,1239
63128,188272,207457,-3.4851461168999998,7.7671021596,4.689932296,1240
62335,188160,207390,-3.4851461168999998,7.7671021596,4.689932296,1241
61758,188023,207315,-3.4851461168999998,7.7671021596,4.689932296,1242
61462,187913,207239,-3.4851461168999998,7.7671021596,4.689932296,1243
61397,187856,207196,-3.4851461168999998,7.7671021596,4.689932296,1244
61515,187777,207191,-3.4851461168999998,7.7671021596,4.689932296,1245
61742,187800,207259,-3.4851461168999998,7.7671021596,4.689932296,1246
61964,187775,207205,-3.4851461168999998,7.7671021596,4.689932296,1247
62120,187852,207217,-3.4851461168999998,7.7671021596,4.689932296,1248
62269,187888,207280,-3.4851461168999998,7.7671021596,4.689932296,1249
62423,187907,207258,-3.4851461168999998,7.7671021596,4.689932296,1250
62143,187185,206836,-3.4516466004999997,7.8053873212000005,4.570291166,1251
62273,187159,206858,-3.4516466004999997,7.8053873212000005,4.570291166,1252
62397,187154,206878,-3.4516466004999997,7.8053873212000005,4.570291166,1253
62515,187116,206855,-3.4516466004999997,7.8053873212000005,4.570291166,1254
62654,187103,206824,-3.4516466004999997,7.8053873212000005,4.570291166,1255
62811,187053,206840,-3.4516466004999997,7.8053873212000005,4.570291166,1256
62971,187101,206852,-3.4516466004999997,7.8053873212000005,4.570291166,1257
63169,187118,206870,-3.4516466004999997,7.8053873212000005,4.570291166,1258
63344,187150,206845,-3.4516466004999997,7.8053873212000005,4.570291166,1259
63538,187145,206904,-3.4516466004999997,7.8053873212000005,4.570291166,1260
63745,187207,206888,-3.4516466004999997,7.8053873212000005,4.570291166,1261
63921,187305,206947,-3.4516466004999997,7.8053873212000005,4.570291166,1262
63777,187474,207065,-3.4516466004999997,7.8053873212000005,4.570291166,1263
63192,187591,207122,-3.4516466004999997,7.8053873212000005,4.570291166,1264
62535,187621,207131,-3.4516466004999997,7.8053873212000005,4.570291166,1265
62103,187600,207154,-3.4516466004999997,7.8053873212000005,4.570291166,1266
61911,187588,207125,-3.4516466004999997,7.8053873212000005,4.570291166,1267
61945,187567,207144,-3.4516466004999997,7.8053873212000005,4.570291166,1268
62129,187597,207117,-3.4516466004999997,7.8053873212000005,4.570291166,1269
62348,187663,207181,-3.4516466004999997,7.8053873212000005,4.570291166,1270
62523,187715,207251,-3.4516466004999997,7.8053873212000005,4.570291166,1271
62639,187797,207261,-3.4516466004999997,7.8053873212000005,4.570291166,1272
62742,187842,207292,-3.4516466004999997,7.8053873212000005,4.570291166,1273
62898,187865,207295,-3.4516466004999997,7.8053873212000005,4.570291166,1274
63073,187948,207317,-3.4516466004999997,7.8053873212000005,4.570291166,1275
63261,187982,207410,-3.4516466004999997,7.8053873212000005,4.570291166,1276
63448,188007,207412,-3.4516466004999997,7.8053873212000005,4.570291166,1277
63620,188076,207440,-3.4516466004999997,7.8053873212000005,4.570291166,1278
63811,188131,207482,-3.4516466004999997,7.8053873212000005,4.570291166,1279
64005,188188,207516,-3.4516466004999997,7.8053873212000005,4.570291166,1280
64148,188215,207533,-3.4516466004999997,7.8053873212000005,4.570291166,1281
63921,188285,207558,-3.4516466004999997,7.8053873212000005,4.570291166,1282
63190,188267,207524,-3.4516466004999997,7.8053873212000005,4.570291166,1283
62362,188133,207495,-3.4516466004999997,7.8053873212000005,4.570291166,1284
61763,188055,207437,-3.4516466004999997,7.8053873212000005,4.570291166,1285
61453,187938,207333,-3.4516466004999997,7.8053873212000005,4.570291166,1286
61356,187882,207355,-3.4516466004999997,7.8053873212000005,4.570291166,1287
61449,187842,207339,-3.4516466004999997,7.8053873212000005,4.570291166,1288
61647,187863,207321,-3.4516466004999997,7.8053873212000005,4.570291166,1289
61828,187868,207325,-3.4516466004999997,7.8053873212000005,4.570291166,1290
61960,187919,207428,-3.4516466004999997,7.8053873212000005,4.570291166,1291
62073,187911,207376,-3.4516466004999997,7.8053873212000005,4.570291166,1292
61886,188577,207762,-3.5892339,7.7862447404,4.637290198800001,1293
61949,188553,207742,-3.5892339,7.7862447404,4.637290198800001,1294
62162,188530,207735,-3.5892339,7.7862447404,4.637290198800001,1295
62403,188540,207731,-3.5892339,7.7862447404,4.637290198800001,1296
62595,188538,207761,-3.5892339,7.7862447404,4.637290198800001,1297
62748,188615,207778,-3.5892339,7.7862447404,4.637290198800001,1298
62875,188602,207779,-3.5892339,7.7862447404,4.637290198800001,1299
63034,188678,207819,-3.5892339,7.7862447404,4.637290198800001,1300
63190,188672,207812,-3.5892339,7.7862447404,4.637290198800001,1301
63371,188684,207831,-3.5892339,7.7862447404,4.637290198800001,1302
63574,188773,207855,-3.5892339,7.7862447404,4.637290198800001,1303
63769,188763,207873,-3.5892339,7.7862447404,4.637290198800001,1304
63951,188817,207893,-3.5892339,7.7862447404,4.637290198800001,1305
64155,188859,207904,-3.5892339,7.7862447404,4.637290198800001,1306
64360,188861,207952,-3.5892339,7.7862447404,4.637290198800001,1307
64470,188957,207944,-3.5892339,7.7862447404,4.637290198800001,1308
64120,188976,207935,-3.5892339,7.7862447404,4.637290198800001,1309
63328,188936,207928,-3.5892339,7.7862447404,4.637290198800001,1310
62578,188832,207854,-3.5892339,7.7862447404,4.637290198800001,1311
62122,188716,207820,-3.5892339,7.7862447404,4.637290198800001,1312
61934,188623,207748,-3.5892339,7.7862447404,4.637290198800001,1313
61946,188585,207729,-3.5892339,7.7862447404,4.637290198800001,1314
62151,188602,207746,-3.5892339,7.7862447404,4.637290198800001,1315
62368,188611,207758,-3.5892339,7.7862447404,4.637290198800001,1316
62568,188620,207759,-3.5892339,7.7862447404,4.637290198800001,1317
62695,188668,207735,-3.5892339,7.7862447404,4.637290198800001,1318
62815,188694,207816,-3.5892339,7.7862447404,4.637290198800001,1319
62959,188687,207817,-3.5892339,7.7862447404,4.637290198800001,1320
63128,188701,207827,-3.5892339,7.7862447404,4.637290198800001,1321
63309,188730,207839,-3.5892339,7.7862447404,4.637290198800001,1322
63486,188775,207874,-3.5892339,7.7862447404,4.637290198800001,1323
63671,188814,207856,-3.5892339,7.7862447404,4.637290198800001,1324
63858,188821,207903,-3.5892339,7.7862447404,4.637290198800001,1325
64059,188892,207891,-3.5892339,7.7862447404,4.637290198800001,1326
64260,188874,207901,-3.5892339,7.7862447404,4.637290198800001,1327
64275,188999,207938,-3.5892339,7.7862447404,4.637290198800001,1328
63806,188981,207929,-3.5892339,7.7862447404,4.637290198800001,1329
63037,188911,207924,-3.5892339,7.7862447404,4.637290198800001,1330
62401,188835,207869,-3.5892339,7.7862447404,4.637290198800001,1331
62061,188738,207786,-3.5892339,7.7862447404,4.637290198800001,1332
61950,188706,207759,-3.5892339,7.7862447404,4.637290198800001,1333
62029,188616,207766,-3.5892339,7.7862447404,4.637290198800001,1334
62603,188822,207721,-3.5569307949000004,7.791030385599999,4.4458643908,1335
62298,188763,207680,-3.5569307949000004,7.791030385599999,4.4458643908,1336
62214,188668,207630,-3.5569307949000004,7.791030385599999,4.4458643908,1337
62279,188663,207620,-3.5569307949000004,7.791030385599999,4.4458643908,1338
62476,188634,207599,-3.5569307949000004,7.791030385599999,4.4458643908,1339
62661,188648,207630,-3.5569307949000004,7.791030385599999,4.4458643908,1340
62789,188643,207630,-3.5569307949000004,7.791030385599999,4.4458643908,1341
62909,188660,207635,-3.5569307949000004,7.791030385599999,4.4458643908,1342
63013,188693,207643,-3.5569307949000004,7.791030385599999,4.4458643908,1343
63165,188708,207694,-3.5569307949000004,7.791030385599999,4.4458643908,1344
63317,188735,207698,-3.5569307949000004,7.791030385599999,4.4458643908,1345
63491,188753,207704,-3.5569307949000004,7.791030385599999,4.4458643908,1346
63666,188791,207704,-3.5569307949000004,7.791030385599999,4.4458643908,1347
63830,188829,207745,-3.5569307949000004,7.791030385599999,4.4458643908,1348
64028,188796,207758,-3.5569307949000004,7.791030385599999,4.4458643908,1349
64210,188856,207746,-3.5569307949000004,7.791030385599999,4.4458643908,1350
64224,188947,207811,-3.5569307949000004,7.791030385599999,4.4458643908,1351
63777,188974,207827,-3.5569307949000004,7.791030385599999,4.4458643908,1352
63032,188899,207754,-3.5569307949000004,7.791030385599999,4.4458643908,1353
62386,188777,207678,-3.5569307949000004,7.791030385599999,4.4458643908,1354
62016,188654,207629,-3.5569307949000004,7.791030385599999,4.4458643908,1355
61861,188583,207570,-3.5569307949000004,7.791030385599999,4.4458643908,1356
61899,188530,207558,-3.5569307949000004,7.791030385599999,4.4458643908,1357
62077,188526,207557,-3.5569307949000004,7.791030385599999,4.4458643908,1358
62281,188532,207531,-3.5569307949000004,7.791030385599999,4.4458643908,1359
62428,188551,207597,-3.5569307949000004,7.791030385599999,4.4458643908,1360
62552,188557,207581,-3.5569307949000004,7.791030385599999,4.4458643908,1361
62677,188586,207568,-3.5569307949000004,7.791030385599999,4.4458643908,1362
62811,188573,207568,-3.5569307949000004,7.791030385599999,4.4458643908,1363
62988,188603,207639,-3.5569307949000004,7.791030385599999,4.4458643908,1364
63164,188660,207657,-3.5569307949000004,7.791030385599999,4.4458643908,1365
63354,188677,207619,-3.5569307949000004,7.791030385599999,4.4458643908,1366
63529,188714,207623,-3.5569307949000004,7.791030385599999,4.4458643908,1367
63722,188733,207670,-3.5569307949000004,7.791030385599999,4.4458643908,1368
63921,188735,207681,-3.5569307949000004,7.791030385599999,4.4458643908,1369
63939,188835,207730,-3.5569307949000004,7.791030385599999,4.4458643908,1370
63470,188816,207704,-3.5569307949000004,7.791030385599999,4.4458643908,1371
62742,188763,207663,-3.5569307949000004,7.791030385599999,4.4458643908,1372
62122,188633,207557,-3.5569307949000004,7.791030385599999,4.4458643908,1373
61782,188523,207477,-3.5569307949000004,7.791030385599999,4.4458643908,1374
61651,188440,207506,-3.5569307949000004,7.791030385599999,4.4458643908,1375
61732,188370,207432,-3.5569307949000004,7.791030385599999,4.4458643908,1376
62262,188468,207447,-3.7088750299999997,7.7539416353,4.5655055207999995,1377
62406,188428,207451,-3.7088750299999997,7.7539416353,4.5655055207999995,1378
62540,188390,207495,-3.7088750299999997,7.7539416353,4.5655055207999995,1379
62677,188446,207481,-3.7088750299999997,7.7539416353,4.5655055207999995,1380
62845,188410,207475,-3.7088750299999997,7.7539416353,4.5655055207999995,1381
63033,188471,207501,-3.7088750299999997,7.7539416353,4.5655055207999995,1382
63207,188492,207498,-3.7088750299999997,7.7539416353,4.5655055207999995,1383
63400,188484,207502,-3.7088750299999997,7.7539416353,4.5655055207999995,1384
63588,188532,207524,-3.7088750299999997,7.7539416353,4.5655055207999995,1385
63796,188542,207574,-3.7088750299999997,7.7539416353,4.5655055207999995,1386
63882,188618,207648,-3.7088750299999997,7.7539416353,4.5655055207999995,1387
63554,188664,207619,-3.7088750299999997,7.7539416353,4.5655055207999995,1388
62835,188633,207543,-3.7088750299999997,7.7539416353,4.5655055207999995,1389
62184,188457,207477,-3.5461630932,7.925028451199999,4.6085763276,1390
61790,188303,207410,-3.5461630932,7.925028451199999,4.6085763276,1391
61635,188252,207377,-3.5461630932,7.925028451199999,4.6085763276,1392
61676,188188,207273,-3.5461630932,7.925028451199999,4.6085763276,1393
61859,188125,207259,-3.5461630932,7.925028451199999,4.6085763276,1394
62064,188139,207296,-3.5461630932,7.925028451199999,4.6085763276,1395
62234,188171,207307,-3.5389846254,7.7431739336,4.527220359199999,1396
62356,188109,207282,-3.5389846254,7.7431739336,4.527220359199999,1397
62500,188189,207338,-3.6323047068,7.8951181687,4.4853459636999995,1398
62647,188181,207330,-3.6323047068,7.8951181687,4.4853459636999995,1399
62812,188174,207368,-3.6323047068,7.8951181687,4.4853459636999995,1400
62990,188208,207342,-3.6323047068,7.8951181687,4.4853459636999995,1401
63168,188216,207341,-3.6323047068,7.8951181687,4.4853459636999995,1402
63347,188215,207372,-3.6323047068,7.8951181687,4.4853459636999995,1403
63553,188217,207395,-3.6323047068,7.8951181687,4.4853459636999995,1404
63749,188287,207389,-3.6323047068,7.8951181687,4.4853459636999995,1405
63819,188349,207455,-3.6323047068,7.8951181687,4.4853459636999995,1406
63456,188434,207431,-3.6323047068,7.8951181687,4.4853459636999995,1407
62788,188403,207437,-3.6323047068,7.8951181687,4.4853459636999995,1408
62234,188295,207351,-3.6323047068,7.8951181687,4.4853459636999995,1409
61935,188154,207303,-3.6323047068,7.8951181687,4.4853459636999995,1410
61860,188050,207268,-3.6323047068,7.8951181687,4.4853459636999995,1411
61962,188049,207239,-3.6323047068,7.8951181687,4.4853459636999995,1412
62180,188062,207236,-3.6323047068,7.8951181687,4.4853459636999995,1413
62379,188092,207267,-3.6323047068,7.8951181687,4.4853459636999995,1414
62532,188119,207283,-3.6323047068,7.8951181687,4.4853459636999995,1415
62645,188222,207323,-3.6323047068,7.8951181687,4.4853459636999995,1416
62772,188221,207366,-3.6323047068,7.8951181687,4.4853459636999995,1417
62918,188255,207384,-3.6323047068,7.8951181687,4.4853459636999995,1418
63104,188352,207419,-3.6323047068,7.8951181687,4.4853459636999995,1419
63272,188403,207475,-3.6323047068,7.8951181687,4.4853459636999995,1420
63448,188453,207447,-3.6323047068,7.8951181687,4.4853459636999995,1421
63641,188489,207542,-3.6323047068,7.8951181687,4.4853459636999995,1422
63846,188568,207520,-3.6323047068,7.8951181687,4.4853459636999995,1423
64017,188601,207596,-3.6323047068,7.8951181687,4.4853459636999995,1424
63863,188673,207590,-3.6323047068,7.8951181687,4.4853459636999995,1425
63263,188706,207615,-3.6323047068,7.8951181687,4.4853459636999995,1426
62586,188639,207579,-3.6323047068,7.8951181687,4.4853459636999995,1427
62144,188483,207492,-3.6323047068,7.8951181687,4.4853459636999995,1428
61939,188397,207445,-3.6323047068,7.8951181687,4.4853459636999995,1429
61918,188329,207400,-3.6323047068,7.8951181687,4.4853459636999995,1430
62047,188301,207412,-3.6323047068,7.8951181687,4.4853459636999995,1431
62261,188341,207448,-3.6323047068,7.8951181687,4.4853459636999995,1432
62445,188384,207432,-3.6323047068,7.8951181687,4.4853459636999995,1433
62573,188416,207436,-3.6323047068,7.8951181687,4.4853459636999995,1434
62693,188423,207467,-3.6323047068,7.8951181687,4.4853459636999995,1435
62845,188504,207471,-3.6323047068,7.8951181687,4.4853459636999995,1436
63008,188498,207500,-3.6323047068,7.8951181687,4.4853459636999995,1437
63192,188522,207535,-3.6323047068,7.8951181687,4.4853459636999995,1438
63365,188561,207519,-3.6323047068,7.8951181687,4.4853459636999995,1439
62435,188398,207466,-3.5282169237,7.858029418399999,4.5990050372,1440
62577,188367,207454,-3.5282169237,7.858029418399999,4.5990050372,1441
62712,188409,207457,-3.5282169237,7.858029418399999,4.5990050372,1442
62884,188444,207474,-3.5282169237,7.858029418399999,4.5990050372,1443
63082,188467,207511,-3.5282169237,7.858029418399999,4.5990050372,1444
63244,188533,207528,-3.5282169237,7.858029418399999,4.5990050372,1445
63424,188540,207500,-3.5282169237,7.858029418399999,4.5990050372,1446
63620,188501,207562,-3.5282169237,7.858029418399999,4.5990050372,1447
63723,188617,207567,-3.5282169237,7.858029418399999,4.5990050372,1448
63388,188658,207611,-3.5282169237,7.858029418399999,4.5990050372,1449
62668,188575,207562,-3.5282169237,7.858029418399999,4.5990050372,1450
62003,188482,207477,-3.5282169237,7.858029418399999,4.5990050372,1451
61570,188361,207418,-3.5282169237,7.858029418399999,4.5990050372,1452
61363,188255,207338,-3.5282169237,7.858029418399999,4.5990050372,1453
61354,188167,207264,-3.5282169237,7.858029418399999,4.5990050372,1454
61504,188156,207285,-3.5282169237,7.858029418399999,4.5990050372,1455
61696,188134,207322,-3.5282169237,7.858029418399999,4.5990050372,1456
61844,188180,207292,-3.5282169237,7.858029418399999,4.5990050372,1457
61950,188173,207285,-3.5282169237,7.858029418399999,4.5990050372,1458
62064,188161,207313,-3.5282169237,7.858029418399999,4.5990050372,1459
62192,188204,207282,-3.5282169237,7.858029418399999,4.5990050372,1460
62345,188170,207275,-3.5282169237,7.858029418399999,4.5990050372,1461
62522,188165,207340,-3.5282169237,7.858029418399999,4.5990050372,1462
62685,188225,207323,-3.5282169237,7.858029418399999,4.5990050372,1463
62857,188231,207348,-3.5282169237,7.858029418399999,4.5990050372,1464
63055,188241,207361,-3.5282169237,7.858029418399999,4.5990050372,1465
63232,188265,207345,-3.5282169237,7.858029418399999,4.5990050372,1466
63397,188292,207407,-3.5282169237,7.858029418399999,4.5990050372,1467
63243,188370,207399,-3.5282169237,7.858029418399999,4.5990050372,1468
62585,188383,207392,-3.5282169237,7.858029418399999,4.5990050372,1469
61804,188241,207323,-3.5282169237,7.858029418399999,4.5990050372,1470
61251,188101,207224,-3.5282169237,7.858029418399999,4.5990050372,1471
60974,187986,207197,-3.5844482548,7.968099258,4.6229332632,1472
60911,187856,207115,-3.5844482548,7.968099258,4.6229332632,1473
61027,187837,207072,-3.5844482548,7.968099258,4.6229332632,1474
61247,187823,207146,-3.5844482548,7.968099258,4.6229332632,1475
61419,187855,207129,-3.5844482548,7.968099258,4.6229332632,1476
61557,187877,207175,-3.5844482548,7.968099258,4.6229332632,1477
61658,187881,207167,-3.5844482548,7.968099258,4.6229332632,1478
61785,187908,207173,-3.5844482548,7.968099258,4.6229332632,1479
61930,187889,207179,-3.5844482548,7.968099258,4.6229332632,1480
62107,187945,207161,-3.5844482548,7.968099258,4.6229332632,1481
62288,188006,207193,-3.5844482548,7.968099258,4.6229332632,1482
62473,188036,207232,-3.5844482548,7.968099258,4.6229332632,1483
62655,188030,207259,-3.5844482548,7.968099258,4.6229332632,1484
62871,188093,207248,-3.5844482548,7.968099258,4.6229332632,1485
63064,188138,207283,-3.5844482548,7.968099258,4.6229332632,1486
63197,188250,207328,-3.5844482548,7.968099258,4.6229332632,1487
62911,188272,207350,-3.5844482548,7.968099258,4.6229332632,1488
62164,188256,207300,-3.5844482548,7.968099258,4.6229332632,1489
61427,188137,207222,-3.5844482548,7.968099258,4.6229332632,1490
60999,188042,207202,-3.5844482548,7.968099258,4.6229332632,1491
60848,187986,207170,-3.5844482548,7.968099258,4.6229332632,1492
60901,187934,207135,-3.5844482548,7.968099258,4.6229332632,1493
61102,187941,207149,-3.5844482548,7.968099258,4.6229332632,1494
61316,187987,207201,-3.5844482548,7.968099258,4.6229332632,1495
61453,188021,207245,-3.5844482548,7.968099258,4.6229332632,1496
61567,188067,207199,-3.5844482548,7.968099258,4.6229332632,1497
61680,188096,207216,-3.5844482548,7.968099258,4.6229332632,1498
61813,188143,207269,-3.5844482548,7.968099258,4.6229332632,1499
61974,188122,207317,-3.5844482548,7.968099258,4.6229332632,1500
62146,188180,207321,-3.5844482548,7.968099258,4.6229332632,1501
62340,188243,207319,-3.5844482548,7.968099258,4.6229332632,1502
62511,188267,207381,-3.5844482548,7.968099258,4.6229332632,1503
62714,188296,207411,-3.5844482548,7.968099258,4.6229332632,1504
62904,188337,207391,-3.5844482548,7.968099258,4.6229332632,1505
63082,188416,207413,-3.5844482548,7.968099258,4.6229332632,1506
63090,188454,207494,-3.5844482548,7.968099258,4.6229332632,1507
62555,188475,207433,-3.5844482548,7.968099258,4.6229332632,1508
61656,188315,207379,-3.5844482548,7.968099258,4.6229332632,1509
60912,188221,207296,-3.6981073283,8.0685978072,4.4614177377,1510
60494,188089,207237,-3.6981073283,8.0685978072,4.4614177377,1511
60335,187974,207199,-3.6981073283,8.0685978072,4.4614177377,1512
60372,187956,207157,-3.6981073283,8.0685978072,4.4614177377,1513
60594,187950,207136,-3.6981073283,8.0685978072,4.4614177377,1514
60835,187932,207151,-3.6981073283,8.0685978072,4.4614177377,1515
61034,187979,207202,-3.6981073283,8.0685978072,4.4614177377,1516
61192,188041,207244,-3.6981073283,8.0685978072,4.4614177377,1517
61330,188063,207237,-3.6981073283,8.0685978072,4.4614177377,1518
