green,red,IR,acc_x,acc_y,acc_z,sample_index
152145,212073,245729,-4.7712882644,6.0885371056999995,-6.178267953200001,1
152163,212094,245748,-4.6085763276,5.9629139192,-6.1794643645,2
152189,212111,245805,-4.705485642899999,6.162714606300001,-6.2979090831999995,3
152302,212136,245767,-4.6755753604,6.0873406944,-6.212963880899999,4
152324,212193,245751,-4.6803610056,6.2201423487000005,-6.2177495260999995,5
152396,212147,245764,-4.7282174576000005,6.206981824400001,-6.34097989,6
152429,212230,245819,-4.7700918531,6.0873406944,-6.232106461699999,7
152595,212188,245795,-4.7090748768,6.1447684368,-6.1830535984,8
152884,212213,245788,-4.7425743932,6.0825550492,-6.1794643645,9
152976,212239,245815,-4.7186461672,6.3625152933999995,-6.293123438,10
152852,212281,245873,-4.7282174576000005,6.1686966628,-6.1794643645,11
152954,212270,245900,-4.7808595548,5.9485569836,-6.1794643645,12
153031,212276,245868,-4.6959143525,6.1244294447000005,-6.2823557362999995,13
153301,212328,245874,-4.7006999977,6.1830535984,-6.2356956956000005,14
153194,212352,245943,-4.6947179412,6.0526447667,-6.2356956956000005,15
153136,212343,245948,-4.8239303616,6.0442698876,-6.3122660188,16
152901,212163,245804,-4.7509492723,6.2201423487000005,-6.1890356549,17
152457,212005,245701,-4.7808595548,6.0406806537,-6.317051664,18
151655,211941,245626,-4.5427737061,6.244070574699999,-6.2404813408,19
151703,211926,245618,-4.6755753604,6.1292150899,-6.2464633973,20
151602,211943,245668,-4.713860522,6.2009997679,-6.216553114800001,21
151801,211936,245677,-4.671986126499999,6.120840210799999,-6.190232066199999,22
151904,211995,245748,-4.8705904022999995,6.2392849295,-6.2273208165,23
152027,212056,245736,-4.713860522,6.1818571871,-6.3122660188,24
152119,212103,245737,-4.7006999977,6.092126339599999,-6.173482308,25
152376,212087,245801,-4.8622155232,6.0813586379,-6.2404813408,26
152324,212082,245741,-4.637290198800001,6.0969119848,-6.212963880899999,27
152502,212141,245740,-4.6947179412,5.9868421452,-6.2404813408,28
152554,212153,245766,-4.5152562462,6.2907306154,-6.2883377928,29
152595,212146,245807,-4.689932296,6.0550375893,-6.3314085996000005,30
152514,212218,245790,-4.7186461672,6.1686966628,-6.2404813408,31
152788,212229,245824,-4.8191447164,6.050251944099999,-6.22133876,32
152975,212239,245813,-4.7078784655,6.2105710583,-6.1603217837,33
152858,212248,245852,-4.6624148361,6.1435720255,-6.435496382699999,34
153029,212277,245855,-4.7425743932,6.1591253724,-6.260820332899999,35
153178,212352,245877,-4.6516471344,6.1292150899,-6.2356956956000005,36
153115,212332,245912,-4.6707897152,6.1447684368,-6.3457655352,37
153230,212372,245918,-4.6241296745,6.120840210799999,-6.2404813408,38
153125,212293,245923,-4.7473600384,6.162714606300001,-6.2883377928,39
152600,212071,245737,-4.637290198800001,6.120840210799999,-6.2548382764,40
151870,211954,245595,-4.7425743932,6.1830535984,-6.2177495260999995,41
151622,211808,245545,-4.6325045536000005,6.0825550492,-6.2883377928,42
151556,211861,245610,-4.7892344339,5.954539040099999,-6.2356956956000005,43
151383,211850,245606,-4.705485642899999,6.053841177999999,-6.259623921599999,44
151633,211910,245587,-4.8191447164,6.149554082000001,-6.2464633973,45
151680,211955,245644,-4.7473600384,6.1531433159,-6.3541404143,46
151864,211987,245726,-4.7904308452,6.1112689204,-6.136393557699999,47
151936,212016,245704,-4.8801616927,6.1028940413,-6.3254265431,48
152125,212027,245703,-4.6049870937,6.0454662989,-6.2548382764,49
152039,212037,245725,-4.5858445129,6.1591253724,-6.2656059781,50
152248,212065,245710,-4.8370908858999995,6.125625856,-6.259623921599999,51
152451,212055,245725,-4.734199514099999,6.148357670699999,-6.245266986000001,52
152458,212092,245718,-4.6815574169,6.1926248888,-6.2775700911,53
152684,212127,245713,-4.7042892316,6.1112689204,-6.1938213001,54
152547,212114,245757,-4.6480579005,6.101697629999999,-6.2404813408,55
152731,212166,245774,-4.609772738899999,6.1304115012,-6.2356956956000005,56
152776,212185,245819,-4.6863430621,6.095715573500001,-6.1842500096999995,57
152803,212226,245831,-4.6145583840999995,6.177071541899999,-6.3218373092,58
152886,212228,245813,-4.7521456836,6.2392849295,-6.206981824400001,59
153012,212248,245852,-4.8000021356,6.1639110176,-6.425925092299999,60
153184,212304,245878,-4.6947179412,6.2201423487000005,-6.260820332899999,61
153161,212275,245880,-4.6947179412,6.1351971464,-6.245266986000001,62
152962,212126,245746,-4.5523449965,6.077769404,-6.1698930741,63
152121,211945,245613,-4.7808595548,6.2201423487000005,-6.3074803736,64
151498,211841,245589,-4.6145583840999995,6.1196437994999995,-6.2548382764,65
151272,211840,245565,-4.7796631435,6.2105710583,-6.1986069453,66
151221,211842,245576,-4.6468614892,6.1639110176,-6.317051664,67
151223,211878,245593,-4.809573426,5.983252911299999,-6.2368921069,68
151616,211935,245617,-4.737788748,6.1244294447000005,-6.3361942448,69
151777,211984,245637,-4.6468614892,6.1399827916000005,-6.1698930741,70
151881,211934,245668,-4.7473600384,6.2153567034999995,-6.3122660188,71
152120,212001,245696,-4.5954158033,6.1052868639,-6.2943198493,72
152000,212009,245675,-4.5667019321,6.0825550492,-6.273980857200001,73
152246,211997,245724,-4.6851466508,6.1304115012,-6.174678719299999,74
152343,212046,245675,-4.7509492723,6.1675002515,-6.355336825599999,75
152189,212055,245743,-4.7090748768,6.1028940413,-6.3110696074999995,76
152491,212094,245736,-4.6947179412,6.0765729927,-6.2081782357,77
152692,212115,245768,-4.5954158033,6.2344992843,-6.293123438,78
152675,212148,245775,-4.6815574169,6.034698597199999,-6.355336825599999,79
152808,212194,245770,-4.6325045536000005,6.0873406944,-6.2835521476,80
152874,212187,245806,-4.642075844,6.1387863803,-6.197410534,81
152803,212218,245827,-4.547559351299999,6.1399827916000005,-6.2309100503999995,82
152963,212253,245892,-4.6947179412,6.0969119848,-6.1986069453,83
153155,212188,245899,-4.6707897152,6.1579289611,-6.1698930741,84
153234,212277,245954,-4.737788748,6.1005012187,-6.3074803736,85
153377,212283,245860,-4.5918265694,6.1292150899,-6.273980857200001,86
152967,212132,245720,-4.893322217,6.1878392436,-6.2787665024,87
152346,211973,245664,-4.7282174576000005,6.0550375893,-6.3218373092,88
151725,211874,245598,-4.671986126499999,6.1591253724,-6.1686966628,89
151372,211868,245614,-4.7090748768,6.178267953200001,-6.3936219871999995,90
151559,211876,245543,-4.7712882644,6.0646088797,-6.269195212,91
151724,211927,245579,-4.6791645943,6.2907306154,-6.259623921599999,92
151771,211958,245654,-4.7090748768,6.0550375893,-6.2644095668,93
151859,212008,245700,-4.5906301581,6.0646088797,-6.22133876,94
152061,212011,245697,-4.5523449965,6.1160545656,-6.273980857200001,95
152293,212049,245739,-4.8227339503,6.0586268232,-6.1938213001,96
152303,212039,245712,-4.6049870937,6.1399827916000005,-6.1794643645,97
152178,212027,245719,-4.8717868136,5.9976098469000005,-6.145964848099999,98
152477,212066,245717,-4.7533420949,6.191428477500001,-6.293123438,99
152418,212085,245770,-4.6480579005,6.1591253724,-6.326622954399999,100
152584,212139,245758,-4.7904308452,5.9593246853,-6.22133876,101
152597,212143,245788,-4.6157547954,6.1196437994999995,-6.2967126719,102
152845,212169,245838,-4.6468614892,6.0442698876,-6.2548382764,103
152942,212223,245851,-4.6660040700000005,6.148357670699999,-6.212963880899999,104
152930,212243,245811,-4.8191447164,6.2368921069,-6.293123438,105
153101,212235,245837,-4.5667019321,6.1675002515,-6.1842500096999995,106
153119,212250,245824,-4.6707897152,6.101697629999999,-6.1316079125,107
153332,212296,245870,-4.6767717716999995,5.968895975700001,-6.2835521476,108
153306,212298,245876,-4.7521456836,6.2153567034999995,-6.3505511804,109
153113,212186,245822,-4.7952164904,6.148357670699999,-6.3122660188,110
152612,212041,245671,-4.7856452,6.22133876,-6.206981824400001,111
151899,211864,245577,-4.7282174576000005,6.1675002515,-6.3924255759,112
151597,211911,245539,-4.5619162869,6.1591253724,-6.2644095668,113
151523,211859,245576,-4.6995035864000005,6.1148581543,-6.1878392436,114
151579,211868,245610,-4.737788748,6.2500526312,-6.2261244052,115
151725,211958,245639,-4.5858445129,6.1686966628,-6.3122660188,116
151846,211976,245685,-4.705485642899999,6.0717873475,-6.1986069453,117
152167,212021,245765,-4.6576291909,6.0586268232,-6.216553114800001,118
152235,212052,245691,-4.7988057243,6.2309100503999995,-6.173482308,119
152085,212035,245698,-4.6767717716999995,6.1531433159,-6.3302121883,120
152425,212070,245706,-4.570291166,6.0969119848,-6.3218373092,121
152356,212049,245710,-4.6995035864000005,6.021538072899999,-6.293123438,122
152495,212090,245733,-4.7042892316,5.954539040099999,-6.173482308,123
152613,212101,245763,-4.6337009649,6.1112689204,-6.174678719299999,124
152692,212125,245780,-4.8610191119,6.1830535984,-6.2404813408,125
152761,212130,245822,-4.7712882644,6.1818571871,-6.1794643645,126
152832,212131,245822,-4.7330031028,6.1447684368,-6.273980857200001,127
152846,212219,245812,-4.7605205627,6.2009997679,-6.3206408979,128
153022,212232,245810,-4.7988057243,6.2105710583,-6.302694728400001,129
153254,212217,245814,-4.486542375,6.120840210799999,-6.2835521476,130
153250,212268,245851,-4.7150569333,6.2823557362999995,-6.2835521476,131
153261,212286,245872,-4.6576291909,6.1316079125,-6.2835521476,132
153216,212232,245863,-4.6337009649,6.197410534,-6.22133876,133
152675,212058,245697,-4.6480579005,6.1962141227,-6.2117674696,134
152014,211880,245548,-4.6337009649,6.191428477500001,-6.2368921069,135
151628,211820,245603,-4.671986126499999,6.1830535984,-6.2117674696,136
151313,211794,245523,-4.8227339503,6.0969119848,-6.259623921599999,137
151412,211864,245553,-4.7569313288,6.206981824400001,-6.317051664,138
151478,211863,245565,-4.582255279,5.996413435599999,-6.216553114800001,139
151681,211930,245643,-4.671986126499999,6.1387863803,-6.2787665024,140
152068,211958,245657,-4.5379880609,6.1591253724,-6.2644095668,141
151960,211985,245654,-4.6911287073,6.029912952,-6.2081782357,142
152027,211986,245619,-4.6277189084,6.0969119848,-6.3062839623,143
152190,211993,245722,-4.857429878,6.1005012187,-6.2500526312,144
152153,212001,245631,-4.6947179412,6.2476598086,-6.270391623299999,145
152401,212017,245679,-4.8562334667,6.2644095668,-6.259623921599999,146
152279,212037,245703,-4.7006999977,6.148357670699999,-6.273980857200001,147
152590,212041,245752,-4.8227339503,6.092126339599999,-6.2356956956000005,148
152702,212128,245742,-4.7246282237,6.029912952,-6.2787665024,149
152613,212151,245750,-4.6851466508,5.9593246853,-6.302694728400001,150
152735,212148,245746,-4.7473600384,6.101697629999999,-6.1938213001,151
153017,212189,245793,-4.6660040700000005,6.1531433159,-6.3637117047,152
152797,212238,245832,-4.6863430621,6.0873406944,-6.2512490425,153
153248,212228,245799,-4.7282174576000005,6.0406806537,-6.2225351713,154
153105,212246,245861,-4.6767717716999995,6.2668023894,-6.4115681567000005,155
153223,212290,245857,-4.547559351299999,6.0933227509000005,-6.2177495260999995,156
153071,212190,245810,-4.689932296,6.0873406944,-6.2644095668,157
152483,211994,245646,-4.5571306417,6.1962141227,-6.212963880899999,158
151825,211891,245521,-4.6947179412,6.1052868639,-6.2919270267,159
151642,211853,245525,-4.713860522,6.0406806537,-6.1794643645,160
151428,211869,245495,-4.7042892316,6.2105710583,-6.3601224708,161
151607,211867,245552,-4.6049870937,6.0693945249,-6.293123438,162
151844,211934,245559,-4.7473600384,6.1722858967,-6.293123438,163
152008,211971,245641,-4.7581277401,6.0107703712000005,-6.1926248888,164
152271,212020,245651,-4.7234318124,6.125625856,-6.2464633973,165
152228,212063,245698,-4.7856452,6.078965815299999,-6.2512490425,166
152358,212042,245671,-4.6947179412,6.053841177999999,-6.2261244052,167
152300,212032,245726,-4.689932296,6.0741801701,-6.2368921069,168
152366,212036,245659,-4.643272255299999,6.0490555328,-6.2560346877,169
152469,212085,245742,-4.7521456836,6.1531433159,-6.259623921599999,170
152467,212085,245758,-4.6229332632,6.092126339599999,-6.197410534,171
152684,212117,245758,-4.6803610056,6.1818571871,-6.2309100503999995,172
152789,212133,245766,-4.7222354011,6.2105710583,-6.259623921599999,173
152795,212178,245795,-4.7174497559,6.1124653317,-6.2356956956000005,174
153078,212187,245812,-4.6947179412,6.0646088797,-6.293123438,175
153048,212193,245832,-4.8047877808,6.178267953200001,-6.2081782357,176
153201,212230,245851,-4.6911287073,6.077769404,-6.203392590499999,177
153280,212297,245859,-4.6660040700000005,6.1591253724,-6.173482308,178
153501,212310,245867,-4.7126641107,6.149554082000001,-6.2368921069,179
153355,212245,245830,-4.7186461672,6.2009997679,-6.2919270267,180
152956,212103,245693,-4.7042892316,6.0167524277,-6.1830535984,181
152148,211900,245594,-4.5810588676999995,6.025127306799999,-6.317051664,182
151803,211873,245583,-4.7521456836,6.0729837587999995,-6.1938213001,183
151858,211885,245577,-4.7760739096,6.1543397272,-6.22133876,184
151961,211933,245613,-4.6528435457,6.0358950085,-6.2464633973,185
152055,211949,245622,-4.6959143525,6.120840210799999,-6.2548382764,186
152204,212034,245675,-4.6241296745,6.2153567034999995,-6.2273208165,187
152334,212039,245690,-4.7521456836,6.0981083961,-6.2500526312,188
152703,212058,245717,-4.637290198800001,6.1148581543,-6.197410534,189
152459,212074,245726,-4.8562334667,6.2775700911,-6.2225351713,190
152486,212072,245682,-4.6983071751,6.0969119848,-6.1986069453,191
152548,212085,245721,-4.6289153197,6.120840210799999,-6.260820332899999,192
152504,212084,245701,-4.6947179412,6.1112689204,-6.212963880899999,193
152754,212130,245755,-4.6648076587,6.1100725091,-6.2368921069,194
152817,212143,245801,-4.7461636271,6.1316079125,-6.302694728400001,195
152864,212156,245751,-4.6672004813,6.0681981136,-6.269195212,196
153219,212174,245808,-4.6947179412,6.1005012187,-6.259623921599999,197
153172,212209,245833,-4.6133619728,6.1304115012,-6.326622954399999,198
153063,212240,245852,-4.8035913695,6.0873406944,-6.1651074289,199
153222,212268,245887,-4.8035913695,6.0873406944,-6.1651074289,200
153409,212315,245905,-4.8035913695,6.0873406944,-6.1651074289,201
153374,212319,245830,-4.8035913695,6.0873406944,-6.1651074289,202
153362,212280,245866,-4.8035913695,6.0873406944,-6.1651074289,203
152914,212116,245749,-4.8035913695,6.0873406944,-6.1651074289,204
152263,211937,245582,-4.8035913695,6.0873406944,-6.1651074289,205
151815,211848,245570,-4.8035913695,6.0873406944,-6.1651074289,206
151584,211857,245558,-4.8035913695,6.0873406944,-6.1651074289,207
151630,211870,245560,-4.8035913695,6.0873406944,-6.1651074289,208
151755,211889,245568,-4.8035913695,6.0873406944,-6.1651074289,209
151934,211956,245613,-4.8035913695,6.0873406944,-6.1651074289,210
152109,211960,245684,-4.8035913695,6.0873406944,-6.1651074289,211
152230,211989,245660,-4.8035913695,6.0873406944,-6.1651074289,212
152312,212009,245677,-4.8035913695,6.0873406944,-6.1651074289,213
152352,212021,245712,-4.8035913695,6.0873406944,-6.1651074289,214
152394,212054,245688,-4.8035913695,6.0873406944,-6.1651074289,215
152465,212040,245710,-4.8035913695,6.0873406944,-6.1651074289,216
152574,212117,245757,-4.8035913695,6.0873406944,-6.1651074289,217
152635,212092,245726,-4.8035913695,6.0873406944,-6.1651074289,218
152702,212155,245771,-4.8035913695,6.0873406944,-6.1651074289,219
152851,212137,245763,-4.8035913695,6.0873406944,-6.1651074289,220
152943,212160,245777,-4.8035913695,6.0873406944,-6.1651074289,221
153005,212216,245782,-4.8035913695,6.0873406944,-6.1651074289,222
153083,212206,245811,-4.8035913695,6.0873406944,-6.1651074289,223
153191,212277,245823,-4.8035913695,6.0873406944,-6.1651074289,224
153280,212280,245847,-4.8035913695,6.0873406944,-6.1651074289,225
153296,212263,245851,-4.8035913695,6.0873406944,-6.1651074289,226
153168,212198,245770,-4.8035913695,6.0873406944,-6.1651074289,227
152586,211989,245608,-4.8035913695,6.0873406944,-6.1651074289,228
151990,211888,245528,-4.8035913695,6.0873406944,-6.1651074289,229
151706,211844,245522,-4.8035913695,6.0873406944,-6.1651074289,230
151683,211875,245551,-4.8035913695,6.0873406944,-6.1651074289,231
151769,211863,245539,-4.8035913695,6.0873406944,-6.1651074289,232
151909,211950,245558,-4.8035913695,6.0873406944,-6.1651074289,233
152103,211967,245613,-4.8035913695,6.0873406944,-6.1651074289,234
152256,212007,245654,-4.8035913695,6.0873406944,-6.1651074289,235
152368,212059,245665,-4.8035913695,6.0873406944,-6.1651074289,236
152419,212062,245692,-4.8035913695,6.0873406944,-6.1651074289,237
152489,212055,245695,-4.8035913695,6.0873406944,-6.1651074289,238
152541,212027,245680,-4.8035913695,6.0873406944,-6.1651074289,239
152625,212117,245701,-4.8035913695,6.0873406944,-6.1651074289,240
152415,212043,245627,-4.6803610056,6.2201423487000005,-6.2356956956000005,241
152595,212049,245683,-4.6803610056,6.2201423487000005,-6.2356956956000005,242
152696,212066,245684,-4.6803610056,6.2201423487000005,-6.2356956956000005,243
152798,212084,245728,-4.6803610056,6.2201423487000005,-6.2356956956000005,244
152731,212118,245723,-4.6803610056,6.2201423487000005,-6.2356956956000005,245
152890,212135,245699,-4.6803610056,6.2201423487000005,-6.2356956956000005,246
152904,212142,245716,-4.6803610056,6.2201423487000005,-6.2356956956000005,247
153013,212184,245783,-4.6803610056,6.2201423487000005,-6.2356956956000005,248
153170,212226,245738,-4.6803610056,6.2201423487000005,-6.2356956956000005,249
153212,212238,245826,-4.6803610056,6.2201423487000005,-6.2356956956000005,250
153411,212282,245801,-4.6803610056,6.2201423487000005,-6.2356956956000005,251
153337,212269,245826,-4.6803610056,6.2201423487000005,-6.2356956956000005,252
153014,212124,245704,-4.6803610056,6.2201423487000005,-6.2356956956000005,253
152331,211939,245533,-4.6803610056,6.2201423487000005,-6.2356956956000005,254
151864,211818,245494,-4.6803610056,6.2201423487000005,-6.2356956956000005,255
151655,211815,245489,-4.6803610056,6.2201423487000005,-6.2356956956000005,256
151632,211816,245497,-4.6803610056,6.2201423487000005,-6.2356956956000005,257
151740,211849,245507,-4.6803610056,6.2201423487000005,-6.2356956956000005,258
151923,211931,245559,-4.6803610056,6.2201423487000005,-6.2356956956000005,259
152144,211941,245579,-4.6803610056,6.2201423487000005,-6.2356956956000005,260
152258,211979,245606,-4.6803610056,6.2201423487000005,-6.2356956956000005,261
152328,212015,245623,-4.6803610056,6.2201423487000005,-6.2356956956000005,262
152356,212000,245625,-4.6803610056,6.2201423487000005,-6.2356956956000005,263
152420,212013,245613,-4.6803610056,6.2201423487000005,-6.2356956956000005,264
152479,212019,245640,-4.6803610056,6.2201423487000005,-6.2356956956000005,265
152565,212015,245718,-4.6803610056,6.2201423487000005,-6.2356956956000005,266
152730,212102,245671,-4.6803610056,6.2201423487000005,-6.2356956956000005,267
152754,212101,245732,-4.6803610056,6.2201423487000005,-6.2356956956000005,268
152858,212126,245688,-4.6803610056,6.2201423487000005,-6.2356956956000005,269
152920,212096,245737,-4.6803610056,6.2201423487000005,-6.2356956956000005,270
153016,212154,245734,-4.6803610056,6.2201423487000005,-6.2356956956000005,271
153101,212162,245776,-4.6803610056,6.2201423487000005,-6.2356956956000005,272
153136,212216,245826,-4.6803610056,6.2201423487000005,-6.2356956956000005,273
153227,212262,245803,-4.6803610056,6.2201423487000005,-6.2356956956000005,274
153082,212114,245717,-4.6803610056,6.2201423487000005,-6.2356956956000005,275
152486,211955,245547,-4.6803610056,6.2201423487000005,-6.2356956956000005,276
151909,211809,245490,-4.6803610056,6.2201423487000005,-6.2356956956000005,277
151616,211791,245435,-4.6803610056,6.2201423487000005,-6.2356956956000005,278
151546,211787,245467,-4.6803610056,6.2201423487000005,-6.2356956956000005,279
151656,211848,245553,-4.6803610056,6.2201423487000005,-6.2356956956000005,280
151819,211858,245531,-4.6803610056,6.2201423487000005,-6.2356956956000005,281
151989,211901,245592,-4.6803610056,6.2201423487000005,-6.2356956956000005,282
152445,212003,245611,-4.6337009649,6.190232066199999,-6.273980857200001,283
152412,211989,245620,-4.6337009649,6.190232066199999,-6.273980857200001,284
152391,212034,245602,-4.6337009649,6.190232066199999,-6.273980857200001,285
152480,211950,245602,-4.6337009649,6.190232066199999,-6.273980857200001,286
152549,212009,245630,-4.6337009649,6.190232066199999,-6.273980857200001,287
152798,212063,245650,-4.6337009649,6.190232066199999,-6.273980857200001,288
152749,212086,245691,-4.6337009649,6.190232066199999,-6.273980857200001,289
152842,212124,245734,-4.6337009649,6.190232066199999,-6.273980857200001,290
153076,212116,245714,-4.6337009649,6.190232066199999,-6.273980857200001,291
153018,212172,245757,-4.6337009649,6.190232066199999,-6.273980857200001,292
153108,212190,245742,-4.6337009649,6.190232066199999,-6.273980857200001,293
153199,212204,245771,-4.6337009649,6.190232066199999,-6.273980857200001,294
153225,212245,245837,-4.6337009649,6.190232066199999,-6.273980857200001,295
153294,212251,245744,-4.6337009649,6.190232066199999,-6.273980857200001,296
152955,212092,245663,-4.6337009649,6.190232066199999,-6.273980857200001,297
152318,211907,245560,-4.6337009649,6.190232066199999,-6.273980857200001,298
151838,211793,245483,-4.6337009649,6.190232066199999,-6.273980857200001,299
151644,211824,245457,-4.6337009649,6.190232066199999,-6.273980857200001,300
151670,211831,245489,-4.6337009649,6.190232066199999,-6.273980857200001,301
151810,211854,245474,-4.6337009649,6.190232066199999,-6.273980857200001,302
152005,211915,245579,-4.6337009649,6.190232066199999,-6.273980857200001,303
152173,211993,245630,-4.6337009649,6.190232066199999,-6.273980857200001,304
152298,211990,245615,-4.6337009649,6.190232066199999,-6.273980857200001,305
152397,212001,245567,-4.6337009649,6.190232066199999,-6.273980857200001,306
152440,212006,245629,-4.6337009649,6.190232066199999,-6.273980857200001,307
152489,211989,245598,-4.6337009649,6.190232066199999,-6.273980857200001,308
152541,212049,245671,-4.6337009649,6.190232066199999,-6.273980857200001,309
152639,212033,245665,-4.6337009649,6.190232066199999,-6.273980857200001,310
152712,212069,245670,-4.6337009649,6.190232066199999,-6.273980857200001,311
152811,212106,245675,-4.6337009649,6.190232066199999,-6.273980857200001,312
152914,212148,245678,-4.6337009649,6.190232066199999,-6.273980857200001,313
152999,212161,245725,-4.6337009649,6.190232066199999,-6.273980857200001,314
153054,212166,245786,-4.6337009649,6.190232066199999,-6.273980857200001,315
153397,212190,245761,-4.6337009649,6.190232066199999,-6.273980857200001,316
153235,212225,245807,-4.6337009649,6.190232066199999,-6.273980857200001,317
153342,212246,245783,-4.6337009649,6.190232066199999,-6.273980857200001,318
153080,212159,245743,-4.6337009649,6.190232066199999,-6.273980857200001,319
152564,211938,245539,-4.6337009649,6.190232066199999,-6.273980857200001,320
152036,211823,245511,-4.6337009649,6.190232066199999,-6.273980857200001,321
151805,211813,245458,-4.6337009649,6.190232066199999,-6.273980857200001,322
151800,211842,245525,-4.6337009649,6.190232066199999,-6.273980857200001,323
151931,211885,245505,-4.6337009649,6.190232066199999,-6.273980857200001,324
152436,211970,245627,-4.7712882644,6.025127306799999,-6.326622954399999,325
152749,211976,245631,-4.7712882644,6.025127306799999,-6.326622954399999,326
152718,212052,245615,-4.7712882644,6.025127306799999,-6.326622954399999,327
152914,212070,245657,-4.7712882644,6.025127306799999,-6.326622954399999,328
152934,212078,245688,-4.7712882644,6.025127306799999,-6.326622954399999,329
153044,212071,245696,-4.7712882644,6.025127306799999,-6.326622954399999,330
153067,212131,245701,-4.7712882644,6.025127306799999,-6.326622954399999,331
153096,212149,245709,-4.7712882644,6.025127306799999,-6.326622954399999,332
153202,212185,245753,-4.7712882644,6.025127306799999,-6.326622954399999,333
153494,212200,245769,-4.7712882644,6.025127306799999,-6.326622954399999,334
153250,212158,245743,-4.7712882644,6.025127306799999,-6.326622954399999,335
152671,211966,245488,-4.7712882644,6.025127306799999,-6.326622954399999,336
152047,211784,245467,-4.7712882644,6.025127306799999,-6.326622954399999,337
151902,211742,245436,-4.7712882644,6.025127306799999,-6.326622954399999,338
151568,211773,245451,-4.7712882644,6.025127306799999,-6.326622954399999,339
151627,211818,245475,-4.7712882644,6.025127306799999,-6.326622954399999,340
151857,211803,245513,-4.7712882644,6.025127306799999,-6.326622954399999,341
152095,211873,245536,-4.7712882644,6.025127306799999,-6.326622954399999,342
152202,211897,245592,-4.7712882644,6.025127306799999,-6.326622954399999,343
152301,211929,245600,-4.7712882644,6.025127306799999,-6.326622954399999,344
152343,211946,245583,-4.7712882644,6.025127306799999,-6.326622954399999,345
152432,211941,245574,-4.7712882644,6.025127306799999,-6.326622954399999,346
152489,211924,245615,-4.7712882644,6.025127306799999,-6.326622954399999,347
152539,211976,245619,-4.7712882644,6.025127306799999,-6.326622954399999,348
152614,212014,245616,-4.7712882644,6.025127306799999,-6.326622954399999,349
152727,212052,245662,-4.7712882644,6.025127306799999,-6.326622954399999,350
152812,212068,245649,-4.7712882644,6.025127306799999,-6.326622954399999,351
152892,212056,245693,-4.7712882644,6.025127306799999,-6.326622954399999,352
152992,212101,245728,-4.7712882644,6.025127306799999,-6.326622954399999,353
153061,212127,245779,-4.7712882644,6.025127306799999,-6.326622954399999,354
153293,212112,245756,-4.7712882644,6.025127306799999,-6.326622954399999,355
153227,212217,245781,-4.7712882644,6.025127306799999,-6.326622954399999,356
153297,212190,245810,-4.7712882644,6.025127306799999,-6.326622954399999,357
153262,212144,245755,-4.7712882644,6.025127306799999,-6.326622954399999,358
152834,211940,245610,-4.7712882644,6.025127306799999,-6.326622954399999,359
152171,211833,245483,-4.7712882644,6.025127306799999,-6.326622954399999,360
151793,211791,245443,-4.7712882644,6.025127306799999,-6.326622954399999,361
151645,211789,245437,-4.7712882644,6.025127306799999,-6.326622954399999,362
151685,211816,245455,-4.7712882644,6.025127306799999,-6.326622954399999,363
151831,211828,245532,-4.7712882644,6.025127306799999,-6.326622954399999,364
152016,211912,245525,-4.7712882644,6.025127306799999,-6.326622954399999,365
152179,211914,245556,-4.7712882644,6.025127306799999,-6.326622954399999,366
153082,212110,245685,-4.7150569333,6.125625856,-6.273980857200001,367
153015,212101,245692,-4.7150569333,6.125625856,-6.273980857200001,368
153296,212130,245713,-4.7150569333,6.125625856,-6.273980857200001,369
153315,212177,245773,-4.7150569333,6.125625856,-6.273980857200001,370
153276,212143,245761,-4.7150569333,6.125625856,-6.273980857200001,371
153221,212069,245656,-4.7150569333,6.125625856,-6.273980857200001,372
152437,211905,245513,-4.7150569333,6.125625856,-6.273980857200001,373
152108,211744,245482,-4.7150569333,6.125625856,-6.273980857200001,374
151523,211749,245408,-4.7150569333,6.125625856,-6.273980857200001,375
151641,211747,245441,-4.7150569333,6.125625856,-6.273980857200001,376
151569,211783,245432,-4.7150569333,6.125625856,-6.273980857200001,377
151807,211840,245458,-4.7150569333,6.125625856,-6.273980857200001,378
152145,211857,245468,-4.7150569333,6.125625856,-6.273980857200001,379
152267,211876,245533,-4.7150569333,6.125625856,-6.273980857200001,380
152310,211968,245534,-4.7150569333,6.125625856,-6.273980857200001,381
152348,211941,245583,-4.7150569333,6.125625856,-6.273980857200001,382
152519,211937,245548,-4.7150569333,6.125625856,-6.273980857200001,383
152397,211951,245546,-4.7150569333,6.125625856,-6.273980857200001,384
152751,211975,245613,-4.7150569333,6.125625856,-6.273980857200001,385
152734,212022,245615,-4.7150569333,6.125625856,-6.273980857200001,386
152840,212046,245628,-4.7150569333,6.125625856,-6.273980857200001,387
152777,212065,245628,-4.7150569333,6.125625856,-6.273980857200001,388
152920,212076,245669,-4.7150569333,6.125625856,-6.273980857200001,389
152997,212126,245720,-4.7150569333,6.125625856,-6.273980857200001,390
153115,212132,245709,-4.7150569333,6.125625856,-6.273980857200001,391
153178,212141,245724,-4.7150569333,6.125625856,-6.273980857200001,392
153256,212210,245793,-4.7150569333,6.125625856,-6.273980857200001,393
153255,212179,245722,-4.7150569333,6.125625856,-6.273980857200001,394
152908,211998,245555,-4.7150569333,6.125625856,-6.273980857200001,395
152300,211847,245479,-4.7150569333,6.125625856,-6.273980857200001,396
151825,211783,245411,-4.7150569333,6.125625856,-6.273980857200001,397
151719,211785,245413,-4.7150569333,6.125625856,-6.273980857200001,398
151676,211773,245400,-4.7150569333,6.125625856,-6.273980857200001,399
151871,211816,245494,-4.7150569333,6.125625856,-6.273980857200001,400
152056,211899,245522,-4.7150569333,6.125625856,-6.273980857200001,401
152236,211945,245565,-4.7150569333,6.125625856,-6.273980857200001,402
152351,211960,245545,-4.7150569333,6.125625856,-6.273980857200001,403
152438,211958,245529,-4.7150569333,6.125625856,-6.273980857200001,404
152483,211959,245617,-4.7150569333,6.125625856,-6.273980857200001,405
152554,211985,245595,-4.7150569333,6.125625856,-6.273980857200001,406
152623,212015,245591,-4.7150569333,6.125625856,-6.273980857200001,407
152707,212006,245627,-4.7150569333,6.125625856,-6.273980857200001,408
152882,211969,245570,-4.7234318124,6.034698597199999,-6.2368921069,409
152213,211837,245432,-4.7234318124,6.034698597199999,-6.2368921069,410
151760,211723,245381,-4.7234318124,6.034698597199999,-6.2368921069,411
151613,211733,245408,-4.7234318124,6.034698597199999,-6.2368921069,412
151556,211755,245421,-4.7234318124,6.034698597199999,-6.2368921069,413
151760,211774,245471,-4.7234318124,6.034698597199999,-6.2368921069,414
151921,211826,245475,-4.7234318124,6.034698597199999,-6.2368921069,415
152241,211893,245563,-4.7234318124,6.034698597199999,-6.2368921069,416
152253,211929,245547,-4.7234318124,6.034698597199999,-6.2368921069,417
152337,211890,245578,-4.7234318124,6.034698597199999,-6.2368921069,418
152334,211927,245575,-4.7234318124,6.034698597199999,-6.2368921069,419
152355,211948,245577,-4.7234318124,6.034698597199999,-6.2368921069,420
152516,211956,245540,-4.7234318124,6.034698597199999,-6.2368921069,421
152564,211948,245625,-4.7234318124,6.034698597199999,-6.2368921069,422
152809,212020,245606,-4.7234318124,6.034698597199999,-6.2368921069,423
152784,212058,245644,-4.7234318124,6.034698597199999,-6.2368921069,424
152969,212080,245716,-4.7234318124,6.034698597199999,-6.2368921069,425
153017,212109,245642,-4.7234318124,6.034698597199999,-6.2368921069,426
153137,212110,245690,-4.7234318124,6.034698597199999,-6.2368921069,427
153261,212128,245711,-4.7234318124,6.034698597199999,-6.2368921069,428
153222,212162,245716,-4.7234318124,6.034698597199999,-6.2368921069,429
153396,212180,245718,-4.7234318124,6.034698597199999,-6.2368921069,430
153169,212121,245638,-4.7234318124,6.034698597199999,-6.2368921069,431
152594,211940,245493,-4.7234318124,6.034698597199999,-6.2368921069,432
151972,211760,245401,-4.7234318124,6.034698597199999,-6.2368921069,433
151610,211781,245419,-4.7234318124,6.034698597199999,-6.2368921069,434
151548,211748,245383,-4.7234318124,6.034698597199999,-6.2368921069,435
151598,211757,245448,-4.7234318124,6.034698597199999,-6.2368921069,436
151745,211805,245492,-4.7234318124,6.034698597199999,-6.2368921069,437
152004,211864,245509,-4.7234318124,6.034698597199999,-6.2368921069,438
152146,211897,245497,-4.7234318124,6.034698597199999,-6.2368921069,439
152264,211936,245503,-4.7234318124,6.034698597199999,-6.2368921069,440
152322,211928,245547,-4.7234318124,6.034698597199999,-6.2368921069,441
152388,211951,245547,-4.7234318124,6.034698597199999,-6.2368921069,442
152436,211966,245563,-4.7234318124,6.034698597199999,-6.2368921069,443
152719,211981,245576,-4.7234318124,6.034698597199999,-6.2368921069,444
152597,211990,245608,-4.7234318124,6.034698597199999,-6.2368921069,445
152731,212049,245631,-4.7234318124,6.034698597199999,-6.2368921069,446
152810,212058,245657,-4.7234318124,6.034698597199999,-6.2368921069,447
152932,212059,245655,-4.7234318124,6.034698597199999,-6.2368921069,448
152990,212113,245670,-4.7234318124,6.034698597199999,-6.2368921069,449
153082,212116,245688,-4.7234318124,6.034698597199999,-6.2368921069,450
151825,211781,245393,-4.7330031028,6.053841177999999,-6.2644095668,451
151771,211770,245407,-4.7330031028,6.053841177999999,-6.2644095668,452
151711,211739,245391,-4.7330031028,6.053841177999999,-6.2644095668,453
151686,211780,245404,-4.7330031028,6.053841177999999,-6.2644095668,454
151862,211834,245528,-4.7330031028,6.053841177999999,-6.2644095668,455
152304,211880,245503,-4.7330031028,6.053841177999999,-6.2644095668,456
152152,211928,245515,-4.7330031028,6.053841177999999,-6.2644095668,457
152322,211933,245539,-4.7330031028,6.053841177999999,-6.2644095668,458
152489,211915,245556,-4.7330031028,6.053841177999999,-6.2644095668,459
152471,211932,245543,-4.7330031028,6.053841177999999,-6.2644095668,460
152537,211965,245587,-4.7330031028,6.053841177999999,-6.2644095668,461
152538,212011,245591,-4.7330031028,6.053841177999999,-6.2644095668,462
152554,212020,245597,-4.7330031028,6.053841177999999,-6.2644095668,463
152787,212039,245664,-4.7330031028,6.053841177999999,-6.2644095668,464
152864,212046,245562,-4.7330031028,6.053841177999999,-6.2644095668,465
153110,212077,245624,-4.7330031028,6.053841177999999,-6.2644095668,466
153095,212102,245693,-4.7330031028,6.053841177999999,-6.2644095668,467
153131,212144,245677,-4.7330031028,6.053841177999999,-6.2644095668,468
153215,212167,245711,-4.7330031028,6.053841177999999,-6.2644095668,469
153394,212192,245755,-4.7330031028,6.053841177999999,-6.2644095668,470
153368,212218,245759,-4.7330031028,6.053841177999999,-6.2644095668,471
153197,212132,245669,-4.7330031028,6.053841177999999,-6.2644095668,472
152690,211899,245458,-4.7330031028,6.053841177999999,-6.2644095668,473
151956,211812,245328,-4.7330031028,6.053841177999999,-6.2644095668,474
151603,211753,245387,-4.7330031028,6.053841177999999,-6.2644095668,475
151524,211746,245392,-4.7330031028,6.053841177999999,-6.2644095668,476
151594,211782,245421,-4.7330031028,6.053841177999999,-6.2644095668,477
151767,211829,245413,-4.7330031028,6.053841177999999,-6.2644095668,478
151965,211913,245524,-4.7330031028,6.053841177999999,-6.2644095668,479
152144,211907,245498,-4.7330031028,6.053841177999999,-6.2644095668,480
152254,211923,245539,-4.7330031028,6.053841177999999,-6.2644095668,481
152308,211913,245549,-4.7330031028,6.053841177999999,-6.2644095668,482
152361,211960,245512,-4.7330031028,6.053841177999999,-6.2644095668,483
152413,211971,245548,-4.7330031028,6.053841177999999,-6.2644095668,484
152490,211995,245578,-4.7330031028,6.053841177999999,-6.2644095668,485
152500,212018,245563,-4.7330031028,6.053841177999999,-6.2644095668,486
152631,212017,245567,-4.7330031028,6.053841177999999,-6.2644095668,487
152751,212096,245618,-4.7330031028,6.053841177999999,-6.2644095668,488
152833,212069,245665,-4.7330031028,6.053841177999999,-6.2644095668,489
152822,212123,245654,-4.7234318124,6.1591253724,-6.2117674696,490
153023,212098,245693,-4.7234318124,6.1591253724,-6.2117674696,491
153204,212151,245676,-4.7234318124,6.1591253724,-6.2117674696,492
153109,212173,245686,-4.7234318124,6.1591253724,-6.2117674696,493
153375,212180,245759,-4.7234318124,6.1591253724,-6.2117674696,494
153122,212129,245663,-4.7234318124,6.1591253724,-6.2117674696,495
152667,211949,245463,-4.7234318124,6.1591253724,-6.2117674696,496
151897,211788,245429,-4.7234318124,6.1591253724,-6.2117674696,497
151585,211739,245392,-4.7234318124,6.1591253724,-6.2117674696,498
151538,211787,245390,-4.7234318124,6.1591253724,-6.2117674696,499
151616,211821,245432,-4.7234318124,6.1591253724,-6.2117674696,500
151792,211850,245429,-4.7234318124,6.1591253724,-6.2117674696,501
152016,211849,245527,-4.7234318124,6.1591253724,-6.2117674696,502
152207,211933,245509,-4.7234318124,6.1591253724,-6.2117674696,503
152408,211945,245537,-4.7234318124,6.1591253724,-6.2117674696,504
152301,211956,245542,-4.7234318124,6.1591253724,-6.2117674696,505
152349,211980,245594,-4.7234318124,6.1591253724,-6.2117674696,506
152437,211949,245533,-4.7234318124,6.1591253724,-6.2117674696,507
152506,211996,245554,-4.7234318124,6.1591253724,-6.2117674696,508
152769,212011,245597,-4.7234318124,6.1591253724,-6.2117674696,509
152679,212030,245565,-4.7234318124,6.1591253724,-6.2117674696,510
152777,212056,245651,-4.7234318124,6.1591253724,-6.2117674696,511
152862,212080,245640,-4.7234318124,6.1591253724,-6.2117674696,512
152911,212085,245621,-4.7234318124,6.1591253724,-6.2117674696,513
153046,212093,245709,-4.7234318124,6.1591253724,-6.2117674696,514
153085,212114,245692,-4.7234318124,6.1591253724,-6.2117674696,515
153201,212146,245712,-4.7234318124,6.1591253724,-6.2117674696,516
153246,212152,245682,-4.7234318124,6.1591253724,-6.2117674696,517
152887,212001,245556,-4.7234318124,6.1591253724,-6.2117674696,518
152168,211828,245421,-4.7234318124,6.1591253724,-6.2117674696,519
151570,211747,245389,-4.7234318124,6.1591253724,-6.2117674696,520
151297,211722,245367,-4.7234318124,6.1591253724,-6.2117674696,521
151240,211716,245415,-4.7234318124,6.1591253724,-6.2117674696,522
151317,211746,245390,-4.7234318124,6.1591253724,-6.2117674696,523
151532,211771,245458,-4.7234318124,6.1591253724,-6.2117674696,524
151788,211859,245465,-4.7234318124,6.1591253724,-6.2117674696,525
151897,211879,245497,-4.7234318124,6.1591253724,-6.2117674696,526
151996,211908,245449,-4.7234318124,6.1591253724,-6.2117674696,527
152034,211899,245531,-4.7234318124,6.1591253724,-6.2117674696,528
152107,211914,245556,-4.7234318124,6.1591253724,-6.2117674696,529
152187,211920,245524,-4.7234318124,6.1591253724,-6.2117674696,530
152431,211924,245530,-4.7234318124,6.1591253724,-6.2117674696,531
152014,211927,245468,-4.6707897152,6.0622160571,-6.2644095668,532
152128,211952,245549,-4.6707897152,6.0622160571,-6.2644095668,533
152226,211960,245561,-4.6707897152,6.0622160571,-6.2644095668,534
152307,211995,245536,-4.6707897152,6.0622160571,-6.2644095668,535
152681,212007,245558,-4.6707897152,6.0622160571,-6.2644095668,536
152515,212051,245608,-4.6707897152,6.0622160571,-6.2644095668,537
152561,212050,245617,-4.6707897152,6.0622160571,-6.2644095668,538
152732,212063,245678,-4.6707897152,6.0622160571,-6.2644095668,539
153021,212108,245685,-4.6707897152,6.0622160571,-6.2644095668,540
153101,212138,245697,-4.6707897152,6.0622160571,-6.2644095668,541
153008,212134,245667,-4.6707897152,6.0622160571,-6.2644095668,542
153185,212152,245734,-4.6707897152,6.0622160571,-6.2644095668,543
153038,212225,245740,-4.6707897152,6.0622160571,-6.2644095668,544
152918,212083,245635,-4.6707897152,6.0622160571,-6.2644095668,545
152269,211901,245469,-4.6707897152,6.0622160571,-6.2644095668,546
151736,211775,245410,-4.6707897152,6.0622160571,-6.2644095668,547
151299,211743,245352,-4.6707897152,6.0622160571,-6.2644095668,548
151222,211767,245382,-4.6707897152,6.0622160571,-6.2644095668,549
151370,211809,245452,-4.6707897152,6.0622160571,-6.2644095668,550
151594,211836,245484,-4.6707897152,6.0622160571,-6.2644095668,551
151821,211874,245541,-4.6707897152,6.0622160571,-6.2644095668,552
151979,211934,245558,-4.6707897152,6.0622160571,-6.2644095668,553
152080,211943,245522,-4.6707897152,6.0622160571,-6.2644095668,554
152143,211915,245572,-4.6707897152,6.0622160571,-6.2644095668,555
152178,211952,245541,-4.6707897152,6.0622160571,-6.2644095668,556
152271,211991,245594,-4.6707897152,6.0622160571,-6.2644095668,557
152349,211989,245603,-4.6707897152,6.0622160571,-6.2644095668,558
152458,212030,245579,-4.6707897152,6.0622160571,-6.2644095668,559
152523,212053,245602,-4.6707897152,6.0622160571,-6.2644095668,560
152643,212066,245660,-4.6707897152,6.0622160571,-6.2644095668,561
152731,212075,245614,-4.6707897152,6.0622160571,-6.2644095668,562
152823,212109,245657,-4.6707897152,6.0622160571,-6.2644095668,563
152910,212148,245743,-4.6707897152,6.0622160571,-6.2644095668,564
152897,212142,245704,-4.7557349175,6.053841177999999,-6.2656059781,565
153186,212158,245756,-4.7557349175,6.053841177999999,-6.2656059781,566
153088,212201,245710,-4.7557349175,6.053841177999999,-6.2656059781,567
153185,212108,245686,-4.7557349175,6.053841177999999,-6.2656059781,568
152371,211915,245459,-4.7557349175,6.053841177999999,-6.2656059781,569
151567,211750,245414,-4.7557349175,6.053841177999999,-6.2656059781,570
151176,211709,245344,-4.7557349175,6.053841177999999,-6.2656059781,571
150969,211668,245355,-4.7557349175,6.053841177999999,-6.2656059781,572
151001,211746,245396,-4.7557349175,6.053841177999999,-6.2656059781,573
151199,211744,245388,-4.7557349175,6.053841177999999,-6.2656059781,574
151404,211837,245482,-4.7557349175,6.053841177999999,-6.2656059781,575
151634,211913,245513,-4.7557349175,6.053841177999999,-6.2656059781,576
151777,211908,245514,-4.7557349175,6.053841177999999,-6.2656059781,577
151858,211938,245497,-4.7557349175,6.053841177999999,-6.2656059781,578
151909,211915,245524,-4.7557349175,6.053841177999999,-6.2656059781,579
152000,211908,245518,-4.7557349175,6.053841177999999,-6.2656059781,580
152084,211944,245551,-4.7557349175,6.053841177999999,-6.2656059781,581
152185,211950,245565,-4.7557349175,6.053841177999999,-6.2656059781,582
152284,211979,245579,-4.7557349175,6.053841177999999,-6.2656059781,583
152400,212023,245628,-4.7557349175,6.053841177999999,-6.2656059781,584
152508,212049,245617,-4.7557349175,6.053841177999999,-6.2656059781,585
152603,212046,245624,-4.7557349175,6.053841177999999,-6.2656059781,586
152683,212107,245642,-4.7557349175,6.053841177999999,-6.2656059781,587
152767,212127,245654,-4.7557349175,6.053841177999999,-6.2656059781,588
152871,212151,245633,-4.7557349175,6.053841177999999,-6.2656059781,589
152989,212179,245707,-4.7557349175,6.053841177999999,-6.2656059781,590
153032,212230,245738,-4.7557349175,6.053841177999999,-6.2656059781,591
152786,212042,245615,-4.7557349175,6.053841177999999,-6.2656059781,592
152112,211853,245460,-4.7557349175,6.053841177999999,-6.2656059781,593
151354,211747,245411,-4.7557349175,6.053841177999999,-6.2656059781,594
151050,211703,245372,-4.7557349175,6.053841177999999,-6.2656059781,595
150941,211729,245369,-4.7557349175,6.053841177999999,-6.2656059781,596
151054,211710,245374,-4.7557349175,6.053841177999999,-6.2656059781,597
151270,211804,245455,-4.7557349175,6.053841177999999,-6.2656059781,598
151599,211864,245424,-4.7557349175,6.053841177999999,-6.2656059781,599
151652,211894,245481,-4.7557349175,6.053841177999999,-6.2656059781,600
151843,211922,245502,-4.7557349175,6.053841177999999,-6.2656059781,601
151884,211911,245546,-4.7557349175,6.053841177999999,-6.2656059781,602
151946,211925,245491,-4.7557349175,6.053841177999999,-6.2656059781,603
152038,211934,245516,-4.7557349175,6.053841177999999,-6.2656059781,604
152141,211966,245549,-4.7557349175,6.053841177999999,-6.2656059781,605
152226,211996,245611,-4.7557349175,6.053841177999999,-6.2656059781,606
151804,211771,245407,-4.6863430621,6.1160545656,-6.3445691239,607
151320,211722,245423,-4.6863430621,6.1160545656,-6.3445691239,608
151301,211760,245362,-4.6863430621,6.1160545656,-6.3445691239,609
151354,211768,245461,-4.6863430621,6.1160545656,-6.3445691239,610
151425,211793,245399,-4.6863430621,6.1160545656,-6.3445691239,611
151688,211835,245514,-4.6863430621,6.1160545656,-6.3445691239,612
151793,211920,245571,-4.6863430621,6.1160545656,-6.3445691239,613
151939,211907,245535,-4.6863430621,6.1160545656,-6.3445691239,614
152150,211961,245507,-4.6863430621,6.1160545656,-6.3445691239,615
152186,211913,245543,-4.6863430621,6.1160545656,-6.3445691239,616
152170,211958,245563,-4.6863430621,6.1160545656,-6.3445691239,617
152252,211949,245559,-4.6863430621,6.1160545656,-6.3445691239,618
152347,212005,245600,-4.6863430621,6.1160545656,-6.3445691239,619
152476,212040,245638,-4.6863430621,6.1160545656,-6.3445691239,620
152551,212046,245624,-4.6863430621,6.1160545656,-6.3445691239,621
152622,212058,245626,-4.6863430621,6.1160545656,-6.3445691239,622
152824,212091,245607,-4.6863430621,6.1160545656,-6.3445691239,623
152810,212132,245693,-4.6863430621,6.1160545656,-6.3445691239,624
152946,212139,245719,-4.6863430621,6.1160545656,-6.3445691239,625
153024,212222,245701,-4.6863430621,6.1160545656,-6.3445691239,626
153097,212178,245719,-4.6863430621,6.1160545656,-6.3445691239,627
153182,212240,245760,-4.6863430621,6.1160545656,-6.3445691239,628
153244,212235,245793,-4.6863430621,6.1160545656,-6.3445691239,629
153208,212210,245643,-4.6863430621,6.1160545656,-6.3445691239,630
152697,212011,245532,-4.6863430621,6.1160545656,-6.3445691239,631
151985,211821,245437,-4.6863430621,6.1160545656,-6.3445691239,632
151504,211796,245380,-4.6863430621,6.1160545656,-6.3445691239,633
151449,211774,245431,-4.6863430621,6.1160545656,-6.3445691239,634
151489,211806,245438,-4.6863430621,6.1160545656,-6.3445691239,635
151661,211850,245447,-4.6863430621,6.1160545656,-6.3445691239,636
151887,211925,245485,-4.6863430621,6.1160545656,-6.3445691239,637
152086,211963,245539,-4.6863430621,6.1160545656,-6.3445691239,638
152184,211979,245512,-4.6863430621,6.1160545656,-6.3445691239,639
152246,211975,245542,-4.6863430621,6.1160545656,-6.3445691239,640
152281,211971,245554,-4.6863430621,6.1160545656,-6.3445691239,641
152350,212022,245567,-4.6863430621,6.1160545656,-6.3445691239,642
152437,212005,245565,-4.6863430621,6.1160545656,-6.3445691239,643
152514,212065,245609,-4.6863430621,6.1160545656,-6.3445691239,644
152637,212062,245581,-4.6863430621,6.1160545656,-6.3445691239,645
152719,212104,245657,-4.6863430621,6.1160545656,-6.3445691239,646
152813,212111,245659,-4.6863430621,6.1160545656,-6.3445691239,647
152914,212130,245624,-4.6863430621,6.1160545656,-6.3445691239,648
152498,212041,245574,-4.6660040700000005,6.1112689204,-6.269195212,649
152622,212049,245636,-4.6660040700000005,6.1112689204,-6.269195212,650
152715,212070,245648,-4.6660040700000005,6.1112689204,-6.269195212,651
152983,212103,245622,-4.6660040700000005,6.1112689204,-6.269195212,652
152842,212123,245673,-4.6660040700000005,6.1112689204,-6.269195212,653
152995,212120,245672,-4.6660040700000005,6.1112689204,-6.269195212,654
153095,212166,245709,-4.6660040700000005,6.1112689204,-6.269195212,655
153236,212177,245698,-4.6660040700000005,6.1112689204,-6.269195212,656
153223,212223,245704,-4.6660040700000005,6.1112689204,-6.269195212,657
153422,212209,245725,-4.6660040700000005,6.1112689204,-6.269195212,658
153410,212219,245734,-4.6660040700000005,6.1112689204,-6.269195212,659
153052,212081,245656,-4.6660040700000005,6.1112689204,-6.269195212,660
152307,211862,245465,-4.6660040700000005,6.1112689204,-6.269195212,661
151722,211781,245392,-4.6660040700000005,6.1112689204,-6.269195212,662
151450,211766,245366,-4.6660040700000005,6.1112689204,-6.269195212,663
151412,211767,245385,-4.6660040700000005,6.1112689204,-6.269195212,664
151498,211780,245444,-4.6660040700000005,6.1112689204,-6.269195212,665
151725,211857,245478,-4.6660040700000005,6.1112689204,-6.269195212,666
151879,211871,245472,-4.6660040700000005,6.1112689204,-6.269195212,667
152051,211942,245554,-4.6660040700000005,6.1112689204,-6.269195212,668
152338,211963,245539,-4.6660040700000005,6.1112689204,-6.269195212,669
152218,211919,245496,-4.6660040700000005,6.1112689204,-6.269195212,670
152275,211945,245499,-4.6660040700000005,6.1112689204,-6.269195212,671
152344,211953,245542,-4.6660040700000005,6.1112689204,-6.269195212,672
152426,212012,245594,-4.6660040700000005,6.1112689204,-6.269195212,673
152527,211986,245631,-4.6660040700000005,6.1112689204,-6.269195212,674
152628,212062,245601,-4.6660040700000005,6.1112689204,-6.269195212,675
152733,212033,245608,-4.6660040700000005,6.1112689204,-6.269195212,676
152840,212077,245640,-4.6660040700000005,6.1112689204,-6.269195212,677
152910,212093,245614,-4.6660040700000005,6.1112689204,-6.269195212,678
152992,212146,245647,-4.6660040700000005,6.1112689204,-6.269195212,679
153073,212141,245636,-4.6660040700000005,6.1112689204,-6.269195212,680
153165,212159,245717,-4.6660040700000005,6.1112689204,-6.269195212,681
153212,212167,245697,-4.6660040700000005,6.1112689204,-6.269195212,682
152906,212004,245562,-4.6660040700000005,6.1112689204,-6.269195212,683
152210,211850,245453,-4.6660040700000005,6.1112689204,-6.269195212,684
151611,211753,245341,-4.6660040700000005,6.1112689204,-6.269195212,685
151436,211744,245351,-4.6660040700000005,6.1112689204,-6.269195212,686
151408,211775,245360,-4.6660040700000005,6.1112689204,-6.269195212,687
151538,211774,245399,-4.6660040700000005,6.1112689204,-6.269195212,688
151696,211859,245434,-4.6660040700000005,6.1112689204,-6.269195212,689
151913,211867,245466,-4.6660040700000005,6.1112689204,-6.269195212,690
152380,211981,245526,-4.6624148361,6.228517227799999,-6.2404813408,691
152508,211987,245484,-4.6624148361,6.228517227799999,-6.2404813408,692
152612,212019,245562,-4.6624148361,6.228517227799999,-6.2404813408,693
152865,212012,245568,-4.6624148361,6.228517227799999,-6.2404813408,694
152834,212042,245572,-4.6624148361,6.228517227799999,-6.2404813408,695
153042,212103,245615,-4.6624148361,6.228517227799999,-6.2404813408,696
152868,212125,245635,-4.6624148361,6.228517227799999,-6.2404813408,697
153072,212160,245572,-4.6624148361,6.228517227799999,-6.2404813408,698
153135,212178,245695,-4.6624148361,6.228517227799999,-6.2404813408,699
153148,212186,245693,-4.6624148361,6.228517227799999,-6.2404813408,700
153442,212204,245678,-4.6624148361,6.228517227799999,-6.2404813408,701
153558,212218,245717,-4.6624148361,6.228517227799999,-6.2404813408,702
153405,212271,245709,-4.6624148361,6.228517227799999,-6.2404813408,703
153155,212076,245588,-4.6624148361,6.228517227799999,-6.2404813408,704
152615,211909,245419,-4.6624148361,6.228517227799999,-6.2404813408,705
152050,211828,245358,-4.6624148361,6.228517227799999,-6.2404813408,706
151966,211831,245414,-4.6624148361,6.228517227799999,-6.2404813408,707
151882,211835,245410,-4.6624148361,6.228517227799999,-6.2404813408,708
152000,211887,245430,-4.6624148361,6.228517227799999,-6.2404813408,709
152140,211935,245500,-4.6624148361,6.228517227799999,-6.2404813408,710
152428,211965,245497,-4.6624148361,6.228517227799999,-6.2404813408,711
152434,211983,245537,-4.6624148361,6.228517227799999,-6.2404813408,712
152584,211999,245538,-4.6624148361,6.228517227799999,-6.2404813408,713
152615,212028,245574,-4.6624148361,6.228517227799999,-6.2404813408,714
152666,212029,245594,-4.6624148361,6.228517227799999,-6.2404813408,715
152738,211993,245588,-4.6624148361,6.228517227799999,-6.2404813408,716
152809,212063,245583,-4.6624148361,6.228517227799999,-6.2404813408,717
152890,212072,245608,-4.6624148361,6.228517227799999,-6.2404813408,718
152964,212120,245594,-4.6624148361,6.228517227799999,-6.2404813408,719
153045,212114,245634,-4.6624148361,6.228517227799999,-6.2404813408,720
153110,212136,245661,-4.6624148361,6.228517227799999,-6.2404813408,721
153199,212177,245667,-4.6624148361,6.228517227799999,-6.2404813408,722
153230,212205,245701,-4.6624148361,6.228517227799999,-6.2404813408,723
153351,212203,245737,-4.6624148361,6.228517227799999,-6.2404813408,724
153438,212254,245727,-4.6624148361,6.228517227799999,-6.2404813408,725
153453,212249,245701,-4.6624148361,6.228517227799999,-6.2404813408,726
153095,212073,245603,-4.6624148361,6.228517227799999,-6.2404813408,727
152369,211900,245407,-4.6624148361,6.228517227799999,-6.2404813408,728
151899,211820,245327,-4.6624148361,6.228517227799999,-6.2404813408,729
151723,211763,245339,-4.6624148361,6.228517227799999,-6.2404813408,730
151703,211801,245380,-4.6624148361,6.228517227799999,-6.2404813408,731
151813,211832,245391,-4.6624148361,6.228517227799999,-6.2404813408,732
152100,211883,245490,-4.7617169740000005,6.244070574699999,-6.206981824400001,733
152279,211930,245520,-4.7617169740000005,6.244070574699999,-6.206981824400001,734
152486,211955,245523,-4.7617169740000005,6.244070574699999,-6.206981824400001,735
152566,211970,245542,-4.7617169740000005,6.244070574699999,-6.206981824400001,736
152488,212011,245521,-4.7617169740000005,6.244070574699999,-6.206981824400001,737
152870,211975,245517,-4.7617169740000005,6.244070574699999,-6.206981824400001,738
152646,212001,245534,-4.7617169740000005,6.244070574699999,-6.206981824400001,739
152788,212063,245573,-4.7617169740000005,6.244070574699999,-6.206981824400001,740
152888,212052,245558,-4.7617169740000005,6.244070574699999,-6.206981824400001,741
152966,212070,245594,-4.7617169740000005,6.244070574699999,-6.206981824400001,742
153203,212106,245613,-4.7617169740000005,6.244070574699999,-6.206981824400001,743
153174,212124,245663,-4.7617169740000005,6.244070574699999,-6.206981824400001,744
153173,212122,245612,-4.7617169740000005,6.244070574699999,-6.206981824400001,745
153279,212183,245652,-4.7617169740000005,6.244070574699999,-6.206981824400001,746
153352,212189,245683,-4.7617169740000005,6.244070574699999,-6.206981824400001,747
153422,212207,245719,-4.7617169740000005,6.244070574699999,-6.206981824400001,748
153394,212212,245679,-4.7617169740000005,6.244070574699999,-6.206981824400001,749
153138,211986,245550,-4.7617169740000005,6.244070574699999,-6.206981824400001,750
152316,211850,245415,-4.7617169740000005,6.244070574699999,-6.206981824400001,751
151955,211776,245374,-4.7617169740000005,6.244070574699999,-6.206981824400001,752
151787,211735,245362,-4.7617169740000005,6.244070574699999,-6.206981824400001,753
151838,211782,245407,-4.7617169740000005,6.244070574699999,-6.206981824400001,754
151959,211825,245423,-4.7617169740000005,6.244070574699999,-6.206981824400001,755
152169,211892,245478,-4.7617169740000005,6.244070574699999,-6.206981824400001,756
152331,211926,245495,-4.7617169740000005,6.244070574699999,-6.206981824400001,757
152466,211973,245482,-4.7617169740000005,6.244070574699999,-6.206981824400001,758
152484,211977,245520,-4.7617169740000005,6.244070574699999,-6.206981824400001,759
152572,211949,245506,-4.7617169740000005,6.244070574699999,-6.206981824400001,760
152635,211998,245537,-4.7617169740000005,6.244070574699999,-6.206981824400001,761
152701,212011,245591,-4.7617169740000005,6.244070574699999,-6.206981824400001,762
152761,212023,245558,-4.7617169740000005,6.244070574699999,-6.206981824400001,763
152845,212019,245571,-4.7617169740000005,6.244070574699999,-6.206981824400001,764
152923,212056,245624,-4.7617169740000005,6.244070574699999,-6.206981824400001,765
152996,212126,245608,-4.7617169740000005,6.244070574699999,-6.206981824400001,766
153061,212110,245634,-4.7617169740000005,6.244070574699999,-6.206981824400001,767
153186,212164,245650,-4.7617169740000005,6.244070574699999,-6.206981824400001,768
153259,212179,245710,-4.7617169740000005,6.244070574699999,-6.206981824400001,769
153348,212203,245707,-4.7617169740000005,6.244070574699999,-6.206981824400001,770
153388,212223,245685,-4.7617169740000005,6.244070574699999,-6.206981824400001,771
153456,212253,245736,-4.7617169740000005,6.244070574699999,-6.206981824400001,772
153313,212187,245621,-4.7617169740000005,6.244070574699999,-6.206981824400001,773
152757,211945,245451,-4.7617169740000005,6.244070574699999,-6.206981824400001,774
153277,212207,245620,-4.7473600384,6.1399827916000005,-6.2117674696,775
153326,212204,245709,-4.7473600384,6.1399827916000005,-6.2117674696,776
153503,212213,245701,-4.7473600384,6.1399827916000005,-6.2117674696,777
153562,212272,245723,-4.7473600384,6.1399827916000005,-6.2117674696,778
153623,212158,245637,-4.7473600384,6.1399827916000005,-6.2117674696,779
152898,211985,245512,-4.7473600384,6.1399827916000005,-6.2117674696,780
152290,211844,245461,-4.7473600384,6.1399827916000005,-6.2117674696,781
152078,211846,245388,-4.7473600384,6.1399827916000005,-6.2117674696,782
152193,211845,245453,-4.7473600384,6.1399827916000005,-6.2117674696,783
152210,211906,245456,-4.7473600384,6.1399827916000005,-6.2117674696,784
152523,211893,245490,-4.7473600384,6.1399827916000005,-6.2117674696,785
152473,211984,245554,-4.7473600384,6.1399827916000005,-6.2117674696,786
152676,211992,245545,-4.7473600384,6.1399827916000005,-6.2117674696,787
152750,212020,245515,-4.7473600384,6.1399827916000005,-6.2117674696,788
152788,212005,245618,-4.7473600384,6.1399827916000005,-6.2117674696,789
152836,212046,245587,-4.7473600384,6.1399827916000005,-6.2117674696,790
152961,212036,245570,-4.7473600384,6.1399827916000005,-6.2117674696,791
152905,212048,245606,-4.7473600384,6.1399827916000005,-6.2117674696,792
153048,212093,245632,-4.7473600384,6.1399827916000005,-6.2117674696,793
153127,212056,245625,-4.7473600384,6.1399827916000005,-6.2117674696,794
153217,212113,245630,-4.7473600384,6.1399827916000005,-6.2117674696,795
153287,212127,245655,-4.7473600384,6.1399827916000005,-6.2117674696,796
153355,212168,245681,-4.7473600384,6.1399827916000005,-6.2117674696,797
153396,212194,245672,-4.7473600384,6.1399827916000005,-6.2117674696,798
153487,212234,245704,-4.7473600384,6.1399827916000005,-6.2117674696,799
153540,212227,245767,-4.7473600384,6.1399827916000005,-6.2117674696,800
153581,212201,245698,-4.7473600384,6.1399827916000005,-6.2117674696,801
153160,212068,245573,-4.7473600384,6.1399827916000005,-6.2117674696,802
152552,211869,245460,-4.7473600384,6.1399827916000005,-6.2117674696,803
152108,211810,245395,-4.7473600384,6.1399827916000005,-6.2117674696,804
151946,211779,245400,-4.7473600384,6.1399827916000005,-6.2117674696,805
151928,211830,245365,-4.7473600384,6.1399827916000005,-6.2117674696,806
152067,211805,245396,-4.7473600384,6.1399827916000005,-6.2117674696,807
152159,211869,245414,-4.7473600384,6.1399827916000005,-6.2117674696,808
152403,211917,245492,-4.7473600384,6.1399827916000005,-6.2117674696,809
152530,211950,245529,-4.7473600384,6.1399827916000005,-6.2117674696,810
152600,211961,245553,-4.7473600384,6.1399827916000005,-6.2117674696,811
152643,211992,245511,-4.7473600384,6.1399827916000005,-6.2117674696,812
152703,211970,245556,-4.7473600384,6.1399827916000005,-6.2117674696,813
152776,211993,245561,-4.7473600384,6.1399827916000005,-6.2117674696,814
152841,212031,245550,-4.7473600384,6.1399827916000005,-6.2117674696,815
152922,212057,245535,-4.7473600384,6.1399827916000005,-6.2117674696,816
153033,212101,245576,-4.6516471344,6.0741801701,-6.2309100503999995,817
153285,212111,245628,-4.6516471344,6.0741801701,-6.2309100503999995,818
153219,212118,245577,-4.6516471344,6.0741801701,-6.2309100503999995,819
153446,212164,245667,-4.6516471344,6.0741801701,-6.2309100503999995,820
153599,212151,245720,-4.6516471344,6.0741801701,-6.2309100503999995,821
153582,212180,245642,-4.6516471344,6.0741801701,-6.2309100503999995,822
153660,212077,245573,-4.6516471344,6.0741801701,-6.2309100503999995,823
152889,211919,245449,-4.6516471344,6.0741801701,-6.2309100503999995,824
152267,211803,245405,-4.6516471344,6.0741801701,-6.2309100503999995,825
152004,211749,245340,-4.6516471344,6.0741801701,-6.2309100503999995,826
151921,211765,245351,-4.6516471344,6.0741801701,-6.2309100503999995,827
152095,211830,245375,-4.6516471344,6.0741801701,-6.2309100503999995,828
152154,211846,245437,-4.6516471344,6.0741801701,-6.2309100503999995,829
152357,211897,245470,-4.6516471344,6.0741801701,-6.2309100503999995,830
152529,211924,245522,-4.6516471344,6.0741801701,-6.2309100503999995,831
152595,211926,245491,-4.6516471344,6.0741801701,-6.2309100503999995,832
152617,211958,245503,-4.6516471344,6.0741801701,-6.2309100503999995,833
152695,211975,245486,-4.6516471344,6.0741801701,-6.2309100503999995,834
152760,211973,245466,-4.6516471344,6.0741801701,-6.2309100503999995,835
152818,211976,245498,-4.6516471344,6.0741801701,-6.2309100503999995,836
152925,212038,245586,-4.6516471344,6.0741801701,-6.2309100503999995,837
153010,212040,245576,-4.6516471344,6.0741801701,-6.2309100503999995,838
153086,212063,245570,-4.6516471344,6.0741801701,-6.2309100503999995,839
153164,212107,245583,-4.6516471344,6.0741801701,-6.2309100503999995,840
153256,212125,245597,-4.6516471344,6.0741801701,-6.2309100503999995,841
153330,212146,245613,-4.6516471344,6.0741801701,-6.2309100503999995,842
153417,212162,245654,-4.6516471344,6.0741801701,-6.2309100503999995,843
153489,212216,245660,-4.6516471344,6.0741801701,-6.2309100503999995,844
153536,212226,245655,-4.6516471344,6.0741801701,-6.2309100503999995,845
153434,212135,245625,-4.6516471344,6.0741801701,-6.2309100503999995,846
152861,211949,245485,-4.6516471344,6.0741801701,-6.2309100503999995,847
152327,211816,245352,-4.6516471344,6.0741801701,-6.2309100503999995,848
152092,211817,245374,-4.6516471344,6.0741801701,-6.2309100503999995,849
152071,211822,245363,-4.6516471344,6.0741801701,-6.2309100503999995,850
152150,211853,245409,-4.6516471344,6.0741801701,-6.2309100503999995,851
152339,211882,245452,-4.6516471344,6.0741801701,-6.2309100503999995,852
152486,211953,245479,-4.6516471344,6.0741801701,-6.2309100503999995,853
152644,211993,245549,-4.6516471344,6.0741801701,-6.2309100503999995,854
152743,211985,245480,-4.6516471344,6.0741801701,-6.2309100503999995,855
152759,212008,245526,-4.6516471344,6.0741801701,-6.2309100503999995,856
152804,211974,245490,-4.6516471344,6.0741801701,-6.2309100503999995,857
152873,212015,245605,-4.6516471344,6.0741801701,-6.2309100503999995,858
153248,212127,245659,-4.6851466508,6.1064832752,-6.245266986000001,859
153373,212162,245668,-4.6851466508,6.1064832752,-6.245266986000001,860
153500,212215,245657,-4.6851466508,6.1064832752,-6.245266986000001,861
153783,212250,245712,-4.6851466508,6.1064832752,-6.245266986000001,862
153368,212117,245617,-4.6851466508,6.1064832752,-6.245266986000001,863
152930,211920,245447,-4.6851466508,6.1064832752,-6.245266986000001,864
152423,211856,245376,-4.6851466508,6.1064832752,-6.245266986000001,865
152324,211791,245346,-4.6851466508,6.1064832752,-6.245266986000001,866
152129,211805,245407,-4.6851466508,6.1064832752,-6.245266986000001,867
152388,211846,245404,-4.6851466508,6.1064832752,-6.245266986000001,868
152419,211904,245406,-4.6851466508,6.1064832752,-6.245266986000001,869
152562,211949,245500,-4.6851466508,6.1064832752,-6.245266986000001,870
152673,211988,245455,-4.6851466508,6.1064832752,-6.245266986000001,871
152742,212008,245509,-4.6851466508,6.1064832752,-6.245266986000001,872
152822,211997,245529,-4.6851466508,6.1064832752,-6.245266986000001,873
152855,212026,245564,-4.6851466508,6.1064832752,-6.245266986000001,874
152925,212024,245554,-4.6851466508,6.1064832752,-6.245266986000001,875
152993,212033,245551,-4.6851466508,6.1064832752,-6.245266986000001,876
153065,212083,245559,-4.6851466508,6.1064832752,-6.245266986000001,877
153129,212106,245620,-4.6851466508,6.1064832752,-6.245266986000001,878
153225,212114,245662,-4.6851466508,6.1064832752,-6.245266986000001,879
153278,212111,245693,-4.6851466508,6.1064832752,-6.245266986000001,880
153367,212143,245691,-4.6851466508,6.1064832752,-6.245266986000001,881
153458,212218,245628,-4.6851466508,6.1064832752,-6.245266986000001,882
153531,212230,245702,-4.6851466508,6.1064832752,-6.245266986000001,883
153513,212187,245674,-4.6851466508,6.1064832752,-6.245266986000001,884
153145,211999,245560,-4.6851466508,6.1064832752,-6.245266986000001,885
152513,211839,245421,-4.6851466508,6.1064832752,-6.245266986000001,886
152092,211788,245345,-4.6851466508,6.1064832752,-6.245266986000001,887
151939,211767,245354,-4.6851466508,6.1064832752,-6.245266986000001,888
151884,211754,245377,-4.6851466508,6.1064832752,-6.245266986000001,889
152031,211810,245377,-4.6851466508,6.1064832752,-6.245266986000001,890
152190,211867,245422,-4.6851466508,6.1064832752,-6.245266986000001,891
152386,211878,245475,-4.6851466508,6.1064832752,-6.245266986000001,892
152515,211932,245470,-4.6851466508,6.1064832752,-6.245266986000001,893
152581,211918,245490,-4.6851466508,6.1064832752,-6.245266986000001,894
152627,211931,245477,-4.6851466508,6.1064832752,-6.245266986000001,895
152610,211972,245498,-4.6851466508,6.1064832752,-6.245266986000001,896
152759,211972,245532,-4.6851466508,6.1064832752,-6.245266986000001,897
152764,211988,245506,-4.6851466508,6.1064832752,-6.245266986000001,898
152916,212023,245551,-4.6851466508,6.1064832752,-6.245266986000001,899
152992,212024,245566,-4.6851466508,6.1064832752,-6.245266986000001,900
152471,211941,245455,-4.6516471344,6.005984725999999,-6.2404813408,901
152670,211897,245478,-4.6516471344,6.005984725999999,-6.2404813408,902
152705,211962,245481,-4.6516471344,6.005984725999999,-6.2404813408,903
152905,212005,245496,-4.6516471344,6.005984725999999,-6.2404813408,904
152897,212044,245473,-4.6516471344,6.005984725999999,-6.2404813408,905
153105,212057,245475,-4.6516471344,6.005984725999999,-6.2404813408,906
153136,212012,245553,-4.6516471344,6.005984725999999,-6.2404813408,907
153182,212062,245539,-4.6516471344,6.005984725999999,-6.2404813408,908
153233,212117,245574,-4.6516471344,6.005984725999999,-6.2404813408,909
153295,212114,245607,-4.6516471344,6.005984725999999,-6.2404813408,910
153432,212166,245591,-4.6516471344,6.005984725999999,-6.2404813408,911
153556,212116,245625,-4.6516471344,6.005984725999999,-6.2404813408,912
153169,211977,245486,-4.6516471344,6.005984725999999,-6.2404813408,913
152489,211839,245317,-4.6516471344,6.005984725999999,-6.2404813408,914
151967,211717,245321,-4.748556449700001,6.0263237181000004,-6.259623921599999,915
151974,211724,245361,-4.748556449700001,6.0263237181000004,-6.259623921599999,916
151987,211739,245341,-4.748556449700001,6.0263237181000004,-6.259623921599999,917
151969,211766,245373,-4.748556449700001,6.0263237181000004,-6.259623921599999,918
152183,211846,245407,-4.748556449700001,6.0263237181000004,-6.259623921599999,919
152354,211876,245479,-4.748556449700001,6.0263237181000004,-6.259623921599999,920
152480,211917,245480,-4.748556449700001,6.0263237181000004,-6.259623921599999,921
152528,211919,245438,-4.748556449700001,6.0263237181000004,-6.259623921599999,922
152601,211917,245462,-4.748556449700001,6.0263237181000004,-6.259623921599999,923
152636,211936,245478,-4.748556449700001,6.0263237181000004,-6.259623921599999,924
152703,211956,245536,-4.748556449700001,6.0263237181000004,-6.259623921599999,925
152814,211994,245484,-4.748556449700001,6.0263237181000004,-6.259623921599999,926
152857,211975,245518,-4.748556449700001,6.0263237181000004,-6.259623921599999,927
153102,212031,245500,-4.748556449700001,6.0263237181000004,-6.259623921599999,928
153004,212045,245579,-4.748556449700001,6.0263237181000004,-6.259623921599999,929
153105,212072,245515,-4.748556449700001,6.0263237181000004,-6.259623921599999,930
153200,212087,245610,-4.748556449700001,6.0263237181000004,-6.259623921599999,931
153295,212130,245616,-4.748556449700001,6.0263237181000004,-6.259623921599999,932
153379,212163,245597,-4.748556449700001,6.0263237181000004,-6.259623921599999,933
153302,212100,245589,-4.748556449700001,6.0263237181000004,-6.259623921599999,934
152794,211893,245445,-4.748556449700001,6.0263237181000004,-6.259623921599999,935
152168,211755,245341,-4.748556449700001,6.0263237181000004,-6.259623921599999,936
151808,211717,245312,-4.748556449700001,6.0263237181000004,-6.259623921599999,937
151687,211726,245276,-4.748556449700001,6.0263237181000004,-6.259623921599999,938
151703,211723,245303,-4.748556449700001,6.0263237181000004,-6.259623921599999,939
151820,211766,245378,-4.748556449700001,6.0263237181000004,-6.259623921599999,940
152030,211798,245356,-4.748556449700001,6.0263237181000004,-6.259623921599999,941
152200,211848,245415,-4.748556449700001,6.0263237181000004,-6.259623921599999,942
152308,211898,245427,-4.748556449700001,6.0263237181000004,-6.259623921599999,943
152376,211882,245412,-4.748556449700001,6.0263237181000004,-6.259623921599999,944
152443,211918,245418,-4.748556449700001,6.0263237181000004,-6.259623921599999,945
152525,211913,245467,-4.748556449700001,6.0263237181000004,-6.259623921599999,946
152588,211924,245476,-4.748556449700001,6.0263237181000004,-6.259623921599999,947
152687,211938,245489,-4.748556449700001,6.0263237181000004,-6.259623921599999,948
152760,211984,245466,-4.748556449700001,6.0263237181000004,-6.259623921599999,949
152850,212002,245520,-4.748556449700001,6.0263237181000004,-6.259623921599999,950
152942,212027,245502,-4.748556449700001,6.0263237181000004,-6.259623921599999,951
153033,212055,245554,-4.748556449700001,6.0263237181000004,-6.259623921599999,952
153115,212035,245585,-4.748556449700001,6.0263237181000004,-6.259623921599999,953
153184,212086,245564,-4.748556449700001,6.0263237181000004,-6.259623921599999,954
153240,212098,245596,-4.748556449700001,6.0263237181000004,-6.259623921599999,955
153359,212142,245576,-4.748556449700001,6.0263237181000004,-6.259623921599999,956
153113,212038,245530,-4.6947179412,6.063412468399999,-6.212963880899999,957
152706,211853,245357,-4.6947179412,6.063412468399999,-6.212963880899999,958
151950,211731,245297,-4.6947179412,6.063412468399999,-6.212963880899999,959
151759,211723,245292,-4.6947179412,6.063412468399999,-6.212963880899999,960
151855,211714,245293,-4.6947179412,6.063412468399999,-6.212963880899999,961
151742,211757,245298,-4.6947179412,6.063412468399999,-6.212963880899999,962
152053,211787,245370,-4.6947179412,6.063412468399999,-6.212963880899999,963
152246,211827,245361,-4.6947179412,6.063412468399999,-6.212963880899999,964
152536,211891,245381,-4.6947179412,6.063412468399999,-6.212963880899999,965
152561,211903,245469,-4.6947179412,6.063412468399999,-6.212963880899999,966
152575,211858,245442,-4.6947179412,6.063412468399999,-6.212963880899999,967
152556,211879,245453,-4.6947179412,6.063412468399999,-6.212963880899999,968
152573,211923,245458,-4.6947179412,6.063412468399999,-6.212963880899999,969
152671,211939,245463,-4.6947179412,6.063412468399999,-6.212963880899999,970
152880,211996,245456,-4.6947179412,6.063412468399999,-6.212963880899999,971
152837,211996,245453,-4.6947179412,6.063412468399999,-6.212963880899999,972
152925,212039,245559,-4.6947179412,6.063412468399999,-6.212963880899999,973
153017,212062,245556,-4.6947179412,6.063412468399999,-6.212963880899999,974
153073,212054,245557,-4.6947179412,6.063412468399999,-6.212963880899999,975
153177,212100,245588,-4.6947179412,6.063412468399999,-6.212963880899999,976
153266,212115,245595,-4.6947179412,6.063412468399999,-6.212963880899999,977
153333,212132,245640,-4.6947179412,6.063412468399999,-6.212963880899999,978
153407,212162,245621,-4.6947179412,6.063412468399999,-6.212963880899999,979
153504,212130,245642,-4.6947179412,6.063412468399999,-6.212963880899999,980
153079,212011,245481,-4.6947179412,6.063412468399999,-6.212963880899999,981
152458,211816,245371,-4.6947179412,6.063412468399999,-6.212963880899999,982
152018,211748,245315,-4.6947179412,6.063412468399999,-6.212963880899999,983
151915,211779,245331,-4.6947179412,6.063412468399999,-6.212963880899999,984
151973,211776,245323,-4.6947179412,6.063412468399999,-6.212963880899999,985
152090,211812,245400,-4.6947179412,6.063412468399999,-6.212963880899999,986
152286,211855,245362,-4.6947179412,6.063412468399999,-6.212963880899999,987
152466,211928,245436,-4.6947179412,6.063412468399999,-6.212963880899999,988
152476,211921,245479,-4.6947179412,6.063412468399999,-6.212963880899999,989
152640,211924,245450,-4.6947179412,6.063412468399999,-6.212963880899999,990
152679,211951,245478,-4.6947179412,6.063412468399999,-6.212963880899999,991
152744,211969,245487,-4.6947179412,6.063412468399999,-6.212963880899999,992
152796,212006,245459,-4.6947179412,6.063412468399999,-6.212963880899999,993
152866,212031,245462,-4.6947179412,6.063412468399999,-6.212963880899999,994
152907,212043,245533,-4.6947179412,6.063412468399999,-6.212963880899999,995
152971,212059,245525,-4.6947179412,6.063412468399999,-6.212963880899999,996
153110,212107,245551,-4.6947179412,6.063412468399999,-6.212963880899999,997
153191,212091,245582,-4.6947179412,6.063412468399999,-6.212963880899999,998
153068,211963,245432,-4.7700918531,6.148357670699999,-6.299105494500001,999
152442,211821,245337,-4.7700918531,6.148357670699999,-6.299105494500001,1000
152049,211765,245283,-4.7700918531,6.148357670699999,-6.299105494500001,1001
152092,211748,245316,-4.7700918531,6.148357670699999,-6.299105494500001,1002
151990,211779,245318,-4.7700918531,6.148357670699999,-6.299105494500001,1003
152212,211833,245351,-4.7700918531,6.148357670699999,-6.299105494500001,1004
152479,211876,245448,-4.7700918531,6.148357670699999,-6.299105494500001,1005
152727,211936,245404,-4.7700918531,6.148357670699999,-6.299105494500001,1006
152624,211945,245436,-4.7700918531,6.148357670699999,-6.299105494500001,1007
152636,211938,245453,-4.7700918531,6.148357670699999,-6.299105494500001,1008
152632,211946,245441,-4.7700918531,6.148357670699999,-6.299105494500001,1009
152744,211994,245474,-4.7700918531,6.148357670699999,-6.299105494500001,1010
152800,211957,245477,-4.7700918531,6.148357670699999,-6.299105494500001,1011
152879,211971,245513,-4.7700918531,6.148357670699999,-6.299105494500001,1012
152954,212020,245499,-4.7700918531,6.148357670699999,-6.299105494500001,1013
153053,212042,245518,-4.7700918531,6.148357670699999,-6.299105494500001,1014
153141,212098,245542,-4.7700918531,6.148357670699999,-6.299105494500001,1015
153210,212082,245585,-4.7700918531,6.148357670699999,-6.299105494500001,1016
153292,212084,245620,-4.7700918531,6.148357670699999,-6.299105494500001,1017
153338,212115,245615,-4.7700918531,6.148357670699999,-6.299105494500001,1018
153239,212052,245561,-4.7700918531,6.148357670699999,-6.299105494500001,1019
152723,211861,245397,-4.7700918531,6.148357670699999,-6.299105494500001,1020
152118,211768,245301,-4.7700918531,6.148357670699999,-6.299105494500001,1021
151775,211695,245283,-4.7700918531,6.148357670699999,-6.299105494500001,1022
151675,211695,245277,-4.7700918531,6.148357670699999,-6.299105494500001,1023
151670,211683,245315,-4.7700918531,6.148357670699999,-6.299105494500001,1024
151987,211759,245344,-4.7700918531,6.148357670699999,-6.299105494500001,1025
152037,211787,245400,-4.7700918531,6.148357670699999,-6.299105494500001,1026
152206,211851,245394,-4.7700918531,6.148357670699999,-6.299105494500001,1027
152300,211887,245411,-4.7700918531,6.148357670699999,-6.299105494500001,1028
152352,211847,245412,-4.7700918531,6.148357670699999,-6.299105494500001,1029
152428,211878,245419,-4.7700918531,6.148357670699999,-6.299105494500001,1030
152474,211903,245411,-4.7700918531,6.148357670699999,-6.299105494500001,1031
152569,211888,245456,-4.7700918531,6.148357670699999,-6.299105494500001,1032
152648,211942,245421,-4.7700918531,6.148357670699999,-6.299105494500001,1033
152754,211955,245454,-4.7700918531,6.148357670699999,-6.299105494500001,1034
152788,211997,245448,-4.7700918531,6.148357670699999,-6.299105494500001,1035
152920,211999,245468,-4.7700918531,6.148357670699999,-6.299105494500001,1036
152980,212047,245544,-4.7700918531,6.148357670699999,-6.299105494500001,1037
153097,212061,245548,-4.7700918531,6.148357670699999,-6.299105494500001,1038
153127,212044,245531,-4.7700918531,6.148357670699999,-6.299105494500001,1039
152767,211884,245398,-4.7700918531,6.148357670699999,-6.299105494500001,1040
151733,211686,245285,-4.6337009649,6.1722858967,-6.2309100503999995,1041
151864,211735,245316,-4.6337009649,6.1722858967,-6.2309100503999995,1042
152207,211800,245316,-4.6337009649,6.1722858967,-6.2309100503999995,1043
152420,211813,245377,-4.6337009649,6.1722858967,-6.2309100503999995,1044
152310,211862,245397,-4.6337009649,6.1722858967,-6.2309100503999995,1045
152318,211849,245352,-4.6337009649,6.1722858967,-6.2309100503999995,1046
152464,211881,245344,-4.6337009649,6.1722858967,-6.2309100503999995,1047
152615,211895,245437,-4.6337009649,6.1722858967,-6.2309100503999995,1048
152522,211907,245444,-4.6337009649,6.1722858967,-6.2309100503999995,1049
152585,211934,245422,-4.6337009649,6.1722858967,-6.2309100503999995,1050
152687,211928,245439,-4.6337009649,6.1722858967,-6.2309100503999995,1051
152747,211975,245509,-4.6337009649,6.1722858967,-6.2309100503999995,1052
152858,211950,245504,-4.6337009649,6.1722858967,-6.2309100503999995,1053
152950,211991,245495,-4.6337009649,6.1722858967,-6.2309100503999995,1054
153015,212034,245512,-4.6337009649,6.1722858967,-6.2309100503999995,1055
152893,211954,245460,-4.6337009649,6.1722858967,-6.2309100503999995,1056
152327,211754,245295,-4.6337009649,6.1722858967,-6.2309100503999995,1057
151765,211630,245207,-4.6337009649,6.1722858967,-6.2309100503999995,1058
151419,211652,245246,-4.6337009649,6.1722858967,-6.2309100503999995,1059
151354,211634,245234,-4.6337009649,6.1722858967,-6.2309100503999995,1060
151425,211635,245227,-4.6337009649,6.1722858967,-6.2309100503999995,1061
151615,211733,245274,-4.6337009649,6.1722858967,-6.2309100503999995,1062
151745,211740,245324,-4.6337009649,6.1722858967,-6.2309100503999995,1063
151981,211809,245293,-4.6337009649,6.1722858967,-6.2309100503999995,1064
152095,211827,245352,-4.6337009649,6.1722858967,-6.2309100503999995,1065
152147,211839,245365,-4.6337009649,6.1722858967,-6.2309100503999995,1066
152214,211819,245352,-4.6337009649,6.1722858967,-6.2309100503999995,1067
152268,211832,245401,-4.6337009649,6.1722858967,-6.2309100503999995,1068
152345,211856,245398,-4.6337009649,6.1722858967,-6.2309100503999995,1069
152458,211883,245377,-4.6337009649,6.1722858967,-6.2309100503999995,1070
152541,211927,245401,-4.6337009649,6.1722858967,-6.2309100503999995,1071
152635,211973,245438,-4.6337009649,6.1722858967,-6.2309100503999995,1072
152707,211986,245465,-4.6337009649,6.1722858967,-6.2309100503999995,1073
152806,211985,245466,-4.6337009649,6.1722858967,-6.2309100503999995,1074
152927,212005,245583,-4.6337009649,6.1722858967,-6.2309100503999995,1075
153007,212034,245546,-4.6337009649,6.1722858967,-6.2309100503999995,1076
153040,212036,245534,-4.6337009649,6.1722858967,-6.2309100503999995,1077
152716,211874,245383,-4.6337009649,6.1722858967,-6.2309100503999995,1078
152055,211694,245278,-4.6337009649,6.1722858967,-6.2309100503999995,1079
151499,211639,245258,-4.6337009649,6.1722858967,-6.2309100503999995,1080
151273,211638,245219,-4.6337009649,6.1722858967,-6.2309100503999995,1081
151282,211621,245183,-4.6337009649,6.1722858967,-6.2309100503999995,1082
152280,211897,245433,-4.7042892316,6.025127306799999,-6.1603217837,1083
152645,211961,245462,-4.7042892316,6.025127306799999,-6.1603217837,1084
152794,211973,245497,-4.7042892316,6.025127306799999,-6.1603217837,1085
152552,211997,245512,-4.7042892316,6.025127306799999,-6.1603217837,1086
152693,212011,245541,-4.7042892316,6.025127306799999,-6.1603217837,1087
152769,212026,245573,-4.7042892316,6.025127306799999,-6.1603217837,1088
152949,212033,245509,-4.7042892316,6.025127306799999,-6.1603217837,1089
153003,212010,245520,-4.7042892316,6.025127306799999,-6.1603217837,1090
152479,211848,245348,-4.7042892316,6.025127306799999,-6.1603217837,1091
151749,211685,245276,-4.7042892316,6.025127306799999,-6.1603217837,1092
151179,211623,245199,-4.7042892316,6.025127306799999,-6.1603217837,1093
150787,211564,245182,-4.7042892316,6.025127306799999,-6.1603217837,1094
150918,211589,245207,-4.7042892316,6.025127306799999,-6.1603217837,1095
150898,211636,245232,-4.7042892316,6.025127306799999,-6.1603217837,1096
151143,211684,245238,-4.7042892316,6.025127306799999,-6.1603217837,1097
151331,211722,245302,-4.7042892316,6.025127306799999,-6.1603217837,1098
151560,211758,245360,-4.7042892316,6.025127306799999,-6.1603217837,1099
151629,211786,245335,-4.7042892316,6.025127306799999,-6.1603217837,1100
151695,211786,245343,-4.7042892316,6.025127306799999,-6.1603217837,1101
151753,211791,245351,-4.7042892316,6.025127306799999,-6.1603217837,1102
151892,211818,245349,-4.7042892316,6.025127306799999,-6.1603217837,1103
151960,211820,245387,-4.7042892316,6.025127306799999,-6.1603217837,1104
152054,211843,245441,-4.7042892316,6.025127306799999,-6.1603217837,1105
152169,211914,245439,-4.7042892316,6.025127306799999,-6.1603217837,1106
152252,211898,245461,-4.7042892316,6.025127306799999,-6.1603217837,1107
152386,211940,245452,-4.7042892316,6.025127306799999,-6.1603217837,1108
152473,211964,245463,-4.7042892316,6.025127306799999,-6.1603217837,1109
152578,212006,245491,-4.7042892316,6.025127306799999,-6.1603217837,1110
152667,212013,245540,-4.7042892316,6.025127306799999,-6.1603217837,1111
152743,212076,245529,-4.7042892316,6.025127306799999,-6.1603217837,1112
152490,211918,245446,-4.7042892316,6.025127306799999,-6.1603217837,1113
151792,211709,245270,-4.7042892316,6.025127306799999,-6.1603217837,1114
151006,211590,245192,-4.7042892316,6.025127306799999,-6.1603217837,1115
150704,211576,245143,-4.7042892316,6.025127306799999,-6.1603217837,1116
150594,211569,245207,-4.7042892316,6.025127306799999,-6.1603217837,1117
150736,211593,245202,-4.7042892316,6.025127306799999,-6.1603217837,1118
150940,211650,245295,-4.7042892316,6.025127306799999,-6.1603217837,1119
151196,211733,245271,-4.7042892316,6.025127306799999,-6.1603217837,1120
151385,211740,245373,-4.7042892316,6.025127306799999,-6.1603217837,1121
151513,211765,245323,-4.7042892316,6.025127306799999,-6.1603217837,1122
151593,211752,245376,-4.7042892316,6.025127306799999,-6.1603217837,1123
151653,211788,245335,-4.7042892316,6.025127306799999,-6.1603217837,1124
151501,211681,245199,-4.6911287073,6.125625856,-6.259623921599999,1125
150543,211541,245165,-4.6911287073,6.125625856,-6.259623921599999,1126
150228,211526,245196,-4.6911287073,6.125625856,-6.259623921599999,1127
150123,211528,245171,-4.6911287073,6.125625856,-6.259623921599999,1128
150326,211573,245243,-4.6911287073,6.125625856,-6.259623921599999,1129
150416,211626,245221,-4.6911287073,6.125625856,-6.259623921599999,1130
150751,211685,245340,-4.6911287073,6.125625856,-6.259623921599999,1131
151008,211704,245283,-4.6911287073,6.125625856,-6.259623921599999,1132
151000,211744,245349,-4.6911287073,6.125625856,-6.259623921599999,1133
151211,211739,245314,-4.6911287073,6.125625856,-6.259623921599999,1134
151336,211772,245349,-4.6911287073,6.125625856,-6.259623921599999,1135
151408,211754,245342,-4.6911287073,6.125625856,-6.259623921599999,1136
151485,211775,245380,-4.6911287073,6.125625856,-6.259623921599999,1137
151555,211816,245418,-4.6911287073,6.125625856,-6.259623921599999,1138
151925,211818,245407,-4.6911287073,6.125625856,-6.259623921599999,1139
151818,211834,245410,-4.6911287073,6.125625856,-6.259623921599999,1140
151983,211902,245441,-4.6911287073,6.125625856,-6.259623921599999,1141
151983,211916,245503,-4.6911287073,6.125625856,-6.259623921599999,1142
152204,211974,245525,-4.6911287073,6.125625856,-6.259623921599999,1143
152332,211982,245405,-4.6911287073,6.125625856,-6.259623921599999,1144
151967,211826,245369,-4.6911287073,6.125625856,-6.259623921599999,1145
151108,211660,245225,-4.6911287073,6.125625856,-6.259623921599999,1146
150346,211503,245098,-4.6911287073,6.125625856,-6.259623921599999,1147
149986,211530,245142,-4.6911287073,6.125625856,-6.259623921599999,1148
149920,211513,245145,-4.6911287073,6.125625856,-6.259623921599999,1149
149994,211524,245157,-4.6911287073,6.125625856,-6.259623921599999,1150
150278,211613,245205,-4.6911287073,6.125625856,-6.259623921599999,1151
150532,211654,245280,-4.6911287073,6.125625856,-6.259623921599999,1152
150737,211666,245289,-4.6911287073,6.125625856,-6.259623921599999,1153
150895,211703,245272,-4.6911287073,6.125625856,-6.259623921599999,1154
150950,211682,245290,-4.6911287073,6.125625856,-6.259623921599999,1155
151018,211745,245237,-4.6911287073,6.125625856,-6.259623921599999,1156
151124,211773,245277,-4.6911287073,6.125625856,-6.259623921599999,1157
151264,211720,245325,-4.6911287073,6.125625856,-6.259623921599999,1158
151371,211812,245347,-4.6911287073,6.125625856,-6.259623921599999,1159
151504,211822,245367,-4.6911287073,6.125625856,-6.259623921599999,1160
151611,211819,245414,-4.6911287073,6.125625856,-6.259623921599999,1161
151663,211854,245403,-4.6911287073,6.125625856,-6.259623921599999,1162
151831,211899,245423,-4.6911287073,6.125625856,-6.259623921599999,1163
151878,211929,245400,-4.6911287073,6.125625856,-6.259623921599999,1164
152045,211962,245433,-4.6911287073,6.125625856,-6.259623921599999,1165
152141,211981,245428,-4.6911287073,6.125625856,-6.259623921599999,1166
151010,211796,245354,-4.7042892316,6.0969119848,-6.2117674696,1167
151067,211837,245348,-4.7042892316,6.0969119848,-6.2117674696,1168
151302,211871,245401,-4.7042892316,6.0969119848,-6.2117674696,1169
151328,211867,245413,-4.7042892316,6.0969119848,-6.2117674696,1170
151450,211919,245397,-4.7042892316,6.0969119848,-6.2117674696,1171
151709,211940,245417,-4.7042892316,6.0969119848,-6.2117674696,1172
151841,211920,245421,-4.7042892316,6.0969119848,-6.2117674696,1173
151835,211965,245472,-4.7042892316,6.0969119848,-6.2117674696,1174
151874,211985,245512,-4.7042892316,6.0969119848,-6.2117674696,1175
151943,212014,245535,-4.7042892316,6.0969119848,-6.2117674696,1176
152105,212017,245522,-4.7042892316,6.0969119848,-6.2117674696,1177
152256,212070,245537,-4.7042892316,6.0969119848,-6.2117674696,1178
152345,212090,245577,-4.7042892316,6.0969119848,-6.2117674696,1179
152498,212098,245558,-4.7042892316,6.0969119848,-6.2117674696,1180
152290,211949,245427,-4.7042892316,6.0969119848,-6.2117674696,1181
151347,211730,245285,-4.7042892316,6.0969119848,-6.2117674696,1182
150563,211618,245228,-4.7042892316,6.0969119848,-6.2117674696,1183
150307,211656,245224,-4.7042892316,6.0969119848,-6.2117674696,1184
150345,211642,245262,-4.7042892316,6.0969119848,-6.2117674696,1185
150414,211688,245262,-4.7042892316,6.0969119848,-6.2117674696,1186
150650,211719,245311,-4.7042892316,6.0969119848,-6.2117674696,1187
150781,211759,245360,-4.7042892316,6.0969119848,-6.2117674696,1188
150912,211802,245358,-4.7042892316,6.0969119848,-6.2117674696,1189
151106,211834,245358,-4.7042892316,6.0969119848,-6.2117674696,1190
151171,211836,245358,-4.7042892316,6.0969119848,-6.2117674696,1191
151250,211838,245383,-4.7042892316,6.0969119848,-6.2117674696,1192
151371,211856,245386,-4.7042892316,6.0969119848,-6.2117674696,1193
151432,211851,245331,-4.7042892316,6.0969119848,-6.2117674696,1194
151501,211917,245369,-4.7042892316,6.0969119848,-6.2117674696,1195
151662,211929,245422,-4.7042892316,6.0969119848,-6.2117674696,1196
151758,211956,245432,-4.7042892316,6.0969119848,-6.2117674696,1197
152006,211953,245481,-4.7042892316,6.0969119848,-6.2117674696,1198
151964,211980,245460,-4.7042892316,6.0969119848,-6.2117674696,1199
152060,212033,245513,-4.7042892316,6.0969119848,-6.2117674696,1200
152185,212051,245565,-4.7042892316,6.0969119848,-6.2117674696,1201
152261,212067,245509,-4.7042892316,6.0969119848,-6.2117674696,1202
152351,212103,245550,-4.7042892316,6.0969119848,-6.2117674696,1203
152427,212135,245600,-4.7042892316,6.0969119848,-6.2117674696,1204
152467,212128,245573,-4.7042892316,6.0969119848,-6.2117674696,1205
152158,211971,245410,-4.6241296745,6.1112689204,-6.269195212,1206
151202,211756,245289,-4.6241296745,6.1112689204,-6.269195212,1207
150705,211673,245214,-4.6241296745,6.1112689204,-6.269195212,1208
150561,211640,245260,-4.6241296745,6.1112689204,-6.269195212,1209
150523,211696,245259,-4.6241296745,6.1112689204,-6.269195212,1210
150666,211720,245301,-4.6241296745,6.1112689204,-6.269195212,1211
150905,211763,245313,-4.6241296745,6.1112689204,-6.269195212,1212
151123,211802,245330,-4.6241296745,6.1112689204,-6.269195212,1213
151211,211834,245360,-4.6241296745,6.1112689204,-6.269195212,1214
151347,211829,245382,-4.6241296745,6.1112689204,-6.269195212,1215
151365,211865,245333,-4.6241296745,6.1112689204,-6.269195212,1216
151439,211851,245363,-4.6241296745,6.1112689204,-6.269195212,1217
151536,211901,245395,-4.6241296745,6.1112689204,-6.269195212,1218
151645,211917,245415,-4.6241296745,6.1112689204,-6.269195212,1219
151725,211903,245361,-4.6241296745,6.1112689204,-6.269195212,1220
151842,211969,245454,-4.6241296745,6.1112689204,-6.269195212,1221
151951,211984,245487,-4.6241296745,6.1112689204,-6.269195212,1222
152039,212013,245470,-4.6241296745,6.1112689204,-6.269195212,1223
152142,212045,245481,-4.6241296745,6.1112689204,-6.269195212,1224
152235,212052,245492,-4.6241296745,6.1112689204,-6.269195212,1225
152369,212090,245577,-4.6241296745,6.1112689204,-6.269195212,1226
152406,212121,245532,-4.6241296745,6.1112689204,-6.269195212,1227
152506,212141,245550,-4.6241296745,6.1112689204,-6.269195212,1228
152546,212199,245633,-4.6241296745,6.1112689204,-6.269195212,1229
152541,212085,245574,-4.6241296745,6.1112689204,-6.269195212,1230
151961,211877,245348,-4.6241296745,6.1112689204,-6.269195212,1231
151239,211778,245254,-4.6241296745,6.1112689204,-6.269195212,1232
150831,211705,245199,-4.6241296745,6.1112689204,-6.269195212,1233
150731,211722,245201,-4.6241296745,6.1112689204,-6.269195212,1234
150832,211750,245289,-4.6241296745,6.1112689204,-6.269195212,1235
150990,211759,245290,-4.6241296745,6.1112689204,-6.269195212,1236
151221,211826,245358,-4.6241296745,6.1112689204,-6.269195212,1237
151418,211872,245396,-4.6241296745,6.1112689204,-6.269195212,1238
151539,211888,245407,-4.6241296745,6.1112689204,-6.269195212,1239
151602,211887,245472,-4.6241296745,6.1112689204,-6.269195212,1240
151659,211858,245395,-4.6241296745,6.1112689204,-6.269195212,1241
151725,211900,245398,-4.6241296745,6.1112689204,-6.269195212,1242
151805,211928,245438,-4.6241296745,6.1112689204,-6.269195212,1243
151926,211968,245454,-4.6241296745,6.1112689204,-6.269195212,1244
151982,212014,245476,-4.6241296745,6.1112689204,-6.269195212,1245
152066,211997,245460,-4.6241296745,6.1112689204,-6.269195212,1246
152158,212033,245497,-4.6241296745,6.1112689204,-6.269195212,1247
151232,211838,245297,-4.6660040700000005,6.101697629999999,-6.245266986000001,1248
151431,211824,245394,-4.6660040700000005,6.101697629999999,-6.245266986000001,1249
151444,211822,245384,-4.6660040700000005,6.101697629999999,-6.245266986000001,1250
151611,211861,245362,-4.6660040700000005,6.101697629999999,-6.245266986000001,1251
151702,211888,245385,-4.6660040700000005,6.101697629999999,-6.245266986000001,1252
151773,211880,245400,-4.6660040700000005,6.101697629999999,-6.245266986000001,1253
151853,211943,245375,-4.6660040700000005,6.101697629999999,-6.245266986000001,1254
152051,211967,245421,-4.6660040700000005,6.101697629999999,-6.245266986000001,1255
152016,211958,245451,-4.6660040700000005,6.101697629999999,-6.245266986000001,1256
152233,211984,245509,-4.6660040700000005,6.101697629999999,-6.245266986000001,1257
152185,212024,245497,-4.6660040700000005,6.101697629999999,-6.245266986000001,1258
152273,212037,245478,-4.6660040700000005,6.101697629999999,-6.245266986000001,1259
152539,212090,245536,-4.6660040700000005,6.101697629999999,-6.245266986000001,1260
152433,212069,245507,-4.6660040700000005,6.101697629999999,-6.245266986000001,1261
152097,211913,245401,-4.6660040700000005,6.101697629999999,-6.245266986000001,1262
151343,211715,245260,-4.6660040700000005,6.101697629999999,-6.245266986000001,1263
150731,211626,245143,-4.6660040700000005,6.101697629999999,-6.245266986000001,1264
150447,211595,245190,-4.6660040700000005,6.101697629999999,-6.245266986000001,1265
150455,211573,245204,-4.6660040700000005,6.101697629999999,-6.245266986000001,1266
150556,211642,245230,-4.6660040700000005,6.101697629999999,-6.245266986000001,1267
150764,211701,245283,-4.6660040700000005,6.101697629999999,-6.245266986000001,1268
150972,211747,245310,-4.6660040700000005,6.101697629999999,-6.245266986000001,1269
151117,211782,245294,-4.6660040700000005,6.101697629999999,-6.245266986000001,1270
151269,211792,245304,-4.6660040700000005,6.101697629999999,-6.245266986000001,1271
151335,211777,245364,-4.6660040700000005,6.101697629999999,-6.245266986000001,1272
151386,211845,245308,-4.6660040700000005,6.101697629999999,-6.245266986000001,1273
151489,211811,245345,-4.6660040700000005,6.101697629999999,-6.245266986000001,1274
151595,211839,245339,-4.6660040700000005,6.101697629999999,-6.245266986000001,1275
151710,211863,245413,-4.6660040700000005,6.101697629999999,-6.245266986000001,1276
151807,211880,245403,-4.6660040700000005,6.101697629999999,-6.245266986000001,1277
151905,211925,245446,-4.6660040700000005,6.101697629999999,-6.245266986000001,1278
151990,211975,245413,-4.6660040700000005,6.101697629999999,-6.245266986000001,1279
152103,211999,245434,-4.6660040700000005,6.101697629999999,-6.245266986000001,1280
152343,211998,245476,-4.6660040700000005,6.101697629999999,-6.245266986000001,1281
152279,212030,245467,-4.6660040700000005,6.101697629999999,-6.245266986000001,1282
152376,212040,245525,-4.6660040700000005,6.101697629999999,-6.245266986000001,1283
152468,212089,245538,-4.6660040700000005,6.101697629999999,-6.245266986000001,1284
152361,211982,245432,-4.6660040700000005,6.101697629999999,-6.245266986000001,1285
151712,211777,245291,-4.6660040700000005,6.101697629999999,-6.245266986000001,1286
151024,211646,245201,-4.6660040700000005,6.101697629999999,-6.245266986000001,1287
150737,211627,245182,-4.6660040700000005,6.101697629999999,-6.245266986000001,1288
150530,211643,245166,-4.6660040700000005,6.101697629999999,-6.245266986000001,1289
151825,211914,245428,-4.8610191119,6.0107703712000005,-6.216553114800001,1290
152090,211918,245390,-4.8610191119,6.0107703712000005,-6.216553114800001,1291
152152,211958,245447,-4.8610191119,6.0107703712000005,-6.216553114800001,1292
152335,211987,245439,-4.8610191119,6.0107703712000005,-6.216553114800001,1293
152408,211997,245463,-4.8610191119,6.0107703712000005,-6.216553114800001,1294
152294,211996,245509,-4.8610191119,6.0107703712000005,-6.216553114800001,1295
152538,212038,245491,-4.8610191119,6.0107703712000005,-6.216553114800001,1296
152363,212017,245483,-4.8610191119,6.0107703712000005,-6.216553114800001,1297
151938,211849,245344,-4.8610191119,6.0107703712000005,-6.216553114800001,1298
151268,211699,245204,-4.8610191119,6.0107703712000005,-6.216553114800001,1299
150646,211603,245118,-4.8610191119,6.0107703712000005,-6.216553114800001,1300
150437,211609,245167,-4.8610191119,6.0107703712000005,-6.216553114800001,1301
150509,211622,245133,-4.8610191119,6.0107703712000005,-6.216553114800001,1302
150619,211641,245197,-4.8610191119,6.0107703712000005,-6.216553114800001,1303
150857,211679,245252,-4.8610191119,6.0107703712000005,-6.216553114800001,1304
150999,211753,245269,-4.8610191119,6.0107703712000005,-6.216553114800001,1305
151185,211727,245330,-4.8610191119,6.0107703712000005,-6.216553114800001,1306
151354,211783,245297,-4.8610191119,6.0107703712000005,-6.216553114800001,1307
151410,211804,245282,-4.8610191119,6.0107703712000005,-6.216553114800001,1308
151388,211810,245266,-4.8610191119,6.0107703712000005,-6.216553114800001,1309
151454,211812,245327,-4.8610191119,6.0107703712000005,-6.216553114800001,1310
151578,211828,245354,-4.8610191119,6.0107703712000005,-6.216553114800001,1311
151650,211833,245365,-4.8610191119,6.0107703712000005,-6.216553114800001,1312
151765,211885,245380,-4.8610191119,6.0107703712000005,-6.216553114800001,1313
151883,211939,245393,-4.8610191119,6.0107703712000005,-6.216553114800001,1314
151988,211963,245479,-4.8610191119,6.0107703712000005,-6.216553114800001,1315
152119,211965,245401,-4.8610191119,6.0107703712000005,-6.216553114800001,1316
152155,211983,245478,-4.8610191119,6.0107703712000005,-6.216553114800001,1317
152289,211988,245485,-4.8610191119,6.0107703712000005,-6.216553114800001,1318
152365,211998,245488,-4.8610191119,6.0107703712000005,-6.216553114800001,1319
152608,212056,245515,-4.8610191119,6.0107703712000005,-6.216553114800001,1320
152509,212051,245493,-4.8610191119,6.0107703712000005,-6.216553114800001,1321
152257,211914,245380,-4.8610191119,6.0107703712000005,-6.216553114800001,1322
151554,211729,245289,-4.8610191119,6.0107703712000005,-6.216553114800001,1323
150874,211656,245195,-4.8610191119,6.0107703712000005,-6.216553114800001,1324
150587,211630,245197,-4.8610191119,6.0107703712000005,-6.216553114800001,1325
150509,211591,245196,-4.8610191119,6.0107703712000005,-6.216553114800001,1326
150569,211652,245189,-4.8610191119,6.0107703712000005,-6.216553114800001,1327
150803,211660,245265,-4.8610191119,6.0107703712000005,-6.216553114800001,1328
151038,211770,245261,-4.8610191119,6.0107703712000005,-6.216553114800001,1329
151331,211790,245340,-4.8610191119,6.0107703712000005,-6.216553114800001,1330
151304,211794,245340,-4.8610191119,6.0107703712000005,-6.216553114800001,1331
152890,212141,245558,-4.7042892316,6.0646088797,-6.2177495260999995,1332
152754,211959,245432,-4.7042892316,6.0646088797,-6.2177495260999995,1333
152003,211782,245292,-4.7042892316,6.0646088797,-6.2177495260999995,1334
151661,211748,245273,-4.7042892316,6.0646088797,-6.2177495260999995,1335
151637,211749,245271,-4.7042892316,6.0646088797,-6.2177495260999995,1336
151569,211731,245303,-4.7042892316,6.0646088797,-6.2177495260999995,1337
151714,211815,245352,-4.7042892316,6.0646088797,-6.2177495260999995,1338
151873,211874,245349,-4.7042892316,6.0646088797,-6.2177495260999995,1339
152000,211889,245394,-4.7042892316,6.0646088797,-6.2177495260999995,1340
152174,211953,245472,-4.7042892316,6.0646088797,-6.2177495260999995,1341
152292,211910,245439,-4.7042892316,6.0646088797,-6.2177495260999995,1342
152223,211919,245437,-4.7042892316,6.0646088797,-6.2177495260999995,1343
152201,211963,245416,-4.7042892316,6.0646088797,-6.2177495260999995,1344
152286,211934,245433,-4.7042892316,6.0646088797,-6.2177495260999995,1345
152439,212027,245448,-4.7042892316,6.0646088797,-6.2177495260999995,1346
152424,212001,245456,-4.7042892316,6.0646088797,-6.2177495260999995,1347
152608,212026,245469,-4.7042892316,6.0646088797,-6.2177495260999995,1348
152904,212041,245495,-4.7042892316,6.0646088797,-6.2177495260999995,1349
152675,212078,245527,-4.7042892316,6.0646088797,-6.2177495260999995,1350
152865,212085,245536,-4.7042892316,6.0646088797,-6.2177495260999995,1351
153013,212154,245561,-4.7042892316,6.0646088797,-6.2177495260999995,1352
152983,212151,245587,-4.7042892316,6.0646088797,-6.2177495260999995,1353
153056,212195,245599,-4.7042892316,6.0646088797,-6.2177495260999995,1354
152874,212057,245463,-4.7042892316,6.0646088797,-6.2177495260999995,1355
152283,211848,245313,-4.7042892316,6.0646088797,-6.2177495260999995,1356
151674,211727,245318,-4.7042892316,6.0646088797,-6.2177495260999995,1357
151420,211756,245277,-4.7042892316,6.0646088797,-6.2177495260999995,1358
151333,211732,245221,-4.7042892316,6.0646088797,-6.2177495260999995,1359
151419,211751,245241,-4.7042892316,6.0646088797,-6.2177495260999995,1360
151583,211814,245277,-4.7042892316,6.0646088797,-6.2177495260999995,1361
151736,211818,245327,-4.7042892316,6.0646088797,-6.2177495260999995,1362
151940,211876,245365,-4.7042892316,6.0646088797,-6.2177495260999995,1363
152016,211865,245441,-4.7042892316,6.0646088797,-6.2177495260999995,1364
152078,211886,245386,-4.7042892316,6.0646088797,-6.2177495260999995,1365
152132,211908,245413,-4.7042892316,6.0646088797,-6.2177495260999995,1366
152241,211925,245408,-4.7042892316,6.0646088797,-6.2177495260999995,1367
152298,211932,245434,-4.7042892316,6.0646088797,-6.2177495260999995,1368
152387,211933,245429,-4.7042892316,6.0646088797,-6.2177495260999995,1369
152472,212003,245440,-4.7042892316,6.0646088797,-6.2177495260999995,1370
152536,212024,245441,-4.7042892316,6.0646088797,-6.2177495260999995,1371
152650,212017,245470,-4.7042892316,6.0646088797,-6.2177495260999995,1372
152725,212086,245514,-4.7042892316,6.0646088797,-6.2177495260999995,1373
153144,212115,245555,-4.7090748768,6.1722858967,-6.3792650516,1374
153144,212128,245507,-4.7090748768,6.1722858967,-6.3792650516,1375
152707,211932,245361,-4.7090748768,6.1722858967,-6.3792650516,1376
152142,211748,245264,-4.7090748768,6.1722858967,-6.3792650516,1377
151728,211680,245188,-4.7090748768,6.1722858967,-6.3792650516,1378
151293,211681,245150,-4.7090748768,6.1722858967,-6.3792650516,1379
151267,211671,245249,-4.7090748768,6.1722858967,-6.3792650516,1380
151383,211714,245204,-4.7090748768,6.1722858967,-6.3792650516,1381
151687,211738,245274,-4.7090748768,6.1722858967,-6.3792650516,1382
151740,211780,245287,-4.7090748768,6.1722858967,-6.3792650516,1383
152116,211839,245295,-4.7090748768,6.1722858967,-6.3792650516,1384
152114,211832,245306,-4.7090748768,6.1722858967,-6.3792650516,1385
152040,211828,245364,-4.7090748768,6.1722858967,-6.3792650516,1386
152010,211856,245367,-4.7090748768,6.1722858967,-6.3792650516,1387
152113,211895,245339,-4.7090748768,6.1722858967,-6.3792650516,1388
152154,211868,245426,-4.7090748768,6.1722858967,-6.3792650516,1389
152316,211915,245364,-4.7090748768,6.1722858967,-6.3792650516,1390
152362,211987,245380,-4.7090748768,6.1722858967,-6.3792650516,1391
152686,211986,245429,-4.7090748768,6.1722858967,-6.3792650516,1392
152734,211988,245447,-4.7090748768,6.1722858967,-6.3792650516,1393
152655,212030,245451,-4.7090748768,6.1722858967,-6.3792650516,1394
152747,212054,245413,-4.7090748768,6.1722858967,-6.3792650516,1395
152839,212057,245486,-4.7090748768,6.1722858967,-6.3792650516,1396
152906,212069,245515,-4.7090748768,6.1722858967,-6.3792650516,1397
152874,212028,245469,-4.7090748768,6.1722858967,-6.3792650516,1398
152420,211860,245340,-4.7090748768,6.1722858967,-6.3792650516,1399
151682,211719,245185,-4.7090748768,6.1722858967,-6.3792650516,1400
151262,211619,245164,-4.7090748768,6.1722858967,-6.3792650516,1401
151101,211635,245143,-4.7090748768,6.1722858967,-6.3792650516,1402
151132,211644,245170,-4.7090748768,6.1722858967,-6.3792650516,1403
151281,211724,245208,-4.7090748768,6.1722858967,-6.3792650516,1404
151479,211734,245273,-4.7090748768,6.1722858967,-6.3792650516,1405
151672,211788,245287,-4.7090748768,6.1722858967,-6.3792650516,1406
151831,211800,245302,-4.7090748768,6.1722858967,-6.3792650516,1407
151843,211810,245326,-4.7090748768,6.1722858967,-6.3792650516,1408
151957,211823,245320,-4.7090748768,6.1722858967,-6.3792650516,1409
151998,211818,245324,-4.7090748768,6.1722858967,-6.3792650516,1410
152094,211853,245344,-4.7090748768,6.1722858967,-6.3792650516,1411
152235,211892,245369,-4.7090748768,6.1722858967,-6.3792650516,1412
152296,211885,245388,-4.7090748768,6.1722858967,-6.3792650516,1413
152371,211963,245406,-4.7090748768,6.1722858967,-6.3792650516,1414
152486,211973,245352,-4.7090748768,6.1722858967,-6.3792650516,1415
152661,212053,245471,-4.705485642899999,6.0729837587999995,-6.2177495260999995,1416
152772,212053,245458,-4.705485642899999,6.0729837587999995,-6.2177495260999995,1417
152877,212069,245473,-4.705485642899999,6.0729837587999995,-6.2177495260999995,1418
152912,212088,245512,-4.705485642899999,6.0729837587999995,-6.2177495260999995,1419
153054,212093,245534,-4.705485642899999,6.0729837587999995,-6.2177495260999995,1420
152832,212005,245436,-4.705485642899999,6.0729837587999995,-6.2177495260999995,1421
152303,211847,245302,-4.705485642899999,6.0729837587999995,-6.2177495260999995,1422
151681,211701,245201,-4.705485642899999,6.0729837587999995,-6.2177495260999995,1423
151325,211672,245239,-4.705485642899999,6.0729837587999995,-6.2177495260999995,1424
151293,211704,245207,-4.705485642899999,6.0729837587999995,-6.2177495260999995,1425
151324,211677,245232,-4.705485642899999,6.0729837587999995,-6.2177495260999995,1426
151485,211752,245227,-4.705485642899999,6.0729837587999995,-6.2177495260999995,1427
151641,211820,245295,-4.705485642899999,6.0729837587999995,-6.2177495260999995,1428
151794,211828,245304,-4.705485642899999,6.0729837587999995,-6.2177495260999995,1429
151931,211835,245360,-4.705485642899999,6.0729837587999995,-6.2177495260999995,1430
151993,211844,245328,-4.705485642899999,6.0729837587999995,-6.2177495260999995,1431
152052,211898,245378,-4.705485642899999,6.0729837587999995,-6.2177495260999995,1432
152089,211895,245357,-4.705485642899999,6.0729837587999995,-6.2177495260999995,1433
152188,211920,245386,-4.705485642899999,6.0729837587999995,-6.2177495260999995,1434
152266,211919,245365,-4.705485642899999,6.0729837587999995,-6.2177495260999995,1435
152345,211968,245352,-4.705485642899999,6.0729837587999995,-6.2177495260999995,1436
152471,212003,245387,-4.705485642899999,6.0729837587999995,-6.2177495260999995,1437
152564,212016,245446,-4.705485642899999,6.0729837587999995,-6.2177495260999995,1438
152643,212004,245483,-4.705485642899999,6.0729837587999995,-6.2177495260999995,1439
152729,212053,245495,-4.705485642899999,6.0729837587999995,-6.2177495260999995,1440
152805,212074,245483,-4.705485642899999,6.0729837587999995,-6.2177495260999995,1441
152898,212081,245515,-4.705485642899999,6.0729837587999995,-6.2177495260999995,1442
152980,212130,245535,-4.705485642899999,6.0729837587999995,-6.2177495260999995,1443
152991,212147,245545,-4.705485642899999,6.0729837587999995,-6.2177495260999995,1444
152794,212014,245426,-4.705485642899999,6.0729837587999995,-6.2177495260999995,1445
152191,211815,245276,-4.705485642899999,6.0729837587999995,-6.2177495260999995,1446
151614,211708,245243,-4.705485642899999,6.0729837587999995,-6.2177495260999995,1447
151359,211708,245189,-4.705485642899999,6.0729837587999995,-6.2177495260999995,1448
151332,211725,245180,-4.705485642899999,6.0729837587999995,-6.2177495260999995,1449
151436,211746,245226,-4.705485642899999,6.0729837587999995,-6.2177495260999995,1450
151634,211827,245293,-4.705485642899999,6.0729837587999995,-6.2177495260999995,1451
151826,211859,245291,-4.705485642899999,6.0729837587999995,-6.2177495260999995,1452
151970,211893,245353,-4.705485642899999,6.0729837587999995,-6.2177495260999995,1453
152058,211860,245358,-4.705485642899999,6.0729837587999995,-6.2177495260999995,1454
152158,211901,245350,-4.705485642899999,6.0729837587999995,-6.2177495260999995,1455
152189,211889,245328,-4.705485642899999,6.0729837587999995,-6.2177495260999995,1456
152253,211908,245347,-4.705485642899999,6.0729837587999995,-6.2177495260999995,1457
151305,211726,245217,-4.7042892316,6.272784445899999,-6.272784445899999,1458
151497,211756,245274,-4.7042892316,6.272784445899999,-6.272784445899999,1459
151631,211807,245306,-4.7042892316,6.272784445899999,-6.272784445899999,1460
151812,211819,245320,-4.7042892316,6.272784445899999,-6.272784445899999,1461
151860,211832,245351,-4.7042892316,6.272784445899999,-6.272784445899999,1462
151913,211859,245369,-4.7042892316,6.272784445899999,-6.272784445899999,1463
152113,211871,245307,-4.7042892316,6.272784445899999,-6.272784445899999,1464
151965,211891,245324,-4.7042892316,6.272784445899999,-6.272784445899999,1465
152140,211887,245342,-4.7042892316,6.272784445899999,-6.272784445899999,1466
152265,211890,245385,-4.7042892316,6.272784445899999,-6.272784445899999,1467
152403,211939,245392,-4.7042892316,6.272784445899999,-6.272784445899999,1468
152458,211942,245445,-4.7042892316,6.272784445899999,-6.272784445899999,1469
152567,212017,245461,-4.7042892316,6.272784445899999,-6.272784445899999,1470
152626,212010,245464,-4.7042892316,6.272784445899999,-6.272784445899999,1471
152663,212041,245469,-4.7042892316,6.272784445899999,-6.272784445899999,1472
152768,212100,245491,-4.7042892316,6.272784445899999,-6.272784445899999,1473
152835,212137,245522,-4.7042892316,6.272784445899999,-6.272784445899999,1474
152673,211988,245401,-4.7042892316,6.272784445899999,-6.272784445899999,1475
152141,211830,245300,-4.7042892316,6.272784445899999,-6.272784445899999,1476
151458,211673,245192,-4.7042892316,6.272784445899999,-6.272784445899999,1477
151108,211687,245144,-4.7042892316,6.272784445899999,-6.272784445899999,1478
151007,211635,245187,-4.7042892316,6.272784445899999,-6.272784445899999,1479
151113,211664,245184,-4.7042892316,6.272784445899999,-6.272784445899999,1480
151270,211695,245213,-4.7042892316,6.272784445899999,-6.272784445899999,1481
151515,211782,245268,-4.7042892316,6.272784445899999,-6.272784445899999,1482
151685,211788,245267,-4.7042892316,6.272784445899999,-6.272784445899999,1483
151792,211848,245331,-4.7042892316,6.272784445899999,-6.272784445899999,1484
151878,211838,245313,-4.7042892316,6.272784445899999,-6.272784445899999,1485
151926,211863,245315,-4.7042892316,6.272784445899999,-6.272784445899999,1486
151998,211840,245303,-4.7042892316,6.272784445899999,-6.272784445899999,1487
152066,211876,245323,-4.7042892316,6.272784445899999,-6.272784445899999,1488
152195,211902,245318,-4.7042892316,6.272784445899999,-6.272784445899999,1489
152275,211947,245340,-4.7042892316,6.272784445899999,-6.272784445899999,1490
152409,211932,245387,-4.7042892316,6.272784445899999,-6.272784445899999,1491
152488,211971,245395,-4.7042892316,6.272784445899999,-6.272784445899999,1492
152546,212006,245438,-4.7042892316,6.272784445899999,-6.272784445899999,1493
152630,212009,245430,-4.7042892316,6.272784445899999,-6.272784445899999,1494
152737,212045,245480,-4.7042892316,6.272784445899999,-6.272784445899999,1495
152814,212064,245456,-4.7042892316,6.272784445899999,-6.272784445899999,1496
152743,212072,245493,-4.7042892316,6.272784445899999,-6.272784445899999,1497
152447,211877,245326,-4.7042892316,6.272784445899999,-6.272784445899999,1498
151756,211711,245202,-4.7042892316,6.272784445899999,-6.272784445899999,1499
152178,211827,245297,-4.5296131818,6.1160545656,-6.2883377928,1500
152089,211872,245340,-4.5296131818,6.1160545656,-6.2883377928,1501
152342,211906,245353,-4.5296131818,6.1160545656,-6.2883377928,1502
152235,211941,245339,-4.5296131818,6.1160545656,-6.2883377928,1503
152392,211962,245382,-4.5296131818,6.1160545656,-6.2883377928,1504
152389,211940,245384,-4.5296131818,6.1160545656,-6.2883377928,1505
152542,211979,245450,-4.5296131818,6.1160545656,-6.2883377928,1506
152596,212005,245435,-4.5296131818,6.1160545656,-6.2883377928,1507
152874,212040,245463,-4.5296131818,6.1160545656,-6.2883377928,1508
152754,212034,245537,-4.5296131818,6.1160545656,-6.2883377928,1509
152903,212076,245508,-4.5296131818,6.1160545656,-6.2883377928,1510
152911,212089,245515,-4.5296131818,6.1160545656,-6.2883377928,1511
152416,211903,245387,-4.5296131818,6.1160545656,-6.2883377928,1512
151891,211728,245218,-4.5296131818,6.1160545656,-6.2883377928,1513
151410,211697,245187,-4.5296131818,6.1160545656,-6.2883377928,1514
151267,211651,245122,-4.5296131818,6.1160545656,-6.2883377928,1515
151295,211682,245230,-4.5296131818,6.1160545656,-6.2883377928,1516
151416,211744,245255,-4.5296131818,6.1160545656,-6.2883377928,1517
151638,211792,245287,-4.5296131818,6.1160545656,-6.2883377928,1518
151821,211838,245316,-4.5296131818,6.1160545656,-6.2883377928,1519
151985,211840,245334,-4.5296131818,6.1160545656,-6.2883377928,1520
152011,211877,245389,-4.5296131818,6.1160545656,-6.2883377928,1521
152107,211896,245290,-4.5296131818,6.1160545656,-6.2883377928,1522
152177,211892,245376,-4.5296131818,6.1160545656,-6.2883377928,1523
152253,211906,245417,-4.5296131818,6.1160545656,-6.2883377928,1524
152319,211905,245376,-4.5296131818,6.1160545656,-6.2883377928,1525
152365,211969,245399,-4.5296131818,6.1160545656,-6.2883377928,1526
152517,211967,245394,-4.5296131818,6.1160545656,-6.2883377928,1527
152606,211980,245424,-4.5296131818,6.1160545656,-6.2883377928,1528
152639,212036,245434,-4.5296131818,6.1160545656,-6.2883377928,1529
152772,212044,245485,-4.5296131818,6.1160545656,-6.2883377928,1530
152835,212083,245458,-4.5296131818,6.1160545656,-6.2883377928,1531
152852,212059,245513,-4.5296131818,6.1160545656,-6.2883377928,1532
152466,211899,245348,-4.5296131818,6.1160545656,-6.2883377928,1533
151782,211719,245198,-4.5296131818,6.1160545656,-6.2883377928,1534
151258,211646,245154,-4.5296131818,6.1160545656,-6.2883377928,1535
151030,211630,245161,-4.5296131818,6.1160545656,-6.2883377928,1536
151055,211627,245145,-4.5296131818,6.1160545656,-6.2883377928,1537
151144,211678,245219,-4.5296131818,6.1160545656,-6.2883377928,1538
151354,211748,245201,-4.5296131818,6.1160545656,-6.2883377928,1539
151577,211791,245256,-4.5296131818,6.1160545656,-6.2883377928,1540
