green,red,IR,acc_x,acc_y,acc_z,sample_index
75786,191899,225406,5.8576297248,-7.320840744700001,3.0963124444,1
75908,191917,225452,5.8612189587,-7.125825702799999,3.2291140987,2
76137,191945,225516,5.9282179915,-7.282555583100001,3.2051858726999995,3
76394,192013,225563,5.9042897655,-7.2346991311,3.1872397032,4
76659,192079,225621,5.9952170243,-7.274180704,3.2243284535,5
76914,192110,225618,5.856433313499999,-7.2598237683999995,3.1968109935999998,6
77143,192187,225689,5.8767723056,-7.1928247355999995,3.1920253483999996,7
77368,192199,225690,5.8803615395,-7.0683979604,3.3535408739,8
77593,192289,225739,5.7954163372,-7.0935225977,3.2626136151000003,9
77818,192323,225730,5.9102718219999995,-7.1880390904,3.3200413575,10
78022,192334,225786,5.7714881112,-7.2394847763,3.1393832512,11
78242,192478,225860,6.0191452503,-7.2203421955,3.23031051,12
78428,192481,225866,5.844469200500001,-7.1497539288,3.2530423247,13
78614,192456,225925,5.9150574672000005,-7.183253445199999,3.0963124444,14
78790,192588,225949,5.8480584344,-7.1796642112999995,3.23031051,15
78927,192552,225930,5.8241302084,-7.1222364689,3.3343982931,16
78620,192543,225886,5.9473605723,-7.2598237683999995,3.2159535744,17
77368,192338,225779,5.9282179915,-7.130611348,3.3631121643,18
75922,192031,225553,5.8576297248,-7.1593252192,3.2159535744,19
75171,191870,225424,5.856433313499999,-7.198806792099999,3.158525832,20
75084,191825,225402,5.7810594016,-7.2179493729,3.2685956716,21
75345,191872,225362,5.8528440796,-7.1365934045,3.2027930501,22
75746,191870,225502,5.8289158536,-7.240681187599999,3.2111679291999997,23
76157,191952,225517,5.9377892819,-7.1126651784999995,3.2410782117,24
76576,192015,225536,5.9198431124,-6.993024048500001,3.1968109935999998,25
76820,192063,225553,5.86241537,-7.1437718723,3.3020951879999996,26
76849,192077,225559,6.009573959900001,-7.1342005819,3.2159535744,27
76713,192116,225540,5.9916277904,-7.0121666293,3.2590243811999997,28
76566,192031,225543,5.9569318627,-7.0923261864,3.1776684127999997,29
76507,191959,225543,5.9294144028,-7.1724857435,3.1920253483999996,30
76607,192034,225550,5.9090754107,-7.106683122,3.2207392196,31
76809,191963,225617,5.8097732728,-7.282555583100001,3.2769705507,32
77052,192105,225596,5.9054861768,-7.334001269,3.2961131315000003,33
77325,192161,225680,5.8145589179999995,-7.2598237683999995,3.2697920829,34
77591,192224,225696,5.8911292412,-7.183253445199999,3.2769705507,35
77856,192313,225741,5.967699564399999,-7.0935225977,3.2685956716,36
78104,192320,225759,5.8959148864,-7.0779692508,3.2542387359999996,37
78316,192427,225771,5.9102718219999995,-7.1736821548,3.3104700671000002,38
78513,192415,225823,5.967699564399999,-7.1401826384,3.2913274863,39
78719,192489,225849,5.6853464976,-7.0265235649,3.1405796625,40
78896,192504,225872,5.7678988773,-7.1497539288,3.3020951879999996,41
79047,192569,225935,5.818148151899999,-7.2107709050999995,3.2207392196,42
79189,192620,225897,5.9102718219999995,-7.2693950588,3.3068808331999997,43
79284,192634,225929,5.938985693199999,-7.1030938881,3.2733813167999997,44
78822,192565,225880,5.838487144,-7.0683979604,3.2075786953,45
77597,192343,225694,5.942574927099999,-7.2071816712,3.2733813167999997,46
76400,192087,225561,5.871986660399999,-6.9690958225,3.2350961552,47
75873,191975,225521,5.8576297248,-7.183253445199999,3.2817561959000003,48
75917,191983,225494,5.938985693199999,-7.088736952500001,3.2542387359999996,49
76243,192019,225552,5.7296137157,-7.1174508237000005,3.1680971224,50
76691,192072,225547,5.9198431124,-7.202396026,3.2386853891,51
77163,192135,225565,5.8480584344,-7.1162544124,3.3296126479000003,52
77532,192232,225642,5.766702466,-7.1342005819,3.2015966388,53
77664,192243,225647,5.7678988773,-7.1114687672,3.2542387359999996,54
77551,192234,225658,5.9186467011,-7.170092920899999,3.158525832,55
77341,192201,225633,5.7260244818,-7.0205415084,3.2446674455999998,56
77199,192160,225638,6.0047883147,-6.9798635242,3.2015966388,57
77178,192150,225582,5.8013983936999995,-7.221538606799999,3.2542387359999996,58
77281,192157,225637,5.778666579,-7.1461646949,3.3056844219,59
77457,192172,225632,5.8109696841,-7.1018974768000005,3.2829526072,60
77289,192192,225603,5.8959148864,-7.106683122,3.3631121643,61
76406,191991,225483,5.8779687169,-7.1162544124,3.1968109935999998,62
75370,191771,225310,5.9904313791,-6.9690958225,3.278166962,63
74853,191663,225272,5.9808600887,-7.0121666293,3.2159535744,64
74835,191628,225214,5.8767723056,-7.106683122,3.2578279699,65
75085,191609,225242,5.7343993608999995,-7.202396026,3.2829526072,66
75457,191722,225279,6.0011990808,-7.0971118315999995,3.2733813167999997,67
75894,191773,225328,5.8337014988,-7.1485575175,3.2733813167999997,68
76302,191803,225406,5.7714881112,-7.1126651784999995,3.2494530908,69
76482,191880,225419,5.8420763779,-7.1030938881,3.2494530908,70
76400,191835,225418,5.9868421452,-7.2646094136,3.2530423247,71
76292,191775,225385,5.9784672661,-7.0791656621,3.2961131315000003,72
76170,191805,225412,5.7810594016,-7.082754896,3.2446674455999998,73
76205,191814,225349,5.7822558129,-7.2107709050999995,3.3020951879999996,74
76411,191846,225418,5.6961141993,-7.2203421955,3.3583265191000002,75
76606,191901,225473,5.7954163372,-7.2167529616,3.2398818003999996,76
76865,191980,225495,5.9246287576,-7.0923261864,3.2111679291999997,77
77095,192024,225540,5.9377892819,-7.158128807899999,3.326023414,78
77314,192020,225578,5.777470167700001,-7.018148685799999,3.2817561959000003,79
77526,192134,225620,5.720042425300001,-7.138986227099999,3.3164521235999995,80
77751,192091,225596,5.858826136099999,-7.0648087265,3.2961131315000003,81
77961,192191,225678,5.9497533949,-7.0540410248,3.2350961552,82
78131,192207,225681,5.871986660399999,-7.1688965096,3.2925238975999997,83
78293,192306,225753,5.790630692000001,-7.1928247355999995,3.2494530908,84
78482,192302,225771,5.9150574672000005,-7.1497539288,3.2530423247,85
78660,192355,225776,5.9377892819,-7.045666145699999,3.2446674455999998,86
78793,192415,225833,5.9569318627,-7.1593252192,3.1968109935999998,87
78939,192427,225808,5.8815579507999995,-7.0504517909,3.23031051,88
79093,192494,225851,5.806184038900001,-7.1497539288,3.2123643404999997,89
79224,192515,225903,5.8660046039,-7.1976103808000005,3.2961131315000003,90
79372,192557,225902,5.871986660399999,-7.1210400576,3.3008987767,91
79532,192603,225935,5.9377892819,-7.1449682836,3.3439695835000003,92
79689,192571,225958,5.9952170243,-7.1210400576,3.2482566795000003,93
79805,192667,225969,6.025127306799999,-7.198806792099999,3.1968109935999998,94
79883,192651,225971,5.9090754107,-7.1916283243,3.3164521235999995,95
79250,192559,225893,5.6853464976,-7.0983082429,3.158525832,96
77529,192277,225683,6.0610196458,-7.1928247355999995,3.2398818003999996,97
75821,191892,225367,6.0143596051,-7.154539573999999,3.2004002275,98
74971,191698,225289,6.1292150899,-7.1018974768000005,3.2147571631,99
74775,191595,225199,5.9150574672000005,-7.1162544124,3.134597606,100
74929,191588,225210,5.8576297248,-7.045666145699999,3.23031051,101
75183,191635,225244,5.942574927099999,-7.1784678,3.2685956716,102
75470,191596,225257,5.844469200500001,-7.278966349199999,3.134597606,103
75714,191691,225280,5.942574927099999,-7.1748785661,3.1441688964,104
75881,191670,225207,5.8767723056,-6.9942204598,3.2015966388,105
75831,191676,225240,5.934200048,-7.0552374361,3.1489545415999998,106
75696,191598,225260,5.8827543621,-7.154539573999999,3.2733813167999997,107
75524,191578,225208,5.913861055899999,-7.088736952500001,3.23031051,108
75490,191537,225222,6.1196437994999995,-7.082754896,3.1441688964,109
75601,191647,225202,5.9282179915,-7.155735985300001,3.1680971224,110
75808,191630,225254,5.8528440796,-7.225127840700001,3.1537401868,111
76046,191664,225289,5.9054861768,-7.2071816712,3.1872397032,112
76327,191738,225307,5.934200048,-7.1162544124,3.1884361145,113
76566,191773,225371,6.000002669500001,-7.1401826384,3.1776684127999997,114
76813,191798,225364,5.9485569836,-7.1880390904,3.2578279699,115
77026,191888,225414,5.9246287576,-7.1162544124,3.2446674455999998,116
77236,191911,225452,5.8803615395,-7.1222364689,3.1968109935999998,117
77410,191957,225477,5.720042425300001,-7.088736952500001,3.2398818003999996,118
77609,192022,225524,5.8002019824,-7.1736821548,3.3200413575,119
77772,192057,225497,5.8672010152,-7.2167529616,3.2015966388,120
77952,192099,225578,5.8540404909,-7.1880390904,3.2111679291999997,121
78109,192171,225649,5.9904313791,-7.1593252192,3.1776684127999997,122
78251,192191,225699,5.9330036367,-7.087540541199999,3.182454058,123
78420,192249,225679,6.0047883147,-7.2873412283,3.1250263156,124
78563,192241,225679,5.8767723056,-7.1784678,3.2638100264,125
78420,192242,225664,5.7810594016,-7.2837519944,3.2542387359999996,126
77265,192036,225483,5.8995041203,-7.250252477999999,3.1262227269,127
75616,191703,225289,6.0131631938000005,-7.1222364689,3.1166514365,128
74525,191432,225112,5.9473605723,-7.1593252192,3.2350961552,129
74176,191345,225040,5.8516476683,-7.0444697344,3.2207392196,130
74300,191321,225052,5.7714881112,-7.183253445199999,3.2685956716,131
74623,191378,225082,6.0562340006,-7.3160550995,3.1633114771999997,132
74990,191420,225160,5.9150574672000005,-7.1736821548,3.2051858726999995,133
75377,191475,225151,5.9150574672000005,-7.1736821548,3.2051858726999995,134
75688,191533,225199,5.9150574672000005,-7.1736821548,3.2051858726999995,135
75796,191565,225199,5.9150574672000005,-7.1736821548,3.2051858726999995,136
75698,191555,225232,5.9150574672000005,-7.1736821548,3.2051858726999995,137
75524,191525,225193,5.9150574672000005,-7.1736821548,3.2051858726999995,138
75431,191479,225181,5.9150574672000005,-7.1736821548,3.2051858726999995,139
75473,191477,225182,5.9150574672000005,-7.1736821548,3.2051858726999995,140
75659,191568,225160,5.9150574672000005,-7.1736821548,3.2051858726999995,141
75929,191585,225262,5.9150574672000005,-7.1736821548,3.2051858726999995,142
76206,191643,225286,5.9150574672000005,-7.1736821548,3.2051858726999995,143
76495,191745,225394,5.9150574672000005,-7.1736821548,3.2051858726999995,144
76765,191764,225371,5.9150574672000005,-7.1736821548,3.2051858726999995,145
77017,191849,225401,5.9150574672000005,-7.1736821548,3.2051858726999995,146
77252,191873,225453,5.9150574672000005,-7.1736821548,3.2051858726999995,147
77479,191899,225470,5.9150574672000005,-7.1736821548,3.2051858726999995,148
77668,191968,225562,5.9150574672000005,-7.1736821548,3.2051858726999995,149
77869,192029,225582,5.9150574672000005,-7.1736821548,3.2051858726999995,150
78070,192074,225588,5.9150574672000005,-7.1736821548,3.2051858726999995,151
78246,192148,225621,5.9150574672000005,-7.1736821548,3.2051858726999995,152
78412,192170,225615,5.9150574672000005,-7.1736821548,3.2051858726999995,153
78539,192182,225632,5.9150574672000005,-7.1736821548,3.2051858726999995,154
78194,192121,225626,5.9150574672000005,-7.1736821548,3.2051858726999995,155
76967,191899,225479,5.9150574672000005,-7.1736821548,3.2051858726999995,156
75657,191668,225281,5.9150574672000005,-7.1736821548,3.2051858726999995,157
75049,191554,225191,5.9150574672000005,-7.1736821548,3.2051858726999995,158
75056,191501,225178,5.9150574672000005,-7.1736821548,3.2051858726999995,159
75396,191541,225211,5.9150574672000005,-7.1736821548,3.2051858726999995,160
75860,191600,225256,5.9150574672000005,-7.1736821548,3.2051858726999995,161
76368,191717,225334,5.9150574672000005,-7.1736821548,3.2051858726999995,162
76811,191792,225391,5.9150574672000005,-7.1736821548,3.2051858726999995,163
77039,191856,225404,5.9150574672000005,-7.1736821548,3.2051858726999995,164
77008,191799,225377,5.9150574672000005,-7.1736821548,3.2051858726999995,165
76795,191804,225363,5.9150574672000005,-7.1736821548,3.2051858726999995,166
76656,191775,225392,5.9150574672000005,-7.1736821548,3.2051858726999995,167
76622,191782,225380,5.9150574672000005,-7.1736821548,3.2051858726999995,168
76704,191766,225348,5.9150574672000005,-7.1736821548,3.2051858726999995,169
76888,191832,225423,5.9150574672000005,-7.1736821548,3.2051858726999995,170
77143,191855,225450,5.9150574672000005,-7.1736821548,3.2051858726999995,171
77420,191906,225497,5.9150574672000005,-7.1736821548,3.2051858726999995,172
77656,191976,225514,5.9150574672000005,-7.1736821548,3.2051858726999995,173
77889,192021,225560,5.9150574672000005,-7.1736821548,3.2051858726999995,174
76211,191665,225261,5.761916820800001,-7.0540410248,3.158525832,175
75079,191428,225059,5.761916820800001,-7.0540410248,3.158525832,176
74700,191276,224990,5.761916820800001,-7.0540410248,3.158525832,177
74773,191275,225013,5.761916820800001,-7.0540410248,3.158525832,178
75015,191284,224970,5.761916820800001,-7.0540410248,3.158525832,179
75312,191337,225029,5.761916820800001,-7.0540410248,3.158525832,180
75610,191376,225072,5.761916820800001,-7.0540410248,3.158525832,181
75913,191446,225125,5.761916820800001,-7.0540410248,3.158525832,182
76041,191448,225102,5.761916820800001,-7.0540410248,3.158525832,183
75989,191420,225107,5.761916820800001,-7.0540410248,3.158525832,184
75852,191412,225056,5.761916820800001,-7.0540410248,3.158525832,185
75768,191374,225103,5.761916820800001,-7.0540410248,3.158525832,186
75819,191389,225122,5.761916820800001,-7.0540410248,3.158525832,187
76008,191428,225101,5.761916820800001,-7.0540410248,3.158525832,188
76225,191462,225155,5.761916820800001,-7.0540410248,3.158525832,189
76492,191533,225217,5.761916820800001,-7.0540410248,3.158525832,190
76777,191561,225250,5.761916820800001,-7.0540410248,3.158525832,191
77021,191648,225320,5.761916820800001,-7.0540410248,3.158525832,192
77264,191667,225332,5.761916820800001,-7.0540410248,3.158525832,193
77475,191723,225376,5.761916820800001,-7.0540410248,3.158525832,194
77687,191799,225431,5.761916820800001,-7.0540410248,3.158525832,195
77863,191803,225446,5.761916820800001,-7.0540410248,3.158525832,196
78059,191848,225451,5.761916820800001,-7.0540410248,3.158525832,197
78220,191887,225504,5.761916820800001,-7.0540410248,3.158525832,198
78367,191936,225514,5.761916820800001,-7.0540410248,3.158525832,199
78529,192003,225573,5.761916820800001,-7.0540410248,3.158525832,200
78353,191948,225512,5.761916820800001,-7.0540410248,3.158525832,201
77231,191756,225324,5.761916820800001,-7.0540410248,3.158525832,202
75591,191445,225145,5.761916820800001,-7.0540410248,3.158525832,203
74568,191235,224989,5.761916820800001,-7.0540410248,3.158525832,204
74303,191148,224912,5.761916820800001,-7.0540410248,3.158525832,205
74450,191138,224920,5.761916820800001,-7.0540410248,3.158525832,206
74762,191152,224935,5.761916820800001,-7.0540410248,3.158525832,207
75122,191200,224955,5.761916820800001,-7.0540410248,3.158525832,208
75474,191309,225027,5.761916820800001,-7.0540410248,3.158525832,209
75787,191323,225064,5.761916820800001,-7.0540410248,3.158525832,210
75886,191348,225109,5.761916820800001,-7.0540410248,3.158525832,211
75826,191339,225079,5.761916820800001,-7.0540410248,3.158525832,212
75717,191343,225089,5.761916820800001,-7.0540410248,3.158525832,213
75691,191339,225069,5.761916820800001,-7.0540410248,3.158525832,214
75777,191335,225060,5.761916820800001,-7.0540410248,3.158525832,215
75986,191375,225119,5.761916820800001,-7.0540410248,3.158525832,216
75600,191131,224844,5.9569318627,-7.226324252,3.2530423247,217
75531,191127,224883,5.9569318627,-7.226324252,3.2530423247,218
75551,191094,224813,5.9569318627,-7.226324252,3.2530423247,219
75676,191154,224841,5.9569318627,-7.226324252,3.2530423247,220
75905,191195,224940,5.9569318627,-7.226324252,3.2530423247,221
76203,191261,224956,5.9569318627,-7.226324252,3.2530423247,222
76480,191344,224988,5.9569318627,-7.226324252,3.2530423247,223
76771,191371,225024,5.9569318627,-7.226324252,3.2530423247,224
77043,191436,225091,5.9569318627,-7.226324252,3.2530423247,225
77309,191479,225099,5.9569318627,-7.226324252,3.2530423247,226
77522,191576,225152,5.9569318627,-7.226324252,3.2530423247,227
77753,191612,225168,5.9569318627,-7.226324252,3.2530423247,228
77975,191655,225240,5.9569318627,-7.226324252,3.2530423247,229
78205,191700,225277,5.9569318627,-7.226324252,3.2530423247,230
78418,191762,225314,5.9569318627,-7.226324252,3.2530423247,231
78642,191844,225356,5.9569318627,-7.226324252,3.2530423247,232
78855,191865,225355,5.9569318627,-7.226324252,3.2530423247,233
78898,191879,225394,5.9569318627,-7.226324252,3.2530423247,234
78158,191749,225270,5.9569318627,-7.226324252,3.2530423247,235
76797,191483,225110,5.9569318627,-7.226324252,3.2530423247,236
75825,191312,224960,5.9569318627,-7.226324252,3.2530423247,237
75572,191209,224927,5.9569318627,-7.226324252,3.2530423247,238
75700,191205,224913,5.9569318627,-7.226324252,3.2530423247,239
76038,191239,224920,5.9569318627,-7.226324252,3.2530423247,240
76417,191342,224944,5.9569318627,-7.226324252,3.2530423247,241
76813,191379,225037,5.9569318627,-7.226324252,3.2530423247,242
77200,191466,225058,5.9569318627,-7.226324252,3.2530423247,243
77418,191501,225102,5.9569318627,-7.226324252,3.2530423247,244
77427,191540,225108,5.9569318627,-7.226324252,3.2530423247,245
77365,191499,225131,5.9569318627,-7.226324252,3.2530423247,246
77361,191492,225099,5.9569318627,-7.226324252,3.2530423247,247
77466,191542,225137,5.9569318627,-7.226324252,3.2530423247,248
77669,191562,225150,5.9569318627,-7.226324252,3.2530423247,249
77923,191607,225192,5.9569318627,-7.226324252,3.2530423247,250
78233,191679,225253,5.9569318627,-7.226324252,3.2530423247,251
78544,191791,225308,5.9569318627,-7.226324252,3.2530423247,252
78866,191842,225339,5.9569318627,-7.226324252,3.2530423247,253
79147,191885,225365,5.9569318627,-7.226324252,3.2530423247,254
79393,191944,225409,5.9569318627,-7.226324252,3.2530423247,255
79673,192026,225500,5.9569318627,-7.226324252,3.2530423247,256
79894,192098,225481,5.9569318627,-7.226324252,3.2530423247,257
80130,192158,225517,5.9569318627,-7.226324252,3.2530423247,258
77014,191881,225201,5.9377892819,-7.154539573999999,3.3020951879999996,259
75478,191586,224926,5.9377892819,-7.154539573999999,3.3020951879999996,260
74650,191413,224827,5.9377892819,-7.154539573999999,3.3020951879999996,261
74498,191326,224745,5.9377892819,-7.154539573999999,3.3020951879999996,262
74682,191324,224778,5.9377892819,-7.154539573999999,3.3020951879999996,263
74978,191348,224788,5.9377892819,-7.154539573999999,3.3020951879999996,264
75284,191392,224821,5.9377892819,-7.154539573999999,3.3020951879999996,265
75627,191447,224893,5.9377892819,-7.154539573999999,3.3020951879999996,266
75884,191533,224932,5.9377892819,-7.154539573999999,3.3020951879999996,267
75971,191491,224951,5.9377892819,-7.154539573999999,3.3020951879999996,268
75903,191507,224901,5.9377892819,-7.154539573999999,3.3020951879999996,269
75804,191498,224920,5.9377892819,-7.154539573999999,3.3020951879999996,270
75851,191455,224935,5.9377892819,-7.154539573999999,3.3020951879999996,271
75988,191513,224945,5.9377892819,-7.154539573999999,3.3020951879999996,272
76205,191580,224991,5.9377892819,-7.154539573999999,3.3020951879999996,273
76494,191581,225000,5.9377892819,-7.154539573999999,3.3020951879999996,274
76804,191682,225085,5.9377892819,-7.154539573999999,3.3020951879999996,275
77116,191784,225116,5.9377892819,-7.154539573999999,3.3020951879999996,276
77393,191819,225144,5.9377892819,-7.154539573999999,3.3020951879999996,277
77657,191870,225193,5.9377892819,-7.154539573999999,3.3020951879999996,278
77910,191934,225244,5.9377892819,-7.154539573999999,3.3020951879999996,279
78158,191995,225267,5.9377892819,-7.154539573999999,3.3020951879999996,280
78384,192008,225362,5.9377892819,-7.154539573999999,3.3020951879999996,281
78615,192126,225360,5.9377892819,-7.154539573999999,3.3020951879999996,282
78811,192164,225392,5.9377892819,-7.154539573999999,3.3020951879999996,283
79026,192190,225407,5.9377892819,-7.154539573999999,3.3020951879999996,284
79210,192258,225462,5.9377892819,-7.154539573999999,3.3020951879999996,285
79438,192304,225461,5.9377892819,-7.154539573999999,3.3020951879999996,286
79428,192338,225504,5.9377892819,-7.154539573999999,3.3020951879999996,287
78623,192145,225358,5.9377892819,-7.154539573999999,3.3020951879999996,288
77285,191883,225199,5.9377892819,-7.154539573999999,3.3020951879999996,289
76433,191725,225044,5.9377892819,-7.154539573999999,3.3020951879999996,290
76214,191647,225052,5.9377892819,-7.154539573999999,3.3020951879999996,291
76402,191663,225023,5.9377892819,-7.154539573999999,3.3020951879999996,292
76741,191714,225083,5.9377892819,-7.154539573999999,3.3020951879999996,293
77106,191758,225086,5.9377892819,-7.154539573999999,3.3020951879999996,294
77489,191825,225179,5.9377892819,-7.154539573999999,3.3020951879999996,295
77809,191893,225193,5.9377892819,-7.154539573999999,3.3020951879999996,296
77989,191923,225226,5.9377892819,-7.154539573999999,3.3020951879999996,297
78014,191965,225257,5.9377892819,-7.154539573999999,3.3020951879999996,298
77956,191939,225250,5.9377892819,-7.154539573999999,3.3020951879999996,299
77962,191944,225217,5.9377892819,-7.154539573999999,3.3020951879999996,300
79272,192045,225298,5.8193445632000005,-7.125825702799999,3.3296126479000003,301
79574,192123,225324,5.8193445632000005,-7.125825702799999,3.3296126479000003,302
79863,192147,225392,5.8193445632000005,-7.125825702799999,3.3296126479000003,303
80102,192207,225422,5.8193445632000005,-7.125825702799999,3.3296126479000003,304
80337,192284,225472,5.8193445632000005,-7.125825702799999,3.3296126479000003,305
80582,192346,225506,5.8193445632000005,-7.125825702799999,3.3296126479000003,306
80805,192392,225507,5.8193445632000005,-7.125825702799999,3.3296126479000003,307
81026,192443,225556,5.8193445632000005,-7.125825702799999,3.3296126479000003,308
81225,192473,225599,5.8193445632000005,-7.125825702799999,3.3296126479000003,309
81451,192516,225612,5.8193445632000005,-7.125825702799999,3.3296126479000003,310
81554,192525,225685,5.8193445632000005,-7.125825702799999,3.3296126479000003,311
81130,192461,225568,5.8193445632000005,-7.125825702799999,3.3296126479000003,312
80176,192313,225468,5.8193445632000005,-7.125825702799999,3.3296126479000003,313
79415,192164,225375,5.8193445632000005,-7.125825702799999,3.3296126479000003,314
79111,192119,225342,5.8193445632000005,-7.125825702799999,3.3296126479000003,315
79166,192106,225340,5.8193445632000005,-7.125825702799999,3.3296126479000003,316
79431,192173,225374,5.8193445632000005,-7.125825702799999,3.3296126479000003,317
79761,192227,225398,5.8193445632000005,-7.125825702799999,3.3296126479000003,318
80124,192297,225411,5.8193445632000005,-7.125825702799999,3.3296126479000003,319
80397,192365,225467,5.8193445632000005,-7.125825702799999,3.3296126479000003,320
80480,192382,225497,5.8193445632000005,-7.125825702799999,3.3296126479000003,321
80391,192360,225496,5.8193445632000005,-7.125825702799999,3.3296126479000003,322
80285,192365,225444,5.8193445632000005,-7.125825702799999,3.3296126479000003,323
80278,192368,225468,5.8193445632000005,-7.125825702799999,3.3296126479000003,324
80319,192385,225485,5.8193445632000005,-7.125825702799999,3.3296126479000003,325
80453,192411,225499,5.8193445632000005,-7.125825702799999,3.3296126479000003,326
80632,192475,225522,5.8193445632000005,-7.125825702799999,3.3296126479000003,327
80846,192481,225523,5.8193445632000005,-7.125825702799999,3.3296126479000003,328
81076,192552,225585,5.8193445632000005,-7.125825702799999,3.3296126479000003,329
81258,192562,225657,5.8193445632000005,-7.125825702799999,3.3296126479000003,330
81435,192643,225614,5.8193445632000005,-7.125825702799999,3.3296126479000003,331
81645,192655,225679,5.8193445632000005,-7.125825702799999,3.3296126479000003,332
81830,192678,225688,5.8193445632000005,-7.125825702799999,3.3296126479000003,333
81980,192770,225720,5.8193445632000005,-7.125825702799999,3.3296126479000003,334
82102,192794,225722,5.8193445632000005,-7.125825702799999,3.3296126479000003,335
82198,192799,225778,5.8193445632000005,-7.125825702799999,3.3296126479000003,336
82074,192786,225731,5.8193445632000005,-7.125825702799999,3.3296126479000003,337
81278,192650,225632,5.8193445632000005,-7.125825702799999,3.3296126479000003,338
80060,192428,225511,5.8193445632000005,-7.125825702799999,3.3296126479000003,339
79151,192324,225375,5.8193445632000005,-7.125825702799999,3.3296126479000003,340
78807,192251,225317,5.8193445632000005,-7.125825702799999,3.3296126479000003,341
78817,192272,225292,5.8193445632000005,-7.125825702799999,3.3296126479000003,342
80016,192741,225835,5.8959148864,-7.1401826384,3.2542387359999996,343
80127,192750,225810,5.8959148864,-7.1401826384,3.2542387359999996,344
80233,192776,225889,5.8959148864,-7.1401826384,3.2542387359999996,345
80164,192786,225873,5.8959148864,-7.1401826384,3.2542387359999996,346
79263,192646,225756,5.8959148864,-7.1401826384,3.2542387359999996,347
77610,192359,225536,5.8959148864,-7.1401826384,3.2542387359999996,348
76397,192166,225416,5.8959148864,-7.1401826384,3.2542387359999996,349
75872,192037,225286,5.8959148864,-7.1401826384,3.2542387359999996,350
75822,191985,225280,5.8959148864,-7.1401826384,3.2542387359999996,351
75895,191957,225271,5.8959148864,-7.1401826384,3.2542387359999996,352
76010,191977,225315,5.8959148864,-7.1401826384,3.2542387359999996,353
76182,192011,225322,5.8959148864,-7.1401826384,3.2542387359999996,354
76359,191967,225307,5.8959148864,-7.1401826384,3.2542387359999996,355
76419,192004,225327,5.8959148864,-7.1401826384,3.2542387359999996,356
76300,191984,225315,5.8959148864,-7.1401826384,3.2542387359999996,357
76150,191942,225289,5.8959148864,-7.1401826384,3.2542387359999996,358
76096,191932,225246,5.8959148864,-7.1401826384,3.2542387359999996,359
76185,191917,225309,5.8959148864,-7.1401826384,3.2542387359999996,360
76381,191939,225316,5.8959148864,-7.1401826384,3.2542387359999996,361
76602,191976,225372,5.8959148864,-7.1401826384,3.2542387359999996,362
76860,192043,225438,5.8959148864,-7.1401826384,3.2542387359999996,363
77101,192081,225431,5.8959148864,-7.1401826384,3.2542387359999996,364
77321,192107,225462,5.8959148864,-7.1401826384,3.2542387359999996,365
77537,192178,225531,5.8959148864,-7.1401826384,3.2542387359999996,366
77720,192201,225499,5.8959148864,-7.1401826384,3.2542387359999996,367
77887,192219,225537,5.8959148864,-7.1401826384,3.2542387359999996,368
78055,192308,225566,5.8959148864,-7.1401826384,3.2542387359999996,369
78211,192349,225616,5.8959148864,-7.1401826384,3.2542387359999996,370
78364,192344,225632,5.8959148864,-7.1401826384,3.2542387359999996,371
78512,192406,225669,5.8959148864,-7.1401826384,3.2542387359999996,372
78628,192446,225726,5.8959148864,-7.1401826384,3.2542387359999996,373
78779,192482,225720,5.8959148864,-7.1401826384,3.2542387359999996,374
78927,192493,225743,5.8959148864,-7.1401826384,3.2542387359999996,375
79049,192546,225788,5.8959148864,-7.1401826384,3.2542387359999996,376
78746,192495,225754,5.8959148864,-7.1401826384,3.2542387359999996,377
77432,192279,225569,5.8959148864,-7.1401826384,3.2542387359999996,378
75973,191994,225386,5.8959148864,-7.1401826384,3.2542387359999996,379
75247,191849,225281,5.8959148864,-7.1401826384,3.2542387359999996,380
75160,191770,225247,5.8959148864,-7.1401826384,3.2542387359999996,381
75333,191788,225293,5.8959148864,-7.1401826384,3.2542387359999996,382
75595,191794,225279,5.8959148864,-7.1401826384,3.2542387359999996,383
75825,191823,225310,5.8959148864,-7.1401826384,3.2542387359999996,384
76568,191533,225230,5.8947184750999995,-7.1641108644,3.2817561959000003,385
76551,191532,225249,5.8947184750999995,-7.1641108644,3.2817561959000003,386
76627,191541,225242,5.8947184750999995,-7.1641108644,3.2817561959000003,387
76810,191546,225251,5.8947184750999995,-7.1641108644,3.2817561959000003,388
77037,191580,225273,5.8947184750999995,-7.1641108644,3.2817561959000003,389
77230,191602,225285,5.8947184750999995,-7.1641108644,3.2817561959000003,390
77303,191611,225298,5.8947184750999995,-7.1641108644,3.2817561959000003,391
77196,191643,225274,5.8947184750999995,-7.1641108644,3.2817561959000003,392
77062,191563,225289,5.8947184750999995,-7.1641108644,3.2817561959000003,393
77024,191561,225249,5.8947184750999995,-7.1641108644,3.2817561959000003,394
77102,191580,225248,5.8947184750999995,-7.1641108644,3.2817561959000003,395
77287,191605,225318,5.8947184750999995,-7.1641108644,3.2817561959000003,396
77499,191653,225279,5.8947184750999995,-7.1641108644,3.2817561959000003,397
77718,191682,225339,5.8947184750999995,-7.1641108644,3.2817561959000003,398
77942,191751,225417,5.8947184750999995,-7.1641108644,3.2817561959000003,399
78156,191738,225433,5.8947184750999995,-7.1641108644,3.2817561959000003,400
78326,191779,225428,5.8947184750999995,-7.1641108644,3.2817561959000003,401
78512,191864,225498,5.8947184750999995,-7.1641108644,3.2817561959000003,402
78675,191892,225526,5.8947184750999995,-7.1641108644,3.2817561959000003,403
78821,191950,225518,5.8947184750999995,-7.1641108644,3.2817561959000003,404
79001,191956,225545,5.8947184750999995,-7.1641108644,3.2817561959000003,405
79133,192024,225585,5.8947184750999995,-7.1641108644,3.2817561959000003,406
79238,192065,225619,5.8947184750999995,-7.1641108644,3.2817561959000003,407
79379,192061,225601,5.8947184750999995,-7.1641108644,3.2817561959000003,408
79485,192122,225635,5.8947184750999995,-7.1641108644,3.2817561959000003,409
79469,192091,225627,5.8947184750999995,-7.1641108644,3.2817561959000003,410
78524,191914,225528,5.8947184750999995,-7.1641108644,3.2817561959000003,411
76759,191629,225258,5.8947184750999995,-7.1641108644,3.2817561959000003,412
75499,191358,225136,5.8947184750999995,-7.1641108644,3.2817561959000003,413
75012,191265,225033,5.8947184750999995,-7.1641108644,3.2817561959000003,414
75012,191199,225051,5.8947184750999995,-7.1641108644,3.2817561959000003,415
75171,191247,225026,5.8947184750999995,-7.1641108644,3.2817561959000003,416
75387,191228,225038,5.8947184750999995,-7.1641108644,3.2817561959000003,417
75644,191297,225041,5.8947184750999995,-7.1641108644,3.2817561959000003,418
75873,191353,225089,5.8947184750999995,-7.1641108644,3.2817561959000003,419
75975,191347,225098,5.8947184750999995,-7.1641108644,3.2817561959000003,420
75872,191327,225107,5.8947184750999995,-7.1641108644,3.2817561959000003,421
75732,191265,225074,5.8947184750999995,-7.1641108644,3.2817561959000003,422
75689,191256,225083,5.8947184750999995,-7.1641108644,3.2817561959000003,423
75793,191300,225089,5.8947184750999995,-7.1641108644,3.2817561959000003,424
75991,191313,225122,5.8947184750999995,-7.1641108644,3.2817561959000003,425
76233,191347,225171,5.8947184750999995,-7.1641108644,3.2817561959000003,426
76301,191546,225145,5.8468620231,-7.2311098972,3.2721849055,427
76193,191521,225144,5.8468620231,-7.2311098972,3.2721849055,428
76208,191503,225116,5.8468620231,-7.2311098972,3.2721849055,429
76350,191520,225115,5.8468620231,-7.2311098972,3.2721849055,430
76562,191575,225145,5.8468620231,-7.2311098972,3.2721849055,431
76795,191617,225201,5.8468620231,-7.2311098972,3.2721849055,432
77023,191695,225249,5.8468620231,-7.2311098972,3.2721849055,433
77235,191706,225283,5.8468620231,-7.2311098972,3.2721849055,434
77457,191774,225329,5.8468620231,-7.2311098972,3.2721849055,435
77631,191836,225271,5.8468620231,-7.2311098972,3.2721849055,436
77847,191849,225367,5.8468620231,-7.2311098972,3.2721849055,437
78023,191931,225420,5.8468620231,-7.2311098972,3.2721849055,438
78190,191923,225455,5.8468620231,-7.2311098972,3.2721849055,439
78342,191992,225472,5.8468620231,-7.2311098972,3.2721849055,440
78466,192022,225489,5.8468620231,-7.2311098972,3.2721849055,441
78574,192101,225500,5.8468620231,-7.2311098972,3.2721849055,442
78600,192103,225514,5.8468620231,-7.2311098972,3.2721849055,443
77712,191925,225408,5.8468620231,-7.2311098972,3.2721849055,444
76101,191609,225199,5.8468620231,-7.2311098972,3.2721849055,445
74831,191356,224984,5.8468620231,-7.2311098972,3.2721849055,446
74345,191229,224869,5.8468620231,-7.2311098972,3.2721849055,447
74367,191173,224865,5.8468620231,-7.2311098972,3.2721849055,448
74579,191180,224892,5.8468620231,-7.2311098972,3.2721849055,449
74841,191254,224870,5.8468620231,-7.2311098972,3.2721849055,450
75121,191273,224948,5.8468620231,-7.2311098972,3.2721849055,451
75438,191307,224984,5.8468620231,-7.2311098972,3.2721849055,452
75608,191344,224996,5.8468620231,-7.2311098972,3.2721849055,453
75569,191325,224971,5.8468620231,-7.2311098972,3.2721849055,454
75419,191291,224969,5.8468620231,-7.2311098972,3.2721849055,455
75362,191293,224996,5.8468620231,-7.2311098972,3.2721849055,456
75414,191284,224958,5.8468620231,-7.2311098972,3.2721849055,457
75577,191337,225003,5.8468620231,-7.2311098972,3.2721849055,458
75837,191374,225006,5.8468620231,-7.2311098972,3.2721849055,459
76100,191437,225073,5.8468620231,-7.2311098972,3.2721849055,460
76391,191499,225092,5.8468620231,-7.2311098972,3.2721849055,461
76648,191556,225143,5.8468620231,-7.2311098972,3.2721849055,462
76892,191572,225206,5.8468620231,-7.2311098972,3.2721849055,463
77119,191680,225261,5.8468620231,-7.2311098972,3.2721849055,464
77322,191717,225290,5.8468620231,-7.2311098972,3.2721849055,465
77528,191766,225338,5.8468620231,-7.2311098972,3.2721849055,466
77727,191849,225384,5.8468620231,-7.2311098972,3.2721849055,467
77907,191888,225379,5.8468620231,-7.2311098972,3.2721849055,468
75269,191556,225032,5.7954163372,-7.221538606799999,3.3595229304,469
75479,191566,225044,5.7954163372,-7.221538606799999,3.3595229304,470
75524,191602,225044,5.7954163372,-7.221538606799999,3.3595229304,471
75419,191544,225052,5.7954163372,-7.221538606799999,3.3595229304,472
75293,191524,225011,5.7954163372,-7.221538606799999,3.3595229304,473
75266,191525,225047,5.7954163372,-7.221538606799999,3.3595229304,474
75390,191545,225013,5.7954163372,-7.221538606799999,3.3595229304,475
75590,191536,225106,5.7954163372,-7.221538606799999,3.3595229304,476
75841,191602,225086,5.7954163372,-7.221538606799999,3.3595229304,477
76127,191683,225167,5.7954163372,-7.221538606799999,3.3595229304,478
76375,191724,225173,5.7954163372,-7.221538606799999,3.3595229304,479
76613,191787,225244,5.7954163372,-7.221538606799999,3.3595229304,480
76837,191803,225270,5.7954163372,-7.221538606799999,3.3595229304,481
77047,191854,225316,5.7954163372,-7.221538606799999,3.3595229304,482
77243,191912,225290,5.7954163372,-7.221538606799999,3.3595229304,483
77412,191943,225339,5.7954163372,-7.221538606799999,3.3595229304,484
77571,191989,225388,5.7954163372,-7.221538606799999,3.3595229304,485
77780,192003,225403,5.7954163372,-7.221538606799999,3.3595229304,486
77764,192032,225433,5.7954163372,-7.221538606799999,3.3595229304,487
76892,191843,225310,5.7954163372,-7.221538606799999,3.3595229304,488
75442,191562,225100,5.7954163372,-7.221538606799999,3.3595229304,489
74479,191361,224963,5.7954163372,-7.221538606799999,3.3595229304,490
74279,191253,224943,5.7954163372,-7.221538606799999,3.3595229304,491
74438,191237,224927,5.7954163372,-7.221538606799999,3.3595229304,492
74683,191272,224914,5.7954163372,-7.221538606799999,3.3595229304,493
74987,191314,224947,5.7954163372,-7.221538606799999,3.3595229304,494
75316,191390,225015,5.7954163372,-7.221538606799999,3.3595229304,495
75662,191429,225086,5.7954163372,-7.221538606799999,3.3595229304,496
75902,191477,225042,5.7954163372,-7.221538606799999,3.3595229304,497
75954,191460,225096,5.7954163372,-7.221538606799999,3.3595229304,498
75932,191458,225082,5.7954163372,-7.221538606799999,3.3595229304,499
75981,191473,225118,5.7954163372,-7.221538606799999,3.3595229304,500
76126,191521,225102,5.7954163372,-7.221538606799999,3.3595229304,501
76378,191563,225189,5.7954163372,-7.221538606799999,3.3595229304,502
76695,191606,225259,5.7954163372,-7.221538606799999,3.3595229304,503
77020,191684,225273,5.7954163372,-7.221538606799999,3.3595229304,504
77371,191760,225326,5.7954163372,-7.221538606799999,3.3595229304,505
77682,191814,225325,5.7954163372,-7.221538606799999,3.3595229304,506
77971,191914,225419,5.7954163372,-7.221538606799999,3.3595229304,507
78271,191977,225448,5.7954163372,-7.221538606799999,3.3595229304,508
78543,192000,225533,5.7954163372,-7.221538606799999,3.3595229304,509
78830,192090,225548,5.7954163372,-7.221538606799999,3.3595229304,510
78780,192124,225548,5.923432346299999,-7.1976103808000005,3.2398818003999996,511
77211,191847,225322,5.923432346299999,-7.1976103808000005,3.2398818003999996,512
75945,191547,225151,5.923432346299999,-7.1976103808000005,3.2398818003999996,513
75430,191450,225055,5.923432346299999,-7.1976103808000005,3.2398818003999996,514
75429,191425,225045,5.923432346299999,-7.1976103808000005,3.2398818003999996,515
75640,191417,225087,5.923432346299999,-7.1976103808000005,3.2398818003999996,516
75918,191477,225095,5.923432346299999,-7.1976103808000005,3.2398818003999996,517
76223,191503,225102,5.923432346299999,-7.1976103808000005,3.2398818003999996,518
76501,191580,225180,5.923432346299999,-7.1976103808000005,3.2398818003999996,519
76624,191571,225161,5.923432346299999,-7.1976103808000005,3.2398818003999996,520
76533,191546,225173,5.923432346299999,-7.1976103808000005,3.2398818003999996,521
76385,191531,225143,5.923432346299999,-7.1976103808000005,3.2398818003999996,522
76285,191515,225117,5.923432346299999,-7.1976103808000005,3.2398818003999996,523
76311,191510,225146,5.923432346299999,-7.1976103808000005,3.2398818003999996,524
76461,191510,225163,5.923432346299999,-7.1976103808000005,3.2398818003999996,525
76677,191600,225157,5.923432346299999,-7.1976103808000005,3.2398818003999996,526
76897,191614,225216,5.923432346299999,-7.1976103808000005,3.2398818003999996,527
77140,191670,225248,5.923432346299999,-7.1976103808000005,3.2398818003999996,528
77365,191712,225292,5.923432346299999,-7.1976103808000005,3.2398818003999996,529
77592,191766,225370,5.923432346299999,-7.1976103808000005,3.2398818003999996,530
77796,191783,225351,5.923432346299999,-7.1976103808000005,3.2398818003999996,531
77987,191880,225383,5.923432346299999,-7.1976103808000005,3.2398818003999996,532
78169,191884,225420,5.923432346299999,-7.1976103808000005,3.2398818003999996,533
78342,191911,225458,5.923432346299999,-7.1976103808000005,3.2398818003999996,534
78491,191962,225472,5.923432346299999,-7.1976103808000005,3.2398818003999996,535
78632,192003,225544,5.923432346299999,-7.1976103808000005,3.2398818003999996,536
78220,191916,225449,5.923432346299999,-7.1976103808000005,3.2398818003999996,537
76794,191636,225211,5.923432346299999,-7.1976103808000005,3.2398818003999996,538
75217,191284,225008,5.923432346299999,-7.1976103808000005,3.2398818003999996,539
74369,191079,224869,5.923432346299999,-7.1976103808000005,3.2398818003999996,540
74221,191036,224793,5.923432346299999,-7.1976103808000005,3.2398818003999996,541
74412,191030,224849,5.923432346299999,-7.1976103808000005,3.2398818003999996,542
74696,191058,224857,5.923432346299999,-7.1976103808000005,3.2398818003999996,543
75010,191081,224930,5.923432346299999,-7.1976103808000005,3.2398818003999996,544
75349,191134,224962,5.923432346299999,-7.1976103808000005,3.2398818003999996,545
75650,191183,225006,5.923432346299999,-7.1976103808000005,3.2398818003999996,546
75740,191209,224988,5.923432346299999,-7.1976103808000005,3.2398818003999996,547
75652,191170,224956,5.923432346299999,-7.1976103808000005,3.2398818003999996,548
75553,191183,224968,5.923432346299999,-7.1976103808000005,3.2398818003999996,549
75537,191159,224985,5.923432346299999,-7.1976103808000005,3.2398818003999996,550
75665,191163,224972,5.923432346299999,-7.1976103808000005,3.2398818003999996,551
75879,191221,225036,5.923432346299999,-7.1976103808000005,3.2398818003999996,552
76352,191462,225006,5.8576297248,-7.29810893,3.2255248647999997,553
76590,191526,225047,5.8576297248,-7.29810893,3.2255248647999997,554
76847,191620,225101,5.8576297248,-7.29810893,3.2255248647999997,555
77048,191642,225112,5.8576297248,-7.29810893,3.2255248647999997,556
77252,191715,225194,5.8576297248,-7.29810893,3.2255248647999997,557
77440,191727,225206,5.8576297248,-7.29810893,3.2255248647999997,558
77589,191771,225211,5.8576297248,-7.29810893,3.2255248647999997,559
77777,191829,225288,5.8576297248,-7.29810893,3.2255248647999997,560
77928,191865,225284,5.8576297248,-7.29810893,3.2255248647999997,561
77942,191872,225274,5.8576297248,-7.29810893,3.2255248647999997,562
77108,191697,225165,5.8576297248,-7.29810893,3.2255248647999997,563
75519,191410,224964,5.8576297248,-7.29810893,3.2255248647999997,564
74343,191143,224760,5.8576297248,-7.29810893,3.2255248647999997,565
73973,191028,224676,5.8576297248,-7.29810893,3.2255248647999997,566
74081,191005,224677,5.8576297248,-7.29810893,3.2255248647999997,567
74336,191026,224682,5.8576297248,-7.29810893,3.2255248647999997,568
74613,191024,224755,5.8576297248,-7.29810893,3.2255248647999997,569
74915,191047,224747,5.8576297248,-7.29810893,3.2255248647999997,570
75236,191171,224818,5.8576297248,-7.29810893,3.2255248647999997,571
75403,191206,224831,5.8576297248,-7.29810893,3.2255248647999997,572
75400,191177,224854,5.8576297248,-7.29810893,3.2255248647999997,573
75330,191179,224809,5.8576297248,-7.29810893,3.2255248647999997,574
75346,191177,224883,5.8576297248,-7.29810893,3.2255248647999997,575
75449,191151,224856,5.8576297248,-7.29810893,3.2255248647999997,576
75680,191248,224908,5.8576297248,-7.29810893,3.2255248647999997,577
75961,191299,224970,5.8576297248,-7.29810893,3.2255248647999997,578
76266,191355,225028,5.8576297248,-7.29810893,3.2255248647999997,579
76583,191434,225038,5.8576297248,-7.29810893,3.2255248647999997,580
76848,191493,225142,5.8576297248,-7.29810893,3.2255248647999997,581
77104,191558,225111,5.8576297248,-7.29810893,3.2255248647999997,582
77351,191637,225178,5.8576297248,-7.29810893,3.2255248647999997,583
77585,191679,225190,5.8576297248,-7.29810893,3.2255248647999997,584
77809,191720,225209,5.8576297248,-7.29810893,3.2255248647999997,585
78028,191811,225271,5.8576297248,-7.29810893,3.2255248647999997,586
78258,191837,225335,5.8576297248,-7.29810893,3.2255248647999997,587
78463,191909,225345,5.8576297248,-7.29810893,3.2255248647999997,588
78649,191971,225380,5.8576297248,-7.29810893,3.2255248647999997,589
78860,192020,225437,5.8576297248,-7.29810893,3.2255248647999997,590
79060,192056,225464,5.8576297248,-7.29810893,3.2255248647999997,591
79082,192023,225447,5.8576297248,-7.29810893,3.2255248647999997,592
78224,191859,225347,5.8576297248,-7.29810893,3.2255248647999997,593
76847,191633,225122,5.8576297248,-7.29810893,3.2255248647999997,594
75655,191001,224660,5.6721859733,-7.3124658656,3.1776684127999997,595
75556,190954,224681,5.6721859733,-7.3124658656,3.1776684127999997,596
75425,190890,224666,5.6721859733,-7.3124658656,3.1776684127999997,597
75386,190905,224695,5.6721859733,-7.3124658656,3.1776684127999997,598
75468,190937,224674,5.6721859733,-7.3124658656,3.1776684127999997,599
75649,190910,224637,5.6721859733,-7.3124658656,3.1776684127999997,600
75895,191016,224742,5.6721859733,-7.3124658656,3.1776684127999997,601
76169,191053,224785,5.6721859733,-7.3124658656,3.1776684127999997,602
76425,191111,224787,5.6721859733,-7.3124658656,3.1776684127999997,603
76672,191188,224858,5.6721859733,-7.3124658656,3.1776684127999997,604
76905,191209,224924,5.6721859733,-7.3124658656,3.1776684127999997,605
77124,191272,224940,5.6721859733,-7.3124658656,3.1776684127999997,606
77327,191350,224973,5.6721859733,-7.3124658656,3.1776684127999997,607
77539,191380,225018,5.6721859733,-7.3124658656,3.1776684127999997,608
77708,191411,225044,5.6721859733,-7.3124658656,3.1776684127999997,609
77860,191472,225079,5.6721859733,-7.3124658656,3.1776684127999997,610
78039,191507,225067,5.6721859733,-7.3124658656,3.1776684127999997,611
78067,191526,225098,5.6721859733,-7.3124658656,3.1776684127999997,612
77301,191346,224990,5.6721859733,-7.3124658656,3.1776684127999997,613
75633,191051,224781,5.6721859733,-7.3124658656,3.1776684127999997,614
74367,190814,224597,5.6721859733,-7.3124658656,3.1776684127999997,615
73902,190651,224487,5.6721859733,-7.3124658656,3.1776684127999997,616
73985,190612,224484,5.6721859733,-7.3124658656,3.1776684127999997,617
74280,190641,224489,5.6721859733,-7.3124658656,3.1776684127999997,618
74646,190690,224523,5.6721859733,-7.3124658656,3.1776684127999997,619
75018,190712,224590,5.6721859733,-7.3124658656,3.1776684127999997,620
75341,190838,224629,5.6721859733,-7.3124658656,3.1776684127999997,621
75595,190824,224627,5.6721859733,-7.3124658656,3.1776684127999997,622
75590,190830,224637,5.6721859733,-7.3124658656,3.1776684127999997,623
75546,190829,224628,5.6721859733,-7.3124658656,3.1776684127999997,624
75518,190822,224660,5.6721859733,-7.3124658656,3.1776684127999997,625
75591,190840,224628,5.6721859733,-7.3124658656,3.1776684127999997,626
75769,190898,224681,5.6721859733,-7.3124658656,3.1776684127999997,627
76021,190926,224770,5.6721859733,-7.3124658656,3.1776684127999997,628
76312,190983,224770,5.6721859733,-7.3124658656,3.1776684127999997,629
76612,191049,224812,5.6721859733,-7.3124658656,3.1776684127999997,630
76903,191120,224859,5.6721859733,-7.3124658656,3.1776684127999997,631
77155,191207,224907,5.6721859733,-7.3124658656,3.1776684127999997,632
77407,191265,224945,5.6721859733,-7.3124658656,3.1776684127999997,633
77667,191330,225027,5.6721859733,-7.3124658656,3.1776684127999997,634
77904,191366,225025,5.6721859733,-7.3124658656,3.1776684127999997,635
78129,191441,225079,5.6721859733,-7.3124658656,3.1776684127999997,636
78958,192293,225489,5.7990055710999995,-7.1784678,3.3164521235999995,637
79131,192322,225558,5.7990055710999995,-7.1784678,3.3164521235999995,638
79093,192345,225516,5.7990055710999995,-7.1784678,3.3164521235999995,639
78191,192123,225387,5.7990055710999995,-7.1784678,3.3164521235999995,640
76691,191859,225203,5.7990055710999995,-7.1784678,3.3164521235999995,641
75675,191668,225065,5.7990055710999995,-7.1784678,3.3164521235999995,642
75391,191582,224985,5.7990055710999995,-7.1784678,3.3164521235999995,643
75520,191525,224973,5.7990055710999995,-7.1784678,3.3164521235999995,644
75809,191579,225015,5.7990055710999995,-7.1784678,3.3164521235999995,645
76130,191625,225051,5.7990055710999995,-7.1784678,3.3164521235999995,646
76485,191664,225076,5.7990055710999995,-7.1784678,3.3164521235999995,647
76776,191731,225128,5.7990055710999995,-7.1784678,3.3164521235999995,648
76921,191725,225149,5.7990055710999995,-7.1784678,3.3164521235999995,649
76928,191728,225127,5.7990055710999995,-7.1784678,3.3164521235999995,650
76853,191745,225148,5.7990055710999995,-7.1784678,3.3164521235999995,651
76875,191715,225142,5.7990055710999995,-7.1784678,3.3164521235999995,652
76959,191725,225192,5.7990055710999995,-7.1784678,3.3164521235999995,653
77133,191781,225188,5.7990055710999995,-7.1784678,3.3164521235999995,654
77394,191828,225223,5.7990055710999995,-7.1784678,3.3164521235999995,655
77666,191865,225262,5.7990055710999995,-7.1784678,3.3164521235999995,656
77924,191928,225323,5.7990055710999995,-7.1784678,3.3164521235999995,657
78176,191997,225370,5.7990055710999995,-7.1784678,3.3164521235999995,658
78403,192045,225380,5.7990055710999995,-7.1784678,3.3164521235999995,659
78656,192068,225397,5.7990055710999995,-7.1784678,3.3164521235999995,660
78877,192148,225479,5.7990055710999995,-7.1784678,3.3164521235999995,661
79089,192173,225481,5.7990055710999995,-7.1784678,3.3164521235999995,662
79310,192235,225515,5.7990055710999995,-7.1784678,3.3164521235999995,663
79520,192290,225532,5.7990055710999995,-7.1784678,3.3164521235999995,664
79718,192299,225622,5.7990055710999995,-7.1784678,3.3164521235999995,665
79902,192384,225591,5.7990055710999995,-7.1784678,3.3164521235999995,666
80051,192370,225640,5.7990055710999995,-7.1784678,3.3164521235999995,667
79716,192338,225582,5.7990055710999995,-7.1784678,3.3164521235999995,668
78638,192168,225408,5.7990055710999995,-7.1784678,3.3164521235999995,669
77525,191908,225288,5.7990055710999995,-7.1784678,3.3164521235999995,670
76988,191828,225204,5.7990055710999995,-7.1784678,3.3164521235999995,671
76987,191772,225216,5.7990055710999995,-7.1784678,3.3164521235999995,672
77280,191831,225209,5.7990055710999995,-7.1784678,3.3164521235999995,673
77671,191918,225291,5.7990055710999995,-7.1784678,3.3164521235999995,674
78101,191980,225312,5.7990055710999995,-7.1784678,3.3164521235999995,675
78463,192034,225363,5.7990055710999995,-7.1784678,3.3164521235999995,676
78638,192095,225377,5.7990055710999995,-7.1784678,3.3164521235999995,677
78619,192043,225389,5.7990055710999995,-7.1784678,3.3164521235999995,678
78984,191843,225480,5.9186467011,-7.1928247355999995,3.3535408739,679
78939,191806,225500,5.9186467011,-7.1928247355999995,3.3535408739,680
78047,191658,225359,5.9186467011,-7.1928247355999995,3.3535408739,681
76571,191365,225194,5.9186467011,-7.1928247355999995,3.3535408739,682
75619,191136,225035,5.9186467011,-7.1928247355999995,3.3535408739,683
75330,191043,224980,5.9186467011,-7.1928247355999995,3.3535408739,684
75474,191068,224933,5.9186467011,-7.1928247355999995,3.3535408739,685
75785,191114,225010,5.9186467011,-7.1928247355999995,3.3535408739,686
76140,191174,225023,5.9186467011,-7.1928247355999995,3.3535408739,687
76497,191202,225080,5.9186467011,-7.1928247355999995,3.3535408739,688
76790,191272,225155,5.9186467011,-7.1928247355999995,3.3535408739,689
76953,191327,225181,5.9186467011,-7.1928247355999995,3.3535408739,690
76932,191292,225128,5.9186467011,-7.1928247355999995,3.3535408739,691
76873,191265,225153,5.9186467011,-7.1928247355999995,3.3535408739,692
76844,191264,225118,5.9186467011,-7.1928247355999995,3.3535408739,693
76928,191298,225126,5.9186467011,-7.1928247355999995,3.3535408739,694
77088,191329,225162,5.9186467011,-7.1928247355999995,3.3535408739,695
77332,191386,225200,5.9186467011,-7.1928247355999995,3.3535408739,696
77632,191453,225203,5.9186467011,-7.1928247355999995,3.3535408739,697
77889,191537,225249,5.9186467011,-7.1928247355999995,3.3535408739,698
78145,191583,225345,5.9186467011,-7.1928247355999995,3.3535408739,699
78387,191634,225375,5.9186467011,-7.1928247355999995,3.3535408739,700
78604,191671,225362,5.9186467011,-7.1928247355999995,3.3535408739,701
78812,191749,225409,5.9186467011,-7.1928247355999995,3.3535408739,702
79034,191807,225449,5.9186467011,-7.1928247355999995,3.3535408739,703
79232,191810,225496,5.9186467011,-7.1928247355999995,3.3535408739,704
79442,191883,225490,5.9186467011,-7.1928247355999995,3.3535408739,705
79603,191914,225556,5.9186467011,-7.1928247355999995,3.3535408739,706
79785,191976,225576,5.9186467011,-7.1928247355999995,3.3535408739,707
79937,191999,225618,5.9186467011,-7.1928247355999995,3.3535408739,708
79981,192043,225600,5.9186467011,-7.1928247355999995,3.3535408739,709
79347,191902,225551,5.9186467011,-7.1928247355999995,3.3535408739,710
78116,191708,225359,5.9186467011,-7.1928247355999995,3.3535408739,711
77130,191507,225207,5.9186467011,-7.1928247355999995,3.3535408739,712
76778,191443,225176,5.9186467011,-7.1928247355999995,3.3535408739,713
76885,191451,225186,5.9186467011,-7.1928247355999995,3.3535408739,714
77180,191483,225198,5.9186467011,-7.1928247355999995,3.3535408739,715
77599,191582,225272,5.9186467011,-7.1928247355999995,3.3535408739,716
77983,191651,225278,5.9186467011,-7.1928247355999995,3.3535408739,717
78299,191682,225328,5.9186467011,-7.1928247355999995,3.3535408739,718
78370,191728,225340,5.9186467011,-7.1928247355999995,3.3535408739,719
78243,191683,225321,5.9186467011,-7.1928247355999995,3.3535408739,720
77917,191478,225145,5.766702466,-7.0743800169,3.158525832,721
78114,191528,225102,5.766702466,-7.0743800169,3.158525832,722
78283,191529,225181,5.766702466,-7.0743800169,3.158525832,723
78423,191594,225185,5.766702466,-7.0743800169,3.158525832,724
78548,191602,225200,5.766702466,-7.0743800169,3.158525832,725
78681,191643,225246,5.766702466,-7.0743800169,3.158525832,726
78476,191587,225222,5.766702466,-7.0743800169,3.158525832,727
77257,191367,225060,5.766702466,-7.0743800169,3.158525832,728
75523,191100,224819,5.766702466,-7.0743800169,3.158525832,729
74472,190833,224656,5.766702466,-7.0743800169,3.158525832,730
74154,190711,224572,5.766702466,-7.0743800169,3.158525832,731
74234,190640,224546,5.766702466,-7.0743800169,3.158525832,732
74459,190676,224561,5.766702466,-7.0743800169,3.158525832,733
74675,190694,224587,5.766702466,-7.0743800169,3.158525832,734
74993,190746,224592,5.766702466,-7.0743800169,3.158525832,735
75263,190802,224668,5.766702466,-7.0743800169,3.158525832,736
75394,190778,224671,5.766702466,-7.0743800169,3.158525832,737
75315,190789,224665,5.766702466,-7.0743800169,3.158525832,738
75191,190760,224696,5.766702466,-7.0743800169,3.158525832,739
75155,190736,224643,5.766702466,-7.0743800169,3.158525832,740
75258,190757,224635,5.766702466,-7.0743800169,3.158525832,741
75479,190795,224702,5.766702466,-7.0743800169,3.158525832,742
75721,190862,224731,5.766702466,-7.0743800169,3.158525832,743
76030,190895,224762,5.766702466,-7.0743800169,3.158525832,744
76291,190961,224811,5.766702466,-7.0743800169,3.158525832,745
76536,191050,224844,5.766702466,-7.0743800169,3.158525832,746
76780,191047,224894,5.766702466,-7.0743800169,3.158525832,747
76961,191141,224900,5.766702466,-7.0743800169,3.158525832,748
77189,191201,225002,5.766702466,-7.0743800169,3.158525832,749
77349,191215,225019,5.766702466,-7.0743800169,3.158525832,750
77531,191281,225024,5.766702466,-7.0743800169,3.158525832,751
77729,191329,225072,5.766702466,-7.0743800169,3.158525832,752
77802,191369,225089,5.766702466,-7.0743800169,3.158525832,753
77066,191204,225011,5.766702466,-7.0743800169,3.158525832,754
75501,190891,224760,5.766702466,-7.0743800169,3.158525832,755
74266,190647,224558,5.766702466,-7.0743800169,3.158525832,756
73844,190493,224505,5.766702466,-7.0743800169,3.158525832,757
73952,190523,224494,5.766702466,-7.0743800169,3.158525832,758
74261,190487,224489,5.766702466,-7.0743800169,3.158525832,759
74608,190589,224529,5.766702466,-7.0743800169,3.158525832,760
74991,190625,224592,5.766702466,-7.0743800169,3.158525832,761
75344,190698,224657,5.766702466,-7.0743800169,3.158525832,762
77952,191420,225141,5.942574927099999,-7.1736821548,3.3726834547,763
78111,191422,225157,5.942574927099999,-7.1736821548,3.3726834547,764
78297,191497,225202,5.942574927099999,-7.1736821548,3.3726834547,765
78350,191509,225165,5.942574927099999,-7.1736821548,3.3726834547,766
77575,191396,225108,5.942574927099999,-7.1736821548,3.3726834547,767
76026,191066,224847,5.942574927099999,-7.1736821548,3.3726834547,768
74916,190856,224710,5.942574927099999,-7.1736821548,3.3726834547,769
74537,190724,224613,5.942574927099999,-7.1736821548,3.3726834547,770
74672,190685,224598,5.942574927099999,-7.1736821548,3.3726834547,771
75012,190760,224698,5.942574927099999,-7.1736821548,3.3726834547,772
75347,190772,224734,5.942574927099999,-7.1736821548,3.3726834547,773
75736,190877,224770,5.942574927099999,-7.1736821548,3.3726834547,774
76085,190906,224817,5.942574927099999,-7.1736821548,3.3726834547,775
76328,190979,224844,5.942574927099999,-7.1736821548,3.3726834547,776
76395,190999,224834,5.942574927099999,-7.1736821548,3.3726834547,777
76336,190971,224845,5.942574927099999,-7.1736821548,3.3726834547,778
76345,190981,224878,5.942574927099999,-7.1736821548,3.3726834547,779
76436,190984,224868,5.942574927099999,-7.1736821548,3.3726834547,780
76602,191058,224873,5.942574927099999,-7.1736821548,3.3726834547,781
76854,191107,224955,5.942574927099999,-7.1736821548,3.3726834547,782
77139,191171,224965,5.942574927099999,-7.1736821548,3.3726834547,783
77442,191221,224992,5.942574927099999,-7.1736821548,3.3726834547,784
77718,191316,225091,5.942574927099999,-7.1736821548,3.3726834547,785
78005,191349,225078,5.942574927099999,-7.1736821548,3.3726834547,786
78247,191437,225129,5.942574927099999,-7.1736821548,3.3726834547,787
78503,191457,225199,5.942574927099999,-7.1736821548,3.3726834547,788
78753,191532,225221,5.942574927099999,-7.1736821548,3.3726834547,789
78968,191612,225232,5.942574927099999,-7.1736821548,3.3726834547,790
79202,191642,225280,5.942574927099999,-7.1736821548,3.3726834547,791
79397,191692,225332,5.942574927099999,-7.1736821548,3.3726834547,792
79590,191681,225375,5.942574927099999,-7.1736821548,3.3726834547,793
79409,191703,225352,5.942574927099999,-7.1736821548,3.3726834547,794
78459,191488,225211,5.942574927099999,-7.1736821548,3.3726834547,795
77351,191364,225049,5.942574927099999,-7.1736821548,3.3726834547,796
76763,191207,225012,5.942574927099999,-7.1736821548,3.3726834547,797
76759,191173,224974,5.942574927099999,-7.1736821548,3.3726834547,798
77034,191235,225019,5.942574927099999,-7.1736821548,3.3726834547,799
77445,191255,225022,5.942574927099999,-7.1736821548,3.3726834547,800
77870,191393,225113,5.942574927099999,-7.1736821548,3.3726834547,801
78282,191458,225150,5.942574927099999,-7.1736821548,3.3726834547,802
78497,191507,225195,5.942574927099999,-7.1736821548,3.3726834547,803
78543,191507,225204,5.942574927099999,-7.1736821548,3.3726834547,804
77873,191188,225120,5.6757752072,-7.1940211469,3.4109686163,805
78086,191252,225199,5.6757752072,-7.1940211469,3.4109686163,806
78276,191312,225163,5.6757752072,-7.1940211469,3.4109686163,807
78457,191375,225198,5.6757752072,-7.1940211469,3.4109686163,808
78623,191398,225262,5.6757752072,-7.1940211469,3.4109686163,809
78317,191321,225208,5.6757752072,-7.1940211469,3.4109686163,810
77199,191090,225028,5.6757752072,-7.1940211469,3.4109686163,811
75964,190867,224889,5.6757752072,-7.1940211469,3.4109686163,812
75369,190739,224772,5.6757752072,-7.1940211469,3.4109686163,813
75352,190689,224795,5.6757752072,-7.1940211469,3.4109686163,814
75638,190706,224784,5.6757752072,-7.1940211469,3.4109686163,815
76071,190830,224863,5.6757752072,-7.1940211469,3.4109686163,816
76555,190934,224979,5.6757752072,-7.1940211469,3.4109686163,817
76979,190987,224952,5.6757752072,-7.1940211469,3.4109686163,818
77200,191067,225017,5.6757752072,-7.1940211469,3.4109686163,819
77181,191021,225015,5.6757752072,-7.1940211469,3.4109686163,820
77069,191004,224949,5.6757752072,-7.1940211469,3.4109686163,821
76947,190987,224965,5.6757752072,-7.1940211469,3.4109686163,822
76957,190992,224914,5.6757752072,-7.1940211469,3.4109686163,823
77031,191024,224967,5.6757752072,-7.1940211469,3.4109686163,824
77227,191002,224989,5.6757752072,-7.1940211469,3.4109686163,825
77435,191065,225006,5.6757752072,-7.1940211469,3.4109686163,826
77698,191150,225083,5.6757752072,-7.1940211469,3.4109686163,827
77954,191198,225131,5.6757752072,-7.1940211469,3.4109686163,828
78188,191236,225139,5.6757752072,-7.1940211469,3.4109686163,829
78439,191302,225183,5.6757752072,-7.1940211469,3.4109686163,830
78621,191357,225206,5.6757752072,-7.1940211469,3.4109686163,831
78776,191405,225226,5.6757752072,-7.1940211469,3.4109686163,832
78912,191461,225253,5.6757752072,-7.1940211469,3.4109686163,833
79016,191480,225244,5.6757752072,-7.1940211469,3.4109686163,834
78827,191468,225239,5.6757752072,-7.1940211469,3.4109686163,835
77770,191244,225128,5.6757752072,-7.1940211469,3.4109686163,836
76377,190951,224916,5.6757752072,-7.1940211469,3.4109686163,837
75511,190773,224788,5.6757752072,-7.1940211469,3.4109686163,838
75316,190689,224759,5.6757752072,-7.1940211469,3.4109686163,839
75487,190726,224793,5.6757752072,-7.1940211469,3.4109686163,840
75830,190766,224780,5.6757752072,-7.1940211469,3.4109686163,841
76224,190849,224840,5.6757752072,-7.1940211469,3.4109686163,842
76581,190901,224863,5.6757752072,-7.1940211469,3.4109686163,843
76829,190950,224936,5.6757752072,-7.1940211469,3.4109686163,844
76833,190951,224921,5.6757752072,-7.1940211469,3.4109686163,845
76686,190903,224878,5.6757752072,-7.1940211469,3.4109686163,846
80355,191945,225540,5.843272789199999,-7.2167529616,3.2542387359999996,847
80516,191992,225546,5.843272789199999,-7.2167529616,3.2542387359999996,848
80413,191962,225566,5.843272789199999,-7.2167529616,3.2542387359999996,849
79604,191815,225490,5.843272789199999,-7.2167529616,3.2542387359999996,850
78460,191612,225272,5.843272789199999,-7.2167529616,3.2542387359999996,851
77714,191495,225214,5.843272789199999,-7.2167529616,3.2542387359999996,852
77540,191477,225191,5.843272789199999,-7.2167529616,3.2542387359999996,853
77682,191491,225186,5.843272789199999,-7.2167529616,3.2542387359999996,854
77945,191510,225189,5.843272789199999,-7.2167529616,3.2542387359999996,855
78285,191553,225253,5.843272789199999,-7.2167529616,3.2542387359999996,856
78605,191621,225305,5.843272789199999,-7.2167529616,3.2542387359999996,857
78802,191635,225344,5.843272789199999,-7.2167529616,3.2542387359999996,858
78789,191661,225323,5.843272789199999,-7.2167529616,3.2542387359999996,859
78644,191637,225294,5.843272789199999,-7.2167529616,3.2542387359999996,860
78557,191568,225296,5.843272789199999,-7.2167529616,3.2542387359999996,861
78540,191608,225286,5.843272789199999,-7.2167529616,3.2542387359999996,862
78600,191642,225329,5.843272789199999,-7.2167529616,3.2542387359999996,863
78756,191651,225304,5.843272789199999,-7.2167529616,3.2542387359999996,864
78953,191674,225300,5.843272789199999,-7.2167529616,3.2542387359999996,865
79156,191736,225373,5.843272789199999,-7.2167529616,3.2542387359999996,866
79353,191780,225391,5.843272789199999,-7.2167529616,3.2542387359999996,867
79544,191792,225440,5.843272789199999,-7.2167529616,3.2542387359999996,868
79718,191840,225483,5.843272789199999,-7.2167529616,3.2542387359999996,869
79882,191915,225468,5.843272789199999,-7.2167529616,3.2542387359999996,870
80016,191954,225499,5.843272789199999,-7.2167529616,3.2542387359999996,871
80157,191960,225535,5.843272789199999,-7.2167529616,3.2542387359999996,872
80197,192019,225563,5.843272789199999,-7.2167529616,3.2542387359999996,873
79541,191838,225454,5.843272789199999,-7.2167529616,3.2542387359999996,874
78018,191558,225231,5.843272789199999,-7.2167529616,3.2542387359999996,875
76645,191330,225048,5.843272789199999,-7.2167529616,3.2542387359999996,876
75968,191168,224918,5.843272789199999,-7.2167529616,3.2542387359999996,877
75796,191134,224904,5.843272789199999,-7.2167529616,3.2542387359999996,878
75893,191141,224871,5.843272789199999,-7.2167529616,3.2542387359999996,879
76075,191091,224917,5.843272789199999,-7.2167529616,3.2542387359999996,880
76263,191183,224951,5.843272789199999,-7.2167529616,3.2542387359999996,881
76480,191178,225012,5.843272789199999,-7.2167529616,3.2542387359999996,882
76629,191200,224990,5.843272789199999,-7.2167529616,3.2542387359999996,883
76625,191202,224986,5.843272789199999,-7.2167529616,3.2542387359999996,884
76471,191176,224934,5.843272789199999,-7.2167529616,3.2542387359999996,885
76378,191142,224957,5.843272789199999,-7.2167529616,3.2542387359999996,886
76380,191109,224965,5.843272789199999,-7.2167529616,3.2542387359999996,887
76514,191178,224986,5.843272789199999,-7.2167529616,3.2542387359999996,888
77895,191361,225115,5.790630692000001,-7.3124658656,3.3726834547,889
78061,191406,225162,5.790630692000001,-7.3124658656,3.3726834547,890
78194,191425,225223,5.790630692000001,-7.3124658656,3.3726834547,891
77938,191385,225146,5.790630692000001,-7.3124658656,3.3726834547,892
76692,191166,224942,5.790630692000001,-7.3124658656,3.3726834547,893
75129,190816,224758,5.790630692000001,-7.3124658656,3.3726834547,894
74250,190603,224600,5.790630692000001,-7.3124658656,3.3726834547,895
74042,190513,224585,5.790630692000001,-7.3124658656,3.3726834547,896
74227,190509,224561,5.790630692000001,-7.3124658656,3.3726834547,897
74555,190565,224622,5.790630692000001,-7.3124658656,3.3726834547,898
74924,190600,224614,5.790630692000001,-7.3124658656,3.3726834547,899
75306,190681,224637,5.790630692000001,-7.3124658656,3.3726834547,900
75586,190681,224677,5.790630692000001,-7.3124658656,3.3726834547,901
75694,190701,224751,5.790630692000001,-7.3124658656,3.3726834547,902
75638,190728,224693,5.790630692000001,-7.3124658656,3.3726834547,903
75550,190711,224711,5.790630692000001,-7.3124658656,3.3726834547,904
75502,190695,224688,5.790630692000001,-7.3124658656,3.3726834547,905
75576,190701,224704,5.790630692000001,-7.3124658656,3.3726834547,906
75787,190713,224734,5.790630692000001,-7.3124658656,3.3726834547,907
76042,190752,224734,5.790630692000001,-7.3124658656,3.3726834547,908
76305,190846,224795,5.790630692000001,-7.3124658656,3.3726834547,909
76581,190880,224808,5.790630692000001,-7.3124658656,3.3726834547,910
76858,190940,224875,5.790630692000001,-7.3124658656,3.3726834547,911
77104,191004,224909,5.790630692000001,-7.3124658656,3.3726834547,912
77335,191036,224995,5.790630692000001,-7.3124658656,3.3726834547,913
77577,191096,225014,5.790630692000001,-7.3124658656,3.3726834547,914
77805,191148,225032,5.790630692000001,-7.3124658656,3.3726834547,915
77996,191222,225032,5.790630692000001,-7.3124658656,3.3726834547,916
78189,191307,225106,5.790630692000001,-7.3124658656,3.3726834547,917
78384,191321,225169,5.790630692000001,-7.3124658656,3.3726834547,918
78525,191363,225144,5.790630692000001,-7.3124658656,3.3726834547,919
78103,191266,225083,5.790630692000001,-7.3124658656,3.3726834547,920
76790,190971,224919,5.790630692000001,-7.3124658656,3.3726834547,921
75465,190717,224759,5.790630692000001,-7.3124658656,3.3726834547,922
74852,190564,224583,5.790630692000001,-7.3124658656,3.3726834547,923
74818,190525,224593,5.790630692000001,-7.3124658656,3.3726834547,924
75092,190535,224596,5.790630692000001,-7.3124658656,3.3726834547,925
75505,190572,224701,5.790630692000001,-7.3124658656,3.3726834547,926
75888,190642,224725,5.790630692000001,-7.3124658656,3.3726834547,927
76285,190772,224746,5.790630692000001,-7.3124658656,3.3726834547,928
76536,190798,224767,5.790630692000001,-7.3124658656,3.3726834547,929
76603,190813,224811,5.790630692000001,-7.3124658656,3.3726834547,930
77571,191237,224942,5.8049876276,-7.0935225977,3.3355947043999996,931
77775,191287,225018,5.8049876276,-7.0935225977,3.3355947043999996,932
77860,191291,225017,5.8049876276,-7.0935225977,3.3355947043999996,933
77822,191320,225015,5.8049876276,-7.0935225977,3.3355947043999996,934
77820,191328,225025,5.8049876276,-7.0935225977,3.3355947043999996,935
77902,191305,225059,5.8049876276,-7.0935225977,3.3355947043999996,936
78069,191318,225013,5.8049876276,-7.0935225977,3.3355947043999996,937
78309,191406,225087,5.8049876276,-7.0935225977,3.3355947043999996,938
78602,191454,225133,5.8049876276,-7.0935225977,3.3355947043999996,939
78913,191516,225154,5.8049876276,-7.0935225977,3.3355947043999996,940
79188,191590,225246,5.8049876276,-7.0935225977,3.3355947043999996,941
79458,191614,225281,5.8049876276,-7.0935225977,3.3355947043999996,942
79713,191738,225296,5.8049876276,-7.0935225977,3.3355947043999996,943
79975,191754,225355,5.8049876276,-7.0935225977,3.3355947043999996,944
80213,191815,225406,5.8049876276,-7.0935225977,3.3355947043999996,945
80439,191857,225429,5.8049876276,-7.0935225977,3.3355947043999996,946
80672,191903,225453,5.8049876276,-7.0935225977,3.3355947043999996,947
80883,191980,225507,5.8049876276,-7.0935225977,3.3355947043999996,948
81075,192010,225501,5.8049876276,-7.0935225977,3.3355947043999996,949
81272,192080,225515,5.8049876276,-7.0935225977,3.3355947043999996,950
81485,192079,225563,5.8049876276,-7.0935225977,3.3355947043999996,951
81453,192107,225555,5.8049876276,-7.0935225977,3.3355947043999996,952
80776,192003,225536,5.8049876276,-7.0935225977,3.3355947043999996,953
79735,191852,225405,5.8049876276,-7.0935225977,3.3355947043999996,954
79059,191727,225328,5.8049876276,-7.0935225977,3.3355947043999996,955
78911,191697,225295,5.8049876276,-7.0935225977,3.3355947043999996,956
79057,191728,225309,5.8049876276,-7.0935225977,3.3355947043999996,957
79321,191737,225344,5.8049876276,-7.0935225977,3.3355947043999996,958
79677,191778,225341,5.8049876276,-7.0935225977,3.3355947043999996,959
80005,191856,225394,5.8049876276,-7.0935225977,3.3355947043999996,960
80281,191906,225444,5.8049876276,-7.0935225977,3.3355947043999996,961
80376,191967,225447,5.8049876276,-7.0935225977,3.3355947043999996,962
80320,191936,225432,5.8049876276,-7.0935225977,3.3355947043999996,963
80240,191920,225422,5.8049876276,-7.0935225977,3.3355947043999996,964
80195,191955,225413,5.8049876276,-7.0935225977,3.3355947043999996,965
80239,191929,225439,5.8049876276,-7.0935225977,3.3355947043999996,966
80358,191969,225436,5.8049876276,-7.0935225977,3.3355947043999996,967
80534,192026,225486,5.8049876276,-7.0935225977,3.3355947043999996,968
80746,192037,225505,5.8049876276,-7.0935225977,3.3355947043999996,969
80973,192124,225555,5.8049876276,-7.0935225977,3.3355947043999996,970
81184,192169,225592,5.8049876276,-7.0935225977,3.3355947043999996,971
81371,192203,225570,5.8049876276,-7.0935225977,3.3355947043999996,972
77744,191160,225135,5.7523455304,-7.2179493729,3.1968109935999998,973
77717,191180,225074,5.7523455304,-7.2179493729,3.1968109935999998,974
77765,191157,225123,5.7523455304,-7.2179493729,3.1968109935999998,975
77929,191218,225156,5.7523455304,-7.2179493729,3.1968109935999998,976
78117,191256,225226,5.7523455304,-7.2179493729,3.1968109935999998,977
78341,191304,225213,5.7523455304,-7.2179493729,3.1968109935999998,978
78625,191369,225251,5.7523455304,-7.2179493729,3.1968109935999998,979
78853,191389,225330,5.7523455304,-7.2179493729,3.1968109935999998,980
79096,191454,225293,5.7523455304,-7.2179493729,3.1968109935999998,981
79320,191510,225358,5.7523455304,-7.2179493729,3.1968109935999998,982
79535,191571,225390,5.7523455304,-7.2179493729,3.1968109935999998,983
79725,191599,225415,5.7523455304,-7.2179493729,3.1968109935999998,984
79924,191644,225463,5.7523455304,-7.2179493729,3.1968109935999998,985
80101,191672,225508,5.7523455304,-7.2179493729,3.1968109935999998,986
80274,191718,225533,5.7523455304,-7.2179493729,3.1968109935999998,987
80438,191806,225571,5.7523455304,-7.2179493729,3.1968109935999998,988
80588,191808,225569,5.7523455304,-7.2179493729,3.1968109935999998,989
80608,191826,225584,5.7523455304,-7.2179493729,3.1968109935999998,990
79966,191717,225488,5.7523455304,-7.2179493729,3.1968109935999998,991
78732,191456,225339,5.7523455304,-7.2179493729,3.1968109935999998,992
77708,191284,225239,5.7523455304,-7.2179493729,3.1968109935999998,993
77306,191190,225209,5.7523455304,-7.2179493729,3.1968109935999998,994
77317,191222,225164,5.7523455304,-7.2179493729,3.1968109935999998,995
77601,191245,225158,5.7523455304,-7.2179493729,3.1968109935999998,996
77953,191316,225204,5.7523455304,-7.2179493729,3.1968109935999998,997
78327,191353,225286,5.7523455304,-7.2179493729,3.1968109935999998,998
78583,191394,225279,5.7523455304,-7.2179493729,3.1968109935999998,999
78671,191458,225291,5.7523455304,-7.2179493729,3.1968109935999998,1000
78554,191424,225315,5.7523455304,-7.2179493729,3.1968109935999998,1001
78393,191409,225264,5.7523455304,-7.2179493729,3.1968109935999998,1002
78266,191392,225283,5.7523455304,-7.2179493729,3.1968109935999998,1003
78244,191397,225258,5.7523455304,-7.2179493729,3.1968109935999998,1004
78338,191403,225303,5.7523455304,-7.2179493729,3.1968109935999998,1005
78476,191446,225285,5.7523455304,-7.2179493729,3.1968109935999998,1006
78676,191494,225284,5.7523455304,-7.2179493729,3.1968109935999998,1007
78883,191501,225357,5.7523455304,-7.2179493729,3.1968109935999998,1008
79082,191608,225384,5.7523455304,-7.2179493729,3.1968109935999998,1009
79265,191600,225408,5.7523455304,-7.2179493729,3.1968109935999998,1010
79460,191650,225427,5.7523455304,-7.2179493729,3.1968109935999998,1011
79655,191705,225457,5.7523455304,-7.2179493729,3.1968109935999998,1012
79823,191772,225494,5.7523455304,-7.2179493729,3.1968109935999998,1013
79971,191750,225515,5.7523455304,-7.2179493729,3.1968109935999998,1014
76381,190476,224679,5.760720409499999,-7.1365934045,3.3607193417,1015
76352,190450,224666,5.760720409499999,-7.1365934045,3.3607193417,1016
76317,190473,224695,5.760720409499999,-7.1365934045,3.3607193417,1017
76364,190492,224730,5.760720409499999,-7.1365934045,3.3607193417,1018
76543,190503,224717,5.760720409499999,-7.1365934045,3.3607193417,1019
76771,190545,224747,5.760720409499999,-7.1365934045,3.3607193417,1020
77045,190622,224839,5.760720409499999,-7.1365934045,3.3607193417,1021
77330,190692,224902,5.760720409499999,-7.1365934045,3.3607193417,1022
77619,190763,224905,5.760720409499999,-7.1365934045,3.3607193417,1023
77871,190840,224924,5.760720409499999,-7.1365934045,3.3607193417,1024
78115,190857,225018,5.760720409499999,-7.1365934045,3.3607193417,1025
78347,190951,225042,5.760720409499999,-7.1365934045,3.3607193417,1026
78571,190985,225052,5.760720409499999,-7.1365934045,3.3607193417,1027
78802,191070,225102,5.760720409499999,-7.1365934045,3.3607193417,1028
78985,191120,225182,5.760720409499999,-7.1365934045,3.3607193417,1029
79192,191183,225213,5.760720409499999,-7.1365934045,3.3607193417,1030
79372,191170,225226,5.760720409499999,-7.1365934045,3.3607193417,1031
79388,191200,225184,5.760720409499999,-7.1365934045,3.3607193417,1032
78683,191117,225075,5.760720409499999,-7.1365934045,3.3607193417,1033
77371,190821,224930,5.760720409499999,-7.1365934045,3.3607193417,1034
76470,190651,224826,5.760720409499999,-7.1365934045,3.3607193417,1035
76225,190610,224783,5.760720409499999,-7.1365934045,3.3607193417,1036
76415,190667,224801,5.760720409499999,-7.1365934045,3.3607193417,1037
76771,190697,224836,5.760720409499999,-7.1365934045,3.3607193417,1038
77185,190770,224913,5.760720409499999,-7.1365934045,3.3607193417,1039
77633,190853,224951,5.760720409499999,-7.1365934045,3.3607193417,1040
77924,190938,225036,5.760720409499999,-7.1365934045,3.3607193417,1041
78026,190930,224982,5.760720409499999,-7.1365934045,3.3607193417,1042
77972,190915,224998,5.760720409499999,-7.1365934045,3.3607193417,1043
77847,190914,224983,5.760720409499999,-7.1365934045,3.3607193417,1044
77782,190929,224992,5.760720409499999,-7.1365934045,3.3607193417,1045
77832,190931,224968,5.760720409499999,-7.1365934045,3.3607193417,1046
77984,190943,225030,5.760720409499999,-7.1365934045,3.3607193417,1047
78207,191059,225064,5.760720409499999,-7.1365934045,3.3607193417,1048
78449,191059,225109,5.760720409499999,-7.1365934045,3.3607193417,1049
78707,191149,225109,5.760720409499999,-7.1365934045,3.3607193417,1050
78937,191213,225145,5.760720409499999,-7.1365934045,3.3607193417,1051
79142,191257,225228,5.760720409499999,-7.1365934045,3.3607193417,1052
79349,191277,225201,5.760720409499999,-7.1365934045,3.3607193417,1053
79548,191329,225275,5.760720409499999,-7.1365934045,3.3607193417,1054
79711,191422,225294,5.760720409499999,-7.1365934045,3.3607193417,1055
79887,191464,225309,5.760720409499999,-7.1365934045,3.3607193417,1056
76918,191015,225021,5.8480584344,-7.2167529616,3.3535408739,1057
75792,190798,224819,5.8480584344,-7.2167529616,3.3535408739,1058
75386,190708,224740,5.8480584344,-7.2167529616,3.3535408739,1059
75438,190665,224758,5.8480584344,-7.2167529616,3.3535408739,1060
75705,190700,224800,5.8480584344,-7.2167529616,3.3535408739,1061
76032,190793,224824,5.8480584344,-7.2167529616,3.3535408739,1062
76396,190834,224865,5.8480584344,-7.2167529616,3.3535408739,1063
76654,190873,224917,5.8480584344,-7.2167529616,3.3535408739,1064
76693,190889,224849,5.8480584344,-7.2167529616,3.3535408739,1065
76568,190850,224866,5.8480584344,-7.2167529616,3.3535408739,1066
76390,190804,224884,5.8480584344,-7.2167529616,3.3535408739,1067
76320,190806,224838,5.8480584344,-7.2167529616,3.3535408739,1068
76371,190809,224840,5.8480584344,-7.2167529616,3.3535408739,1069
76516,190858,224883,5.8480584344,-7.2167529616,3.3535408739,1070
76725,190885,224886,5.8480584344,-7.2167529616,3.3535408739,1071
76927,190949,224964,5.8480584344,-7.2167529616,3.3535408739,1072
77129,190967,224941,5.8480584344,-7.2167529616,3.3535408739,1073
77330,191029,225030,5.8480584344,-7.2167529616,3.3535408739,1074
77544,191121,225034,5.8480584344,-7.2167529616,3.3535408739,1075
77719,191138,225083,5.8480584344,-7.2167529616,3.3535408739,1076
77900,191161,225112,5.8480584344,-7.2167529616,3.3535408739,1077
78061,191249,225160,5.8480584344,-7.2167529616,3.3535408739,1078
78235,191258,225175,5.8480584344,-7.2167529616,3.3535408739,1079
78353,191257,225213,5.8480584344,-7.2167529616,3.3535408739,1080
77949,191200,225106,5.8480584344,-7.2167529616,3.3535408739,1081
76464,190908,224898,5.8480584344,-7.2167529616,3.3535408739,1082
74823,190574,224669,5.8480584344,-7.2167529616,3.3535408739,1083
73906,190372,224522,5.8480584344,-7.2167529616,3.3535408739,1084
73682,190273,224434,5.8480584344,-7.2167529616,3.3535408739,1085
73826,190224,224470,5.8480584344,-7.2167529616,3.3535408739,1086
74067,190247,224500,5.8480584344,-7.2167529616,3.3535408739,1087
74379,190318,224488,5.8480584344,-7.2167529616,3.3535408739,1088
74718,190359,224556,5.8480584344,-7.2167529616,3.3535408739,1089
74999,190410,224585,5.8480584344,-7.2167529616,3.3535408739,1090
75069,190431,224576,5.8480584344,-7.2167529616,3.3535408739,1091
74992,190368,224605,5.8480584344,-7.2167529616,3.3535408739,1092
74860,190334,224602,5.8480584344,-7.2167529616,3.3535408739,1093
74856,190386,224592,5.8480584344,-7.2167529616,3.3535408739,1094
74917,190387,224581,5.8480584344,-7.2167529616,3.3535408739,1095
75096,190421,224581,5.8480584344,-7.2167529616,3.3535408739,1096
75371,190471,224682,5.8480584344,-7.2167529616,3.3535408739,1097
75652,190544,224708,5.8480584344,-7.2167529616,3.3535408739,1098
77403,191110,224947,5.8947184750999995,-7.1916283243,3.2350961552,1099
77594,191158,224975,5.8947184750999995,-7.1916283243,3.2350961552,1100
77770,191209,225002,5.8947184750999995,-7.1916283243,3.2350961552,1101
77936,191253,225030,5.8947184750999995,-7.1916283243,3.2350961552,1102
78082,191310,225087,5.8947184750999995,-7.1916283243,3.2350961552,1103
78272,191337,225089,5.8947184750999995,-7.1916283243,3.2350961552,1104
78165,191335,225090,5.8947184750999995,-7.1916283243,3.2350961552,1105
77078,191135,224975,5.8947184750999995,-7.1916283243,3.2350961552,1106
75495,190829,224755,5.8947184750999995,-7.1916283243,3.2350961552,1107
74573,190656,224614,5.8947184750999995,-7.1916283243,3.2350961552,1108
74372,190601,224578,5.8947184750999995,-7.1916283243,3.2350961552,1109
74576,190577,224588,5.8947184750999995,-7.1916283243,3.2350961552,1110
74894,190626,224591,5.8947184750999995,-7.1916283243,3.2350961552,1111
75189,190683,224662,5.8947184750999995,-7.1916283243,3.2350961552,1112
75519,190737,224741,5.8947184750999995,-7.1916283243,3.2350961552,1113
75826,190797,224735,5.8947184750999995,-7.1916283243,3.2350961552,1114
75988,190809,224746,5.8947184750999995,-7.1916283243,3.2350961552,1115
75998,190819,224761,5.8947184750999995,-7.1916283243,3.2350961552,1116
75938,190811,224796,5.8947184750999995,-7.1916283243,3.2350961552,1117
75972,190830,224762,5.8947184750999995,-7.1916283243,3.2350961552,1118
76115,190857,224790,5.8947184750999995,-7.1916283243,3.2350961552,1119
76327,190916,224848,5.8947184750999995,-7.1916283243,3.2350961552,1120
76617,190961,224887,5.8947184750999995,-7.1916283243,3.2350961552,1121
76920,191046,224936,5.8947184750999995,-7.1916283243,3.2350961552,1122
77200,191142,224987,5.8947184750999995,-7.1916283243,3.2350961552,1123
77488,191197,224990,5.8947184750999995,-7.1916283243,3.2350961552,1124
77749,191250,225045,5.8947184750999995,-7.1916283243,3.2350961552,1125
78002,191315,225102,5.8947184750999995,-7.1916283243,3.2350961552,1126
78271,191366,225121,5.8947184750999995,-7.1916283243,3.2350961552,1127
78523,191394,225179,5.8947184750999995,-7.1916283243,3.2350961552,1128
78760,191478,225222,5.8947184750999995,-7.1916283243,3.2350961552,1129
79020,191542,225255,5.8947184750999995,-7.1916283243,3.2350961552,1130
79217,191559,225308,5.8947184750999995,-7.1916283243,3.2350961552,1131
79455,191613,225300,5.8947184750999995,-7.1916283243,3.2350961552,1132
79682,191666,225381,5.8947184750999995,-7.1916283243,3.2350961552,1133
79698,191741,225353,5.8947184750999995,-7.1916283243,3.2350961552,1134
78926,191551,225235,5.8947184750999995,-7.1916283243,3.2350961552,1135
77685,191320,225106,5.8947184750999995,-7.1916283243,3.2350961552,1136
76962,191205,225003,5.8947184750999995,-7.1916283243,3.2350961552,1137
76875,191195,224966,5.8947184750999995,-7.1916283243,3.2350961552,1138
77079,191185,225010,5.8947184750999995,-7.1916283243,3.2350961552,1139
77408,191258,225059,5.8947184750999995,-7.1916283243,3.2350961552,1140
78025,191372,225098,5.7846486355,-7.1653072757,3.2829526072,1141
78203,191423,225145,5.7846486355,-7.1653072757,3.2829526072,1142
78045,191411,225100,5.7846486355,-7.1653072757,3.2829526072,1143
76933,191166,224945,5.7846486355,-7.1653072757,3.2829526072,1144
75452,190876,224717,5.7846486355,-7.1653072757,3.2829526072,1145
74583,190673,224555,5.7846486355,-7.1653072757,3.2829526072,1146
74390,190611,224501,5.7846486355,-7.1653072757,3.2829526072,1147
74576,190586,224533,5.7846486355,-7.1653072757,3.2829526072,1148
74872,190632,224554,5.7846486355,-7.1653072757,3.2829526072,1149
75192,190644,224597,5.7846486355,-7.1653072757,3.2829526072,1150
75520,190697,224608,5.7846486355,-7.1653072757,3.2829526072,1151
75817,190769,224660,5.7846486355,-7.1653072757,3.2829526072,1152
75938,190775,224703,5.7846486355,-7.1653072757,3.2829526072,1153
75910,190778,224715,5.7846486355,-7.1653072757,3.2829526072,1154
75839,190796,224657,5.7846486355,-7.1653072757,3.2829526072,1155
75860,190804,224690,5.7846486355,-7.1653072757,3.2829526072,1156
75956,190783,224693,5.7846486355,-7.1653072757,3.2829526072,1157
76165,190852,224750,5.7846486355,-7.1653072757,3.2829526072,1158
76437,190912,224785,5.7846486355,-7.1653072757,3.2829526072,1159
76701,190957,224794,5.7846486355,-7.1653072757,3.2829526072,1160
76986,191003,224885,5.7846486355,-7.1653072757,3.2829526072,1161
77233,191083,224850,5.7846486355,-7.1653072757,3.2829526072,1162
77483,191104,224952,5.7846486355,-7.1653072757,3.2829526072,1163
77710,191172,224957,5.7846486355,-7.1653072757,3.2829526072,1164
77936,191258,225035,5.7846486355,-7.1653072757,3.2829526072,1165
78150,191294,225035,5.7846486355,-7.1653072757,3.2829526072,1166
78356,191350,225062,5.7846486355,-7.1653072757,3.2829526072,1167
78581,191385,225109,5.7846486355,-7.1653072757,3.2829526072,1168
78772,191474,225170,5.7846486355,-7.1653072757,3.2829526072,1169
78532,191377,225096,5.7846486355,-7.1653072757,3.2829526072,1170
77470,191171,224946,5.7846486355,-7.1653072757,3.2829526072,1171
76297,190923,224805,5.7846486355,-7.1653072757,3.2829526072,1172
75716,190814,224734,5.7846486355,-7.1653072757,3.2829526072,1173
75692,190764,224673,5.7846486355,-7.1653072757,3.2829526072,1174
75927,190760,224692,5.7846486355,-7.1653072757,3.2829526072,1175
76247,190830,224728,5.7846486355,-7.1653072757,3.2829526072,1176
76605,190911,224797,5.7846486355,-7.1653072757,3.2829526072,1177
76966,191006,224817,5.7846486355,-7.1653072757,3.2829526072,1178
77228,191059,224890,5.7846486355,-7.1653072757,3.2829526072,1179
77324,191046,224888,5.7846486355,-7.1653072757,3.2829526072,1180
77303,191046,224885,5.7846486355,-7.1653072757,3.2829526072,1181
77271,191020,224871,5.7846486355,-7.1653072757,3.2829526072,1182
78542,191479,225233,5.789434280699999,-7.1174508237000005,3.3595229304,1183
78713,191518,225252,5.789434280699999,-7.1174508237000005,3.3595229304,1184
78828,191526,225220,5.789434280699999,-7.1174508237000005,3.3595229304,1185
79010,191610,225272,5.789434280699999,-7.1174508237000005,3.3595229304,1186
79135,191652,225324,5.789434280699999,-7.1174508237000005,3.3595229304,1187
79274,191680,225374,5.789434280699999,-7.1174508237000005,3.3595229304,1188
79430,191727,225420,5.789434280699999,-7.1174508237000005,3.3595229304,1189
79552,191753,225379,5.789434280699999,-7.1174508237000005,3.3595229304,1190
79694,191799,225425,5.789434280699999,-7.1174508237000005,3.3595229304,1191
79822,191822,225419,5.789434280699999,-7.1174508237000005,3.3595229304,1192
79939,191860,225479,5.789434280699999,-7.1174508237000005,3.3595229304,1193
80034,191875,225467,5.789434280699999,-7.1174508237000005,3.3595229304,1194
79645,191819,225361,5.789434280699999,-7.1174508237000005,3.3595229304,1195
78104,191488,225206,5.789434280699999,-7.1174508237000005,3.3595229304,1196
76324,191154,224972,5.789434280699999,-7.1174508237000005,3.3595229304,1197
75307,190934,224793,5.789434280699999,-7.1174508237000005,3.3595229304,1198
75028,190873,224739,5.789434280699999,-7.1174508237000005,3.3595229304,1199
75147,190843,224705,5.789434280699999,-7.1174508237000005,3.3595229304,1200
75387,190828,224730,5.789434280699999,-7.1174508237000005,3.3595229304,1201
75629,190869,224786,5.789434280699999,-7.1174508237000005,3.3595229304,1202
75876,190875,224786,5.789434280699999,-7.1174508237000005,3.3595229304,1203
76080,190914,224792,5.789434280699999,-7.1174508237000005,3.3595229304,1204
76084,190892,224794,5.789434280699999,-7.1174508237000005,3.3595229304,1205
75936,190853,224752,5.789434280699999,-7.1174508237000005,3.3595229304,1206
75792,190841,224750,5.789434280699999,-7.1174508237000005,3.3595229304,1207
75748,190811,224717,5.789434280699999,-7.1174508237000005,3.3595229304,1208
75830,190833,224719,5.789434280699999,-7.1174508237000005,3.3595229304,1209
76009,190849,224817,5.789434280699999,-7.1174508237000005,3.3595229304,1210
76251,190871,224830,5.789434280699999,-7.1174508237000005,3.3595229304,1211
76489,190922,224821,5.789434280699999,-7.1174508237000005,3.3595229304,1212
76748,191008,224896,5.789434280699999,-7.1174508237000005,3.3595229304,1213
76954,190995,224943,5.789434280699999,-7.1174508237000005,3.3595229304,1214
77178,191030,224950,5.789434280699999,-7.1174508237000005,3.3595229304,1215
77351,191127,224985,5.789434280699999,-7.1174508237000005,3.3595229304,1216
77512,191147,224968,5.789434280699999,-7.1174508237000005,3.3595229304,1217
77643,191172,225072,5.789434280699999,-7.1174508237000005,3.3595229304,1218
77783,191217,225062,5.789434280699999,-7.1174508237000005,3.3595229304,1219
77921,191278,225112,5.789434280699999,-7.1174508237000005,3.3595229304,1220
78030,191286,225129,5.789434280699999,-7.1174508237000005,3.3595229304,1221
78142,191306,225163,5.789434280699999,-7.1174508237000005,3.3595229304,1222
78294,191374,225148,5.789434280699999,-7.1174508237000005,3.3595229304,1223
78295,191367,225188,5.789434280699999,-7.1174508237000005,3.3595229304,1224
78731,191497,225154,5.6482577473,-7.2071816712,3.4301111971,1225
77842,191366,225044,5.6482577473,-7.2071816712,3.4301111971,1226
77539,191321,224995,5.6482577473,-7.2071816712,3.4301111971,1227
77619,191322,225020,5.6482577473,-7.2071816712,3.4301111971,1228
77872,191373,225053,5.6482577473,-7.2071816712,3.4301111971,1229
78227,191406,225125,5.6482577473,-7.2071816712,3.4301111971,1230
78575,191487,225124,5.6482577473,-7.2071816712,3.4301111971,1231
78791,191511,225194,5.6482577473,-7.2071816712,3.4301111971,1232
78802,191543,225131,5.6482577473,-7.2071816712,3.4301111971,1233
78617,191491,225138,5.6482577473,-7.2071816712,3.4301111971,1234
78428,191470,225120,5.6482577473,-7.2071816712,3.4301111971,1235
78314,191491,225105,5.6482577473,-7.2071816712,3.4301111971,1236
78315,191479,225116,5.6482577473,-7.2071816712,3.4301111971,1237
78404,191498,225108,5.6482577473,-7.2071816712,3.4301111971,1238
78570,191537,225119,5.6482577473,-7.2071816712,3.4301111971,1239
78740,191579,225154,5.6482577473,-7.2071816712,3.4301111971,1240
78952,191603,225176,5.6482577473,-7.2071816712,3.4301111971,1241
79143,191635,225206,5.6482577473,-7.2071816712,3.4301111971,1242
79344,191694,225240,5.6482577473,-7.2071816712,3.4301111971,1243
79503,191724,225262,5.6482577473,-7.2071816712,3.4301111971,1244
79663,191774,225291,5.6482577473,-7.2071816712,3.4301111971,1245
79811,191783,225315,5.6482577473,-7.2071816712,3.4301111971,1246
79922,191853,225331,5.6482577473,-7.2071816712,3.4301111971,1247
79977,191841,225397,5.6482577473,-7.2071816712,3.4301111971,1248
79654,191804,225312,5.6482577473,-7.2071816712,3.4301111971,1249
78505,191560,225155,5.6482577473,-7.2071816712,3.4301111971,1250
77067,191300,224987,5.6482577473,-7.2071816712,3.4301111971,1251
76246,191194,224902,5.6482577473,-7.2071816712,3.4301111971,1252
76032,191143,224806,5.6482577473,-7.2071816712,3.4301111971,1253
76178,191166,224848,5.6482577473,-7.2071816712,3.4301111971,1254
76466,191196,224874,5.6482577473,-7.2071816712,3.4301111971,1255
76801,191213,224888,5.6482577473,-7.2071816712,3.4301111971,1256
77099,191276,224955,5.6482577473,-7.2071816712,3.4301111971,1257
77255,191262,224953,5.6482577473,-7.2071816712,3.4301111971,1258
77203,191291,224938,5.6482577473,-7.2071816712,3.4301111971,1259
76995,191231,224921,5.6482577473,-7.2071816712,3.4301111971,1260
76816,191166,224917,5.6482577473,-7.2071816712,3.4301111971,1261
76790,191159,224876,5.6482577473,-7.2071816712,3.4301111971,1262
76864,191173,224937,5.6482577473,-7.2071816712,3.4301111971,1263
77029,191187,224922,5.6482577473,-7.2071816712,3.4301111971,1264
77226,191228,224965,5.6482577473,-7.2071816712,3.4301111971,1265
77426,191274,225011,5.6482577473,-7.2071816712,3.4301111971,1266
76918,190859,224932,5.7236316592000005,-7.0851477186,3.2602207924999997,1267
75561,190574,224690,5.7236316592000005,-7.0851477186,3.2602207924999997,1268
74817,190390,224535,5.7236316592000005,-7.0851477186,3.2602207924999997,1269
74638,190345,224528,5.7236316592000005,-7.0851477186,3.2602207924999997,1270
74749,190284,224557,5.7236316592000005,-7.0851477186,3.2602207924999997,1271
74905,190322,224560,5.7236316592000005,-7.0851477186,3.2602207924999997,1272
75112,190353,224556,5.7236316592000005,-7.0851477186,3.2602207924999997,1273
75366,190346,224550,5.7236316592000005,-7.0851477186,3.2602207924999997,1274
75560,190408,224569,5.7236316592000005,-7.0851477186,3.2602207924999997,1275
75587,190389,224591,5.7236316592000005,-7.0851477186,3.2602207924999997,1276
75496,190415,224613,5.7236316592000005,-7.0851477186,3.2602207924999997,1277
75429,190381,224568,5.7236316592000005,-7.0851477186,3.2602207924999997,1278
75422,190355,224613,5.7236316592000005,-7.0851477186,3.2602207924999997,1279
75566,190389,224641,5.7236316592000005,-7.0851477186,3.2602207924999997,1280
75788,190433,224639,5.7236316592000005,-7.0851477186,3.2602207924999997,1281
76016,190503,224721,5.7236316592000005,-7.0851477186,3.2602207924999997,1282
76267,190507,224726,5.7236316592000005,-7.0851477186,3.2602207924999997,1283
76508,190615,224769,5.7236316592000005,-7.0851477186,3.2602207924999997,1284
76717,190636,224788,5.7236316592000005,-7.0851477186,3.2602207924999997,1285
76920,190700,224826,5.7236316592000005,-7.0851477186,3.2602207924999997,1286
77121,190758,224862,5.7236316592000005,-7.0851477186,3.2602207924999997,1287
77323,190797,224974,5.7236316592000005,-7.0851477186,3.2602207924999997,1288
77495,190870,224966,5.7236316592000005,-7.0851477186,3.2602207924999997,1289
77659,190908,224990,5.7236316592000005,-7.0851477186,3.2602207924999997,1290
77804,190959,225025,5.7236316592000005,-7.0851477186,3.2602207924999997,1291
77973,191025,225052,5.7236316592000005,-7.0851477186,3.2602207924999997,1292
78101,191026,225044,5.7236316592000005,-7.0851477186,3.2602207924999997,1293
77684,190936,224989,5.7236316592000005,-7.0851477186,3.2602207924999997,1294
76342,190657,224802,5.7236316592000005,-7.0851477186,3.2602207924999997,1295
75030,190417,224620,5.7236316592000005,-7.0851477186,3.2602207924999997,1296
74389,190254,224495,5.7236316592000005,-7.0851477186,3.2602207924999997,1297
74340,190198,224476,5.7236316592000005,-7.0851477186,3.2602207924999997,1298
74524,190210,224477,5.7236316592000005,-7.0851477186,3.2602207924999997,1299
74762,190204,224480,5.7236316592000005,-7.0851477186,3.2602207924999997,1300
75026,190260,224551,5.7236316592000005,-7.0851477186,3.2602207924999997,1301
75320,190321,224560,5.7236316592000005,-7.0851477186,3.2602207924999997,1302
75538,190353,224617,5.7236316592000005,-7.0851477186,3.2602207924999997,1303
75626,190357,224601,5.7236316592000005,-7.0851477186,3.2602207924999997,1304
75583,190352,224615,5.7236316592000005,-7.0851477186,3.2602207924999997,1305
75554,190362,224636,5.7236316592000005,-7.0851477186,3.2602207924999997,1306
75625,190404,224624,5.7236316592000005,-7.0851477186,3.2602207924999997,1307
75793,190375,224615,5.7236316592000005,-7.0851477186,3.2602207924999997,1308
83489,192463,225743,5.766702466,-7.3507510272,3.3308090592,1309
83614,192469,225749,5.766702466,-7.3507510272,3.3308090592,1310
83674,192517,225782,5.766702466,-7.3507510272,3.3308090592,1311
83783,192519,225798,5.766702466,-7.3507510272,3.3308090592,1312
83868,192550,225880,5.766702466,-7.3507510272,3.3308090592,1313
83976,192607,225847,5.766702466,-7.3507510272,3.3308090592,1314
84064,192638,225848,5.766702466,-7.3507510272,3.3308090592,1315
84154,192663,225894,5.766702466,-7.3507510272,3.3308090592,1316
84027,192641,225858,5.766702466,-7.3507510272,3.3308090592,1317
83331,192521,225753,5.766702466,-7.3507510272,3.3308090592,1318
82237,192378,225641,5.766702466,-7.3507510272,3.3308090592,1319
81453,192308,225586,5.766702466,-7.3507510272,3.3308090592,1320
81047,192239,225542,5.766702466,-7.3507510272,3.3308090592,1321
80963,192224,225546,5.766702466,-7.3507510272,3.3308090592,1322
80947,192228,225514,5.766702466,-7.3507510272,3.3308090592,1323
81021,192225,225536,5.766702466,-7.3507510272,3.3308090592,1324
81105,192245,225569,5.766702466,-7.3507510272,3.3308090592,1325
81084,192293,225548,5.766702466,-7.3507510272,3.3308090592,1326
80872,192259,225504,5.766702466,-7.3507510272,3.3308090592,1327
80554,192200,225447,5.766702466,-7.3507510272,3.3308090592,1328
80334,192132,225417,5.766702466,-7.3507510272,3.3308090592,1329
80208,192182,225414,5.766702466,-7.3507510272,3.3308090592,1330
80185,192150,225409,5.766702466,-7.3507510272,3.3308090592,1331
80222,192127,225391,5.766702466,-7.3507510272,3.3308090592,1332
80306,192216,225475,5.766702466,-7.3507510272,3.3308090592,1333
80412,192219,225429,5.766702466,-7.3507510272,3.3308090592,1334
80503,192256,225447,5.766702466,-7.3507510272,3.3308090592,1335
80602,192255,225456,5.766702466,-7.3507510272,3.3308090592,1336
80669,192274,225491,5.766702466,-7.3507510272,3.3308090592,1337
80768,192321,225502,5.766702466,-7.3507510272,3.3308090592,1338
80840,192334,225502,5.766702466,-7.3507510272,3.3308090592,1339
80891,192348,225472,5.766702466,-7.3507510272,3.3308090592,1340
80961,192344,225533,5.766702466,-7.3507510272,3.3308090592,1341
80994,192370,225541,5.766702466,-7.3507510272,3.3308090592,1342
81057,192384,225598,5.766702466,-7.3507510272,3.3308090592,1343
80961,192385,225501,5.766702466,-7.3507510272,3.3308090592,1344
80155,192283,225430,5.766702466,-7.3507510272,3.3308090592,1345
78733,192033,225292,5.766702466,-7.3507510272,3.3308090592,1346
77647,191823,225174,5.766702466,-7.3507510272,3.3308090592,1347
77196,191741,225062,5.766702466,-7.3507510272,3.3308090592,1348
77087,191726,225045,5.766702466,-7.3507510272,3.3308090592,1349
77141,191680,225028,5.766702466,-7.3507510272,3.3308090592,1350
81251,192340,225648,5.856433313499999,-7.198806792099999,3.2865418411,1351
80890,192279,225617,5.856433313499999,-7.198806792099999,3.2865418411,1352
79761,192037,225491,5.856433313499999,-7.198806792099999,3.2865418411,1353
78576,191845,225304,5.856433313499999,-7.198806792099999,3.2865418411,1354
77997,191718,225238,5.856433313499999,-7.198806792099999,3.2865418411,1355
77895,191714,225248,5.856433313499999,-7.198806792099999,3.2865418411,1356
77975,191690,225229,5.856433313499999,-7.198806792099999,3.2865418411,1357
78153,191711,225224,5.856433313499999,-7.198806792099999,3.2865418411,1358
78318,191731,225266,5.856433313499999,-7.198806792099999,3.2865418411,1359
78505,191773,225273,5.856433313499999,-7.198806792099999,3.2865418411,1360
78601,191753,225264,5.856433313499999,-7.198806792099999,3.2865418411,1361
78552,191782,225237,5.856433313499999,-7.198806792099999,3.2865418411,1362
78446,191724,225262,5.856433313499999,-7.198806792099999,3.2865418411,1363
78368,191740,225236,5.856433313499999,-7.198806792099999,3.2865418411,1364
78396,191778,225214,5.856433313499999,-7.198806792099999,3.2865418411,1365
78527,191761,225227,5.856433313499999,-7.198806792099999,3.2865418411,1366
78687,191778,225292,5.856433313499999,-7.198806792099999,3.2865418411,1367
78907,191847,225285,5.856433313499999,-7.198806792099999,3.2865418411,1368
79142,191881,225352,5.856433313499999,-7.198806792099999,3.2865418411,1369
79348,191924,225376,5.856433313499999,-7.198806792099999,3.2865418411,1370
79558,191983,225407,5.856433313499999,-7.198806792099999,3.2865418411,1371
79726,192008,225432,5.856433313499999,-7.198806792099999,3.2865418411,1372
79919,192045,225449,5.856433313499999,-7.198806792099999,3.2865418411,1373
80067,192089,225532,5.856433313499999,-7.198806792099999,3.2865418411,1374
80227,192139,225528,5.856433313499999,-7.198806792099999,3.2865418411,1375
80377,192175,225538,5.856433313499999,-7.198806792099999,3.2865418411,1376
80510,192225,225574,5.856433313499999,-7.198806792099999,3.2865418411,1377
80643,192242,225609,5.856433313499999,-7.198806792099999,3.2865418411,1378
80771,192308,225638,5.856433313499999,-7.198806792099999,3.2865418411,1379
80915,192312,225641,5.856433313499999,-7.198806792099999,3.2865418411,1380
80976,192358,225671,5.856433313499999,-7.198806792099999,3.2865418411,1381
80518,192264,225609,5.856433313499999,-7.198806792099999,3.2865418411,1382
79360,192062,225491,5.856433313499999,-7.198806792099999,3.2865418411,1383
78263,191861,225327,5.856433313499999,-7.198806792099999,3.2865418411,1384
77772,191802,225242,5.856433313499999,-7.198806792099999,3.2865418411,1385
77728,191744,225213,5.856433313499999,-7.198806792099999,3.2865418411,1386
77946,191742,225283,5.856433313499999,-7.198806792099999,3.2865418411,1387
78188,191841,225278,5.856433313499999,-7.198806792099999,3.2865418411,1388
78478,191885,225321,5.856433313499999,-7.198806792099999,3.2865418411,1389
78704,191894,225344,5.856433313499999,-7.198806792099999,3.2865418411,1390
78778,191883,225303,5.856433313499999,-7.198806792099999,3.2865418411,1391
78662,191889,225330,5.856433313499999,-7.198806792099999,3.2865418411,1392
76273,190846,224814,5.9126646445999995,-7.2454668328,3.4121650276000004,1393
76595,190913,224865,5.9126646445999995,-7.2454668328,3.4121650276000004,1394
76935,190947,224886,5.9126646445999995,-7.2454668328,3.4121650276000004,1395
77208,191065,224935,5.9126646445999995,-7.2454668328,3.4121650276000004,1396
77328,191048,224988,5.9126646445999995,-7.2454668328,3.4121650276000004,1397
77348,191051,224968,5.9126646445999995,-7.2454668328,3.4121650276000004,1398
77386,191037,224960,5.9126646445999995,-7.2454668328,3.4121650276000004,1399
77499,191104,225024,5.9126646445999995,-7.2454668328,3.4121650276000004,1400
77689,191116,224972,5.9126646445999995,-7.2454668328,3.4121650276000004,1401
77963,191200,225062,5.9126646445999995,-7.2454668328,3.4121650276000004,1402
78234,191224,225113,5.9126646445999995,-7.2454668328,3.4121650276000004,1403
78494,191269,225102,5.9126646445999995,-7.2454668328,3.4121650276000004,1404
78803,191341,225123,5.9126646445999995,-7.2454668328,3.4121650276000004,1405
79064,191395,225161,5.9126646445999995,-7.2454668328,3.4121650276000004,1406
79316,191442,225220,5.9126646445999995,-7.2454668328,3.4121650276000004,1407
79560,191497,225287,5.9126646445999995,-7.2454668328,3.4121650276000004,1408
79837,191590,225310,5.9126646445999995,-7.2454668328,3.4121650276000004,1409
80071,191634,225333,5.9126646445999995,-7.2454668328,3.4121650276000004,1410
80307,191688,225384,5.9126646445999995,-7.2454668328,3.4121650276000004,1411
80477,191695,225431,5.9126646445999995,-7.2454668328,3.4121650276000004,1412
80086,191577,225326,5.9126646445999995,-7.2454668328,3.4121650276000004,1413
79149,191411,225201,5.9126646445999995,-7.2454668328,3.4121650276000004,1414
78483,191245,225099,5.9126646445999995,-7.2454668328,3.4121650276000004,1415
78336,191211,225064,5.9126646445999995,-7.2454668328,3.4121650276000004,1416
78489,191297,225062,5.9126646445999995,-7.2454668328,3.4121650276000004,1417
78732,191277,225119,5.9126646445999995,-7.2454668328,3.4121650276000004,1418
79010,191380,225164,5.9126646445999995,-7.2454668328,3.4121650276000004,1419
79317,191409,225189,5.9126646445999995,-7.2454668328,3.4121650276000004,1420
79590,191430,225177,5.9126646445999995,-7.2454668328,3.4121650276000004,1421
79774,191498,225212,5.9126646445999995,-7.2454668328,3.4121650276000004,1422
79782,191501,225218,5.9126646445999995,-7.2454668328,3.4121650276000004,1423
79828,191511,225252,5.9126646445999995,-7.2454668328,3.4121650276000004,1424
79914,191539,225282,5.9126646445999995,-7.2454668328,3.4121650276000004,1425
80090,191565,225274,5.9126646445999995,-7.2454668328,3.4121650276000004,1426
80295,191579,225318,5.9126646445999995,-7.2454668328,3.4121650276000004,1427
80549,191630,225312,5.9126646445999995,-7.2454668328,3.4121650276000004,1428
80809,191729,225335,5.9126646445999995,-7.2454668328,3.4121650276000004,1429
81060,191744,225446,5.9126646445999995,-7.2454668328,3.4121650276000004,1430
81319,191820,225473,5.9126646445999995,-7.2454668328,3.4121650276000004,1431
81546,191831,225506,5.9126646445999995,-7.2454668328,3.4121650276000004,1432
81787,191901,225501,5.9126646445999995,-7.2454668328,3.4121650276000004,1433
82012,191982,225567,5.9126646445999995,-7.2454668328,3.4121650276000004,1434
78562,192349,226111,5.7092747236,-7.221538606799999,3.3116664784,1435
78511,192354,226084,5.7092747236,-7.221538606799999,3.3116664784,1436
78407,192334,226090,5.7092747236,-7.221538606799999,3.3116664784,1437
78375,192315,226088,5.7092747236,-7.221538606799999,3.3116664784,1438
78409,192343,226087,5.7092747236,-7.221538606799999,3.3116664784,1439
78565,192344,226084,5.7092747236,-7.221538606799999,3.3116664784,1440
78758,192386,226159,5.7092747236,-7.221538606799999,3.3116664784,1441
78979,192389,226124,5.7092747236,-7.221538606799999,3.3116664784,1442
79214,192463,226171,5.7092747236,-7.221538606799999,3.3116664784,1443
79413,192495,226195,5.7092747236,-7.221538606799999,3.3116664784,1444
79624,192572,226185,5.7092747236,-7.221538606799999,3.3116664784,1445
79799,192577,226222,5.7092747236,-7.221538606799999,3.3116664784,1446
79976,192635,226273,5.7092747236,-7.221538606799999,3.3116664784,1447
80135,192658,226305,5.7092747236,-7.221538606799999,3.3116664784,1448
80286,192670,226351,5.7092747236,-7.221538606799999,3.3116664784,1449
80105,192639,226292,5.7092747236,-7.221538606799999,3.3116664784,1450
79081,192494,226191,5.7092747236,-7.221538606799999,3.3116664784,1451
77907,192321,226062,5.7092747236,-7.221538606799999,3.3116664784,1452
77338,192147,226006,5.7092747236,-7.221538606799999,3.3116664784,1453
77299,192144,226009,5.7092747236,-7.221538606799999,3.3116664784,1454
77493,192171,225971,5.7092747236,-7.221538606799999,3.3116664784,1455
77747,192175,225984,5.7092747236,-7.221538606799999,3.3116664784,1456
78027,192210,226061,5.7092747236,-7.221538606799999,3.3116664784,1457
78290,192297,226070,5.7092747236,-7.221538606799999,3.3116664784,1458
78477,192298,226058,5.7092747236,-7.221538606799999,3.3116664784,1459
78502,192290,226063,5.7092747236,-7.221538606799999,3.3116664784,1460
78464,192278,226076,5.7092747236,-7.221538606799999,3.3116664784,1461
78436,192223,226028,5.7092747236,-7.221538606799999,3.3116664784,1462
78515,192278,226095,5.7092747236,-7.221538606799999,3.3116664784,1463
78645,192279,226102,5.7092747236,-7.221538606799999,3.3116664784,1464
78843,192305,226139,5.7092747236,-7.221538606799999,3.3116664784,1465
79060,192406,226085,5.7092747236,-7.221538606799999,3.3116664784,1466
79300,192422,226159,5.7092747236,-7.221538606799999,3.3116664784,1467
79517,192444,226160,5.7092747236,-7.221538606799999,3.3116664784,1468
79747,192472,226221,5.7092747236,-7.221538606799999,3.3116664784,1469
79957,192523,226272,5.7092747236,-7.221538606799999,3.3116664784,1470
80146,192568,226269,5.7092747236,-7.221538606799999,3.3116664784,1471
80365,192605,226306,5.7092747236,-7.221538606799999,3.3116664784,1472
80536,192634,226320,5.7092747236,-7.221538606799999,3.3116664784,1473
80696,192732,226332,5.7092747236,-7.221538606799999,3.3116664784,1474
80405,192642,226322,5.7092747236,-7.221538606799999,3.3116664784,1475
79347,192473,226239,5.7092747236,-7.221538606799999,3.3116664784,1476
78072,191913,225819,5.6961141993,-7.1222364689,3.3212377687999997,1477
77926,191906,225806,5.6961141993,-7.1222364689,3.3212377687999997,1478
77894,191911,225850,5.6961141993,-7.1222364689,3.3212377687999997,1479
77953,191909,225855,5.6961141993,-7.1222364689,3.3212377687999997,1480
78110,191934,225857,5.6961141993,-7.1222364689,3.3212377687999997,1481
78311,191972,225858,5.6961141993,-7.1222364689,3.3212377687999997,1482
78522,192035,225877,5.6961141993,-7.1222364689,3.3212377687999997,1483
78743,192043,225933,5.6961141993,-7.1222364689,3.3212377687999997,1484
78941,192042,225970,5.6961141993,-7.1222364689,3.3212377687999997,1485
79124,192135,225978,5.6961141993,-7.1222364689,3.3212377687999997,1486
79296,192177,226065,5.6961141993,-7.1222364689,3.3212377687999997,1487
79487,192198,226023,5.6961141993,-7.1222364689,3.3212377687999997,1488
79653,192236,226080,5.6961141993,-7.1222364689,3.3212377687999997,1489
79815,192258,226082,5.6961141993,-7.1222364689,3.3212377687999997,1490
79976,192351,226123,5.6961141993,-7.1222364689,3.3212377687999997,1491
80105,192354,226125,5.6961141993,-7.1222364689,3.3212377687999997,1492
80236,192401,226104,5.6961141993,-7.1222364689,3.3212377687999997,1493
80324,192397,226130,5.6961141993,-7.1222364689,3.3212377687999997,1494
79913,192304,226113,5.6961141993,-7.1222364689,3.3212377687999997,1495
78642,192086,225961,5.6961141993,-7.1222364689,3.3212377687999997,1496
77347,191861,225820,5.6961141993,-7.1222364689,3.3212377687999997,1497
76726,191743,225715,5.6961141993,-7.1222364689,3.3212377687999997,1498
76631,191678,225696,5.6961141993,-7.1222364689,3.3212377687999997,1499
76835,191700,225705,5.6961141993,-7.1222364689,3.3212377687999997,1500
77079,191735,225700,5.6961141993,-7.1222364689,3.3212377687999997,1501
77320,191752,225743,5.6961141993,-7.1222364689,3.3212377687999997,1502
77602,191810,225775,5.6961141993,-7.1222364689,3.3212377687999997,1503
77783,191868,225776,5.6961141993,-7.1222364689,3.3212377687999997,1504
77829,191817,225758,5.6961141993,-7.1222364689,3.3212377687999997,1505
77728,191835,225753,5.6961141993,-7.1222364689,3.3212377687999997,1506
77647,191797,225754,5.6961141993,-7.1222364689,3.3212377687999997,1507
77654,191771,225761,5.6961141993,-7.1222364689,3.3212377687999997,1508
77755,191799,225768,5.6961141993,-7.1222364689,3.3212377687999997,1509
77942,191790,225781,5.6961141993,-7.1222364689,3.3212377687999997,1510
78144,191843,225843,5.6961141993,-7.1222364689,3.3212377687999997,1511
78408,191926,225859,5.6961141993,-7.1222364689,3.3212377687999997,1512
78630,191970,225876,5.6961141993,-7.1222364689,3.3212377687999997,1513
78845,191992,225951,5.6961141993,-7.1222364689,3.3212377687999997,1514
79046,192060,225901,5.6961141993,-7.1222364689,3.3212377687999997,1515
79244,192116,226000,5.6961141993,-7.1222364689,3.3212377687999997,1516
79416,192114,225975,5.6961141993,-7.1222364689,3.3212377687999997,1517
79602,192168,226059,5.6961141993,-7.1222364689,3.3212377687999997,1518
76220,190528,225184,5.662614682899999,-7.1976103808000005,3.3056844219,1519
76230,190531,225185,5.662614682899999,-7.1976103808000005,3.3056844219,1520
76143,190526,225178,5.662614682899999,-7.1976103808000005,3.3056844219,1521
76116,190491,225148,5.662614682899999,-7.1976103808000005,3.3056844219,1522
76171,190482,225170,5.662614682899999,-7.1976103808000005,3.3056844219,1523
76321,190566,225212,5.662614682899999,-7.1976103808000005,3.3056844219,1524
76534,190560,225231,5.662614682899999,-7.1976103808000005,3.3056844219,1525
76796,190623,225279,5.662614682899999,-7.1976103808000005,3.3056844219,1526
77022,190691,225311,5.662614682899999,-7.1976103808000005,3.3056844219,1527
77251,190737,225339,5.662614682899999,-7.1976103808000005,3.3056844219,1528
77444,190797,225367,5.662614682899999,-7.1976103808000005,3.3056844219,1529
77679,190845,225427,5.662614682899999,-7.1976103808000005,3.3056844219,1530
77844,190870,225417,5.662614682899999,-7.1976103808000005,3.3056844219,1531
78016,190944,225481,5.662614682899999,-7.1976103808000005,3.3056844219,1532
78181,191003,225480,5.662614682899999,-7.1976103808000005,3.3056844219,1533
78317,191042,225521,5.662614682899999,-7.1976103808000005,3.3056844219,1534
78446,191092,225547,5.662614682899999,-7.1976103808000005,3.3056844219,1535
78594,191120,225536,5.662614682899999,-7.1976103808000005,3.3056844219,1536
78327,191047,225525,5.662614682899999,-7.1976103808000005,3.3056844219,1537
77181,190814,225344,5.662614682899999,-7.1976103808000005,3.3056844219,1538
75701,190519,225179,5.662614682899999,-7.1976103808000005,3.3056844219,1539
74864,190306,225033,5.662614682899999,-7.1976103808000005,3.3056844219,1540
74661,190272,225020,5.662614682899999,-7.1976103808000005,3.3056844219,1541
74813,190216,225000,5.662614682899999,-7.1976103808000005,3.3056844219,1542
75025,190270,225017,5.662614682899999,-7.1976103808000005,3.3056844219,1543
75228,190331,225064,5.662614682899999,-7.1976103808000005,3.3056844219,1544
75514,190334,225084,5.662614682899999,-7.1976103808000005,3.3056844219,1545
75730,190394,225071,5.662614682899999,-7.1976103808000005,3.3056844219,1546
75787,190372,225075,5.662614682899999,-7.1976103808000005,3.3056844219,1547
75722,190370,225090,5.662614682899999,-7.1976103808000005,3.3056844219,1548
75665,190389,225109,5.662614682899999,-7.1976103808000005,3.3056844219,1549
75674,190410,225136,5.662614682899999,-7.1976103808000005,3.3056844219,1550
75796,190393,225142,5.662614682899999,-7.1976103808000005,3.3056844219,1551
