green,red,IR,acc_x,acc_y,acc_z,sample_index
57523,158840,176664,1.8089738856,1.9453647738,-9.367900479,1
57618,158833,176714,1.7024932798999999,2.0602202586000002,-9.4803631412,2
57589,158851,176662,1.722832272,1.9908284031999999,-9.511469835,3
57477,158821,176676,1.8352949342,1.9896319919,-9.3367937852,4
57337,158762,176635,1.6582260617999998,2.0027925162,-9.4133641084,5
57241,158743,176654,1.7491533206,2.0027925162,-9.4540420926,6
57180,158699,176630,1.7647066674999998,2.0781664281,-9.5246303593,7
57141,158719,176627,1.7491533206,2.0051853388,-9.4899344316,8
57144,158701,176642,1.8340985228999998,1.9860427579999997,-9.3355973739,9
57182,158709,176639,1.734796385,2.0673987264,-9.3726861242,10
57212,158732,176623,1.7276179172000001,1.9429719511999999,-9.4229353988,11
57224,158728,176673,1.8149559420999999,2.0554346134,-9.3702933016,12
57261,158721,176676,1.8113667082,1.9070796122,-9.3643112451,13
57180,158736,176668,1.7359927963,1.962114532,-9.5007021333,14
57280,158731,176642,1.7862420709,2.0386848552,-9.487541608999999,15
57342,158739,176674,1.7635102562,1.9896319919,-9.3750789468,16
57380,158764,176663,1.8496518698,2.009970984,-9.3643112451,17
57411,158768,176668,1.9226329591,1.9190437251999999,-9.4707918508,18
57444,158773,176675,1.7922241274,1.9441683625,-9.3571327773,19
57473,158778,176668,1.6797614652,2.1834506225,-9.4133641084,20
57514,158753,176665,1.7754743692000001,2.0482561456,-9.355936366,21
57540,158784,176664,1.7886348934999998,2.0123638066000002,-9.477970318599999,22
57582,158789,176681,1.7682959014000001,1.8412769907000002,-9.4851487864,23
57633,158824,176662,1.6043875533,2.0063817501,-9.4468636248,24
57641,158831,176686,1.8077774743,1.9453647738,-9.5365944723,25
57536,158750,176657,1.8747765071,1.9704894111,-9.3810610033,26
57351,158735,176598,1.8101702968999998,2.0386848552,-9.4002035841,27
57235,158720,176626,1.8245272325,1.9836499354,-9.4468636248,28
57138,158670,176580,1.7754743692000001,1.9812571127999998,-9.5138626576,29
57124,158675,176629,1.8137595308,1.9525432416,-9.376275358100001,30
57106,158660,176646,1.8508482811000002,1.9501504189999999,-9.477970318599999,31
57118,158706,176606,1.8089738856,2.0925233637,-9.4133641084,32
57160,158705,176655,1.8161523534,2.1116659445,-9.4325066892,33
57180,158704,176660,1.8819549749,1.9597217094,-9.3607220112,34
57183,158683,176657,1.8400805794,1.8819549749,-9.4588277378,35
57196,158678,176642,1.7994025952000001,2.0243279196,-9.4013999954,36
57205,158734,176628,1.8652052167000002,2.0087745727,-9.5712904,37
57216,158711,176673,1.8388841681,2.0291135648000003,-9.4253282214,38
57286,158719,176646,1.8317057003,2.0973090089,-9.475577496,39
57277,158721,176623,1.866401628,2.0267207422,-9.463613383,40
57191,158735,176647,1.8939190879,2.0195422744,-9.420542576199999,41
57294,158705,176625,1.8173487647,2.0207386857,-9.439685157,42
57348,158713,176632,1.7934205387,1.8867406201,-9.5042913672,43
57386,158683,176636,1.8532411037,1.9214365478,-9.475577496,44
57425,158701,176639,1.7515461432000001,1.9872391693,-9.4480600361,45
57451,158719,176609,1.806581063,2.0530417908,-9.4731846734,46
57479,158736,176594,1.7204394494000002,2.021935097,-9.4839523751,47
57478,158740,176611,1.7898313048,1.8891334427000002,-9.4145605197,48
57385,158664,176572,1.8161523534,2.0865413072,-9.3726861242,49
57180,158623,176554,1.782652837,2.0721843716,-9.3942215276,50
57097,158584,176515,1.722832272,1.9932212258000002,-9.4468636248,51
57003,158571,176523,1.8604195715,2.093719775,-9.4803631412,52
56944,158540,176518,1.8329021116,2.0482561456,-9.499505722,53
56939,158543,176526,1.7084753364,2.0051853388,-9.4707918508,54
56973,158543,176535,1.7766707805,2.1140587671,-9.4025964067,55
56990,158594,176495,1.7539389658,2.0051853388,-9.531808827099999,56
57014,158541,176488,1.7862420709,2.0195422744,-9.4049892293,57
57000,158557,176519,1.8137595308,2.0135602179,-9.463613383,58
57002,158548,176502,1.734796385,1.962114532,-9.4301138666,59
56934,158550,176504,1.8747765071,2.1595223965,-9.343972252999999,60
57027,158580,176506,1.8448662246,1.9453647738,-9.4049892293,61
57085,158556,176505,1.79461695,2.0733807828999997,-9.5138626576,62
57087,158584,176502,1.8317057003,1.9932212258000002,-9.497112899400001,63
57134,158557,176513,1.8831513862,2.0374884439,-9.439685157,64
57174,158597,176510,1.7910277161,2.045863323,-9.3882394711,65
57217,158628,176566,1.8233308212,1.9968104597,-9.456434915200001,66
57289,158633,176539,1.6821542877999998,1.9238293703999998,-9.4743810847,67
57354,158652,176508,1.6941184008,2.0075781614,-9.4863451977,68
57411,158669,176566,1.7730815466,2.0291135648000003,-9.5210411254,69
57379,158684,176543,1.6953148121,1.9429719511999999,-9.3499543095,70
57302,158640,176553,1.770688724,1.962114532,-9.4013999954,71
57177,158590,176513,1.8675980393,2.1547367513,-9.420542576199999,72
57094,158570,176509,1.7874384822,1.9692929998,-9.3834538259,73
57047,158538,176521,1.8221344098999999,1.9692929998,-9.5437729401,74
56998,158518,176505,1.7144573929,1.8987047331,-9.4217389875,75
57010,158537,176509,1.7778671918,1.962114532,-9.5270231819,76
57032,158561,176500,1.7072789251,1.9752750562999999,-9.4456672135,77
57039,158537,176512,1.8329021116,2.0207386857,-9.4193461649,78
57046,158535,176489,1.8041882404,1.9118652574,-9.4612205604,79
57058,158529,176527,1.7443676754000002,2.0362920326,-9.3571327773,80
57096,158587,176537,1.8472590472,2.0638094925,-9.4695954395,81
57124,158587,176567,1.8029918290999998,2.0853448959,-9.456434915200001,82
57138,158605,176533,1.7778671918,2.0877377184999997,-9.4540420926,83
57179,158600,176536,1.8628123941,2.0362920326,-9.4301138666,84
57244,158642,176583,1.6893327556000002,2.0362920326,-9.3894358824,85
57257,158668,176589,1.8628123941,2.0769700168,-9.4169533423,86
57306,158677,176602,1.7802600144,2.0386848552,-9.3547399547,87
57373,158709,176629,1.8197415872999998,2.0554346134,-9.4301138666,88
57427,158727,176630,1.8125631194999998,2.021935097,-9.5138626576,89
57464,158758,176644,1.8005990065,2.0087745727,-9.4133641084,90
57460,158742,176634,1.7718851352999998,2.021935097,-9.497112899400001,91
57341,158688,176600,1.758724611,2.0470597343,-9.3726861242,92
57202,158638,176605,1.8604195715,2.1068802992999998,-9.4492564474,93
57104,158590,176594,1.7802600144,2.081755662,-9.4325066892,94
57051,158568,176568,1.7503497318999999,2.0027925162,-9.443274390900001,95
57033,158576,176582,1.6917255782,2.045863323,-9.4253282214,96
57032,158604,176571,1.7874384822,1.9501504189999999,-9.4588277378,97
57079,158588,176586,1.8233308212,2.117648001,-9.4133641084,98
57116,158611,176625,1.7994025952000001,1.9549360641999998,-9.4444708022,99
57152,158636,176636,1.7850456596,2.0231315083,-9.3834538259,100
57128,158651,176610,1.8089738856,1.9860427579999997,-9.4348995118,101
57202,158635,176640,1.8041882404,2.021935097,-9.3750789468,102
57250,158657,176626,1.758724611,2.0494525569,-9.3834538259,103
57285,158647,176663,1.9393827173,2.0051853388,-9.497112899400001,104
57326,158697,176647,1.8113667082,2.1427726383,-9.475577496,105
57347,158676,176630,1.6785650538999999,2.1164515897,-9.3882394711,106
57399,158664,176631,1.7994025952000001,2.0063817501,-9.456434915200001,107
57431,158684,176632,1.6941184008,2.0757736055,-9.475577496,108
57473,158703,176638,1.7515461432000001,2.0315063874,-9.4013999954,109
57518,158724,176640,1.8317057003,2.0231315083,-9.3236332609,110
57557,158729,176644,1.9190437251999999,2.0410776778,-9.4851487864,111
57626,158743,176666,1.7503497318999999,2.0147566292,-9.4899344316,112
57550,158747,176651,1.7563317884,1.9776678789,-9.3786681807,113
57403,158689,176661,1.7994025952000001,2.0470597343,-9.3212404383,114
57297,158658,176643,1.7168502155,2.1798613886,-9.4097748745,115
57225,158660,176620,1.8747765071,2.0961125976,-9.4133641084,116
57187,158607,176615,1.8544375149999999,2.057827436,-9.475577496,117
57155,158613,176626,1.8340985228999998,2.0374884439,-9.439685157,118
57165,158649,176626,1.8604195715,1.9932212258000002,-9.415756931,119
57250,158675,176635,1.7647066674999998,1.9310078382,-9.4540420926,120
57254,158661,176631,1.7802600144,2.0769700168,-9.4193461649,121
57261,158673,176651,1.7443676754000002,2.0709879603,-9.4923272542,122
57302,158663,176630,1.7563317884,2.1284157027,-9.456434915200001,123
57316,158670,176643,1.7934205387,2.0805592507,-9.3475614869,124
57337,158684,176649,1.8532411037,1.9956140484,-9.4576313265,125
57378,158679,176642,1.866401628,1.9968104597,-9.407382051899999,126
57417,158687,176616,1.734796385,1.9274186043000001,-9.4612205604,127
57445,158668,176610,1.8987047331,2.0506489682,-9.4325066892,128
57468,158677,176672,1.8544375149999999,1.9872391693,-9.4827559638,129
57513,158711,176609,1.8819549749,2.0781664281,-9.4444708022,130
57544,158660,176618,1.8209379986,1.9764714676,-9.4576313265,131
57570,158680,176635,1.8652052167000002,1.9573288867999998,-9.4348995118,132
57594,158679,176582,1.7539389658,2.0781664281,-9.427721044,133
57629,158685,176611,1.8257236438,2.0638094925,-9.4480600361,134
57610,158650,176599,1.938186306,1.9932212258000002,-9.3906322937,135
57463,158585,176535,1.9429719511999999,2.1188444122999996,-9.5066841898,136
57311,158532,176565,1.7192430381,2.0662023151,-9.327222494799999,137
57225,158525,176519,1.8771693297,2.0638094925,-9.5282195932,138
57165,158503,176533,1.7539389658,1.9740786449999999,-9.4337031005,139
57134,158486,176515,1.8436698133,2.0422740890999997,-9.3547399547,140
57139,158477,176516,1.6498511827,1.8436698133,-9.340383019099999,141
57163,158509,176503,1.8197415872999998,1.9298114269,-9.407382051899999,142
57185,158529,176543,1.8305092889999999,2.0267207422,-9.4719882621,143
57208,158519,176532,1.8281164664,1.9824535241,-9.407382051899999,144
57202,158503,176505,1.8293128776999998,1.9345970721,-9.4528456813,145
57205,158499,176521,1.7754743692000001,2.0685951377,-9.4911308429,146
57237,158512,176523,1.9082760235,2.0853448959,-9.499505722,147
57256,158529,176541,1.7694923127,2.0362920326,-9.4348995118,148
57299,158511,176517,1.7659030788,2.1212372348999997,-9.3882394711,149
57337,158498,176485,1.9130616687,2.1391834043999998,-9.2877409219,150
57365,158539,176518,1.8795621523000001,1.9118652574,-9.3738825355,151
57420,158549,176523,1.8209379986,1.9812571127999998,-9.410971285799999,152
57458,158570,176548,1.7862420709,1.9214365478,-9.3930251163,153
57521,158564,176570,1.8520446924,1.9046867896,-9.5377908836,154
57555,158569,176537,1.7575281996999998,1.91425808,-9.4265246327,155
57610,158611,176573,1.8161523534,1.9561324755,-9.4145605197,156
57638,158605,176533,1.866401628,1.9166509025999998,-9.6035935051,157
57580,158571,176527,1.8472590472,1.998006871,-9.579665279099999,158
57425,158510,176504,1.8987047331,2.0901305410999997,-9.5078806011,159
57285,158429,176489,1.818545176,2.0709879603,-9.3212404383,160
57189,158395,176473,1.8460626359,1.9956140484,-9.511469835,161
57140,158394,176456,1.8472590472,1.9357934834,-9.4133641084,162
57128,158384,176459,1.7754743692000001,1.9992032822999999,-9.487541608999999,163
57113,158394,176418,1.8137595308,2.0075781614,-9.439685157,164
57187,158415,176433,1.79461695,2.0745771942,-9.4492564474,165
57217,158408,176459,1.8723836845000001,2.021935097,-9.410971285799999,166
57245,158435,176454,1.7982061838999999,2.0853448959,-9.3810610033,167
57266,158409,176487,1.8352949342,1.9872391693,-9.4612205604,168
57302,158424,176490,1.806581063,1.9154544913,-9.403792818,169
57349,158495,176527,1.8556339263000001,1.9322042495,-9.477970318599999,170
57410,158503,176523,1.7335999736999999,2.0147566292,-9.4133641084,171
57460,158537,176571,1.8640088054,2.0482561456,-9.4097748745,172
57491,158539,176549,1.7048861025,2.0638094925,-9.420542576199999,173
57508,158529,176536,1.7300107398,2.1080767106,-9.5868437469,174
57527,158556,176570,1.7718851352999998,2.0470597343,-9.4947200768,175
57582,158598,176574,1.758724611,2.0362920326,-9.4408815683,176
57631,158639,176605,1.8269200550999998,2.0255243308999997,-9.3690968903,177
57635,158663,176610,1.7060825138000002,2.0590238472999998,-9.439685157,178
57729,158716,176582,1.7324035624,1.9848463467,-9.463613383,179
57667,158678,176598,1.8053846516999998,2.0386848552,-9.410971285799999,180
57543,158616,176618,1.6821542877999998,1.9872391693,-9.475577496,181
57437,158570,176584,1.746760498,2.0865413072,-9.4588277378,182
57378,158585,176546,1.6857435217,2.1212372348999997,-9.511469835,183
57336,158534,176581,1.6905291669,2.0530417908,-9.4049892293,184
57323,158583,176569,1.6785650538999999,2.0327027987,-9.4133641084,185
57361,158578,176613,1.7060825138000002,2.1020946541,-9.3894358824,186
57403,158610,176621,1.8029918290999998,2.0853448959,-9.5066841898,187
57430,158583,176566,1.8077774743,2.0853448959,-9.345168664300001,188
57468,158622,176641,1.8352949342,2.0781664281,-9.4707918508,189
57484,158655,176631,1.8460626359,1.9932212258000002,-9.4420779796,190
57522,158654,176614,1.8460626359,2.2121644937,-9.5066841898,191
57581,158644,176635,1.8221344098999999,1.9597217094,-9.3750789468,192
57627,158696,176615,1.770688724,1.8867406201,-9.4576313265,193
57679,158704,176628,1.7886348934999998,1.9489540077,-9.4456672135,194
57726,158695,176662,1.7491533206,2.1272192914,-9.456434915200001,195
57759,158720,176652,1.6666009409,1.9740786449999999,-9.3966143502,196
57806,158717,176656,1.8221344098999999,1.9692929998,-9.4241318101,197
57853,158738,176633,1.7934205387,1.9118652574,-9.463613383,198
57949,158757,176665,1.8352949342,1.8628123941,-9.4420779796,199
57937,158766,176688,1.7491533206,2.0590238472999998,-9.464809794299999,200
57965,158743,176646,1.8747765071,1.9669001771999999,-9.3954179389,201
57851,158688,176618,1.7898313048,2.009970984,-9.463613383,202
57741,158711,176639,1.9286150156,2.0195422744,-9.4827559638,203
57659,158667,176623,1.7276179172000001,1.962114532,-9.4325066892,204
57613,158684,176625,1.8604195715,2.0075781614,-9.4719882621,205
57575,158659,176667,1.663011707,1.9992032822999999,-9.4229353988,206
57619,158688,176633,1.8269200550999998,1.938186306,-9.371489712899999,207
57642,158677,176655,1.6881363443,2.0925233637,-9.468399028199999,208
57686,158718,176637,1.9130616687,2.0195422744,-9.4348995118,209
57707,158731,176649,1.8245272325,1.9597217094,-9.3906322937,210
57723,158741,176637,1.8472590472,1.9812571127999998,-9.4337031005,211
57766,158714,176661,1.7802600144,2.0123638066000002,-9.3738825355,212
57798,158763,176677,1.7635102562,2.1379869930999997,-9.3475614869,213
57842,158742,176667,1.7599210223,1.7886348934999998,-9.439685157,214
57868,158738,176655,1.9106688461,1.9932212258000002,-9.4672026169,215
57911,158738,176654,1.6570296505,2.0362920326,-9.4013999954,216
57943,158734,176639,1.6917255782,2.0614166699,-9.451649269999999,217
58001,158731,176661,1.8113667082,2.03389921,-9.420542576199999,218
58030,158759,176669,1.7790636031,2.1032910654,-9.4540420926,219
58073,158744,176659,1.8053846516999998,2.0913269524,-9.468399028199999,220
58119,158752,176641,1.7838492483,2.009970984,-9.3547399547,221
58140,158734,176614,1.7168502155,2.0183458631,-9.3595255999,222
58189,158753,176624,1.7982061838999999,1.9250257817,-9.439685157,223
58219,158734,176627,1.7970097726,2.1738793321000003,-9.4600241491,224
58151,158708,176630,1.7012968686,1.9417755399,-9.3523471321,225
58019,158654,176588,1.722832272,1.9573288867999998,-9.3786681807,226
57860,158635,176557,1.8448662246,2.0614166699,-9.477970318599999,227
57863,158630,176571,1.758724611,1.9764714676,-9.4169533423,228
57778,158596,176538,1.8484554585000001,2.0003996936,-9.5294160045,229
57746,158604,176574,1.6510475939999998,1.9848463467,-9.3595255999,230
57760,158589,176581,1.6797614652,2.1571295739000003,-9.4241318101,231
57800,158618,176590,1.8771693297,1.9477575963999998,-9.4923272542,232
57820,158578,176549,1.7874384822,1.9645073545999998,-9.523433948000001,233
57819,158598,176588,1.8161523534,1.9740786449999999,-9.5724868113,234
57830,158604,176563,1.7419748528,1.9489540077,-9.497112899400001,235
57846,158606,176572,1.8233308212,1.9645073545999998,-9.5569334644,236
57836,158579,176540,1.7551353771,1.9118652574,-9.4313102779,237
57880,158599,176547,1.7994025952000001,2.0123638066000002,-9.4025964067,238
57932,158596,176566,1.7324035624,2.0877377184999997,-9.4049892293,239
57936,158595,176551,1.7300107398,1.9597217094,-9.3128655592,240
57965,158598,176551,1.818545176,2.1379869930999997,-9.2781696315,241
58024,158603,176531,1.8999011444,1.9561324755,-9.598807859899999,242
57988,158650,176549,1.8460626359,1.9669001771999999,-9.4013999954,243
58113,158663,176552,1.7168502155,1.9525432416,-9.4301138666,244
58188,158687,176579,1.8508482811000002,2.0315063874,-9.3870430598,245
58230,158674,176540,1.8987047331,2.0003996936,-9.463613383,246
58286,158738,176588,1.7204394494000002,2.0386848552,-9.4193461649,247
58352,158746,176567,1.8233308212,2.0147566292,-9.4133641084,248
58306,158741,176575,1.7611174336,1.9812571127999998,-9.4911308429,249
58180,158705,176556,1.8855442087999998,2.0111673952999998,-9.410971285799999,250
58094,158645,176530,1.8592231602,2.0973090089,-9.511469835,251
58045,158644,176528,1.8520446924,2.0003996936,-9.439685157,252
58011,158659,176547,1.8436698133,1.9908284031999999,-9.3906322937,253
57951,158672,176565,1.6773686425999998,1.9477575963999998,-9.4049892293,254
57998,158621,176581,1.7922241274,2.0913269524,-9.4013999954,255
58044,158661,176537,1.8137595308,2.0027925162,-9.475577496,256
57979,158656,176504,1.6713865861,2.0530417908,-9.439685157,257
57975,158684,176545,1.818545176,2.0877377184999997,-9.4025964067,258
57987,158686,176532,1.8101702968999998,1.9345970721,-9.4492564474,259
58032,158692,176533,1.6929219895,2.0027925162,-9.4121676971,260
58067,158737,176549,1.746760498,1.998006871,-9.427721044,261
58121,158747,176586,1.7216358607,2.0027925162,-9.4588277378,262
58166,158750,176590,1.8101702968999998,1.9405791285999998,-9.420542576199999,263
58215,158782,176573,1.7371892076000002,1.9645073545999998,-9.427721044,264
58264,158821,176579,1.8448662246,2.0841484846,-9.4468636248,265
58334,158841,176568,1.7766707805,2.1044874766999997,-9.391828705,266
58374,158858,176599,1.8687944506,2.0386848552,-9.4827559638,267
58431,158863,176597,1.698904046,2.1332013479,-9.487541608999999,268
58476,158880,176599,1.6893327556000002,1.9992032822999999,-9.4803631412,269
58522,158882,176588,1.7156538042,1.9429719511999999,-9.4193461649,270
58549,158884,176593,1.7036896912000001,1.9274186043000001,-9.3810610033,271
58493,158894,176580,1.6869399330000001,1.9214365478,-9.410971285799999,272
58407,158862,176592,1.8221344098999999,2.0542382021,-9.340383019099999,273
58357,158851,176577,1.8556339263000001,1.938186306,-9.340383019099999,274
58338,158874,176551,1.7300107398,2.0949161863,-9.3906322937,275
58346,158872,176556,1.7623138449,2.0123638066000002,-9.3355973739,276
58379,158868,176553,1.6977076347,2.0243279196,-9.4420779796,277
58415,158910,176595,1.7024932798999999,2.0554346134,-9.4660062056,278
58447,158933,176574,1.6019947307,2.0207386857,-9.4301138666,279
58496,158942,176604,1.9214365478,1.9645073545999998,-9.3355973739,280
58518,158945,176630,1.7156538042,2.1224336462,-9.4229353988,281
58550,158948,176573,1.6701901747999999,2.0757736055,-9.3547399547,282
58601,158984,176568,1.8376877568,1.9154544913,-9.4408815683,283
58628,158993,176564,1.782652837,2.1403798157,-9.468399028199999,284
58671,158960,176557,1.8687944506,2.1738793321000003,-9.3212404383,285
58692,158972,176533,1.8017954178,2.0123638066000002,-9.518648302799999,286
58720,158961,176557,1.6893327556000002,2.0123638066000002,-9.3834538259,287
58760,158977,176552,1.6247265454,2.0315063874,-9.4803631412,288
58792,158946,176511,1.8484554585000001,2.0279171535,-9.4923272542,289
58823,158962,176526,1.7156538042,1.9872391693,-9.3667040677,290
58845,158941,176535,1.8819549749,2.0231315083,-9.4169533423,291
58897,158960,176518,1.7503497318999999,1.9477575963999998,-9.511469835,292
58922,158982,176488,1.7874384822,2.0566310246999997,-9.4707918508,293
58974,158982,176476,1.7515461432000001,1.9908284031999999,-9.4540420926,294
58919,159012,176509,1.6474583601,1.9860427579999997,-9.3463650756,295
59021,159003,176506,1.758724611,1.8783657409999999,-9.439685157,296
58976,158980,176502,1.7611174336,1.9860427579999997,-9.4061856406,297
58890,158954,176485,1.8125631194999998,1.9884355805999998,-9.384650237199999,298
58849,158960,176464,1.722832272,1.9836499354,-9.487541608999999,299
58834,158944,176468,1.7635102562,2.009970984,-9.4695954395,300
58830,158954,176474,1.7742779578999999,1.9932212258000002,-9.3870430598,301
58861,158950,176435,1.7730815466,2.1092731219,-9.451649269999999,302
58908,158976,176434,1.9070796122,1.9740786449999999,-9.415756931,303
58930,158973,176444,1.7563317884,1.9214365478,-9.4420779796,304
58957,158985,176444,1.7539389658,1.9501504189999999,-9.3667040677,305
58888,158974,176412,1.7132609816000002,1.9645073545999998,-9.5066841898,306
58954,158963,176415,1.6821542877999998,1.9788642901999998,-9.5066841898,307
58982,158926,176417,1.7252250946,2.0243279196,-9.5138626576,308
58969,158923,176378,1.6462619487999999,2.1547367513,-9.456434915200001,309
58974,158897,176337,1.7216358607,2.0889341298,-9.367900479,310
58985,158885,176330,1.8640088054,2.0123638066000002,-9.4947200768,311
58992,158869,176294,1.8604195715,2.0925233637,-9.3355973739,312
59006,158852,176300,1.7144573929,2.03389921,-9.5246303593,313
59015,158824,176281,1.7252250946,2.0135602179,-9.477970318599999,314
59060,158844,176261,1.8939190879,1.8221344098999999,-9.4588277378,315
59040,158835,176241,1.9345970721,1.9585252981,-9.5437729401,316
59073,158833,176233,1.7659030788,1.9944176371,-9.5258267706,317
59076,158848,176273,1.7515461432000001,1.7898313048,-9.4827559638,318
59165,158876,176221,1.8759729184,1.9501504189999999,-9.5282195932,319
59169,158880,176243,1.7659030788,1.9477575963999998,-9.3690968903,320
59224,158883,176218,1.7084753364,2.0362920326,-9.4265246327,321
59249,158904,176251,1.7551353771,2.0398812665,-9.4133641084,322
59254,158883,176253,1.8293128776999998,1.9046867896,-9.4133641084,323
59158,158865,176251,1.6941184008,2.0386848552,-9.4851487864,324
59058,158809,176200,1.8819549749,2.0566310246999997,-9.3427758417,325
58980,158774,176183,1.7371892076000002,2.0434705004000002,-9.4719882621,326
58967,158753,176171,1.8652052167000002,1.8879370314,-9.3619184225,327
58911,158736,176148,1.6869399330000001,2.1523439287,-9.4121676971,328
58877,158714,176162,1.7563317884,1.9118652574,-9.4348995118,329
58905,158733,176137,1.746760498,2.021935097,-9.4588277378,330
58904,158711,176131,1.8245272325,2.0554346134,-9.345168664300001,331
58896,158717,176145,1.8675980393,2.117648001,-9.399007172800001,332
58889,158698,176129,1.8412769907000002,2.0327027987,-9.4049892293,333
58893,158728,176139,1.8843477975,2.0195422744,-9.391828705,334
58900,158745,176138,1.7862420709,2.0506489682,-9.4217389875,335
58929,158754,176143,1.7443676754000002,1.8795621523000001,-9.3427758417,336
58941,158769,176136,1.7431712641,1.8723836845000001,-9.4540420926,337
58961,158758,176159,1.8233308212,2.0590238472999998,-9.497112899400001,338
59000,158780,176167,1.7324035624,2.0350956213,-9.4492564474,339
59006,158800,176164,1.746760498,2.0027925162,-9.477970318599999,340
59049,158826,176190,1.6701901747999999,1.9788642901999998,-9.3906322937,341
59080,158857,176178,1.7766707805,2.0781664281,-9.510273423700001,342
59129,158882,176197,1.7766707805,1.9992032822999999,-9.439685157,343
59170,158883,176204,1.758724611,2.03389921,-9.509077012399999,344
59195,158902,176198,1.8197415872999998,2.0494525569,-9.4420779796,345
59202,158918,176197,1.7682959014000001,1.9501504189999999,-9.499505722,346
59118,158887,176209,1.7371892076000002,2.0171494518,-9.2781696315,347
58981,158886,176229,1.7635102562,1.9226329591,-9.559326287,348
58906,158834,176229,1.7994025952000001,2.03389921,-9.4253282214,349
58812,158823,176184,1.6869399330000001,2.0255243308999997,-9.3499543095,350
58783,158820,176237,1.6965112234000002,2.0398812665,-9.439685157,351
58783,158837,176214,1.9322042495,1.9740786449999999,-9.463613383,352
58793,158846,176188,1.6654045296,1.9501504189999999,-9.4217389875,353
58813,158833,176230,1.7455640867,1.9345970721,-9.3954179389,354
58820,158880,176249,1.8293128776999998,2.0781664281,-9.4420779796,355
58821,158879,176251,1.7252250946,1.9405791285999998,-9.4600241491,356
58811,158876,176233,1.7156538042,2.0243279196,-9.4468636248,357
58829,158893,176273,1.818545176,1.9166509025999998,-9.4337031005,358
58868,158900,176256,1.8005990065,1.9274186043000001,-9.4372923344,359
58778,158911,176251,1.8568303376,1.9812571127999998,-9.4540420926,360
58870,158878,176272,1.7982061838999999,2.0985054202,-9.3655076564,361
58901,158909,176246,1.6917255782,2.0075781614,-9.3966143502,362
58901,158882,176256,1.722832272,2.1248264688,-9.4468636248,363
58905,158880,176232,1.7204394494000002,2.0985054202,-9.477970318599999,364
58933,158871,176252,1.7204394494000002,2.0985054202,-9.477970318599999,365
58948,158890,176260,1.7204394494000002,2.0985054202,-9.477970318599999,366
58982,158916,176238,1.7204394494000002,2.0985054202,-9.477970318599999,367
59016,158938,176210,1.7204394494000002,2.0985054202,-9.477970318599999,368
59039,158901,176209,1.7204394494000002,2.0985054202,-9.477970318599999,369
59057,158918,176208,1.7204394494000002,2.0985054202,-9.477970318599999,370
58992,158927,176237,1.7204394494000002,2.0985054202,-9.477970318599999,371
58835,158888,176226,1.7204394494000002,2.0985054202,-9.477970318599999,372
58743,158854,176238,1.7204394494000002,2.0985054202,-9.477970318599999,373
58669,158846,176209,1.7204394494000002,2.0985054202,-9.477970318599999,374
58638,158856,176220,1.7204394494000002,2.0985054202,-9.477970318599999,375
58630,158874,176256,1.7204394494000002,2.0985054202,-9.477970318599999,376
58642,158899,176272,1.7204394494000002,2.0985054202,-9.477970318599999,377
58687,158884,176328,1.7204394494000002,2.0985054202,-9.477970318599999,378
58699,158930,176318,1.7204394494000002,2.0985054202,-9.477970318599999,379
58694,158928,176342,1.7204394494000002,2.0985054202,-9.477970318599999,380
58697,158930,176325,1.7204394494000002,2.0985054202,-9.477970318599999,381
58689,158906,176272,1.7204394494000002,2.0985054202,-9.477970318599999,382
58706,158902,176276,1.7204394494000002,2.0985054202,-9.477970318599999,383
58708,158891,176307,1.7204394494000002,2.0985054202,-9.477970318599999,384
58722,158918,176278,1.7204394494000002,2.0985054202,-9.477970318599999,385
58739,158910,176283,1.7204394494000002,2.0985054202,-9.477970318599999,386
58747,158880,176290,1.7204394494000002,2.0985054202,-9.477970318599999,387
58754,158873,176282,1.7204394494000002,2.0985054202,-9.477970318599999,388
58771,158880,176276,1.7204394494000002,2.0985054202,-9.477970318599999,389
58790,158887,176221,1.758724611,2.1475582835,-9.4217389875,390
58789,158866,176252,1.758724611,2.1475582835,-9.4217389875,391
58812,158863,176272,1.758724611,2.1475582835,-9.4217389875,392
58811,158887,176231,1.758724611,2.1475582835,-9.4217389875,393
58837,158860,176260,1.758724611,2.1475582835,-9.4217389875,394
58861,158853,176248,1.758724611,2.1475582835,-9.4217389875,395
58841,158861,176242,1.758724611,2.1475582835,-9.4217389875,396
58712,158828,176236,1.758724611,2.1475582835,-9.4217389875,397
58572,158801,176222,1.758724611,2.1475582835,-9.4217389875,398
58475,158751,176199,1.758724611,2.1475582835,-9.4217389875,399
58402,158745,176164,1.758724611,2.1475582835,-9.4217389875,400
58358,158720,176213,1.758724611,2.1475582835,-9.4217389875,401
58349,158758,176248,1.758724611,2.1475582835,-9.4217389875,402
58357,158746,176204,1.758724611,2.1475582835,-9.4217389875,403
58350,158771,176234,1.758724611,2.1475582835,-9.4217389875,404
58332,158775,176245,1.758724611,2.1475582835,-9.4217389875,405
58320,158781,176254,1.758724611,2.1475582835,-9.4217389875,406
58298,158738,176256,1.758724611,2.1475582835,-9.4217389875,407
58292,158785,176245,1.758724611,2.1475582835,-9.4217389875,408
58294,158771,176245,1.758724611,2.1475582835,-9.4217389875,409
58301,158784,176273,1.758724611,2.1475582835,-9.4217389875,410
58304,158746,176224,1.758724611,2.1475582835,-9.4217389875,411
58315,158798,176216,1.758724611,2.1475582835,-9.4217389875,412
58343,158775,176248,1.758724611,2.1475582835,-9.4217389875,413
58362,158803,176246,1.758724611,2.1475582835,-9.4217389875,414
58403,158835,176261,1.758724611,2.1475582835,-9.4217389875,415
58443,158870,176288,1.758724611,2.1475582835,-9.4217389875,416
58490,158883,176294,1.758724611,2.1475582835,-9.4217389875,417
58539,158909,176315,1.758724611,2.1475582835,-9.4217389875,418
58549,158916,176337,1.758724611,2.1475582835,-9.4217389875,419
58470,158892,176329,1.758724611,2.1475582835,-9.4217389875,420
58323,158889,176333,1.758724611,2.1475582835,-9.4217389875,421
58224,158834,176302,1.8041882404,2.0506489682,-9.4193461649,422
58165,158822,176333,1.8041882404,2.0506489682,-9.4193461649,423
58120,158819,176325,1.8041882404,2.0506489682,-9.4193461649,424
58105,158823,176344,1.8041882404,2.0506489682,-9.4193461649,425
58102,158841,176320,1.8041882404,2.0506489682,-9.4193461649,426
58111,158837,176350,1.8041882404,2.0506489682,-9.4193461649,427
58096,158895,176362,1.7958133612999998,2.009970984,-9.397810761499999,428
58078,158892,176397,1.7156538042,2.0350956213,-9.3511507208,429
58098,158888,176366,1.7383856189,2.0482561456,-9.3942215276,430
58102,158851,176378,1.7383856189,2.0482561456,-9.3942215276,431
58106,158873,176355,1.7383856189,2.0482561456,-9.3942215276,432
58120,158893,176393,1.7383856189,2.0482561456,-9.3942215276,433
58125,158861,176345,1.7383856189,2.0482561456,-9.3942215276,434
58142,158873,176397,1.7383856189,2.0482561456,-9.3942215276,435
58161,158859,176362,1.7383856189,2.0482561456,-9.3942215276,436
58180,158877,176374,1.7383856189,2.0482561456,-9.3942215276,437
58199,158883,176367,1.7383856189,2.0482561456,-9.3942215276,438
58227,158877,176367,1.7383856189,2.0482561456,-9.3942215276,439
58263,158889,176385,1.7383856189,2.0482561456,-9.3942215276,440
58206,158883,176376,1.8628123941,2.0446669117,-9.343972252999999,441
58074,158867,176366,1.8628123941,2.0446669117,-9.343972252999999,442
57955,158842,176402,1.8628123941,2.0446669117,-9.343972252999999,443
57880,158808,176352,1.8628123941,2.0446669117,-9.343972252999999,444
57833,158835,176347,1.8628123941,2.0446669117,-9.343972252999999,445
57810,158822,176362,1.8628123941,2.0446669117,-9.343972252999999,446
57810,158815,176384,1.8628123941,2.0446669117,-9.343972252999999,447
57843,158856,176406,1.8628123941,2.0446669117,-9.343972252999999,448
57847,158843,176373,1.8628123941,2.0446669117,-9.343972252999999,449
57843,158849,176382,1.8628123941,2.0446669117,-9.343972252999999,450
57838,158852,176375,1.8628123941,2.0446669117,-9.343972252999999,451
57823,158847,176400,1.8628123941,2.0446669117,-9.343972252999999,452
57831,158824,176413,1.8628123941,2.0446669117,-9.343972252999999,453
57835,158823,176399,1.8628123941,2.0446669117,-9.343972252999999,454
57852,158821,176404,1.8628123941,2.0446669117,-9.343972252999999,455
57873,158826,176411,1.8628123941,2.0446669117,-9.343972252999999,456
57881,158805,176443,1.8628123941,2.0446669117,-9.343972252999999,457
57908,158844,176409,1.8628123941,2.0446669117,-9.343972252999999,458
57933,158803,176367,1.8628123941,2.0446669117,-9.343972252999999,459
57959,158839,176394,1.8628123941,2.0446669117,-9.343972252999999,460
57982,158833,176416,1.8628123941,2.0446669117,-9.343972252999999,461
57949,158826,176403,1.8628123941,2.0446669117,-9.343972252999999,462
57814,158783,176404,1.8628123941,2.0446669117,-9.343972252999999,463
57696,158761,176379,1.8628123941,2.0446669117,-9.343972252999999,464
57619,158741,176384,1.8628123941,2.0446669117,-9.343972252999999,465
57579,158744,176436,1.8628123941,2.0446669117,-9.343972252999999,466
57542,158741,176433,1.8628123941,2.0446669117,-9.343972252999999,467
57551,158753,176416,1.8628123941,2.0446669117,-9.343972252999999,468
57572,158779,176427,1.8628123941,2.0446669117,-9.343972252999999,469
57599,158763,176417,1.8628123941,2.0446669117,-9.343972252999999,470
57583,158739,176417,1.8628123941,2.0446669117,-9.343972252999999,471
57570,158739,176446,1.8628123941,2.0446669117,-9.343972252999999,472
57549,158740,176439,1.8101702968999998,1.8460626359,-9.4253282214,473
57546,158699,176387,1.8101702968999998,1.8460626359,-9.4253282214,474
57555,158687,176406,1.8101702968999998,1.8460626359,-9.4253282214,475
57568,158672,176391,1.8101702968999998,1.8460626359,-9.4253282214,476
57574,158674,176393,1.8101702968999998,1.8460626359,-9.4253282214,477
57582,158659,176349,1.8101702968999998,1.8460626359,-9.4253282214,478
57594,158662,176368,1.8101702968999998,1.8460626359,-9.4253282214,479
57618,158698,176387,1.8388841681,1.8939190879,-9.4827559638,480
57637,158664,176349,1.8388841681,1.8939190879,-9.4827559638,481
57678,158665,176357,1.8388841681,1.8939190879,-9.4827559638,482
57708,158678,176358,1.8388841681,1.8939190879,-9.4827559638,483
57738,158705,176347,1.8388841681,1.8939190879,-9.4827559638,484
57684,158663,176392,1.8388841681,1.8939190879,-9.4827559638,485
57539,158634,176352,1.8388841681,1.8939190879,-9.4827559638,486
57449,158635,176344,1.8388841681,1.8939190879,-9.4827559638,487
57390,158592,176353,1.8388841681,1.8939190879,-9.4827559638,488
57363,158578,176271,1.8388841681,1.8939190879,-9.4827559638,489
57350,158596,176349,1.8388841681,1.8939190879,-9.4827559638,490
57370,158559,176334,1.8388841681,1.8939190879,-9.4827559638,491
57390,158599,176335,1.7371892076000002,2.0003996936,-9.5246303593,492
57393,158596,176353,1.7371892076000002,2.0003996936,-9.5246303593,493
57407,158594,176308,1.7371892076000002,2.0003996936,-9.5246303593,494
57425,158604,176353,1.7371892076000002,2.0003996936,-9.5246303593,495
57435,158583,176349,1.7371892076000002,2.0003996936,-9.5246303593,496
57460,158622,176348,1.7371892076000002,2.0003996936,-9.5246303593,497
57486,158617,176343,1.7371892076000002,2.0003996936,-9.5246303593,498
57524,158624,176330,1.7371892076000002,2.0003996936,-9.5246303593,499
57553,158636,176323,1.7371892076000002,2.0003996936,-9.5246303593,500
57587,158616,176324,1.7371892076000002,2.0003996936,-9.5246303593,501
57613,158666,176372,1.7371892076000002,2.0003996936,-9.5246303593,502
57663,158715,176408,1.7371892076000002,2.0003996936,-9.5246303593,503
57716,158722,176391,1.7371892076000002,2.0003996936,-9.5246303593,504
57780,158784,176422,1.7371892076000002,2.0003996936,-9.5246303593,505
57850,158811,176429,1.7371892076000002,2.0003996936,-9.5246303593,506
57865,158819,176441,1.7371892076000002,2.0003996936,-9.5246303593,507
57787,158805,176435,1.7371892076000002,2.0003996936,-9.5246303593,508
57685,158736,176438,1.7371892076000002,2.0003996936,-9.5246303593,509
57647,158733,176409,1.7371892076000002,2.0003996936,-9.5246303593,510
57602,158756,176431,1.7371892076000002,2.0003996936,-9.5246303593,511
57608,158737,176465,1.7371892076000002,2.0003996936,-9.5246303593,512
57631,158761,176414,1.7371892076000002,2.0003996936,-9.5246303593,513
57672,158765,176474,1.7371892076000002,2.0003996936,-9.5246303593,514
57704,158800,176465,1.7371892076000002,2.0003996936,-9.5246303593,515
57725,158795,176450,1.7371892076000002,2.0003996936,-9.5246303593,516
57743,158794,176476,1.7371892076000002,2.0003996936,-9.5246303593,517
57783,158815,176442,1.8233308212,2.009970984,-9.468399028199999,518
57820,158809,176480,1.8233308212,2.009970984,-9.468399028199999,519
57857,158812,176450,1.8233308212,2.009970984,-9.468399028199999,520
57896,158807,176459,1.8233308212,2.009970984,-9.468399028199999,521
57928,158809,176452,1.8233308212,2.009970984,-9.468399028199999,522
57951,158811,176441,1.8233308212,2.009970984,-9.468399028199999,523
57998,158823,176432,1.8233308212,2.009970984,-9.468399028199999,524
58023,158814,176428,1.8233308212,2.009970984,-9.468399028199999,525
58070,158846,176424,1.8233308212,2.009970984,-9.468399028199999,526
58105,158828,176412,1.8233308212,2.009970984,-9.468399028199999,527
58153,158838,176392,1.8233308212,2.009970984,-9.468399028199999,528
58191,158860,176404,1.8233308212,2.009970984,-9.468399028199999,529
58200,158858,176391,1.8233308212,2.009970984,-9.468399028199999,530
58109,158805,176388,1.8233308212,2.009970984,-9.468399028199999,531
58006,158831,176406,1.8233308212,2.009970984,-9.468399028199999,532
57943,158843,176417,1.8233308212,2.009970984,-9.468399028199999,533
57922,158818,176427,1.8233308212,2.009970984,-9.468399028199999,534
57915,158822,176419,1.8233308212,2.009970984,-9.468399028199999,535
57928,158860,176412,1.8233308212,2.009970984,-9.468399028199999,536
57961,158863,176440,1.7156538042,1.9118652574,-9.4348995118,537
58011,158879,176434,1.7156538042,1.9118652574,-9.4348995118,538
58030,158899,176466,1.7156538042,1.9118652574,-9.4348995118,539
58037,158878,176435,1.7156538042,1.9118652574,-9.4348995118,540
58057,158857,176445,1.6402798923,2.0721843716,-9.4181497536,541
58075,158902,176451,1.6402798923,2.0721843716,-9.4181497536,542
58111,158886,176438,1.6402798923,2.0721843716,-9.4181497536,543
58131,158893,176445,1.6402798923,2.0721843716,-9.4181497536,544
58164,158887,176439,1.6402798923,2.0721843716,-9.4181497536,545
58180,158880,176433,1.6402798923,2.0721843716,-9.4181497536,546
58204,158872,176420,1.6402798923,2.0721843716,-9.4181497536,547
58231,158869,176426,1.6402798923,2.0721843716,-9.4181497536,548
58235,158903,176407,1.6402798923,2.0721843716,-9.4181497536,549
58273,158870,176426,1.6402798923,2.0721843716,-9.4181497536,550
58286,158864,176383,1.6402798923,2.0721843716,-9.4181497536,551
58311,158868,176417,1.6402798923,2.0721843716,-9.4181497536,552
58345,158872,176394,1.6402798923,2.0721843716,-9.4181497536,553
58377,158882,176383,1.6402798923,2.0721843716,-9.4181497536,554
58409,158880,176378,1.6402798923,2.0721843716,-9.4181497536,555
58404,158860,176364,1.6402798923,2.0721843716,-9.4181497536,556
58306,158826,176305,1.6402798923,2.0721843716,-9.4181497536,557
58239,158794,176323,1.6402798923,2.0721843716,-9.4181497536,558
58233,158812,176341,1.6402798923,2.0721843716,-9.4181497536,559
58265,158848,176345,1.6402798923,2.0721843716,-9.4181497536,560
58366,158979,176450,1.6402798923,2.0721843716,-9.4181497536,561
58519,159076,176484,1.6402798923,2.0721843716,-9.4181497536,562
58706,159180,176572,1.6402798923,2.0721843716,-9.4181497536,563
58876,159283,176662,1.6402798923,2.0721843716,-9.4181497536,564
58983,159319,176643,1.6402798923,2.0721843716,-9.4181497536,565
59044,159345,176670,1.6402798923,2.0721843716,-9.4181497536,566
59087,159314,176684,1.6402798923,2.0721843716,-9.4181497536,567
59110,159308,176660,1.6402798923,2.0721843716,-9.4181497536,568
59084,159264,176629,1.6426727149,2.1930219129,-9.3786681807,569
59008,159182,176602,1.6426727149,2.1930219129,-9.3786681807,570
58924,159154,176564,1.6426727149,2.1930219129,-9.3786681807,571
58855,159062,176540,1.6426727149,2.1930219129,-9.3786681807,572
58821,159050,176499,1.6426727149,2.1930219129,-9.3786681807,573
58786,159027,176497,1.6426727149,2.1930219129,-9.3786681807,574
58779,158998,176512,1.6426727149,2.1930219129,-9.3786681807,575
58793,159017,176483,1.6426727149,2.1930219129,-9.3786681807,576
58807,159041,176445,1.6426727149,2.1930219129,-9.3786681807,577
58854,159035,176498,1.6426727149,2.1930219129,-9.3786681807,578
58918,159058,176476,1.6426727149,2.1930219129,-9.3786681807,579
58959,159100,176522,1.6426727149,2.1930219129,-9.3786681807,580
59024,159099,176519,1.6426727149,2.1930219129,-9.3786681807,581
59079,159140,176582,1.6426727149,2.1930219129,-9.3786681807,582
59115,159141,176562,1.6426727149,2.1930219129,-9.3786681807,583
59037,159113,176506,1.6426727149,2.1930219129,-9.3786681807,584
58939,159111,176512,1.6426727149,2.1930219129,-9.3786681807,585
58937,159112,176496,1.6426727149,2.1930219129,-9.3786681807,586
59004,159155,176555,1.6426727149,2.1930219129,-9.3786681807,587
59099,159219,176602,1.7204394494000002,1.9477575963999998,-9.4133641084,588
59152,159236,176619,1.7204394494000002,1.9477575963999998,-9.4133641084,589
59179,159236,176618,1.7204394494000002,1.9477575963999998,-9.4133641084,590
59196,159283,176615,1.7204394494000002,1.9477575963999998,-9.4133641084,591
59203,159270,176617,1.7204394494000002,1.9477575963999998,-9.4133641084,592
59188,159266,176620,1.7204394494000002,1.9477575963999998,-9.4133641084,593
59148,159247,176640,1.7204394494000002,1.9477575963999998,-9.4133641084,594
59123,159258,176608,1.7204394494000002,1.9477575963999998,-9.4133641084,595
59087,159180,176635,1.7204394494000002,1.9477575963999998,-9.4133641084,596
59066,159174,176625,1.7204394494000002,1.9477575963999998,-9.4133641084,597
59044,159164,176560,1.7204394494000002,1.9477575963999998,-9.4133641084,598
59035,159155,176555,1.7204394494000002,1.9477575963999998,-9.4133641084,599
59053,159144,176545,1.7204394494000002,1.9477575963999998,-9.4133641084,600
59077,159190,176552,1.7204394494000002,1.9477575963999998,-9.4133641084,601
59110,159202,176573,1.7204394494000002,1.9477575963999998,-9.4133641084,602
59135,159219,176582,1.7204394494000002,1.9477575963999998,-9.4133641084,603
59177,159198,176563,1.7204394494000002,1.9477575963999998,-9.4133641084,604
59210,159227,176567,1.7204394494000002,1.9477575963999998,-9.4133641084,605
59250,159225,176597,1.7204394494000002,1.9477575963999998,-9.4133641084,606
59188,159225,176579,1.7204394494000002,1.9477575963999998,-9.4133641084,607
59065,159176,176586,1.7204394494000002,1.9477575963999998,-9.4133641084,608
58934,159177,176558,1.7204394494000002,1.9477575963999998,-9.4133641084,609
58854,159141,176564,1.7204394494000002,1.9477575963999998,-9.4133641084,610
58798,159139,176563,1.7204394494000002,1.9477575963999998,-9.4133641084,611
58764,159161,176519,1.7204394494000002,1.9477575963999998,-9.4133641084,612
58763,159163,176541,1.7204394494000002,1.9477575963999998,-9.4133641084,613
58775,159161,176609,1.7204394494000002,1.9477575963999998,-9.4133641084,614
58781,159190,176558,1.7204394494000002,1.9477575963999998,-9.4133641084,615
58778,159206,176556,1.7204394494000002,1.9477575963999998,-9.4133641084,616
58761,159204,176559,1.7204394494000002,1.9477575963999998,-9.4133641084,617
58766,159170,176595,1.7204394494000002,1.9477575963999998,-9.4133641084,618
58756,159163,176547,1.7204394494000002,1.9477575963999998,-9.4133641084,619
58755,159178,176570,1.7204394494000002,1.9477575963999998,-9.4133641084,620
58771,159184,176567,1.7204394494000002,1.9477575963999998,-9.4133641084,621
58776,159166,176586,1.7204394494000002,1.9477575963999998,-9.4133641084,622
58795,159161,176562,1.7204394494000002,1.9477575963999998,-9.4133641084,623
58810,159166,176560,1.7204394494000002,1.9477575963999998,-9.4133641084,624
58818,159152,176555,1.7204394494000002,1.9477575963999998,-9.4133641084,625
58826,159142,176552,1.6115660211,1.9561324755,-9.4707918508,626
58841,159150,176560,1.6115660211,1.9561324755,-9.4707918508,627
58862,159174,176532,1.6115660211,1.9561324755,-9.4707918508,628
58891,159171,176547,1.6115660211,1.9561324755,-9.4707918508,629
58917,159174,176555,1.6115660211,1.9561324755,-9.4707918508,630
58931,159182,176545,1.6115660211,1.9561324755,-9.4707918508,631
58923,159169,176520,1.6115660211,1.9561324755,-9.4707918508,632
58802,159134,176548,1.6115660211,1.9561324755,-9.4707918508,633
58645,159133,176518,1.6115660211,1.9561324755,-9.4707918508,634
58549,159116,176515,1.6115660211,1.9561324755,-9.4707918508,635
58480,159110,176512,1.6115660211,1.9561324755,-9.4707918508,636
58431,159126,176502,1.6115660211,1.9561324755,-9.4707918508,637
58413,159149,176561,1.6115660211,1.9561324755,-9.4707918508,638
58425,159139,176540,1.6115660211,1.9561324755,-9.4707918508,639
58433,159149,176543,1.6115660211,1.9561324755,-9.4707918508,640
58433,159161,176556,1.6115660211,1.9561324755,-9.4707918508,641
58422,159160,176553,1.6115660211,1.9561324755,-9.4707918508,642
58419,159129,176537,1.6115660211,1.9561324755,-9.4707918508,643
58396,159090,176510,1.6115660211,1.9561324755,-9.4707918508,644
58394,159080,176536,1.6115660211,1.9561324755,-9.4707918508,645
58394,159078,176531,1.6115660211,1.9561324755,-9.4707918508,646
58385,159043,176502,1.6115660211,1.9561324755,-9.4707918508,647
58400,159033,176472,1.6115660211,1.9561324755,-9.4707918508,648
58410,159043,176506,1.6115660211,1.9561324755,-9.4707918508,649
58427,159054,176482,1.6115660211,1.9561324755,-9.4707918508,650
58421,159034,176482,1.6115660211,1.9561324755,-9.4707918508,651
58441,159018,176431,1.6115660211,1.9561324755,-9.4707918508,652
58456,159020,176455,1.6115660211,1.9561324755,-9.4707918508,653
58477,159044,176473,1.6115660211,1.9561324755,-9.4707918508,654
58507,159039,176472,1.6115660211,1.9561324755,-9.4707918508,655
58538,159059,176471,1.6115660211,1.9561324755,-9.4707918508,656
58573,159101,176457,1.6115660211,1.9561324755,-9.4707918508,657
58611,159101,176456,1.6115660211,1.9561324755,-9.4707918508,658
58557,159078,176488,1.6115660211,1.9561324755,-9.4707918508,659
58405,159043,176437,1.6115660211,1.9561324755,-9.4707918508,660
58286,158974,176423,1.6115660211,1.9561324755,-9.4707918508,661
58195,158945,176417,1.6115660211,1.9561324755,-9.4707918508,662
58144,158932,176423,1.6115660211,1.9561324755,-9.4707918508,663
58122,158936,176429,1.6115660211,1.9561324755,-9.4707918508,664
58127,158936,176422,1.6115660211,1.9561324755,-9.4707918508,665
58139,158920,176384,1.6115660211,1.9561324755,-9.4707918508,666
58134,158946,176427,1.6115660211,1.9561324755,-9.4707918508,667
58322,159039,176459,1.6689937635,2.0267207422,-9.468399028199999,668
58383,159046,176511,1.6689937635,2.0267207422,-9.468399028199999,669
58423,159110,176546,1.6689937635,2.0267207422,-9.468399028199999,670
58462,159110,176556,1.6689937635,2.0267207422,-9.468399028199999,671
58502,159129,176532,1.6689937635,2.0267207422,-9.468399028199999,672
58531,159147,176547,1.6689937635,2.0267207422,-9.468399028199999,673
58462,159126,176562,1.6689937635,2.0267207422,-9.468399028199999,674
58316,159090,176532,1.6689937635,2.0267207422,-9.468399028199999,675
58209,159041,176532,1.6689937635,2.0267207422,-9.468399028199999,676
58145,159034,176570,1.6689937635,2.0267207422,-9.468399028199999,677
58100,159000,176512,1.6689937635,2.0267207422,-9.468399028199999,678
58095,159022,176562,1.6689937635,2.0267207422,-9.468399028199999,679
58121,159034,176577,1.6689937635,2.0267207422,-9.468399028199999,680
58137,159034,176558,1.6689937635,2.0267207422,-9.468399028199999,681
58147,159031,176520,1.6689937635,2.0267207422,-9.468399028199999,682
58162,159046,176558,1.6689937635,2.0267207422,-9.468399028199999,683
58166,159072,176572,1.6689937635,2.0267207422,-9.468399028199999,684
58179,159043,176582,1.6689937635,2.0267207422,-9.468399028199999,685
58212,159043,176575,1.6689937635,2.0267207422,-9.468399028199999,686
58223,159042,176574,1.6689937635,2.0267207422,-9.468399028199999,687
58248,159061,176563,1.6689937635,2.0267207422,-9.468399028199999,688
58277,159047,176569,1.6689937635,2.0267207422,-9.468399028199999,689
58298,159026,176562,1.6689937635,2.0267207422,-9.468399028199999,690
58315,159043,176555,1.6689937635,2.0267207422,-9.468399028199999,691
58339,159039,176545,1.6689937635,2.0267207422,-9.468399028199999,692
58375,159053,176558,1.6689937635,2.0267207422,-9.468399028199999,693
58407,159055,176572,1.6689937635,2.0267207422,-9.468399028199999,694
58441,159085,176543,1.6689937635,2.0267207422,-9.468399028199999,695
58472,159055,176580,1.6689937635,2.0267207422,-9.468399028199999,696
58415,159084,176570,1.6689937635,2.0267207422,-9.468399028199999,697
58256,159023,176551,1.6689937635,2.0267207422,-9.468399028199999,698
58133,158996,176580,1.6689937635,2.0267207422,-9.468399028199999,699
58059,158971,176567,1.6689937635,2.0267207422,-9.468399028199999,700
58016,158992,176545,1.6689937635,2.0267207422,-9.468399028199999,701
57997,158983,176557,1.6689937635,2.0267207422,-9.468399028199999,702
58000,158990,176574,1.6689937635,2.0267207422,-9.468399028199999,703
58039,159013,176620,1.6689937635,2.0267207422,-9.468399028199999,704
58054,159021,176596,1.6689937635,2.0267207422,-9.468399028199999,705
58051,159028,176614,1.6689937635,2.0267207422,-9.468399028199999,706
58045,159014,176628,1.7192430381,1.9609181207,-9.385846648500001,707
58058,159030,176622,1.7192430381,1.9609181207,-9.385846648500001,708
58051,159001,176598,1.7192430381,1.9609181207,-9.385846648500001,709
58077,159006,176612,1.7192430381,1.9609181207,-9.385846648500001,710
58093,159017,176603,1.7192430381,1.9609181207,-9.385846648500001,711
58115,159016,176604,1.7192430381,1.9609181207,-9.385846648500001,712
58138,158998,176621,1.7192430381,1.9609181207,-9.385846648500001,713
58158,158999,176640,1.7192430381,1.9609181207,-9.385846648500001,714
58176,159005,176613,1.7192430381,1.9609181207,-9.385846648500001,715
58209,158990,176637,1.7192430381,1.9609181207,-9.385846648500001,716
58218,159002,176627,1.7192430381,1.9609181207,-9.385846648500001,717
58251,159004,176623,1.7192430381,1.9609181207,-9.385846648500001,718
58283,159019,176600,1.7192430381,1.9609181207,-9.385846648500001,719
58325,159024,176634,1.7192430381,1.9609181207,-9.385846648500001,720
58346,159021,176641,1.7192430381,1.9609181207,-9.385846648500001,721
58265,159032,176600,1.7192430381,1.9609181207,-9.385846648500001,722
58103,158948,176612,1.7192430381,1.9609181207,-9.385846648500001,723
57978,158929,176597,1.7192430381,1.9609181207,-9.385846648500001,724
57884,158915,176567,1.7192430381,1.9609181207,-9.385846648500001,725
57852,158918,176562,1.7192430381,1.9609181207,-9.385846648500001,726
57822,158901,176610,1.7192430381,1.9609181207,-9.385846648500001,727
57821,158878,176594,1.7192430381,1.9609181207,-9.385846648500001,728
57848,158917,176620,1.7192430381,1.9609181207,-9.385846648500001,729
57859,158873,176584,1.7192430381,1.9609181207,-9.385846648500001,730
57830,158896,176630,1.7192430381,1.9609181207,-9.385846648500001,731
57823,158866,176599,1.7192430381,1.9609181207,-9.385846648500001,732
57819,158845,176567,1.7192430381,1.9609181207,-9.385846648500001,733
57822,158875,176614,1.7192430381,1.9609181207,-9.385846648500001,734
57835,158865,176591,1.7192430381,1.9609181207,-9.385846648500001,735
57849,158833,176578,1.7192430381,1.9609181207,-9.385846648500001,736
57853,158841,176580,1.7192430381,1.9609181207,-9.385846648500001,737
57883,158817,176571,1.7192430381,1.9609181207,-9.385846648500001,738
57919,158803,176565,1.7192430381,1.9609181207,-9.385846648500001,739
57940,158848,176574,1.7192430381,1.9609181207,-9.385846648500001,740
57979,158850,176604,1.7192430381,1.9609181207,-9.385846648500001,741
58006,158865,176607,1.7192430381,1.9609181207,-9.385846648500001,742
58055,158885,176598,1.7192430381,1.9609181207,-9.385846648500001,743
58110,158918,176599,1.7192430381,1.9609181207,-9.385846648500001,744
58155,158930,176615,1.7192430381,1.9609181207,-9.385846648500001,745
58100,158912,176654,1.7192430381,1.9609181207,-9.385846648500001,746
57946,158878,176612,1.7192430381,1.9609181207,-9.385846648500001,747
57820,158820,176620,1.7192430381,1.9609181207,-9.385846648500001,748
57321,158663,176696,1.7838492483,2.0518453795,-9.443274390900001,749
57327,158707,176705,1.7838492483,2.0518453795,-9.443274390900001,750
57371,158690,176756,1.7838492483,2.0518453795,-9.443274390900001,751
57398,158705,176740,1.7838492483,2.0518453795,-9.443274390900001,752
57421,158706,176763,1.7838492483,2.0518453795,-9.443274390900001,753
57412,158711,176742,1.7838492483,2.0518453795,-9.443274390900001,754
57438,158711,176759,1.7838492483,2.0518453795,-9.443274390900001,755
57454,158730,176776,1.7838492483,2.0518453795,-9.443274390900001,756
57485,158714,176772,1.7838492483,2.0518453795,-9.443274390900001,757
57508,158729,176753,1.7838492483,2.0518453795,-9.443274390900001,758
57545,158717,176756,1.7838492483,2.0518453795,-9.443274390900001,759
57578,158741,176755,1.7838492483,2.0518453795,-9.443274390900001,760
57596,158736,176750,1.7838492483,2.0518453795,-9.443274390900001,761
57635,158699,176743,1.7838492483,2.0518453795,-9.443274390900001,762
57670,158716,176764,1.7838492483,2.0518453795,-9.443274390900001,763
57710,158738,176751,1.7838492483,2.0518453795,-9.443274390900001,764
57741,158711,176735,1.7838492483,2.0518453795,-9.443274390900001,765
57780,158750,176746,1.7838492483,2.0518453795,-9.443274390900001,766
57808,158744,176762,1.7838492483,2.0518453795,-9.443274390900001,767
57734,158712,176759,1.7838492483,2.0518453795,-9.443274390900001,768
57548,158638,176710,1.7838492483,2.0518453795,-9.443274390900001,769
57412,158601,176663,1.7838492483,2.0518453795,-9.443274390900001,770
57335,158587,176711,1.7838492483,2.0518453795,-9.443274390900001,771
57291,158590,176710,1.7838492483,2.0518453795,-9.443274390900001,772
57279,158590,176704,1.7838492483,2.0518453795,-9.443274390900001,773
57302,158589,176699,1.7838492483,2.0518453795,-9.443274390900001,774
57331,158575,176737,1.7838492483,2.0518453795,-9.443274390900001,775
57358,158581,176738,1.7838492483,2.0518453795,-9.443274390900001,776
57358,158582,176714,1.7838492483,2.0518453795,-9.443274390900001,777
57371,158573,176717,1.7838492483,2.0518453795,-9.443274390900001,778
57365,158579,176689,1.7838492483,2.0518453795,-9.443274390900001,779
57403,158563,176723,1.7838492483,2.0518453795,-9.443274390900001,780
57432,158565,176707,1.7838492483,2.0518453795,-9.443274390900001,781
57454,158556,176668,1.7838492483,2.0518453795,-9.443274390900001,782
57496,158592,176671,1.7838492483,2.0518453795,-9.443274390900001,783
57541,158581,176681,1.7838492483,2.0518453795,-9.443274390900001,784
57581,158610,176691,1.7838492483,2.0518453795,-9.443274390900001,785
57613,158606,176705,1.7838492483,2.0518453795,-9.443274390900001,786
57670,158632,176730,1.7838492483,2.0518453795,-9.443274390900001,787
57730,158655,176744,1.7838492483,2.0518453795,-9.443274390900001,788
57803,158674,176763,1.7838492483,2.0518453795,-9.443274390900001,789
57877,158688,176746,1.7838492483,2.0518453795,-9.443274390900001,790
57895,158741,176879,1.6893327556000002,2.0590238472999998,-9.439685157,791
57946,158732,176874,1.6893327556000002,2.0590238472999998,-9.439685157,792
57992,158770,176890,1.6893327556000002,2.0590238472999998,-9.439685157,793
58049,158774,176852,1.6893327556000002,2.0590238472999998,-9.439685157,794
58099,158793,176872,1.6893327556000002,2.0590238472999998,-9.439685157,795
58168,158846,176870,1.6893327556000002,2.0590238472999998,-9.439685157,796
58230,158839,176918,1.6893327556000002,2.0590238472999998,-9.439685157,797
58283,158902,176876,1.6893327556000002,2.0590238472999998,-9.439685157,798
58271,158852,176905,1.6893327556000002,2.0590238472999998,-9.439685157,799
58140,158845,176899,1.6893327556000002,2.0590238472999998,-9.439685157,800
58025,158797,176903,1.6893327556000002,2.0590238472999998,-9.439685157,801
57959,158779,176884,1.6893327556000002,2.0590238472999998,-9.439685157,802
57909,158739,176880,1.6893327556000002,2.0590238472999998,-9.439685157,803
57910,158737,176898,1.6893327556000002,2.0590238472999998,-9.439685157,804
57925,158745,176919,1.6893327556000002,2.0590238472999998,-9.439685157,805
57971,158783,176914,1.6893327556000002,2.0590238472999998,-9.439685157,806
58008,158780,176924,1.6893327556000002,2.0590238472999998,-9.439685157,807
58038,158806,176936,1.6893327556000002,2.0590238472999998,-9.439685157,808
58053,158785,176972,1.6893327556000002,2.0590238472999998,-9.439685157,809
58076,158801,176932,1.7970097726,2.1260228801,-9.468399028199999,810
58111,158781,176927,1.7970097726,2.1260228801,-9.468399028199999,811
58151,158796,176928,1.7970097726,2.1260228801,-9.468399028199999,812
58171,158790,176917,1.7970097726,2.1260228801,-9.468399028199999,813
58210,158800,176908,1.7970097726,2.1260228801,-9.468399028199999,814
58251,158802,176929,1.7970097726,2.1260228801,-9.468399028199999,815
58275,158791,176888,1.7970097726,2.1260228801,-9.468399028199999,816
58313,158797,176907,1.7970097726,2.1260228801,-9.468399028199999,817
58344,158812,176916,1.7970097726,2.1260228801,-9.468399028199999,818
58394,158807,176893,1.7970097726,2.1260228801,-9.468399028199999,819
58433,158822,176884,1.7970097726,2.1260228801,-9.468399028199999,820
58487,158821,176942,1.7970097726,2.1260228801,-9.468399028199999,821
58523,158888,176919,1.7970097726,2.1260228801,-9.468399028199999,822
58456,158829,176915,1.7970097726,2.1260228801,-9.468399028199999,823
58304,158778,176907,1.7970097726,2.1260228801,-9.468399028199999,824
58217,158789,176914,1.7970097726,2.1260228801,-9.468399028199999,825
58163,158760,176906,1.7970097726,2.1260228801,-9.468399028199999,826
58143,158759,176912,1.7970097726,2.1260228801,-9.468399028199999,827
58139,158755,176915,1.7970097726,2.1260228801,-9.468399028199999,828
58172,158792,176899,1.7970097726,2.1260228801,-9.468399028199999,829
58221,158803,176936,1.7970097726,2.1260228801,-9.468399028199999,830
58238,158816,176947,1.7970097726,2.1260228801,-9.468399028199999,831
58272,158810,176982,1.7970097726,2.1260228801,-9.468399028199999,832
58289,158822,176977,1.7970097726,2.1260228801,-9.468399028199999,833
58304,158814,176933,1.7970097726,2.1260228801,-9.468399028199999,834
58339,158823,176935,1.7970097726,2.1260228801,-9.468399028199999,835
58375,158815,176948,1.7970097726,2.1260228801,-9.468399028199999,836
58406,158817,176918,1.7970097726,2.1260228801,-9.468399028199999,837
58439,158817,176944,1.7970097726,2.1260228801,-9.468399028199999,838
58467,158824,176923,1.7970097726,2.1260228801,-9.468399028199999,839
58510,158801,176913,1.7970097726,2.1260228801,-9.468399028199999,840
58537,158781,176920,1.7970097726,2.1260228801,-9.468399028199999,841
58566,158809,176886,1.7970097726,2.1260228801,-9.468399028199999,842
58605,158800,176854,1.7970097726,2.1260228801,-9.468399028199999,843
58635,158809,176882,1.7970097726,2.1260228801,-9.468399028199999,844
58681,158831,176889,1.7970097726,2.1260228801,-9.468399028199999,845
58709,158823,176920,1.7970097726,2.1260228801,-9.468399028199999,846
58666,158806,176898,1.7970097726,2.1260228801,-9.468399028199999,847
58520,158756,176887,1.7970097726,2.1260228801,-9.468399028199999,848
58403,158730,176864,1.7970097726,2.1260228801,-9.468399028199999,849
58342,158698,176860,1.7970097726,2.1260228801,-9.468399028199999,850
58299,158658,176831,1.7970097726,2.1260228801,-9.468399028199999,851
58446,158851,176955,1.6725829974,2.0135602179,-9.5306124158,852
58453,158876,176916,1.6725829974,2.0135602179,-9.5306124158,853
58482,158878,176964,1.6725829974,2.0135602179,-9.5306124158,854
58521,158866,176944,1.6725829974,2.0135602179,-9.5306124158,855
58538,158887,176952,1.6725829974,2.0135602179,-9.5306124158,856
58560,158859,176967,1.6725829974,2.0135602179,-9.5306124158,857
58571,158899,176897,1.6725829974,2.0135602179,-9.5306124158,858
58603,158872,176952,1.6725829974,2.0135602179,-9.5306124158,859
58634,158885,176940,1.6725829974,2.0135602179,-9.5306124158,860
58659,158901,176923,1.6725829974,2.0135602179,-9.5306124158,861
58702,158913,176930,1.6725829974,2.0135602179,-9.5306124158,862
58733,158958,176961,1.6725829974,2.0135602179,-9.5306124158,863
58635,158916,176959,1.6725829974,2.0135602179,-9.5306124158,864
58458,158894,176927,1.6725829974,2.0135602179,-9.5306124158,865
58319,158860,176922,1.6725829974,2.0135602179,-9.5306124158,866
58229,158834,176902,1.6725829974,2.0135602179,-9.5306124158,867
58146,158819,176936,1.6725829974,2.0135602179,-9.5306124158,868
58096,158787,176924,1.6725829974,2.0135602179,-9.5306124158,869
58094,158823,176882,1.6725829974,2.0135602179,-9.5306124158,870
58098,158823,176926,1.6725829974,2.0135602179,-9.5306124158,871
58100,158835,176937,1.6725829974,2.0135602179,-9.5306124158,872
58097,158814,176938,1.6725829974,2.0135602179,-9.5306124158,873
58099,158832,176981,1.6725829974,2.0135602179,-9.5306124158,874
58094,158836,176937,1.6725829974,2.0135602179,-9.5306124158,875
58098,158836,176942,1.6725829974,2.0135602179,-9.5306124158,876
58110,158846,176928,1.6725829974,2.0135602179,-9.5306124158,877
58135,158784,176966,1.6725829974,2.0135602179,-9.5306124158,878
58145,158850,176939,1.6725829974,2.0135602179,-9.5306124158,879
58167,158832,176944,1.6725829974,2.0135602179,-9.5306124158,880
58188,158837,176938,1.6725829974,2.0135602179,-9.5306124158,881
58208,158818,176941,1.6725829974,2.0135602179,-9.5306124158,882
58235,158846,176946,1.6725829974,2.0135602179,-9.5306124158,883
58258,158862,176969,1.6725829974,2.0135602179,-9.5306124158,884
58292,158864,176943,1.6725829974,2.0135602179,-9.5306124158,885
58284,158844,176924,1.6725829974,2.0135602179,-9.5306124158,886
58152,158823,176933,1.6725829974,2.0135602179,-9.5306124158,887
57970,158806,176906,1.6725829974,2.0135602179,-9.5306124158,888
57857,158780,176921,1.6725829974,2.0135602179,-9.5306124158,889
57777,158738,176916,1.6725829974,2.0135602179,-9.5306124158,890
57740,158736,176906,1.6725829974,2.0135602179,-9.5306124158,891
57732,158738,176947,1.6725829974,2.0135602179,-9.5306124158,892
57750,158775,176931,1.6725829974,2.0135602179,-9.5306124158,893
58101,158773,176887,1.6546368279,1.9788642901999998,-9.4827559638,894
58054,158769,176835,1.6546368279,1.9788642901999998,-9.4827559638,895
57916,158738,176866,1.6546368279,1.9788642901999998,-9.4827559638,896
57778,158685,176808,1.6546368279,1.9788642901999998,-9.4827559638,897
57691,158654,176772,1.6546368279,1.9788642901999998,-9.4827559638,898
57639,158624,176794,1.6546368279,1.9788642901999998,-9.4827559638,899
57623,158632,176796,1.6546368279,1.9788642901999998,-9.4827559638,900
57642,158645,176782,1.6546368279,1.9788642901999998,-9.4827559638,901
57680,158656,176786,1.6546368279,1.9788642901999998,-9.4827559638,902
57691,158633,176837,1.6546368279,1.9788642901999998,-9.4827559638,903
57700,158662,176776,1.6546368279,1.9788642901999998,-9.4827559638,904
57709,158658,176816,1.6546368279,1.9788642901999998,-9.4827559638,905
57727,158671,176800,1.6546368279,1.9788642901999998,-9.4827559638,906
57747,158659,176783,1.6546368279,1.9788642901999998,-9.4827559638,907
57756,158634,176763,1.6546368279,1.9788642901999998,-9.4827559638,908
57794,158681,176760,1.6546368279,1.9788642901999998,-9.4827559638,909
57825,158658,176771,1.6546368279,1.9788642901999998,-9.4827559638,910
57846,158687,176760,1.6546368279,1.9788642901999998,-9.4827559638,911
57900,158697,176817,1.6546368279,1.9788642901999998,-9.4827559638,912
57931,158698,176823,1.6546368279,1.9788642901999998,-9.4827559638,913
58009,158724,176790,1.6546368279,1.9788642901999998,-9.4827559638,914
58070,158776,176776,1.6546368279,1.9788642901999998,-9.4827559638,915
58127,158786,176839,1.6546368279,1.9788642901999998,-9.4827559638,916
58200,158841,176803,1.6546368279,1.9788642901999998,-9.4827559638,917
58244,158855,176859,1.6546368279,1.9788642901999998,-9.4827559638,918
58168,158836,176862,1.6546368279,1.9788642901999998,-9.4827559638,919
58033,158825,176864,1.6546368279,1.9788642901999998,-9.4827559638,920
57944,158779,176864,1.6546368279,1.9788642901999998,-9.4827559638,921
57876,158763,176828,1.6546368279,1.9788642901999998,-9.4827559638,922
57826,158780,176831,1.6546368279,1.9788642901999998,-9.4827559638,923
57816,158794,176830,1.6546368279,1.9788642901999998,-9.4827559638,924
57843,158777,176845,1.6546368279,1.9788642901999998,-9.4827559638,925
57849,158802,176852,1.7527425545,1.9860427579999997,-9.4660062056,926
57875,158809,176869,1.7527425545,1.9860427579999997,-9.4660062056,927
57905,158822,176863,1.7527425545,1.9860427579999997,-9.4660062056,928
57930,158823,176860,1.7527425545,1.9860427579999997,-9.4660062056,929
57943,158856,176867,1.7527425545,1.9860427579999997,-9.4660062056,930
57988,158841,176829,1.7527425545,1.9860427579999997,-9.4660062056,931
58003,158841,176861,1.7527425545,1.9860427579999997,-9.4660062056,932
58048,158828,176834,1.7527425545,1.9860427579999997,-9.4660062056,933
58068,158837,176810,1.7527425545,1.9860427579999997,-9.4660062056,934
58094,158865,176857,1.7527425545,1.9860427579999997,-9.4660062056,935
58130,158853,176810,1.7527425545,1.9860427579999997,-9.4660062056,936
58162,158863,176830,1.7527425545,1.9860427579999997,-9.4660062056,937
58200,158893,176824,1.7527425545,1.9860427579999997,-9.4660062056,938
58239,158893,176870,1.7527425545,1.9860427579999997,-9.4660062056,939
58284,158897,176839,1.7527425545,1.9860427579999997,-9.4660062056,940
58281,158907,176834,1.7527425545,1.9860427579999997,-9.4660062056,941
58175,158862,176830,1.7527425545,1.9860427579999997,-9.4660062056,942
58037,158840,176851,1.7527425545,1.9860427579999997,-9.4660062056,943
57961,158822,176858,1.7527425545,1.9860427579999997,-9.4660062056,944
57909,158828,176833,1.7527425545,1.9860427579999997,-9.4660062056,945
57880,158808,176842,1.7527425545,1.9860427579999997,-9.4660062056,946
57868,158820,176862,1.7527425545,1.9860427579999997,-9.4660062056,947
57900,158843,176855,1.7527425545,1.9860427579999997,-9.4660062056,948
57930,158858,176864,1.7527425545,1.9860427579999997,-9.4660062056,949
57940,158839,176864,1.7527425545,1.9860427579999997,-9.4660062056,950
57957,158856,176868,1.7527425545,1.9860427579999997,-9.4660062056,951
57966,158857,176845,1.7527425545,1.9860427579999997,-9.4660062056,952
57991,158830,176867,1.7527425545,1.9860427579999997,-9.4660062056,953
58018,158827,176874,1.7527425545,1.9860427579999997,-9.4660062056,954
58045,158825,176837,1.7527425545,1.9860427579999997,-9.4660062056,955
58068,158862,176852,1.7527425545,1.9860427579999997,-9.4660062056,956
58096,158853,176830,1.7527425545,1.9860427579999997,-9.4660062056,957
58123,158830,176833,1.7527425545,1.9860427579999997,-9.4660062056,958
58143,158840,176849,1.7527425545,1.9860427579999997,-9.4660062056,959
58182,158874,176869,1.7527425545,1.9860427579999997,-9.4660062056,960
58211,158864,176885,1.7527425545,1.9860427579999997,-9.4660062056,961
58241,158849,176830,1.7527425545,1.9860427579999997,-9.4660062056,962
58278,158878,176842,1.7527425545,1.9860427579999997,-9.4660062056,963
58315,158868,176834,1.7527425545,1.9860427579999997,-9.4660062056,964
58257,158846,176889,1.7527425545,1.9860427579999997,-9.4660062056,965
58127,158812,176824,1.7527425545,1.9860427579999997,-9.4660062056,966
58010,158819,176855,1.7527425545,1.9860427579999997,-9.4660062056,967
58325,158887,176965,1.6666009409,2.0494525569,-9.3966143502,968
58321,158878,176960,1.6666009409,2.0494525569,-9.3966143502,969
58340,158914,177007,1.6666009409,2.0494525569,-9.3966143502,970
58350,158915,176983,1.6666009409,2.0494525569,-9.3966143502,971
58375,158916,176944,1.6666009409,2.0494525569,-9.3966143502,972
58407,158893,176959,1.6666009409,2.0494525569,-9.3966143502,973
58420,158889,176960,1.6666009409,2.0494525569,-9.3966143502,974
58453,158878,176942,1.6666009409,2.0494525569,-9.3966143502,975
58471,158894,176947,1.6666009409,2.0494525569,-9.3966143502,976
58493,158883,176918,1.6666009409,2.0494525569,-9.3966143502,977
58517,158873,176908,1.6666009409,2.0494525569,-9.3966143502,978
58549,158858,176918,1.6666009409,2.0494525569,-9.3966143502,979
58581,158838,176887,1.6666009409,2.0494525569,-9.3966143502,980
58593,158879,176949,1.6666009409,2.0494525569,-9.3966143502,981
58549,158851,176904,1.6666009409,2.0494525569,-9.3966143502,982
58390,158785,176896,1.6666009409,2.0494525569,-9.3966143502,983
58248,158767,176832,1.6666009409,2.0494525569,-9.3966143502,984
58145,158716,176841,1.6666009409,2.0494525569,-9.3966143502,985
58077,158734,176848,1.6666009409,2.0494525569,-9.3966143502,986
58047,158694,176824,1.7970097726,2.0015961049,-9.3619184225,987
58045,158696,176865,1.7970097726,2.0015961049,-9.3619184225,988
58069,158727,176832,1.7970097726,2.0015961049,-9.3619184225,989
58084,158722,176854,1.7970097726,2.0015961049,-9.3619184225,990
58074,158728,176835,1.7970097726,2.0015961049,-9.3619184225,991
58071,158687,176831,1.7970097726,2.0015961049,-9.3619184225,992
58057,158691,176838,1.7970097726,2.0015961049,-9.3619184225,993
58063,158689,176791,1.7970097726,2.0015961049,-9.3619184225,994
58088,158690,176816,1.7970097726,2.0015961049,-9.3619184225,995
58107,158689,176798,1.7970097726,2.0015961049,-9.3619184225,996
58138,158689,176810,1.7970097726,2.0015961049,-9.3619184225,997
58166,158722,176834,1.7970097726,2.0015961049,-9.3619184225,998
58196,158718,176787,1.7970097726,2.0015961049,-9.3619184225,999
58240,158731,176809,1.7001004573,1.9597217094,-9.468399028199999,1000
58292,158773,176840,1.7001004573,1.9597217094,-9.468399028199999,1001
58340,158772,176868,1.7001004573,1.9597217094,-9.468399028199999,1002
58402,158804,176854,1.7001004573,1.9597217094,-9.468399028199999,1003
58447,158821,176869,1.7001004573,1.9597217094,-9.468399028199999,1004
58414,158816,176870,1.7001004573,1.9597217094,-9.468399028199999,1005
58286,158757,176848,1.7001004573,1.9597217094,-9.468399028199999,1006
58151,158732,176827,1.7001004573,1.9597217094,-9.468399028199999,1007
58067,158685,176802,1.7001004573,1.9597217094,-9.468399028199999,1008
58011,158670,176802,1.7001004573,1.9597217094,-9.468399028199999,1009
57993,158657,176806,1.7001004573,1.9597217094,-9.468399028199999,1010
58000,158633,176819,1.7001004573,1.9597217094,-9.468399028199999,1011
58016,158649,176790,1.7001004573,1.9597217094,-9.468399028199999,1012
58015,158635,176813,1.7001004573,1.9597217094,-9.468399028199999,1013
58018,158647,176779,1.7001004573,1.9597217094,-9.468399028199999,1014
58029,158678,176793,1.7001004573,1.9597217094,-9.468399028199999,1015
58057,158687,176787,1.7001004573,1.9597217094,-9.468399028199999,1016
58069,158672,176815,1.7001004573,1.9597217094,-9.468399028199999,1017
58108,158660,176805,1.7001004573,1.9597217094,-9.468399028199999,1018
58137,158703,176822,1.6797614652,1.9477575963999998,-9.391828705,1019
58156,158720,176828,1.6797614652,1.9477575963999998,-9.391828705,1020
58187,158723,176818,1.6797614652,1.9477575963999998,-9.391828705,1021
58216,158773,176846,1.6797614652,1.9477575963999998,-9.391828705,1022
58263,158786,176844,1.6797614652,1.9477575963999998,-9.391828705,1023
58305,158832,176880,1.6797614652,1.9477575963999998,-9.391828705,1024
58342,158837,176864,1.6797614652,1.9477575963999998,-9.391828705,1025
58379,158831,176908,1.6797614652,1.9477575963999998,-9.391828705,1026
58289,158809,176885,1.6797614652,1.9477575963999998,-9.391828705,1027
58148,158801,176874,1.6797614652,1.9477575963999998,-9.391828705,1028
58041,158766,176868,1.6797614652,1.9477575963999998,-9.391828705,1029
57980,158737,176863,1.6797614652,1.9477575963999998,-9.391828705,1030
57950,158731,176893,1.6797614652,1.9477575963999998,-9.391828705,1031
57950,158736,176865,1.6797614652,1.9477575963999998,-9.391828705,1032
57988,158733,176883,1.6797614652,1.9477575963999998,-9.391828705,1033
58021,158743,176897,1.6797614652,1.9477575963999998,-9.391828705,1034
58053,158747,176906,1.6797614652,1.9477575963999998,-9.391828705,1035
58080,158803,176901,1.6797614652,1.9477575963999998,-9.391828705,1036
58121,158785,176924,1.6797614652,1.9477575963999998,-9.391828705,1037
58148,158788,176885,1.6797614652,1.9477575963999998,-9.391828705,1038
58185,158814,176879,1.6797614652,1.9477575963999998,-9.391828705,1039
58212,158796,176907,1.6797614652,1.9477575963999998,-9.391828705,1040
58258,158836,176922,1.6797614652,1.9477575963999998,-9.391828705,1041
58290,158791,176882,1.6797614652,1.9477575963999998,-9.391828705,1042
58314,158831,176879,1.6797614652,1.9477575963999998,-9.391828705,1043
58353,158820,176891,1.6797614652,1.9477575963999998,-9.391828705,1044
58379,158846,176925,1.6797614652,1.9477575963999998,-9.391828705,1045
58413,158852,176897,1.6797614652,1.9477575963999998,-9.391828705,1046
58465,158858,176910,1.6797614652,1.9477575963999998,-9.391828705,1047
58480,158864,176898,1.6797614652,1.9477575963999998,-9.391828705,1048
58379,158852,176875,1.6797614652,1.9477575963999998,-9.391828705,1049
58255,158804,176865,1.6797614652,1.9477575963999998,-9.391828705,1050
58164,158783,176887,1.6797614652,1.9477575963999998,-9.391828705,1051
58131,158791,176918,1.6797614652,1.9477575963999998,-9.391828705,1052
58108,158771,176903,1.6797614652,1.9477575963999998,-9.391828705,1053
58105,158808,176913,1.6797614652,1.9477575963999998,-9.391828705,1054
58139,158792,176909,1.6797614652,1.9477575963999998,-9.391828705,1055
58189,158797,176901,1.6797614652,1.9477575963999998,-9.391828705,1056
58211,158783,176891,1.6797614652,1.9477575963999998,-9.391828705,1057
58237,158804,176917,1.6797614652,1.9477575963999998,-9.391828705,1058
58259,158824,176882,1.6797614652,1.9477575963999998,-9.391828705,1059
58264,158768,176856,1.6797614652,1.9477575963999998,-9.391828705,1060
58533,158764,176820,1.6618152957,2.0566310246999997,-9.4504528587,1061
58402,158705,176826,1.6618152957,2.0566310246999997,-9.4504528587,1062
58288,158731,176781,1.6618152957,2.0566310246999997,-9.4504528587,1063
58222,158664,176808,1.6618152957,2.0566310246999997,-9.4504528587,1064
58165,158679,176776,1.6618152957,2.0566310246999997,-9.4504528587,1065
58140,158651,176789,1.6618152957,2.0566310246999997,-9.4504528587,1066
58162,158672,176777,1.6618152957,2.0566310246999997,-9.4504528587,1067
58185,158651,176763,1.6618152957,2.0566310246999997,-9.4504528587,1068
58218,158691,176789,1.6618152957,2.0566310246999997,-9.4504528587,1069
58230,158689,176798,1.6618152957,2.0566310246999997,-9.4504528587,1070
58247,158666,176787,1.6618152957,2.0566310246999997,-9.4504528587,1071
58257,158660,176800,1.6618152957,2.0566310246999997,-9.4504528587,1072
58274,158674,176795,1.6618152957,2.0566310246999997,-9.4504528587,1073
58306,158684,176789,1.6618152957,2.0566310246999997,-9.4504528587,1074
58329,158684,176800,1.6618152957,2.0566310246999997,-9.4504528587,1075
58368,158672,176794,1.6618152957,2.0566310246999997,-9.4504528587,1076
58399,158684,176805,1.6618152957,2.0566310246999997,-9.4504528587,1077
58435,158679,176815,1.6618152957,2.0566310246999997,-9.4504528587,1078
58484,158736,176822,1.6618152957,2.0566310246999997,-9.4504528587,1079
58539,158742,176806,1.6618152957,2.0566310246999997,-9.4504528587,1080
58602,158783,176850,1.6618152957,2.0566310246999997,-9.4504528587,1081
58681,158811,176854,1.6618152957,2.0566310246999997,-9.4504528587,1082
58683,158807,176871,1.6618152957,2.0566310246999997,-9.4504528587,1083
58575,158816,176844,1.6618152957,2.0566310246999997,-9.4504528587,1084
58455,158742,176827,1.6618152957,2.0566310246999997,-9.4504528587,1085
58395,158715,176855,1.6618152957,2.0566310246999997,-9.4504528587,1086
58316,158713,176857,1.6618152957,2.0566310246999997,-9.4504528587,1087
58282,158738,176881,1.6618152957,2.0566310246999997,-9.4504528587,1088
58268,158722,176872,1.6618152957,2.0566310246999997,-9.4504528587,1089
58285,158755,176866,1.6618152957,2.0566310246999997,-9.4504528587,1090
58296,158765,176871,1.6618152957,2.0566310246999997,-9.4504528587,1091
58311,158794,176862,1.6618152957,2.0566310246999997,-9.4504528587,1092
58328,158816,176949,1.6618152957,2.0566310246999997,-9.4504528587,1093
58358,158797,176927,1.6618152957,2.0566310246999997,-9.4504528587,1094
58396,158810,176931,1.6618152957,2.0566310246999997,-9.4504528587,1095
58422,158825,176901,1.6618152957,2.0566310246999997,-9.4504528587,1096
58451,158837,176926,1.6618152957,2.0566310246999997,-9.4504528587,1097
58478,158841,176884,1.6618152957,2.0566310246999997,-9.4504528587,1098
58501,158854,176933,1.6618152957,2.0566310246999997,-9.4504528587,1099
58532,158831,176910,1.6618152957,2.0566310246999997,-9.4504528587,1100
58563,158861,176903,1.6618152957,2.0566310246999997,-9.4504528587,1101
58602,158879,176886,1.6618152957,2.0566310246999997,-9.4504528587,1102
58201,158804,176928,1.8209379986,1.9740786449999999,-9.3667040677,1103
58226,158811,176946,1.8209379986,1.9740786449999999,-9.3667040677,1104
58238,158834,176915,1.8209379986,1.9740786449999999,-9.3667040677,1105
58243,158846,176906,1.8209379986,1.9740786449999999,-9.3667040677,1106
58243,158832,176938,1.8209379986,1.9740786449999999,-9.3667040677,1107
58260,158833,176935,1.8209379986,1.9740786449999999,-9.3667040677,1108
58291,158835,176918,1.8209379986,1.9740786449999999,-9.3667040677,1109
58303,158848,176928,1.8209379986,1.9740786449999999,-9.3667040677,1110
58318,158833,176907,1.8209379986,1.9740786449999999,-9.3667040677,1111
58344,158853,176875,1.8209379986,1.9740786449999999,-9.3667040677,1112
58374,158837,176924,1.8209379986,1.9740786449999999,-9.3667040677,1113
58390,158820,176899,1.8209379986,1.9740786449999999,-9.3667040677,1114
58420,158866,176882,1.8209379986,1.9740786449999999,-9.3667040677,1115
58455,158857,176893,1.8209379986,1.9740786449999999,-9.3667040677,1116
58479,158849,176890,1.8209379986,1.9740786449999999,-9.3667040677,1117
58512,158835,176911,1.8209379986,1.9740786449999999,-9.3667040677,1118
58474,158852,176880,1.8209379986,1.9740786449999999,-9.3667040677,1119
58316,158820,176898,1.8209379986,1.9740786449999999,-9.3667040677,1120
58179,158783,176891,1.8209379986,1.9740786449999999,-9.3667040677,1121
58099,158770,176910,1.8209379986,1.9740786449999999,-9.3667040677,1122
58021,158777,176909,1.8209379986,1.9740786449999999,-9.3667040677,1123
57989,158730,176902,1.8209379986,1.9740786449999999,-9.3667040677,1124
57986,158756,176889,1.8209379986,1.9740786449999999,-9.3667040677,1125
58024,158757,176866,1.8209379986,1.9740786449999999,-9.3667040677,1126
58043,158744,176876,1.8209379986,1.9740786449999999,-9.3667040677,1127
58066,158797,176899,1.8209379986,1.9740786449999999,-9.3667040677,1128
58049,158771,176905,1.8209379986,1.9740786449999999,-9.3667040677,1129
58053,158755,176885,1.8209379986,1.9740786449999999,-9.3667040677,1130
58067,158721,176873,1.8209379986,1.9740786449999999,-9.3667040677,1131
58075,158706,176837,1.8209379986,1.9740786449999999,-9.3667040677,1132
58086,158748,176853,1.8209379986,1.9740786449999999,-9.3667040677,1133
58114,158718,176854,1.8209379986,1.9740786449999999,-9.3667040677,1134
58131,158729,176819,1.8209379986,1.9740786449999999,-9.3667040677,1135
58154,158691,176818,1.8209379986,1.9740786449999999,-9.3667040677,1136
58172,158707,176813,1.8209379986,1.9740786449999999,-9.3667040677,1137
58195,158698,176818,1.8209379986,1.9740786449999999,-9.3667040677,1138
58221,158736,176800,1.8209379986,1.9740786449999999,-9.3667040677,1139
58242,158727,176809,1.8209379986,1.9740786449999999,-9.3667040677,1140
58303,158766,176839,1.8209379986,1.9740786449999999,-9.3667040677,1141
58318,158763,176824,1.8209379986,1.9740786449999999,-9.3667040677,1142
58248,158762,176830,1.8209379986,1.9740786449999999,-9.3667040677,1143
58083,158680,176843,1.8209379986,1.9740786449999999,-9.3667040677,1144
57806,158615,176769,1.6869399330000001,2.021935097,-9.4923272542,1145
57820,158615,176788,1.6869399330000001,2.021935097,-9.4923272542,1146
57847,158602,176792,1.6869399330000001,2.021935097,-9.4923272542,1147
57850,158622,176806,1.6869399330000001,2.021935097,-9.4923272542,1148
57864,158625,176762,1.6869399330000001,2.021935097,-9.4923272542,1149
57859,158613,176809,1.6869399330000001,2.021935097,-9.4923272542,1150
57874,158623,176782,1.6869399330000001,2.021935097,-9.4923272542,1151
57895,158604,176808,1.6869399330000001,2.021935097,-9.4923272542,1152
57914,158643,176796,1.6869399330000001,2.021935097,-9.4923272542,1153
57940,158625,176798,1.6869399330000001,2.021935097,-9.4923272542,1154
57968,158640,176803,1.6869399330000001,2.021935097,-9.4923272542,1155
57992,158631,176805,1.6869399330000001,2.021935097,-9.4923272542,1156
58037,158660,176807,1.6869399330000001,2.021935097,-9.4923272542,1157
58096,158689,176814,1.6869399330000001,2.021935097,-9.4923272542,1158
58147,158705,176842,1.6869399330000001,2.021935097,-9.4923272542,1159
58205,158722,176847,1.6869399330000001,2.021935097,-9.4923272542,1160
58233,158729,176837,1.6869399330000001,2.021935097,-9.4923272542,1161
58254,158732,176820,1.6869399330000001,2.021935097,-9.4923272542,1162
58213,158735,176850,1.6869399330000001,2.021935097,-9.4923272542,1163
58067,158669,176848,1.6869399330000001,2.021935097,-9.4923272542,1164
57931,158683,176830,1.6869399330000001,2.021935097,-9.4923272542,1165
57859,158644,176814,1.6869399330000001,2.021935097,-9.4923272542,1166
57799,158622,176837,1.6869399330000001,2.021935097,-9.4923272542,1167
57752,158613,176832,1.6869399330000001,2.021935097,-9.4923272542,1168
57746,158646,176815,1.6869399330000001,2.021935097,-9.4923272542,1169
57760,158657,176839,1.6869399330000001,2.021935097,-9.4923272542,1170
57755,158627,176832,1.6869399330000001,2.021935097,-9.4923272542,1171
57750,158631,176864,1.6869399330000001,2.021935097,-9.4923272542,1172
57742,158671,176842,1.6869399330000001,2.021935097,-9.4923272542,1173
57767,158671,176864,1.6869399330000001,2.021935097,-9.4923272542,1174
57807,158662,176829,1.6869399330000001,2.021935097,-9.4923272542,1175
57831,158694,176936,1.6869399330000001,2.021935097,-9.4923272542,1176
57885,158705,176872,1.6869399330000001,2.021935097,-9.4923272542,1177
57902,158681,176896,1.6869399330000001,2.021935097,-9.4923272542,1178
57927,158686,176939,1.6869399330000001,2.021935097,-9.4923272542,1179
57973,158689,176875,1.6869399330000001,2.021935097,-9.4923272542,1180
58008,158718,176917,1.6869399330000001,2.021935097,-9.4923272542,1181
58060,158773,176910,1.6869399330000001,2.021935097,-9.4923272542,1182
58111,158761,176925,1.6869399330000001,2.021935097,-9.4923272542,1183
58062,158749,176879,1.6869399330000001,2.021935097,-9.4923272542,1184
57899,158721,176880,1.6869399330000001,2.021935097,-9.4923272542,1185
57749,158688,176862,1.6869399330000001,2.021935097,-9.4923272542,1186
57453,158381,176783,1.734796385,2.0685951377,-9.477970318599999,1187
57475,158377,176786,1.734796385,2.0685951377,-9.477970318599999,1188
57508,158415,176768,1.734796385,2.0685951377,-9.477970318599999,1189
57555,158397,176790,1.734796385,2.0685951377,-9.477970318599999,1190
57575,158395,176775,1.734796385,2.0685951377,-9.477970318599999,1191
57633,158386,176764,1.734796385,2.0685951377,-9.477970318599999,1192
57682,158372,176768,1.734796385,2.0685951377,-9.477970318599999,1193
57751,158461,176769,1.734796385,2.0685951377,-9.477970318599999,1194
57819,158449,176776,1.734796385,2.0685951377,-9.477970318599999,1195
57904,158447,176764,1.734796385,2.0685951377,-9.477970318599999,1196
57991,158485,176760,1.734796385,2.0685951377,-9.477970318599999,1197
58067,158508,176798,1.734796385,2.0685951377,-9.477970318599999,1198
58071,158542,176789,1.734796385,2.0685951377,-9.477970318599999,1199
58030,158543,176778,1.734796385,2.0685951377,-9.477970318599999,1200
58023,158531,176789,1.734796385,2.0685951377,-9.477970318599999,1201
58033,158523,176833,1.734796385,2.0685951377,-9.477970318599999,1202
58060,158535,176822,1.734796385,2.0685951377,-9.477970318599999,1203
58123,158555,176826,1.734796385,2.0685951377,-9.477970318599999,1204
58212,158580,176839,1.734796385,2.0685951377,-9.477970318599999,1205
58270,158578,176796,1.734796385,2.0685951377,-9.477970318599999,1206
58344,158648,176830,1.734796385,2.0685951377,-9.477970318599999,1207
58424,158663,176847,1.734796385,2.0685951377,-9.477970318599999,1208
58531,158717,176895,1.734796385,2.0685951377,-9.477970318599999,1209
58614,158716,176893,1.734796385,2.0685951377,-9.477970318599999,1210
58698,158771,176924,1.734796385,2.0685951377,-9.477970318599999,1211
58781,158753,176878,1.734796385,2.0685951377,-9.477970318599999,1212
58852,158785,176891,1.734796385,2.0685951377,-9.477970318599999,1213
58929,158803,176872,1.734796385,2.0685951377,-9.477970318599999,1214
59005,158828,176896,1.734796385,2.0685951377,-9.477970318599999,1215
59087,158833,176875,1.734796385,2.0685951377,-9.477970318599999,1216
59171,158837,176878,1.734796385,2.0685951377,-9.477970318599999,1217
59238,158873,176875,1.734796385,2.0685951377,-9.477970318599999,1218
59286,158877,176884,1.734796385,2.0685951377,-9.477970318599999,1219
59294,158884,176881,1.734796385,2.0685951377,-9.477970318599999,1220
59275,158879,176865,1.734796385,2.0685951377,-9.477970318599999,1221
59268,158851,176857,1.734796385,2.0685951377,-9.477970318599999,1222
59299,158918,176870,1.734796385,2.0685951377,-9.477970318599999,1223
59341,158894,176848,1.734796385,2.0685951377,-9.477970318599999,1224
59417,158925,176873,1.734796385,2.0685951377,-9.477970318599999,1225
59489,158940,176868,1.7790636031,1.9992032822999999,-9.5365944723,1226
59570,158951,176873,1.7790636031,1.9992032822999999,-9.5365944723,1227
59623,158977,176859,1.7790636031,1.9992032822999999,-9.5365944723,1228
59679,158955,176863,1.7790636031,1.9992032822999999,-9.5365944723,1229
59748,159010,176827,1.7790636031,1.9992032822999999,-9.5365944723,1230
59791,158973,176843,1.7790636031,1.9992032822999999,-9.5365944723,1231
59860,158981,176794,1.7790636031,1.9992032822999999,-9.5365944723,1232
59910,159016,176836,1.7790636031,1.9992032822999999,-9.5365944723,1233
59958,158965,176847,1.7790636031,1.9992032822999999,-9.5365944723,1234
59998,159015,176807,1.7790636031,1.9992032822999999,-9.5365944723,1235
60041,159009,176781,1.7790636031,1.9992032822999999,-9.5365944723,1236
60094,159011,176804,1.7790636031,1.9992032822999999,-9.5365944723,1237
60134,159023,176790,1.7790636031,1.9992032822999999,-9.5365944723,1238
60181,158978,176750,1.7790636031,1.9992032822999999,-9.5365944723,1239
60206,158966,176727,1.7790636031,1.9992032822999999,-9.5365944723,1240
60239,158980,176716,1.7790636031,1.9992032822999999,-9.5365944723,1241
60236,158935,176745,1.7790636031,1.9992032822999999,-9.5365944723,1242
60205,158982,176739,1.7790636031,1.9992032822999999,-9.5365944723,1243
60172,159005,176709,1.7790636031,1.9992032822999999,-9.5365944723,1244
60167,158985,176727,1.7790636031,1.9992032822999999,-9.5365944723,1245
60173,158988,176697,1.7790636031,1.9992032822999999,-9.5365944723,1246
60175,158978,176702,1.7790636031,1.9992032822999999,-9.5365944723,1247
60226,159026,176716,1.7790636031,1.9992032822999999,-9.5365944723,1248
60258,159004,176752,1.7790636031,1.9992032822999999,-9.5365944723,1249
60281,158993,176712,1.7790636031,1.9992032822999999,-9.5365944723,1250
60293,158991,176685,1.7790636031,1.9992032822999999,-9.5365944723,1251
60314,158967,176665,1.7790636031,1.9992032822999999,-9.5365944723,1252
60310,158958,176630,1.7790636031,1.9992032822999999,-9.5365944723,1253
60316,158936,176615,1.7790636031,1.9992032822999999,-9.5365944723,1254
60317,158892,176574,1.7790636031,1.9992032822999999,-9.5365944723,1255
60322,158879,176573,1.7790636031,1.9992032822999999,-9.5365944723,1256
60300,158880,176532,1.7790636031,1.9992032822999999,-9.5365944723,1257
60315,158825,176550,1.7240286833,2.0949161863,-9.4588277378,1258
60309,158820,176488,1.7240286833,2.0949161863,-9.4588277378,1259
60319,158809,176485,1.7240286833,2.0949161863,-9.4588277378,1260
60309,158793,176478,1.7240286833,2.0949161863,-9.4588277378,1261
60312,158767,176457,1.7240286833,2.0949161863,-9.4588277378,1262
60324,158756,176425,1.7240286833,2.0949161863,-9.4588277378,1263
60314,158738,176423,1.7240286833,2.0949161863,-9.4588277378,1264
60336,158739,176413,1.7240286833,2.0949161863,-9.4588277378,1265
60350,158748,176395,1.7240286833,2.0949161863,-9.4588277378,1266
60380,158772,176384,1.7240286833,2.0949161863,-9.4588277378,1267
60403,158760,176400,1.7240286833,2.0949161863,-9.4588277378,1268
60447,158782,176356,1.7240286833,2.0949161863,-9.4588277378,1269
60476,158796,176383,1.7240286833,2.0949161863,-9.4588277378,1270
60453,158812,176411,1.7240286833,2.0949161863,-9.4588277378,1271
60360,158789,176375,1.7240286833,2.0949161863,-9.4588277378,1272
60253,158727,176342,1.7240286833,2.0949161863,-9.4588277378,1273
60153,158710,176330,1.7240286833,2.0949161863,-9.4588277378,1274
60070,158681,176316,1.7240286833,2.0949161863,-9.4588277378,1275
60016,158647,176286,1.7240286833,2.0949161863,-9.4588277378,1276
59995,158665,176266,1.7240286833,2.0949161863,-9.4588277378,1277
59965,158646,176269,1.7240286833,2.0949161863,-9.4588277378,1278
59946,158655,176248,1.7240286833,2.0949161863,-9.4588277378,1279
59904,158645,176262,1.7240286833,2.0949161863,-9.4588277378,1280
59881,158650,176256,1.7240286833,2.0949161863,-9.4588277378,1281
59860,158628,176251,1.7240286833,2.0949161863,-9.4588277378,1282
59847,158626,176267,1.7240286833,2.0949161863,-9.4588277378,1283
59837,158653,176279,1.7240286833,2.0949161863,-9.4588277378,1284
59835,158643,176250,1.7240286833,2.0949161863,-9.4588277378,1285
59831,158655,176224,1.7240286833,2.0949161863,-9.4588277378,1286
59833,158654,176254,1.7240286833,2.0949161863,-9.4588277378,1287
59844,158691,176267,1.7240286833,2.0949161863,-9.4588277378,1288
59862,158718,176262,1.7240286833,2.0949161863,-9.4588277378,1289
59872,158737,176277,1.710868159,1.9764714676,-9.3260260835,1290
59907,158725,176252,1.710868159,1.9764714676,-9.3260260835,1291
59913,158749,176247,1.710868159,1.9764714676,-9.3260260835,1292
59921,158725,176259,1.710868159,1.9764714676,-9.3260260835,1293
59949,158748,176273,1.710868159,1.9764714676,-9.3260260835,1294
59957,158764,176246,1.710868159,1.9764714676,-9.3260260835,1295
59995,158774,176250,1.710868159,1.9764714676,-9.3260260835,1296
59959,158778,176237,1.710868159,1.9764714676,-9.3260260835,1297
59837,158756,176245,1.710868159,1.9764714676,-9.3260260835,1298
59666,158740,176245,1.710868159,1.9764714676,-9.3260260835,1299
59549,158736,176257,1.710868159,1.9764714676,-9.3260260835,1300
59461,158739,176228,1.710868159,1.9764714676,-9.3260260835,1301
59389,158741,176239,1.710868159,1.9764714676,-9.3260260835,1302
59375,158735,176298,1.710868159,1.9764714676,-9.3260260835,1303
59373,158774,176276,1.710868159,1.9764714676,-9.3260260835,1304
59373,158763,176269,1.710868159,1.9764714676,-9.3260260835,1305
59351,158788,176290,1.710868159,1.9764714676,-9.3260260835,1306
59335,158820,176291,1.710868159,1.9764714676,-9.3260260835,1307
59325,158787,176281,1.710868159,1.9764714676,-9.3260260835,1308
59314,158792,176264,1.710868159,1.9764714676,-9.3260260835,1309
59313,158800,176285,1.710868159,1.9764714676,-9.3260260835,1310
59314,158808,176301,1.710868159,1.9764714676,-9.3260260835,1311
59331,158784,176269,1.710868159,1.9764714676,-9.3260260835,1312
59319,158767,176270,1.710868159,1.9764714676,-9.3260260835,1313
59297,158773,176273,1.710868159,1.9764714676,-9.3260260835,1314
59291,158751,176232,1.710868159,1.9764714676,-9.3260260835,1315
59279,158748,176244,1.710868159,1.9764714676,-9.3260260835,1316
59287,158707,176223,1.710868159,1.9764714676,-9.3260260835,1317
59267,158709,176252,1.710868159,1.9764714676,-9.3260260835,1318
59272,158705,176212,1.710868159,1.9764714676,-9.3260260835,1319
59283,158692,176223,1.710868159,1.9764714676,-9.3260260835,1320
59292,158696,176227,1.710868159,1.9764714676,-9.3260260835,1321
59316,158732,176193,1.710868159,1.9764714676,-9.3260260835,1322
59338,158717,176206,1.710868159,1.9764714676,-9.3260260835,1323
59332,158754,176230,1.710868159,1.9764714676,-9.3260260835,1324
59218,158741,176219,1.710868159,1.9764714676,-9.3260260835,1325
59077,158705,176240,1.710868159,1.9764714676,-9.3260260835,1326
58972,158693,176222,1.710868159,1.9764714676,-9.3260260835,1327
58910,158686,176259,1.710868159,1.9764714676,-9.3260260835,1328
58899,158713,176262,1.710868159,1.9764714676,-9.3260260835,1329
58889,158725,176245,1.710868159,1.9764714676,-9.3260260835,1330
58923,158705,176254,1.710868159,1.9764714676,-9.3260260835,1331
59265,158925,176398,1.8125631194999998,2.0434705004000002,-9.5365944723,1332
59277,158896,176349,1.8125631194999998,2.0434705004000002,-9.5365944723,1333
59305,158908,176376,1.8125631194999998,2.0434705004000002,-9.5365944723,1334
59308,158952,176368,1.8125631194999998,2.0434705004000002,-9.5365944723,1335
59246,158915,176341,1.8125631194999998,2.0434705004000002,-9.5365944723,1336
59108,158896,176372,1.8125631194999998,2.0434705004000002,-9.5365944723,1337
58990,158872,176395,1.8125631194999998,2.0434705004000002,-9.5365944723,1338
58913,158884,176391,1.8125631194999998,2.0434705004000002,-9.5365944723,1339
58866,158892,176381,1.8125631194999998,2.0434705004000002,-9.5365944723,1340
58826,158863,176411,1.8125631194999998,2.0434705004000002,-9.5365944723,1341
58834,158910,176402,1.8125631194999998,2.0434705004000002,-9.5365944723,1342
58832,158892,176427,1.8125631194999998,2.0434705004000002,-9.5365944723,1343
58831,158958,176428,1.8125631194999998,2.0434705004000002,-9.5365944723,1344
58825,158935,176445,1.8125631194999998,2.0434705004000002,-9.5365944723,1345
58780,158948,176448,1.8125631194999998,2.0434705004000002,-9.5365944723,1346
58771,158949,176411,1.8125631194999998,2.0434705004000002,-9.5365944723,1347
58764,158934,176420,1.8125631194999998,2.0434705004000002,-9.5365944723,1348
58757,158930,176433,1.8125631194999998,2.0434705004000002,-9.5365944723,1349
58747,158920,176430,1.8125631194999998,2.0434705004000002,-9.5365944723,1350
58752,158901,176375,1.8125631194999998,2.0434705004000002,-9.5365944723,1351
58752,158883,176422,1.8125631194999998,2.0434705004000002,-9.5365944723,1352
58764,158895,176420,1.8125631194999998,2.0434705004000002,-9.5365944723,1353
58751,158887,176418,1.8125631194999998,2.0434705004000002,-9.5365944723,1354
58758,158903,176388,1.8125631194999998,2.0434705004000002,-9.5365944723,1355
58776,158870,176376,1.8125631194999998,2.0434705004000002,-9.5365944723,1356
58778,158870,176390,1.8125631194999998,2.0434705004000002,-9.5365944723,1357
58737,158864,176341,1.8125631194999998,2.0434705004000002,-9.5365944723,1358
58565,158820,176328,1.8125631194999998,2.0434705004000002,-9.5365944723,1359
58391,158747,176333,1.8125631194999998,2.0434705004000002,-9.5365944723,1360
58280,158747,176307,1.8125631194999998,2.0434705004000002,-9.5365944723,1361
58206,158785,176322,1.8125631194999998,2.0434705004000002,-9.5365944723,1362
58151,158759,176318,1.8125631194999998,2.0434705004000002,-9.5365944723,1363
58130,158781,176311,1.8125631194999998,2.0434705004000002,-9.5365944723,1364
58139,158747,176313,1.8125631194999998,2.0434705004000002,-9.5365944723,1365
58121,158740,176296,1.8125631194999998,2.0434705004000002,-9.5365944723,1366
58095,158738,176307,1.8125631194999998,2.0434705004000002,-9.5365944723,1367
58066,158747,176307,1.8125631194999998,2.0434705004000002,-9.5365944723,1368
58038,158719,176306,1.8125631194999998,2.0434705004000002,-9.5365944723,1369
58007,158688,176279,1.8125631194999998,2.0434705004000002,-9.5365944723,1370
57992,158692,176301,1.8125631194999998,2.0434705004000002,-9.5365944723,1371
57983,158665,176281,1.8125631194999998,2.0434705004000002,-9.5365944723,1372
57981,158649,176255,1.8125631194999998,2.0434705004000002,-9.5365944723,1373
57743,158679,176227,1.6342978358,1.9692929998,-9.5677011661,1374
57697,158634,176224,1.6342978358,1.9692929998,-9.5677011661,1375
57686,158620,176246,1.6342978358,1.9692929998,-9.5677011661,1376
57688,158635,176250,1.6342978358,1.9692929998,-9.5677011661,1377
57713,158656,176279,1.6342978358,1.9692929998,-9.5677011661,1378
57708,158673,176281,1.6342978358,1.9692929998,-9.5677011661,1379
57696,158667,176276,1.6342978358,1.9692929998,-9.5677011661,1380
57688,158670,176303,1.6342978358,1.9692929998,-9.5677011661,1381
57693,158661,176260,1.6342978358,1.9692929998,-9.5677011661,1382
57694,158682,176301,1.6342978358,1.9692929998,-9.5677011661,1383
57718,158685,176302,1.6342978358,1.9692929998,-9.5677011661,1384
57743,158691,176312,1.6342978358,1.9692929998,-9.5677011661,1385
57770,158726,176310,1.6342978358,1.9692929998,-9.5677011661,1386
57804,158739,176320,1.6342978358,1.9692929998,-9.5677011661,1387
57851,158750,176305,1.6342978358,1.9692929998,-9.5677011661,1388
57885,158776,176345,1.6342978358,1.9692929998,-9.5677011661,1389
57923,158784,176352,1.6342978358,1.9692929998,-9.5677011661,1390
57968,158799,176316,1.6342978358,1.9692929998,-9.5677011661,1391
57906,158806,176349,1.6342978358,1.9692929998,-9.5677011661,1392
57753,158743,176331,1.6342978358,1.9692929998,-9.5677011661,1393
57641,158710,176349,1.6342978358,1.9692929998,-9.5677011661,1394
57592,158736,176295,1.6342978358,1.9692929998,-9.5677011661,1395
57561,158720,176322,1.6342978358,1.9692929998,-9.5677011661,1396
57579,158725,176312,1.6342978358,1.9692929998,-9.5677011661,1397
57609,158761,176354,1.6342978358,1.9692929998,-9.5677011661,1398
57673,158770,176371,1.6342978358,1.9692929998,-9.5677011661,1399
57698,158757,176366,1.6342978358,1.9692929998,-9.5677011661,1400
57711,158802,176362,1.6342978358,1.9692929998,-9.5677011661,1401
57733,158794,176363,1.6342978358,1.9692929998,-9.5677011661,1402
57760,158758,176366,1.6342978358,1.9692929998,-9.5677011661,1403
57783,158795,176366,1.6342978358,1.9692929998,-9.5677011661,1404
57797,158781,176357,1.6342978358,1.9692929998,-9.5677011661,1405
57822,158786,176342,1.6342978358,1.9692929998,-9.5677011661,1406
57846,158773,176328,1.6342978358,1.9692929998,-9.5677011661,1407
57861,158783,176362,1.6342978358,1.9692929998,-9.5677011661,1408
57885,158782,176350,1.6342978358,1.9692929998,-9.5677011661,1409
57916,158791,176332,1.6342978358,1.9692929998,-9.5677011661,1410
57939,158777,176336,1.6342978358,1.9692929998,-9.5677011661,1411
57964,158785,176340,1.6342978358,1.9692929998,-9.5677011661,1412
57981,158787,176337,1.6342978358,1.9692929998,-9.5677011661,1413
57909,158752,176316,1.6342978358,1.9692929998,-9.5677011661,1414
57762,158720,176331,1.6342978358,1.9692929998,-9.5677011661,1415
57687,158756,176371,1.7371892076000002,2.1248264688,-9.4851487864,1416
57738,158752,176371,1.7371892076000002,2.1248264688,-9.4851487864,1417
57795,158751,176376,1.7371892076000002,2.1248264688,-9.4851487864,1418
57818,158797,176373,1.7371892076000002,2.1248264688,-9.4851487864,1419
57824,158768,176396,1.7371892076000002,2.1248264688,-9.4851487864,1420
57839,158786,176352,1.7371892076000002,2.1248264688,-9.4851487864,1421
57864,158777,176409,1.7371892076000002,2.1248264688,-9.4851487864,1422
57894,158780,176320,1.7371892076000002,2.1248264688,-9.4851487864,1423
57920,158778,176387,1.7371892076000002,2.1248264688,-9.4851487864,1424
57938,158761,176332,1.7371892076000002,2.1248264688,-9.4851487864,1425
57967,158724,176336,1.7371892076000002,2.1248264688,-9.4851487864,1426
57974,158693,176309,1.7371892076000002,2.1248264688,-9.4851487864,1427
58008,158698,176315,1.7898313048,1.9334006607999998,-9.4085784632,1428
58032,158673,176231,1.7898313048,1.9334006607999998,-9.4085784632,1429
58040,158658,176265,1.7898313048,1.9334006607999998,-9.4085784632,1430
58060,158650,176260,1.7898313048,1.9334006607999998,-9.4085784632,1431
58032,158636,176242,1.7898313048,1.9334006607999998,-9.4085784632,1432
57898,158640,176255,1.7898313048,1.9334006607999998,-9.4085784632,1433
57777,158586,176246,1.7898313048,1.9334006607999998,-9.4085784632,1434
57736,158555,176214,1.7898313048,1.9334006607999998,-9.4085784632,1435
57725,158554,176239,1.7898313048,1.9334006607999998,-9.4085784632,1436
57739,158564,176244,1.7898313048,1.9334006607999998,-9.4085784632,1437
57781,158563,176248,1.7898313048,1.9334006607999998,-9.4085784632,1438
57819,158582,176241,1.7898313048,1.9334006607999998,-9.4085784632,1439
57861,158568,176212,1.7898313048,1.9334006607999998,-9.4085784632,1440
57868,158587,176258,1.7898313048,1.9334006607999998,-9.4085784632,1441
57883,158583,176256,1.7898313048,1.9334006607999998,-9.4085784632,1442
57893,158569,176224,1.7898313048,1.9334006607999998,-9.4085784632,1443
57915,158566,176228,1.7898313048,1.9334006607999998,-9.4085784632,1444
57945,158559,176254,1.7898313048,1.9334006607999998,-9.4085784632,1445
57966,158564,176272,1.7898313048,1.9334006607999998,-9.4085784632,1446
57999,158550,176204,1.782652837,1.9992032822999999,-9.4420779796,1447
58039,158565,176237,1.782652837,1.9992032822999999,-9.4420779796,1448
58069,158571,176235,1.782652837,1.9992032822999999,-9.4420779796,1449
58095,158565,176206,1.782652837,1.9992032822999999,-9.4420779796,1450
58160,158602,176240,1.782652837,1.9992032822999999,-9.4420779796,1451
58203,158617,176228,1.782652837,1.9992032822999999,-9.4420779796,1452
58263,158670,176335,1.782652837,1.9992032822999999,-9.4420779796,1453
58298,158686,176264,1.782652837,1.9992032822999999,-9.4420779796,1454
58213,158678,176288,1.782652837,1.9992032822999999,-9.4420779796,1455
58114,158643,176325,1.782652837,1.9992032822999999,-9.4420779796,1456
58088,158666,176321,1.782652837,1.9992032822999999,-9.4420779796,1457
58067,158675,176334,1.782652837,1.9992032822999999,-9.4420779796,1458
58090,158695,176315,1.782652837,1.9992032822999999,-9.4420779796,1459
58132,158661,176335,1.782652837,1.9992032822999999,-9.4420779796,1460
58185,158693,176359,1.782652837,1.9992032822999999,-9.4420779796,1461
58209,158711,176378,1.782652837,1.9992032822999999,-9.4420779796,1462
58235,158716,176369,1.782652837,1.9992032822999999,-9.4420779796,1463
58256,158742,176407,1.782652837,1.9992032822999999,-9.4420779796,1464
58296,158777,176416,1.782652837,1.9992032822999999,-9.4420779796,1465
58341,158749,176385,1.782652837,1.9992032822999999,-9.4420779796,1466
58383,158767,176426,1.782652837,1.9992032822999999,-9.4420779796,1467
58418,158774,176440,1.782652837,1.9992032822999999,-9.4420779796,1468
58448,158754,176404,1.782652837,1.9992032822999999,-9.4420779796,1469
58476,158749,176439,1.782652837,1.9992032822999999,-9.4420779796,1470
58508,158761,176377,1.782652837,1.9992032822999999,-9.4420779796,1471
58544,158764,176435,1.782652837,1.9992032822999999,-9.4420779796,1472
58578,158781,176422,1.782652837,1.9992032822999999,-9.4420779796,1473
58608,158784,176404,1.782652837,1.9992032822999999,-9.4420779796,1474
58641,158770,176411,1.782652837,1.9992032822999999,-9.4420779796,1475
58688,158773,176403,1.782652837,1.9992032822999999,-9.4420779796,1476
58644,158774,176417,1.782652837,1.9992032822999999,-9.4420779796,1477
58543,158743,176411,1.782652837,1.9992032822999999,-9.4420779796,1478
58441,158720,176399,1.782652837,1.9812571127999998,-9.4169533423,1479
58402,158710,176415,1.782652837,1.9812571127999998,-9.4169533423,1480
58396,158732,176446,1.782652837,1.9812571127999998,-9.4169533423,1481
58406,158753,176461,1.782652837,1.9812571127999998,-9.4169533423,1482
58459,158759,176463,1.782652837,1.9812571127999998,-9.4169533423,1483
58496,158783,176492,1.782652837,1.9812571127999998,-9.4169533423,1484
58533,158804,176500,1.782652837,1.9812571127999998,-9.4169533423,1485
58561,158818,176492,1.782652837,1.9812571127999998,-9.4169533423,1486
58560,158837,176506,1.782652837,1.9812571127999998,-9.4169533423,1487
58593,158855,176541,1.782652837,1.9812571127999998,-9.4169533423,1488
58621,158845,176522,1.782652837,1.9812571127999998,-9.4169533423,1489
58639,158834,176516,1.782652837,1.9812571127999998,-9.4169533423,1490
58663,158822,176504,1.782652837,1.9812571127999998,-9.4169533423,1491
58691,158812,176505,1.782652837,1.9812571127999998,-9.4169533423,1492
58714,158798,176514,1.782652837,1.9812571127999998,-9.4169533423,1493
58741,158830,176504,1.782652837,1.9812571127999998,-9.4169533423,1494
58761,158850,176514,1.782652837,1.9812571127999998,-9.4169533423,1495
58793,158834,176505,1.782652837,1.9812571127999998,-9.4169533423,1496
58817,158806,176512,1.782652837,1.9812571127999998,-9.4169533423,1497
58843,158840,176491,1.782652837,1.9812571127999998,-9.4169533423,1498
58855,158845,176482,1.782652837,1.9812571127999998,-9.4169533423,1499
58900,158815,176502,1.782652837,1.9812571127999998,-9.4169533423,1500
58901,158821,176485,1.782652837,1.9812571127999998,-9.4169533423,1501
58793,158811,176520,1.782652837,1.9812571127999998,-9.4169533423,1502
58679,158773,176511,1.782652837,1.9812571127999998,-9.4169533423,1503
58605,158792,176490,1.782652837,1.9812571127999998,-9.4169533423,1504
58567,158779,176506,1.782652837,1.9812571127999998,-9.4169533423,1505
58573,158799,176523,1.782652837,1.9812571127999998,-9.4169533423,1506
58569,158818,176486,1.782652837,1.9812571127999998,-9.4169533423,1507
58603,158826,176526,1.782652837,1.9812571127999998,-9.4169533423,1508
58610,158813,176533,1.782652837,1.9812571127999998,-9.4169533423,1509
58613,158822,176495,1.782652837,1.9812571127999998,-9.4169533423,1510
58600,158835,176515,1.782652837,1.9812571127999998,-9.4169533423,1511
58573,158785,176524,1.782652837,1.9812571127999998,-9.4169533423,1512
58572,158774,176527,1.782652837,1.9812571127999998,-9.4169533423,1513
58571,158790,176499,1.782652837,1.9812571127999998,-9.4169533423,1514
58567,158791,176493,1.782652837,1.9812571127999998,-9.4169533423,1515
58568,158781,176467,1.782652837,1.9812571127999998,-9.4169533423,1516
58584,158740,176459,1.782652837,1.9812571127999998,-9.4169533423,1517
58576,158761,176457,1.782652837,1.9812571127999998,-9.4169533423,1518
58586,158717,176462,1.782652837,1.9812571127999998,-9.4169533423,1519
58584,158750,176418,1.782652837,1.9812571127999998,-9.4169533423,1520
58592,158902,176488,1.7898313048,1.9477575963999998,-9.4731846734,1521
58492,158883,176500,1.7898313048,1.9477575963999998,-9.4731846734,1522
58363,158870,176518,1.7898313048,1.9477575963999998,-9.4731846734,1523
58287,158824,176487,1.7898313048,1.9477575963999998,-9.4731846734,1524
58246,158828,176498,1.7898313048,1.9477575963999998,-9.4731846734,1525
58229,158827,176475,1.7898313048,1.9477575963999998,-9.4731846734,1526
58226,158828,176542,1.7898313048,1.9477575963999998,-9.4731846734,1527
58280,158870,176513,1.7898313048,1.9477575963999998,-9.4731846734,1528
58291,158853,176519,1.7898313048,1.9477575963999998,-9.4731846734,1529
58305,158893,176526,1.7898313048,1.9477575963999998,-9.4731846734,1530
58313,158890,176521,1.7898313048,1.9477575963999998,-9.4731846734,1531
58316,158884,176518,1.7898313048,1.9477575963999998,-9.4731846734,1532
58315,158888,176541,1.7898313048,1.9477575963999998,-9.4731846734,1533
58335,158848,176515,1.7898313048,1.9477575963999998,-9.4731846734,1534
58347,158861,176463,1.7898313048,1.9477575963999998,-9.4731846734,1535
58362,158874,176523,1.7898313048,1.9477575963999998,-9.4731846734,1536
58387,158889,176539,1.7898313048,1.9477575963999998,-9.4731846734,1537
58409,158855,176502,1.7898313048,1.9477575963999998,-9.4731846734,1538
58423,158855,176496,1.7898313048,1.9477575963999998,-9.4731846734,1539
58446,158850,176492,1.7898313048,1.9477575963999998,-9.4731846734,1540
58465,158857,176480,1.7898313048,1.9477575963999998,-9.4731846734,1541
58498,158851,176476,1.7898313048,1.9477575963999998,-9.4731846734,1542
58519,158867,176478,1.7898313048,1.9477575963999998,-9.4731846734,1543
58474,158874,176491,1.7898313048,1.9477575963999998,-9.4731846734,1544
58319,158819,176477,1.7898313048,1.9477575963999998,-9.4731846734,1545
58201,158820,176484,1.7898313048,1.9477575963999998,-9.4731846734,1546
58141,158807,176474,1.7898313048,1.9477575963999998,-9.4731846734,1547
58098,158807,176484,1.7898313048,1.9477575963999998,-9.4731846734,1548
58092,158826,176516,1.7898313048,1.9477575963999998,-9.4731846734,1549
58100,158836,176523,1.7898313048,1.9477575963999998,-9.4731846734,1550
58127,158812,176526,1.7898313048,1.9477575963999998,-9.4731846734,1551
58155,158858,176513,1.7898313048,1.9477575963999998,-9.4731846734,1552
58153,158851,176496,1.7898313048,1.9477575963999998,-9.4731846734,1553
58143,158811,176532,1.7898313048,1.9477575963999998,-9.4731846734,1554
58154,158833,176517,1.7898313048,1.9477575963999998,-9.4731846734,1555
58145,158793,176507,1.7898313048,1.9477575963999998,-9.4731846734,1556
58160,158787,176516,1.7898313048,1.9477575963999998,-9.4731846734,1557
58173,158776,176447,1.7898313048,1.9477575963999998,-9.4731846734,1558
58174,158764,176448,1.7898313048,1.9477575963999998,-9.4731846734,1559
58191,158747,176495,1.7898313048,1.9477575963999998,-9.4731846734,1560
58207,158722,176436,1.7898313048,1.9477575963999998,-9.4731846734,1561
58214,158727,176471,1.7898313048,1.9477575963999998,-9.4731846734,1562
