green,red,IR,acc_x,acc_y,acc_z,sample_index
102357,196008,235932,-3.2841490185,7.5505517143,-5.5657053676,1
102470,196012,235910,-3.3355947043999996,7.5696942951,-5.4281180681,2
102634,196032,236003,-3.2171499857,7.2095744938,-5.5082776252,3
102701,196020,235989,-3.4492537779,7.489534738000001,-5.6099725857,4
102560,195990,235895,-3.2554351473,7.5756763516,-5.4891350444,5
102157,195922,235888,-3.3451659948,7.4835526815,-5.4987063348,6
101784,195835,235827,-3.1800612354,7.6115686905999995,-5.528616617299999,7
101442,195813,235853,-3.3870403903,7.460820866800001,-5.4903314557,8
101241,195738,235845,-3.3032915993,7.3471617933,-5.6039905292,9
101092,195706,235761,-3.3451659948,7.4943203832,-5.5800623032,10
100958,195685,235769,-3.2745777280999997,7.460820866800001,-5.5082776252,11
100895,195673,235764,-3.4253255519,7.4237321165,-5.5046883913,12
100933,195683,235742,-3.397808092,7.369893608,-5.484349399199999,13
100916,195676,235781,-3.2027930501,7.5182486092000005,-5.5226345608,14
100915,195683,235738,-3.3272198253,7.3866433661999995,-5.4185467777000005,15
100858,195657,235756,-3.2733813167999997,7.4931239719,-5.6027941179,16
100940,195666,235725,-3.3355947043999996,7.5601230047,-5.4939206895999995,17
101042,195686,235733,-3.4348968423,7.5086773188,-5.4891350444,18
101061,195710,235772,-3.3690942208,7.5792655855,-5.6183474648,19
101156,195732,235716,-3.2458638569,7.5074809075,-5.6267223439,20
101281,195694,235756,-3.421736318,7.4751778024,-5.4891350444,21
101353,195736,235751,-3.326023414,7.5409804239,-5.5896335936,22
101517,195779,235778,-3.3643085755999995,7.5170521979,-5.6027941179,23
101667,195760,235815,-3.4348968423,7.4225357052000005,-5.455635527999999,24
101789,195795,235788,-3.2506495021,7.4512495764,-5.5848479484,25
101879,195788,235803,-3.3738798660000002,7.4368926408,-5.5657053676,26
102156,195819,235854,-3.3451659948,7.5098737301,-5.528616617299999,27
102245,195843,235887,-3.4552358344000003,7.4835526815,-5.5274202059999995,28
102389,195882,235850,-3.3511480513,7.4273213504,-5.404189842099999,29
102543,195908,235860,-3.5114671655,7.3890361888,-5.5226345608,30
102622,195883,235881,-3.4085757937,7.473981391100001,-5.5896335936,31
102560,195838,235858,-3.2925238975999997,7.403393124400001,-5.4759745201,32
102135,195768,235853,-3.4073793824000003,7.4991060284,-5.551348432,33
101767,195716,235797,-3.3355947043999996,7.3519474385,-5.541777141600001,34
101489,195668,235767,-3.1740791789,7.4512495764,-5.538187907699999,35
101227,195645,235758,-3.4444681327,7.5122665527,-5.4185467777000005,36
100974,195600,235739,-3.1920253483999996,7.526623488299999,-5.5334022625,37
100969,195587,235729,-3.3595229304,7.4117680035,-5.4364929472,38
100933,195544,235752,-3.3930224468000003,7.3663043741,-5.6123654083000005,39
100924,195595,235710,-3.3044880106,7.5278198996,-5.5788658919,40
101001,195554,235686,-3.3643085755999995,7.3758756645,-5.551348432,41
100949,195579,235668,-3.2829526072,7.4943203832,-5.4508498828,42
100985,195556,235750,-3.4169506728,7.4356962295,-5.4376893585,43
100993,195602,235717,-3.3200413575,7.3375905029,-5.6039905292,44
101036,195597,235697,-3.3116664784,7.5134629639999995,-5.4855458105,45
101155,195614,235718,-3.5306097463,7.4751778024,-5.551348432,46
101227,195618,235740,-3.326023414,7.4021967130999995,-5.5465627868,47
101355,195622,235726,-3.3355947043999996,7.6175507471,-5.5453663755000004,48
101492,195642,235748,-3.2327033326,7.6175507471,-5.6458649247,49
101628,195684,235722,-3.3116664784,7.4368926408,-5.5369914964,50
101758,195719,235801,-3.3655049869,7.4691957459,-5.5322058512000005,51
101946,195696,235839,-3.3834511564,7.501498850999999,-5.5082776252,52
102039,195741,235792,-3.445664544,7.3663043741,-5.5465627868,53
102186,195765,235771,-3.278166962,7.4644101007,-5.5082776252,54
102336,195762,235856,-3.3774690999,7.5218378431,-5.5800623032,55
102508,195830,235846,-3.3068808331999997,7.4787670363,-5.575276658,56
102641,195832,235881,-3.3248270027,7.4931239719,-5.4747781088,57
102787,195832,235914,-3.3116664784,7.585247642000001,-5.5226345608,58
102953,195858,235877,-3.445664544,7.447660342499999,-5.4652068183999996,59
103093,195907,235906,-3.2446674455999998,7.488338326699999,-5.4951171009,60
103277,195938,235896,-3.2267212761,7.6019974002,-5.4652068183999996,61
103389,195926,235937,-3.3068808331999997,7.4225357052000005,-5.5848479484,62
103234,195906,235923,-3.3164521235999995,7.4452675199,-5.4137611324999995,63
103029,195814,235881,-3.3822547451,7.4333034069,-5.4903314557,64
102598,195749,235858,-3.2279176874,7.542176835199999,-5.50349198,65
102344,195682,235807,-3.2985059541,7.4799634476,-5.5322058512000005,66
102131,195674,235748,-3.3846475676999996,7.365107962800001,-5.5082776252,67
101908,195637,235758,-3.2446674455999998,7.4943203832,-5.5465627868,68
101840,195640,235761,-3.3367911156999996,7.4081787696,-5.5322058512000005,69
101729,195611,235753,-3.2829526072,7.4799634476,-5.4891350444,70
101721,195619,235754,-3.3643085755999995,7.3507510272,-5.5609197224,71
101718,195659,235738,-3.3236305914,7.6701928443,-5.6422756908,72
101683,195641,235745,-3.2973095428,7.4273213504,-5.4329037133,73
101697,195590,235744,-3.4253255519,7.5948189324,-5.3850472612999996,74
101699,195602,235754,-3.2937203089,7.446463931199999,-5.6135618196,75
101757,195606,235744,-3.3643085755999995,7.3746792532,-5.5800623032,76
101784,195633,235788,-3.2973095428,7.4512495764,-5.4987063348,77
101877,195670,235791,-3.2171499857,7.403393124400001,-5.5896335936,78
101962,195660,235802,-3.326023414,7.6031938115,-5.404189842099999,79
102080,195710,235835,-3.2458638569,7.561319416,-5.5322058512000005,80
102229,195710,235812,-3.1453653077,7.3854469549,-5.570491012800001,81
102246,195734,235779,-3.2590243811999997,7.4703921572,-5.4903314557,82
102449,195744,235821,-3.2638100264,7.5409804239,-5.666203916800001,83
102530,195790,235899,-3.4875389395,7.4835526815,-5.4652068183999996,84
102658,195812,235871,-3.5246276898,7.432106995600001,-5.6183474648,85
102777,195837,235922,-3.4348968423,7.4129644148,-5.5609197224,86
102825,195846,235870,-3.2877382523999996,7.5661050612,-5.4472606489,87
103058,195882,235941,-3.3032915993,7.3854469549,-5.6123654083000005,88
103151,195908,235959,-3.3595229304,7.4703921572,-5.4652068183999996,89
103298,195916,235934,-3.3308090592,7.4691957459,-5.5645089563,90
103440,195970,235969,-3.3343982931,7.5649086499,-5.4089754873,91
103540,195948,235960,-3.1597222433,7.6235328036,-5.4568319393,92
103438,195921,235979,-3.4253255519,7.3710900192999995,-5.5800623032,93
103113,195842,235967,-3.2315069213,7.5314091335,-5.4652068183999996,94
102768,195826,235916,-3.3032915993,7.5218378431,-5.455635527999999,95
102465,195794,235910,-3.2925238975999997,7.4177500599999995,-5.4951171009,96
102298,195757,235883,-3.3391839383,7.3830541323,-5.5238309721,97
102088,195721,235896,-3.4875389395,7.5696942951,-5.5657053676,98
102041,195736,235875,-3.3882368016,7.6271220375,-5.5645089563,99
101960,195731,235868,-3.3451659948,7.542176835199999,-5.446064237599999,100
101939,195740,235906,-3.3068808331999997,7.5170521979,-5.570491012800001,101
101877,195747,235904,-3.4408788988000003,7.447660342499999,-5.6027941179,102
101941,195740,235906,-3.4025937372,7.5218378431,-5.5274202059999995,103
101930,195757,235894,-3.5066815203,7.5649086499,-5.570491012800001,104
101941,195748,235911,-3.3535408739,7.4799634476,-5.5740802467,105
101969,195804,235893,-3.4504501892,7.4835526815,-5.513063270399999,106
102025,195789,235927,-3.4504501892,7.403393124400001,-5.407779076,107
102172,195831,235920,-3.3966116807,7.4273213504,-5.4364929472,108
102227,195830,235941,-3.278166962,7.5038916736,-5.50349198,109
102322,195848,235942,-3.2889346637,7.323233567299999,-5.4759745201,110
102404,195868,235941,-3.278166962,7.4979096170999995,-5.4376893585,111
102532,195897,235994,-3.3164521235999995,7.390232600099999,-5.388636495199999,112
102655,195917,236016,-3.4552358344000003,7.4069823583000005,-5.4137611324999995,113
102803,195915,236019,-3.2207392196,7.3531438498,-5.4472606489,114
102921,195976,235996,-3.3116664784,7.505088084900001,-5.4376893585,115
103011,195972,236020,-3.2542387359999996,7.4668029232999995,-5.479563754,116
103145,195987,235998,-3.3870403903,7.4943203832,-5.484349399199999,117
102933,195936,236039,-3.3499516399999996,7.3220371559999995,-5.4604211732,118
102586,195859,235992,-3.46959277,7.5792655855,-5.6075797630999995,119
102234,195781,235927,-3.4588250683,7.432106995600001,-5.4987063348,120
101969,195771,235875,-3.2506495021,7.418946471299999,-5.375475970899999,121
101763,195705,235877,-3.4444681327,7.441678286,-5.5082776252,122
101657,195679,235852,-3.3128628897,7.4835526815,-5.3563333901,123
101571,195667,235812,-3.2458638569,7.3555366724,-5.5597233111,124
101550,195667,235803,-3.2602207924999997,7.5469624804,-5.484349399199999,125
101601,195664,235816,-3.3499516399999996,7.4991060284,-5.570491012800001,126
101565,195662,235825,-3.4002009146,7.6031938115,-5.4652068183999996,127
101542,195651,235806,-3.4636107135,7.5792655855,-5.455635527999999,128
101547,195624,235768,-3.3583265191000002,7.5278198996,-5.5082776252,129
101546,195644,235752,-3.2111679291999997,7.403393124400001,-5.5561340772,130
101603,195659,235745,-3.266202849,7.393821834000001,-5.5274202059999995,131
101683,195595,235799,-3.3355947043999996,7.4512495764,-5.5465627868,132
101815,195665,235806,-3.397808092,7.4368926408,-5.4568319393,133
101812,195660,235798,-3.2267212761,7.4512495764,-5.484349399199999,134
101971,195704,235790,-3.2745777280999997,7.3890361888,-5.4951171009,135
102107,195701,235828,-3.397808092,7.3830541323,-5.5657053676,136
102203,195731,235838,-3.3690942208,7.3842505436,-5.5896335936,137
102332,195742,235824,-3.421736318,7.3411797368,-5.5046883913,138
102438,195758,235802,-3.4313076084,7.5170521979,-5.50349198,139
102606,195792,235857,-3.5162528107,7.4751778024,-5.50349198,140
102683,195767,235888,-3.1609186546,7.4273213504,-5.570491012800001,141
102486,195722,235837,-3.4181470840999997,7.526623488299999,-5.513063270399999,142
102134,195647,235777,-3.3176485349,7.3806613097,-5.4987063348,143
101660,195588,235806,-3.3367911156999996,7.6319076827,-5.554937665900001,144
101442,195520,235715,-3.3547372851999997,7.5457660691,-5.5334022625,145
101194,195468,235672,-3.3834511564,7.5122665527,-5.4759745201,146
101010,195450,235707,-3.4121650276000004,7.6319076827,-5.5429735529,147
100900,195445,235707,-3.4313076084,7.4799634476,-5.5274202059999995,148
100848,195425,235655,-3.4360932536,7.3423761481,-5.5262237947,149
100834,195444,235619,-3.2877382523999996,7.5134629639999995,-5.575276658,150
100850,195420,235644,-3.3834511564,7.4021967130999995,-5.6087761744,151
100818,195449,235655,-3.4683963587,7.3136622769,-5.4185467777000005,152
100818,195402,235651,-3.2410782117,7.4548388103,-5.4329037133,153
100842,195449,235635,-3.3882368016,7.5218378431,-5.4149575438,154
100896,195456,235693,-3.3607193417,7.5134629639999995,-5.5082776252,155
100959,195461,235668,-3.3774690999,7.6031938115,-5.4855458105,156
101042,195489,235680,-3.2985059541,7.5409804239,-5.541777141600001,157
101152,195485,235678,-3.2937203089,7.489534738000001,-5.6267223439,158
101274,195527,235678,-3.3499516399999996,7.5086773188,-5.5465627868,159
101451,195497,235695,-3.3834511564,7.573283529,-5.5274202059999995,160
101511,195568,235733,-3.3499516399999996,7.361518728899999,-5.5597233111,161
101658,195610,235746,-3.3224341800999997,7.3399833255,-5.4376893585,162
101768,195613,235768,-3.3355947043999996,7.432106995600001,-5.479563754,163
101827,195616,235747,-3.3690942208,7.4931239719,-5.5310094399,164
102060,195632,235795,-3.2039894614,7.4368926408,-5.484349399199999,165
102047,195635,235767,-3.4444681327,7.4991060284,-5.5812587145,166
102027,195591,235797,-3.4025937372,7.393821834000001,-5.5334022625,167
101648,195493,235740,-3.3822547451,7.457231632899999,-5.4699924636,168
101279,195435,235666,-3.4205399067,7.488338326699999,-5.6267223439,169
101039,195374,235666,-3.2877382523999996,7.4273213504,-5.5334022625,170
100744,195383,235646,-3.2410782117,7.4141608261,-5.5788658919,171
100611,195334,235621,-3.2398818003999996,7.3854469549,-5.6279187552000005,172
100518,195324,235613,-3.2793633733,7.4991060284,-5.4664032297,173
100446,195278,235586,-3.2841490185,7.5876404646,-5.4185467777000005,174
100463,195326,235612,-3.2362925665,7.5026952623000005,-5.5178489156,175
100478,195347,235613,-3.3128628897,7.465606512,-5.6183474648,176
100477,195330,235637,-3.4121650276000004,7.2993053413,-5.479563754,177
100481,195320,235584,-3.2985059541,7.5218378431,-5.6123654083000005,178
100525,195324,235625,-3.2973095428,7.5218378431,-5.5609197224,179
100580,195334,235631,-3.2745777280999997,7.441678286,-5.4855458105,180
100613,195359,235599,-3.2673992603000004,7.4835526815,-5.5082776252,181
100792,195378,235673,-3.3116664784,7.5361947787,-5.5477591981,182
100911,195429,235670,-3.457628657,7.403393124400001,-5.455635527999999,183
101031,195463,235694,-3.2889346637,7.4847490928,-5.4376893585,184
101175,195420,235702,-3.3116664784,7.4751778024,-5.528616617299999,185
101349,195478,235672,-3.4313076084,7.4799634476,-5.5848479484,186
101463,195508,235753,-3.421736318,7.365107962800001,-5.5561340772,187
101620,195535,235739,-3.3355947043999996,7.4943203832,-5.4568319393,188
101740,195554,235762,-3.3020951879999996,7.365107962800001,-5.6171510535,189
101905,195586,235783,-3.3738798660000002,7.526623488299999,-5.5226345608,190
102058,195591,235769,-3.4265219632000004,7.5218378431,-5.575276658,191
102044,195588,235795,-3.3020951879999996,7.511070141399999,-5.5465627868,192
101720,195469,235761,-3.2410782117,7.5170521979,-5.5561340772,193
101406,195439,235765,-3.3738798660000002,7.4273213504,-5.4831529879,194
101137,195415,235689,-3.3726834547,7.4943203832,-5.6279187552000005,195
100907,195357,235697,-3.3032915993,7.403393124400001,-5.5274202059999995,196
100749,195367,235711,-3.2554351473,7.4177500599999995,-5.513063270399999,197
100657,195383,235663,-3.3643085755999995,7.336394091599999,-5.5046883913,198
100526,195363,235694,-3.3020951879999996,7.4524459877,-5.375475970899999,199
100653,195346,235698,-3.3068808331999997,7.5756763516,-5.528616617299999,200
100682,195362,235744,-3.3212377687999997,7.549355303,-5.5046883913,201
100679,195343,235713,-3.2937203089,7.4512495764,-5.5238309721,202
100671,195394,235731,-3.2650064377,7.4225357052000005,-5.5369914964,203
100701,195376,235753,-3.2255248647999997,7.511070141399999,-5.4472606489,204
100779,195417,235735,-3.2410782117,7.573283529,-5.5788658919,205
100845,195432,235761,-3.4265219632000004,7.4225357052000005,-5.541777141600001,206
100905,195433,235790,-3.2446674455999998,7.460820866800001,-5.5082776252,207
101105,195463,235768,-3.2973095428,7.4763742137,-5.4412785924,208
101252,195500,235771,-3.3822547451,7.561319416,-5.4089754873,209
101276,195530,235817,-3.2841490185,7.4273213504,-5.484349399199999,210
101492,195528,235867,-3.2985059541,7.4129644148,-5.455635527999999,211
101664,195562,235858,-3.2554351473,7.4081787696,-5.50349198,212
101784,195617,235887,-3.4636107135,7.460820866800001,-5.5322058512000005,213
101924,195607,235866,-3.493520996,7.5469624804,-5.4699924636,214
102098,195662,235902,-3.4540394231000002,7.549355303,-5.4891350444,215
102216,195691,235964,-3.3164521235999995,7.3806613097,-5.569294601499999,216
102152,195647,235935,-3.2410782117,7.4835526815,-5.4233324229,217
101895,195615,235895,-3.4959138186,7.4847490928,-5.4376893585,218
101531,195546,235902,-3.397808092,7.570890706399999,-5.4891350444,219
101307,195515,235864,-3.3834511564,7.5026952623000005,-5.4376893585,220
101148,195492,235847,-3.3499516399999996,7.5409804239,-5.4616175845,221
101015,195481,235849,-3.3499516399999996,7.4356962295,-5.583651537100001,222
100990,195462,235773,-3.3535408739,7.393821834000001,-5.551348432,223
100951,195472,235792,-3.3774690999,7.4560352216,-5.484349399199999,224
100991,195475,235824,-3.3798619225,7.432106995600001,-5.455635527999999,225
101041,195478,235785,-3.4109686163,7.332804857699999,-5.5465627868,226
101017,195472,235784,-3.4025937372,7.5744799403,-5.540580730299999,227
101023,195432,235734,-3.4540394231000002,7.4931239719,-5.5238309721,228
101069,195478,235749,-3.3092736558,7.446463931199999,-5.5322058512000005,229
101138,195468,235758,-3.4360932536,7.4847490928,-5.4903314557,230
101230,195466,235739,-3.4959138186,7.5026952623000005,-5.5453663755000004,231
101351,195479,235762,-3.3786655112000004,7.5074809075,-5.4508498828,232
101454,195480,235764,-3.3643085755999995,7.4333034069,-5.5274202059999995,233
101627,195524,235790,-3.3738798660000002,7.5170521979,-5.4221360116,234
101727,195532,235790,-3.4683963587,7.5888368759,-5.4604211732,235
101874,195551,235796,-3.2458638569,7.4225357052000005,-5.5800623032,236
102020,195576,235836,-3.2362925665,7.4177500599999995,-5.4903314557,237
102232,195596,235842,-3.2793633733,7.4129644148,-5.5453663755000004,238
102311,195612,235830,-3.2697920829,7.4799634476,-5.5453663755000004,239
102462,195610,235805,-3.3451659948,7.3794648984,-5.4987063348,240
102382,195593,235788,-3.2985059541,7.5194450205,-5.551348432,241
102153,195467,235791,-3.5389846254,7.4333034069,-5.499902746099999,242
101858,195461,235758,-3.3272198253,7.5086773188,-5.541777141600001,243
101632,195411,235721,-3.2937203089,7.5409804239,-5.5609197224,244
101402,195389,235729,-3.3439695835000003,7.4368926408,-5.50349198,245
101333,195347,235713,-3.3882368016,7.3280192125,-5.538187907699999,246
101256,195304,235648,-3.3643085755999995,7.5074809075,-5.3850472612999996,247
101231,195311,235659,-3.3128628897,7.526623488299999,-5.484349399199999,248
101206,195308,235671,-3.3403803495999997,7.5457660691,-5.5178489156,249
101311,195307,235690,-3.397808092,7.473981391100001,-5.5226345608,250
101359,195303,235667,-3.2446674455999998,7.5314091335,-5.50349198,251
101384,195320,235647,-3.2925238975999997,7.526623488299999,-5.4891350444,252
101461,195357,235693,-3.3678978095,7.3555366724,-5.4903314557,253
101537,195313,235718,-3.2877382523999996,7.4380890521,-5.4616175845,254
101658,195382,235711,-3.2374889778,7.3794648984,-5.5226345608,255
101751,195405,235706,-3.2446674455999998,7.5230342544,-5.4508498828,256
101835,195401,235719,-3.3822547451,7.4213392939,-5.538187907699999,257
102024,195418,235684,-3.2075786953,7.526623488299999,-5.4987063348,258
102182,195448,235790,-3.2638100264,7.5361947787,-5.513063270399999,259
102346,195478,235755,-3.4636107135,7.667800021700001,-5.5190453269,260
102535,195511,235751,-3.4360932536,7.4751778024,-5.5226345608,261
102562,195550,235851,-3.3559336964999997,7.5984081663000005,-5.4185467777000005,262
102809,195537,235785,-3.3320054705,7.5074809075,-5.446064237599999,263
102965,195610,235847,-3.2458638569,7.5984081663000005,-5.5082776252,264
103122,195598,235812,-3.3499516399999996,7.3471617933,-5.4233324229,265
103272,195639,235869,-3.4923245847,7.4847490928,-5.50349198,266
103460,195701,235854,-3.2590243811999997,7.446463931199999,-5.5525448433,267
103604,195694,235892,-3.3559336964999997,7.5361947787,-5.540580730299999,268
103779,195721,235861,-3.3116664784,7.403393124400001,-5.4699924636,269
103925,195778,235935,-3.1597222433,7.3842505436,-5.5178489156,270
103955,195764,235911,-3.3834511564,7.5122665527,-5.5609197224,271
104057,195715,235906,-3.5210384559,7.3758756645,-5.605186940499999,272
103849,195698,235872,-3.2267212761,7.556533770800001,-5.3994041969,273
103581,195610,235873,-3.4073793824000003,7.6606215538999995,-5.5465627868,274
103343,195579,235904,-3.2518459134,7.4560352216,-5.6039905292,275
103161,195569,235836,-3.2554351473,7.3423761481,-5.5334022625,276
103101,195592,235790,-3.4265219632000004,7.4835526815,-5.5322058512000005,277
102903,195598,235813,-3.1836504693,7.5074809075,-5.404189842099999,278
102935,195579,235802,-3.4121650276000004,7.542176835199999,-5.4568319393,279
102933,195541,235781,-3.3690942208,7.5074809075,-5.5657053676,280
102943,195544,235792,-3.3643085755999995,7.6115686905999995,-5.4616175845,281
103000,195587,235800,-3.3020951879999996,7.4404818747,-5.4472606489,282
102910,195577,235809,-3.3236305914,7.3746792532,-5.5082776252,283
102974,195571,235784,-3.2925238975999997,7.4177500599999995,-5.5561340772,284
103038,195583,235868,-3.3068808331999997,7.5505517143,-5.551348432,285
103122,195653,235863,-3.3595229304,7.3519474385,-5.5322058512000005,286
103192,195623,235825,-3.3918260355000003,7.393821834000001,-5.4747781088,287
103266,195668,235815,-3.4025937372,7.4081787696,-5.528616617299999,288
103386,195692,235878,-3.3595229304,7.403393124400001,-5.499902746099999,289
103563,195713,235842,-3.3272198253,7.542176835199999,-5.4508498828,290
103627,195744,235884,-3.3786655112000004,7.5409804239,-5.5369914964,291
103761,195800,235919,-3.3355947043999996,7.460820866800001,-5.4664032297,292
103895,195780,235882,-3.2602207924999997,7.5230342544,-5.5226345608,293
104080,195827,235913,-3.3451659948,7.555337359499999,-5.5322058512000005,294
104142,195849,235916,-3.3224341800999997,7.6031938115,-5.5561340772,295
104328,195861,235977,-3.3786655112000004,7.4979096170999995,-5.4939206895999995,296
104444,195909,235963,-3.4061829711000002,7.4644101007,-5.5465627868,297
104584,195913,235973,-3.0687949845,7.4847490928,-5.6267223439,298
104720,195945,235984,-3.2925238975999997,7.4703921572,-5.50349198,299
104861,195949,236047,-3.3930224468000003,7.4703921572,-5.4652068183999996,300
104999,196012,236005,-3.3547372851999997,7.6558359087,-5.5369914964,301
105124,196018,236042,-3.4600214796,7.5457660691,-5.5082776252,302
105126,195986,236048,-3.4169506728,7.459624455499999,-5.6327044004,303
104888,195956,236040,-3.3774690999,7.5230342544,-5.528616617299999,304
104602,195917,236007,-3.3834511564,7.4368926408,-5.5274202059999995,305
104343,195883,236056,-3.4289147858,7.237091953699999,-5.4939206895999995,306
104144,195869,235994,-3.2673992603000004,7.4548388103,-5.6554362151,307
104045,195882,236010,-3.4061829711000002,7.5601230047,-5.484349399199999,308
103889,195894,236014,-3.5162528107,7.5122665527,-5.4233324229,309
103837,195872,235977,-3.3451659948,7.4931239719,-5.455635527999999,310
103818,195889,235999,-3.2853454298,7.4751778024,-5.5082776252,311
103864,195904,235985,-3.4265219632000004,7.3316084464,-5.4759745201,312
103787,195913,235941,-3.2267212761,7.5601230047,-5.4747781088,313
103765,195948,236045,-3.3726834547,7.361518728899999,-5.2666025426,314
103746,195904,236034,-3.3655049869,7.5218378431,-5.4747781088,315
103783,195953,236014,-3.4205399067,7.53739119,-5.50349198,316
103791,195967,236074,-3.3487552287,7.5457660691,-5.528616617299999,317
103841,196007,236043,-3.1992038162000003,7.4368926408,-5.6183474648,318
103845,195952,236034,-3.2937203089,7.5314091335,-5.5597233111,319
104019,195999,236021,-3.3942188581,7.4428746973,-5.5609197224,320
104061,196024,236037,-3.2937203089,7.4368926408,-5.513063270399999,321
104171,196020,236015,-3.3020951879999996,7.5326055448,-5.5465627868,322
104224,196086,236064,-3.3020951879999996,7.6031938115,-5.4664032297,323
104305,196071,236020,-3.278166962,7.4751778024,-5.5657053676,324
104412,196095,236060,-3.493520996,7.3184479221,-5.6039905292,325
104507,196119,236053,-3.3499516399999996,7.465606512,-5.4329037133,326
104591,196133,236054,-3.3320054705,7.5649086499,-5.6219366987,327
104704,196158,236058,-3.4205399067,7.418946471299999,-5.551348432,328
104818,196165,236098,-3.194418171,7.4560352216,-5.551348432,329
104914,196149,236066,-3.182454058,7.5218378431,-5.362315446599999,330
105039,196200,236084,-3.2638100264,7.539784012599999,-5.540580730299999,331
105102,196214,236092,-3.4253255519,7.5649086499,-5.6135618196,332
105042,196226,236081,-3.3930224468000003,7.4943203832,-5.5465627868,333
104722,196090,236010,-3.4360932536,7.3663043741,-5.3503513336,334
104392,196037,236001,-3.4348968423,7.4333034069,-5.4520462941,335
104065,196034,235987,-3.3272198253,7.369893608,-5.5322058512000005,336
103801,196002,235936,-3.2877382523999996,7.4237321165,-5.6327044004,337
103599,195978,235910,-3.421736318,7.4368926408,-5.4329037133,338
103466,195944,235884,-3.3367911156999996,7.4177500599999995,-5.4652068183999996,339
103352,196007,235902,-3.2279176874,7.4177500599999995,-5.5274202059999995,340
103322,195930,235909,-3.3068808331999997,7.5936225210999995,-5.541777141600001,341
103244,195932,235879,-3.2255248647999997,7.5792655855,-5.455635527999999,342
103166,195953,235921,-3.2255248647999997,7.5792655855,-5.455635527999999,343
103095,195898,235929,-3.2255248647999997,7.5792655855,-5.455635527999999,344
103015,195925,235883,-3.2255248647999997,7.5792655855,-5.455635527999999,345
103008,195948,235886,-3.2255248647999997,7.5792655855,-5.455635527999999,346
103023,195971,235878,-3.2255248647999997,7.5792655855,-5.455635527999999,347
103052,195973,235893,-3.2255248647999997,7.5792655855,-5.455635527999999,348
103087,195977,235880,-3.2255248647999997,7.5792655855,-5.455635527999999,349
103132,195998,235920,-3.2255248647999997,7.5792655855,-5.455635527999999,350
103199,195988,235907,-3.2255248647999997,7.5792655855,-5.455635527999999,351
103269,195964,235938,-3.2255248647999997,7.5792655855,-5.455635527999999,352
103339,196011,235926,-3.2255248647999997,7.5792655855,-5.455635527999999,353
103425,196012,235921,-3.2255248647999997,7.5792655855,-5.455635527999999,354
103510,196072,235955,-3.2255248647999997,7.5792655855,-5.455635527999999,355
103587,196050,235946,-3.2255248647999997,7.5792655855,-5.455635527999999,356
103718,196068,235906,-3.2255248647999997,7.5792655855,-5.455635527999999,357
103796,196080,235981,-3.2255248647999997,7.5792655855,-5.455635527999999,358
103908,196135,235966,-3.2255248647999997,7.5792655855,-5.455635527999999,359
103963,196099,235944,-3.2255248647999997,7.5792655855,-5.455635527999999,360
103832,196060,235969,-3.2255248647999997,7.5792655855,-5.455635527999999,361
103415,195989,235875,-3.2255248647999997,7.5792655855,-5.455635527999999,362
102964,195907,235880,-3.2255248647999997,7.5792655855,-5.455635527999999,363
102593,195930,235838,-3.2255248647999997,7.5792655855,-5.455635527999999,364
102318,195884,235876,-3.2255248647999997,7.5792655855,-5.455635527999999,365
102116,195874,235825,-3.2255248647999997,7.5792655855,-5.455635527999999,366
101953,195838,235846,-3.2255248647999997,7.5792655855,-5.455635527999999,367
101856,195834,235851,-3.2255248647999997,7.5792655855,-5.455635527999999,368
101831,195848,235800,-3.2255248647999997,7.5792655855,-5.455635527999999,369
101775,195838,235757,-3.2255248647999997,7.5792655855,-5.455635527999999,370
101729,195821,235776,-3.2255248647999997,7.5792655855,-5.455635527999999,371
101686,195784,235779,-3.2255248647999997,7.5792655855,-5.455635527999999,372
101659,195800,235741,-3.2255248647999997,7.5792655855,-5.455635527999999,373
101681,195820,235793,-3.2255248647999997,7.5792655855,-5.455635527999999,374
101708,195826,235776,-3.2255248647999997,7.5792655855,-5.455635527999999,375
101782,195827,235811,-3.2255248647999997,7.5792655855,-5.455635527999999,376
101846,195841,235808,-3.421736318,7.5182486092000005,-5.4855458105,377
101951,195860,235809,-3.421736318,7.5182486092000005,-5.4855458105,378
102048,195854,235881,-3.421736318,7.5182486092000005,-5.4855458105,379
102173,195914,235833,-3.421736318,7.5182486092000005,-5.4855458105,380
102292,195932,235845,-3.421736318,7.5182486092000005,-5.4855458105,381
102407,195947,235900,-3.421736318,7.5182486092000005,-5.4855458105,382
102509,195942,235891,-3.4396824875,7.4500531651,-5.5657053676,383
102622,195970,235899,-3.3511480513,7.465606512,-5.5274202059999995,384
102550,195953,235935,-3.2913274863,7.5074809075,-5.3994041969,385
102216,195873,235882,-3.4025937372,7.460820866800001,-5.4664032297,386
101805,195825,235871,-3.4025937372,7.460820866800001,-5.4664032297,387
101498,195813,235854,-3.4025937372,7.460820866800001,-5.4664032297,388
101261,195772,235847,-3.4025937372,7.460820866800001,-5.4664032297,389
101112,195770,235877,-3.4025937372,7.460820866800001,-5.4664032297,390
101044,195770,235808,-3.4025937372,7.460820866800001,-5.4664032297,391
101032,195744,235830,-3.4025937372,7.460820866800001,-5.4664032297,392
101047,195762,235833,-3.4025937372,7.460820866800001,-5.4664032297,393
101049,195749,235793,-3.4025937372,7.460820866800001,-5.4664032297,394
101047,195767,235830,-3.4025937372,7.460820866800001,-5.4664032297,395
101033,195745,235830,-3.4025937372,7.460820866800001,-5.4664032297,396
101071,195784,235866,-3.4025937372,7.460820866800001,-5.4664032297,397
101121,195747,235890,-3.4025937372,7.460820866800001,-5.4664032297,398
101202,195776,235847,-3.4025937372,7.460820866800001,-5.4664032297,399
101295,195807,235893,-3.4025937372,7.460820866800001,-5.4664032297,400
101400,195823,235862,-3.4025937372,7.460820866800001,-5.4664032297,401
101524,195860,235951,-3.4025937372,7.460820866800001,-5.4664032297,402
101655,195875,235933,-3.4025937372,7.460820866800001,-5.4664032297,403
101771,195874,235931,-3.4025937372,7.460820866800001,-5.4664032297,404
101903,195894,235961,-3.4025937372,7.460820866800001,-5.4664032297,405
102032,195908,236002,-3.4025937372,7.460820866800001,-5.4664032297,406
102173,195947,236006,-3.4025937372,7.460820866800001,-5.4664032297,407
102296,195968,236035,-3.4025937372,7.460820866800001,-5.4664032297,408
102273,195945,236035,-3.4025937372,7.460820866800001,-5.4664032297,409
101978,195873,235985,-3.4025937372,7.460820866800001,-5.4664032297,410
101601,195868,235978,-3.4025937372,7.460820866800001,-5.4664032297,411
101297,195792,235946,-3.4025937372,7.460820866800001,-5.4664032297,412
101135,195759,235920,-3.4025937372,7.460820866800001,-5.4664032297,413
101009,195760,235923,-3.4025937372,7.460820866800001,-5.4664032297,414
100926,195731,235916,-3.4025937372,7.460820866800001,-5.4664032297,415
100937,195738,235890,-3.4025937372,7.460820866800001,-5.4664032297,416
100936,195734,235841,-3.4025937372,7.460820866800001,-5.4664032297,417
100955,195697,235888,-3.4025937372,7.460820866800001,-5.4664032297,418
100934,195728,235823,-3.4025937372,7.460820866800001,-5.4664032297,419
100928,195666,235827,-3.4025937372,7.460820866800001,-5.4664032297,420
100941,195664,235842,-3.4025937372,7.460820866800001,-5.4664032297,421
101001,195658,235783,-3.4025937372,7.460820866800001,-5.4664032297,422
101068,195673,235816,-3.4025937372,7.460820866800001,-5.4664032297,423
101152,195675,235786,-3.4025937372,7.460820866800001,-5.4664032297,424
101277,195680,235819,-3.4025937372,7.460820866800001,-5.4664032297,425
101363,195670,235793,-3.4025937372,7.460820866800001,-5.4664032297,426
101475,195702,235768,-3.4025937372,7.460820866800001,-5.4664032297,427
101597,195747,235770,-3.3786655112000004,7.403393124400001,-5.5322058512000005,428
101723,195713,235802,-3.3786655112000004,7.403393124400001,-5.5322058512000005,429
101853,195747,235794,-3.3786655112000004,7.403393124400001,-5.5322058512000005,430
101989,195761,235782,-3.3786655112000004,7.403393124400001,-5.5322058512000005,431
102085,195744,235795,-3.3786655112000004,7.403393124400001,-5.5322058512000005,432
101932,195671,235814,-3.3786655112000004,7.403393124400001,-5.5322058512000005,433
101575,195620,235717,-3.3786655112000004,7.403393124400001,-5.5322058512000005,434
101270,195536,235730,-3.3786655112000004,7.403393124400001,-5.5322058512000005,435
101070,195536,235694,-3.3786655112000004,7.403393124400001,-5.5322058512000005,436
100916,195503,235646,-3.3786655112000004,7.403393124400001,-5.5322058512000005,437
100793,195475,235670,-3.3786655112000004,7.403393124400001,-5.5322058512000005,438
100739,195482,235671,-3.3786655112000004,7.403393124400001,-5.5322058512000005,439
100731,195450,235661,-3.3786655112000004,7.403393124400001,-5.5322058512000005,440
100761,195493,235723,-3.3786655112000004,7.403393124400001,-5.5322058512000005,441
100810,195438,235666,-3.3786655112000004,7.403393124400001,-5.5322058512000005,442
100862,195485,235650,-3.3786655112000004,7.403393124400001,-5.5322058512000005,443
100893,195461,235676,-3.3786655112000004,7.403393124400001,-5.5322058512000005,444
100990,195472,235684,-3.3786655112000004,7.403393124400001,-5.5322058512000005,445
101074,195496,235663,-3.3786655112000004,7.403393124400001,-5.5322058512000005,446
101203,195498,235681,-3.3786655112000004,7.403393124400001,-5.5322058512000005,447
101346,195535,235714,-3.3786655112000004,7.403393124400001,-5.5322058512000005,448
101480,195555,235721,-3.3786655112000004,7.403393124400001,-5.5322058512000005,449
101628,195576,235717,-3.3786655112000004,7.403393124400001,-5.5322058512000005,450
101779,195588,235721,-3.3786655112000004,7.403393124400001,-5.5322058512000005,451
101946,195612,235732,-3.3786655112000004,7.403393124400001,-5.5322058512000005,452
102108,195644,235769,-3.3786655112000004,7.403393124400001,-5.5322058512000005,453
102291,195675,235787,-3.3786655112000004,7.403393124400001,-5.5322058512000005,454
102446,195695,235807,-3.3786655112000004,7.403393124400001,-5.5322058512000005,455
102648,195698,235817,-3.3786655112000004,7.403393124400001,-5.5322058512000005,456
102798,195737,235825,-3.3786655112000004,7.403393124400001,-5.5322058512000005,457
102983,195757,235811,-3.3786655112000004,7.403393124400001,-5.5322058512000005,458
103175,195795,235801,-3.3786655112000004,7.403393124400001,-5.5322058512000005,459
103353,195795,235848,-3.3786655112000004,7.403393124400001,-5.5322058512000005,460
103532,195843,235894,-3.3786655112000004,7.403393124400001,-5.5322058512000005,461
103727,195872,235896,-3.3786655112000004,7.403393124400001,-5.5322058512000005,462
103909,195898,235929,-3.3786655112000004,7.403393124400001,-5.5322058512000005,463
104077,195907,235939,-3.3786655112000004,7.403393124400001,-5.5322058512000005,464
104281,195930,235929,-3.3786655112000004,7.403393124400001,-5.5322058512000005,465
104387,195936,235948,-3.3786655112000004,7.403393124400001,-5.5322058512000005,466
104363,195927,235897,-3.3786655112000004,7.403393124400001,-5.5322058512000005,467
104225,195827,235890,-3.3786655112000004,7.403393124400001,-5.5322058512000005,468
104055,195839,235900,-3.3786655112000004,7.403393124400001,-5.5322058512000005,469
104109,195863,235887,-3.3786655112000004,7.4644101007,-5.5274202059999995,470
104169,195823,235884,-3.3786655112000004,7.4644101007,-5.5274202059999995,471
104262,195844,235908,-3.3786655112000004,7.4644101007,-5.5274202059999995,472
104385,195877,235905,-3.3786655112000004,7.4644101007,-5.5274202059999995,473
104493,195893,235946,-3.3786655112000004,7.4644101007,-5.5274202059999995,474
104614,195926,235917,-3.3786655112000004,7.4644101007,-5.5274202059999995,475
104737,195953,235949,-3.3786655112000004,7.4644101007,-5.5274202059999995,476
104871,195953,235973,-3.3786655112000004,7.4644101007,-5.5274202059999995,477
105000,196010,236001,-3.3786655112000004,7.4644101007,-5.5274202059999995,478
105132,196039,235989,-3.3798619225,7.4991060284,-5.6027941179,479
105255,196033,236021,-3.3798619225,7.4991060284,-5.6027941179,480
105368,196079,236036,-3.3032915993,7.4213392939,-5.575276658,481
105536,196104,236077,-3.1657042998000002,7.488338326699999,-5.5178489156,482
105658,196154,236091,-3.3690942208,7.3794648984,-5.5800623032,483
105793,196200,236067,-3.3403803495999997,7.4452675199,-5.405386253400001,484
105918,196176,236092,-3.5066815203,7.4943203832,-5.5214381495,485
106115,196230,236143,-3.3511480513,7.4691957459,-5.551348432,486
106214,196260,236144,-3.397808092,7.307680220399999,-5.4281180681,487
106337,196269,236158,-3.3367911156999996,7.428517761699999,-5.5238309721,488
106449,196277,236239,-3.2315069213,7.5888368759,-5.5561340772,489
106400,196255,236175,-3.4348968423,7.5170521979,-5.484349399199999,490
106297,196221,236167,-3.4588250683,7.4799634476,-5.4747781088,491
106170,196212,236147,-3.3607193417,7.4273213504,-5.3659046805,492
106074,196211,236116,-3.2925238975999997,7.6031938115,-5.5142596817000005,493
106029,196191,236181,-3.3032915993,7.4943203832,-5.5800623032,494
105980,196204,236198,-3.2697920829,7.3746792532,-5.569294601499999,495
105962,196194,236164,-3.4169506728,7.668996433,-5.528616617299999,496
105967,196205,236186,-3.4169506728,7.668996433,-5.528616617299999,497
105981,196233,236185,-3.4169506728,7.668996433,-5.528616617299999,498
105984,196232,236169,-3.4169506728,7.668996433,-5.528616617299999,499
105986,196250,236158,-3.4169506728,7.668996433,-5.528616617299999,500
105993,196242,236152,-3.4169506728,7.668996433,-5.528616617299999,501
106008,196228,236181,-3.4169506728,7.668996433,-5.528616617299999,502
106045,196268,236173,-3.4169506728,7.668996433,-5.528616617299999,503
106074,196280,236190,-3.4169506728,7.668996433,-5.528616617299999,504
106137,196276,236161,-3.4169506728,7.668996433,-5.528616617299999,505
106189,196249,236185,-3.4169506728,7.668996433,-5.528616617299999,506
106254,196294,236245,-3.4169506728,7.668996433,-5.528616617299999,507
106323,196310,236199,-3.4169506728,7.668996433,-5.528616617299999,508
106380,196340,236202,-3.4169506728,7.668996433,-5.528616617299999,509
106466,196365,236212,-3.4169506728,7.668996433,-5.528616617299999,510
106487,196342,236198,-3.4169506728,7.668996433,-5.528616617299999,511
106504,196398,236226,-3.4169506728,7.668996433,-5.528616617299999,512
106573,196370,236206,-3.4169506728,7.668996433,-5.528616617299999,513
106666,196390,236211,-3.4169506728,7.668996433,-5.528616617299999,514
106739,196405,236228,-3.4169506728,7.668996433,-5.528616617299999,515
106816,196448,236218,-3.4169506728,7.668996433,-5.528616617299999,516
106896,196363,236168,-3.4169506728,7.668996433,-5.528616617299999,517
106932,196414,236196,-3.4169506728,7.668996433,-5.528616617299999,518
106828,196336,236199,-3.4169506728,7.668996433,-5.528616617299999,519
106639,196280,236107,-3.4169506728,7.668996433,-5.528616617299999,520
106425,196248,236130,-3.4169506728,7.668996433,-5.528616617299999,521
106241,196257,236042,-3.4169506728,7.668996433,-5.528616617299999,522
106117,196197,236113,-3.4169506728,7.668996433,-5.528616617299999,523
105966,196173,236036,-3.4169506728,7.668996433,-5.528616617299999,524
105856,196187,236031,-3.4169506728,7.668996433,-5.528616617299999,525
105787,196178,235951,-3.4169506728,7.668996433,-5.528616617299999,526
105712,196149,235959,-3.2973095428,7.5230342544,-5.4759745201,527
105620,196115,235970,-3.2973095428,7.5230342544,-5.4759745201,528
105533,196113,235964,-3.2973095428,7.5230342544,-5.4759745201,529
105442,196080,235947,-3.2973095428,7.5230342544,-5.4759745201,530
105387,196078,235948,-3.2973095428,7.5230342544,-5.4759745201,531
105359,196095,235938,-3.2973095428,7.5230342544,-5.4759745201,532
105316,196109,235945,-3.0795626862,7.3746792532,-5.5369914964,533
105302,196101,235977,-3.2769705507,7.5026952623000005,-5.4807601652999995,534
105319,196143,235904,-3.2590243811999997,7.584051230699999,-5.5334022625,535
105303,196093,235895,-3.2650064377,7.5314091335,-5.5082776252,536
105360,196110,235909,-3.4480573666,7.4333034069,-5.6075797630999995,537
105367,196099,235928,-3.2590243811999997,7.4512495764,-5.5944192388,538
105387,196129,235899,-3.3355947043999996,7.4368926408,-5.5142596817000005,539
105435,196149,235916,-3.2446674455999998,7.4668029232999995,-5.4747781088,540
105460,196148,235878,-3.2446674455999998,7.4668029232999995,-5.4747781088,541
105526,196154,235972,-3.2446674455999998,7.4668029232999995,-5.4747781088,542
105572,196161,235924,-3.2446674455999998,7.4668029232999995,-5.4747781088,543
105634,196179,235997,-3.2446674455999998,7.4668029232999995,-5.4747781088,544
105685,196206,235944,-3.2446674455999998,7.4668029232999995,-5.4747781088,545
105744,196223,235954,-3.2446674455999998,7.4668029232999995,-5.4747781088,546
105813,196227,235934,-3.2446674455999998,7.4668029232999995,-5.4747781088,547
105880,196240,235961,-3.2446674455999998,7.4668029232999995,-5.4747781088,548
105923,196247,235948,-3.2446674455999998,7.4668029232999995,-5.4747781088,549
105869,196205,235937,-3.2446674455999998,7.4668029232999995,-5.4747781088,550
105601,196140,235924,-3.2446674455999998,7.4668029232999995,-5.4747781088,551
105235,196087,235900,-3.2446674455999998,7.4668029232999995,-5.4747781088,552
104863,196058,235873,-3.2446674455999998,7.4668029232999995,-5.4747781088,553
104527,196042,235824,-3.2446674455999998,7.4668029232999995,-5.4747781088,554
104233,195982,235821,-3.2446674455999998,7.4668029232999995,-5.4747781088,555
103921,195954,235774,-3.2446674455999998,7.4668029232999995,-5.4747781088,556
103671,195911,235777,-3.2446674455999998,7.4668029232999995,-5.4747781088,557
103500,195935,235730,-3.2446674455999998,7.4668029232999995,-5.4747781088,558
103346,195900,235752,-3.2446674455999998,7.4668029232999995,-5.4747781088,559
103172,195847,235721,-3.2446674455999998,7.4668029232999995,-5.4747781088,560
103005,195845,235711,-3.2446674455999998,7.4668029232999995,-5.4747781088,561
102854,195837,235663,-3.2446674455999998,7.4668029232999995,-5.4747781088,562
102740,195849,235695,-3.2446674455999998,7.4668029232999995,-5.4747781088,563
102671,195842,235672,-3.2446674455999998,7.4668029232999995,-5.4747781088,564
102628,195877,235664,-3.2446674455999998,7.4668029232999995,-5.4747781088,565
102607,195857,235666,-3.2446674455999998,7.4668029232999995,-5.4747781088,566
102584,195847,235675,-3.2446674455999998,7.4668029232999995,-5.4747781088,567
102593,195854,235663,-3.2446674455999998,7.4668029232999995,-5.4747781088,568
102617,195887,235668,-3.2446674455999998,7.4668029232999995,-5.4747781088,569
102630,195917,235699,-3.2446674455999998,7.4668029232999995,-5.4747781088,570
102668,195911,235704,-3.2446674455999998,7.4668029232999995,-5.4747781088,571
102717,195913,235714,-3.2446674455999998,7.4668029232999995,-5.4747781088,572
102786,195925,235700,-3.2446674455999998,7.4668029232999995,-5.4747781088,573
102844,195948,235724,-3.2446674455999998,7.4668029232999995,-5.4747781088,574
102926,195992,235711,-3.2446674455999998,7.4668029232999995,-5.4747781088,575
102993,195973,235750,-3.2446674455999998,7.4668029232999995,-5.4747781088,576
103081,195996,235691,-3.2446674455999998,7.4668029232999995,-5.4747781088,577
103131,196020,235735,-3.2446674455999998,7.4668029232999995,-5.4747781088,578
103030,195960,235687,-3.2446674455999998,7.4668029232999995,-5.4747781088,579
102631,195896,235649,-3.2446674455999998,7.4668029232999995,-5.4747781088,580
102201,195848,235690,-3.2446674455999998,7.4668029232999995,-5.4747781088,581
102099,195903,235769,-3.4013973259,7.4703921572,-5.431707302,582
102223,195933,235787,-3.4013973259,7.4703921572,-5.431707302,583
102122,195897,235760,-3.4013973259,7.4703921572,-5.431707302,584
101817,195848,235744,-3.4013973259,7.4703921572,-5.431707302,585
101476,195797,235718,-3.4013973259,7.4703921572,-5.431707302,586
101227,195778,235711,-3.4013973259,7.4703921572,-5.431707302,587
101067,195741,235724,-3.4013973259,7.4703921572,-5.431707302,588
100958,195695,235691,-3.4013973259,7.4703921572,-5.431707302,589
100870,195690,235663,-3.4013973259,7.4703921572,-5.431707302,590
100891,195697,235668,-3.4013973259,7.4703921572,-5.431707302,591
100918,195718,235708,-3.4013973259,7.4703921572,-5.431707302,592
100926,195690,235696,-3.4013973259,7.4703921572,-5.431707302,593
100928,195709,235674,-3.4013973259,7.4703921572,-5.431707302,594
100932,195729,235672,-3.4013973259,7.4703921572,-5.431707302,595
100968,195747,235688,-3.4013973259,7.4703921572,-5.431707302,596
101037,195761,235726,-3.4013973259,7.4703921572,-5.431707302,597
101114,195792,235750,-3.4013973259,7.4703921572,-5.431707302,598
101231,195796,235769,-3.4013973259,7.4703921572,-5.431707302,599
101353,195826,235777,-3.4013973259,7.4703921572,-5.431707302,600
101469,195833,235817,-3.4013973259,7.4703921572,-5.431707302,601
101608,195878,235824,-3.4013973259,7.4703921572,-5.431707302,602
101711,195878,235785,-3.4013973259,7.4703921572,-5.431707302,603
101883,195930,235897,-3.4013973259,7.4703921572,-5.431707302,604
102016,195953,235860,-3.4013973259,7.4703921572,-5.431707302,605
102135,195976,235893,-3.4013973259,7.4703921572,-5.431707302,606
102271,196003,235916,-3.4013973259,7.4703921572,-5.431707302,607
102409,196027,235893,-3.4013973259,7.4703921572,-5.431707302,608
102404,196000,235928,-3.4013973259,7.4703921572,-5.431707302,609
102203,195976,235921,-3.4013973259,7.4703921572,-5.431707302,610
101844,195921,235865,-3.4013973259,7.4703921572,-5.431707302,611
101561,195885,235830,-3.4013973259,7.4703921572,-5.431707302,612
101388,195861,235849,-3.4013973259,7.4703921572,-5.431707302,613
101243,195854,235832,-3.4013973259,7.4703921572,-5.431707302,614
101175,195813,235827,-3.4013973259,7.4703921572,-5.431707302,615
101132,195838,235791,-3.4013973259,7.4703921572,-5.431707302,616
101123,195804,235836,-3.4013973259,7.4703921572,-5.431707302,617
101118,195824,235785,-3.4013973259,7.4703921572,-5.431707302,618
101089,195807,235777,-3.4013973259,7.4703921572,-5.431707302,619
101078,195776,235784,-3.4013973259,7.4703921572,-5.431707302,620
101085,195795,235765,-3.4013973259,7.4703921572,-5.431707302,621
101119,195845,235730,-3.4013973259,7.4703921572,-5.431707302,622
101196,195838,235745,-3.4013973259,7.4703921572,-5.431707302,623
102302,195940,235834,-3.3212377687999997,7.5457660691,-5.5932228275,624
102153,195904,235766,-3.3212377687999997,7.5457660691,-5.5932228275,625
101867,195863,235769,-3.3212377687999997,7.5457660691,-5.5932228275,626
101612,195822,235759,-3.3212377687999997,7.5457660691,-5.5932228275,627
101447,195842,235738,-3.3212377687999997,7.5457660691,-5.5932228275,628
101319,195787,235752,-3.3212377687999997,7.5457660691,-5.5932228275,629
101239,195777,235731,-3.3212377687999997,7.5457660691,-5.5932228275,630
101204,195797,235698,-3.3212377687999997,7.5457660691,-5.5932228275,631
101229,195810,235729,-3.3212377687999997,7.5457660691,-5.5932228275,632
101293,195799,235703,-3.4743784152000003,7.3806613097,-5.5214381495,633
101348,195791,235758,-3.4743784152000003,7.3806613097,-5.5214381495,634
101435,195818,235743,-3.2745777280999997,7.5696942951,-5.4329037133,635
101535,195825,235755,-3.278166962,7.4943203832,-5.50349198,636
101604,195884,235768,-3.3308090592,7.4560352216,-5.4137611324999995,637
101727,195871,235749,-3.3451659948,7.5218378431,-5.4329037133,638
101861,195876,235805,-3.3032915993,7.4452675199,-5.570491012800001,639
102049,195921,235770,-3.2925238975999997,7.5326055448,-5.5932228275,640
102156,195952,235830,-3.3080772444999997,7.4979096170999995,-5.6039905292,641
102377,195950,235800,-3.3224341800999997,7.4979096170999995,-5.513063270399999,642
102530,195998,235807,-3.3308090592,7.4847490928,-5.5190453269,643
102714,196017,235851,-3.3248270027,7.446463931199999,-5.5214381495,644
102897,196026,235893,-3.1848468806000003,7.432106995600001,-5.5369914964,645
102973,196049,235867,-3.2925238975999997,7.432106995600001,-5.5262237947,646
103263,196115,235910,-3.2123643404999997,7.4093751809,-5.3994041969,647
103471,196136,235925,-3.3020951879999996,7.4093751809,-5.4089754873,648
103642,196144,235944,-3.1968109935999998,7.4273213504,-5.5178489156,649
103858,196189,235924,-3.4492537779,7.5278198996,-5.5740802467,650
103934,196180,235988,-3.4492537779,7.5278198996,-5.5740802467,651
103868,196121,235935,-3.4492537779,7.5278198996,-5.5740802467,652
103743,196136,235959,-3.4492537779,7.5278198996,-5.5740802467,653
103678,196124,235941,-3.4492537779,7.5278198996,-5.5740802467,654
103663,196134,235929,-3.4492537779,7.5278198996,-5.5740802467,655
103633,196151,235922,-3.4492537779,7.5278198996,-5.5740802467,656
103648,196170,235956,-3.4492537779,7.5278198996,-5.5740802467,657
103696,196173,235969,-3.4492537779,7.5278198996,-5.5740802467,658
103778,196178,235941,-3.4492537779,7.5278198996,-5.5740802467,659
103854,196184,235940,-3.4492537779,7.5278198996,-5.5740802467,660
103943,196205,235985,-3.4492537779,7.5278198996,-5.5740802467,661
104030,196219,235996,-3.3020951879999996,7.441678286,-5.4508498828,662
104126,196246,235953,-3.3020951879999996,7.441678286,-5.4508498828,663
104234,196264,236022,-3.3020951879999996,7.441678286,-5.4508498828,664
104351,196304,236021,-3.3020951879999996,7.441678286,-5.4508498828,665
104469,196340,236087,-3.3020951879999996,7.441678286,-5.4508498828,666
104626,196376,236047,-3.3020951879999996,7.441678286,-5.4508498828,667
104772,196378,236055,-3.3020951879999996,7.441678286,-5.4508498828,668
104914,196439,236133,-3.3020951879999996,7.441678286,-5.4508498828,669
105080,196434,236096,-3.3020951879999996,7.441678286,-5.4508498828,670
105192,196470,236125,-3.3020951879999996,7.441678286,-5.4508498828,671
105363,196494,236155,-3.3020951879999996,7.441678286,-5.4508498828,672
105524,196513,236158,-3.3020951879999996,7.441678286,-5.4508498828,673
105666,196522,236235,-3.3020951879999996,7.441678286,-5.4508498828,674
105811,196561,236218,-3.3738798660000002,7.4991060284,-5.5453663755000004,675
105966,196592,236222,-3.3738798660000002,7.4991060284,-5.5453663755000004,676
106126,196656,236267,-3.3738798660000002,7.4991060284,-5.5453663755000004,677
106266,196680,236250,-3.5258241011,7.4368926408,-5.541777141600001,678
106358,196676,236293,-3.3499516399999996,7.5122665527,-5.4329037133,679
106313,196638,236289,-3.2793633733,7.5134629639999995,-5.4664032297,680
106262,196640,236280,-3.3738798660000002,7.4703921572,-5.4939206895999995,681
106226,196671,236291,-3.3930224468000003,7.3986074792,-5.484349399199999,682
106214,196686,236295,-3.3176485349,7.654639497399999,-5.4508498828,683
106222,196704,236302,-3.4971102299,7.3423761481,-5.479563754,684
106253,196687,236301,-3.3678978095,7.555337359499999,-5.4376893585,685
106280,196709,236327,-3.445664544,7.446463931199999,-5.479563754,686
106260,196709,236318,-3.2027930501,7.635496916599999,-5.4664032297,687
106401,196730,236295,-3.3690942208,7.4751778024,-5.471188874899999,688
106435,196727,236329,-3.4061829711000002,7.418946471299999,-5.4987063348,689
106469,196754,236329,-3.3308090592,7.5122665527,-5.4412785924,690
106542,196804,236371,-3.4073793824000003,7.4081787696,-5.4604211732,691
106623,196795,236333,-3.4073793824000003,7.5170521979,-5.5369914964,692
106620,196840,236369,-3.3212377687999997,7.4524459877,-5.5214381495,693
106830,196864,236368,-3.2973095428,7.4931239719,-5.636293634299999,694
106871,196857,236385,-3.3690942208,7.4943203832,-5.407779076,695
106988,196885,236433,-3.2949167202,7.3842505436,-5.4747781088,696
107057,196905,236363,-3.3212377687999997,7.3806613097,-5.4233324229,697
107158,196939,236409,-3.3032915993,7.622336392299999,-5.5274202059999995,698
107258,196942,236404,-3.3750762773,7.4129644148,-5.2749774217,699
107374,196894,236377,-3.4600214796,7.4943203832,-5.3276195189,700
107371,196944,236395,-3.3355947043999996,7.4500531651,-5.3934221404,701
107578,196985,236395,-3.1992038162000003,7.3375905029,-5.4281180681,702
107650,196945,236411,-3.4779676491,7.4177500599999995,-5.4951171009,703
107757,196992,236458,-3.4731820039,7.465606512,-5.4508498828,704
107831,197021,236394,-3.3451659948,7.5038916736,-5.3371908093,705
107906,197014,236399,-3.4648071248,7.5756763516,-5.575276658,706
107870,196969,236351,-3.3116664784,7.5457660691,-5.4652068183999996,707
107699,196914,236366,-3.3176485349,7.4273213504,-5.3551369788,708
107683,196932,236322,-3.3104700671000002,7.4751778024,-5.5178489156,709
107580,196900,236301,-3.2733813167999997,7.393821834000001,-5.4604211732,710
107510,196890,236316,-3.4169506728,7.393821834000001,-5.5369914964,711
107474,196920,236298,-3.3116664784,7.3663043741,-5.5274202059999995,712
107400,196903,236283,-3.3846475676999996,7.3603223176,-5.479563754,713
107411,196884,236255,-3.2602207924999997,7.6319076827,-5.479563754,714
107364,196903,236241,-3.2602207924999997,7.489534738000001,-5.5142596817000005,715
107349,196868,236283,-3.4121650276000004,7.3471617933,-5.5645089563,716
107323,196900,236287,-3.4121650276000004,7.3471617933,-5.5645089563,717
107294,196909,236253,-3.4121650276000004,7.3471617933,-5.5645089563,718
107283,196912,236239,-3.4121650276000004,7.3471617933,-5.5645089563,719
107285,196919,236269,-3.4121650276000004,7.3471617933,-5.5645089563,720
107297,196942,236258,-3.4121650276000004,7.3471617933,-5.5645089563,721
107326,196902,236267,-3.4121650276000004,7.3471617933,-5.5645089563,722
107360,196929,236276,-3.4121650276000004,7.3471617933,-5.5645089563,723
107389,196938,236281,-3.4121650276000004,7.3471617933,-5.5645089563,724
107424,196932,236260,-3.4121650276000004,7.3471617933,-5.5645089563,725
107480,196916,236237,-3.4121650276000004,7.3471617933,-5.5645089563,726
107498,196940,236270,-3.4121650276000004,7.3471617933,-5.5645089563,727
107535,196918,236229,-3.4121650276000004,7.3471617933,-5.5645089563,728
107607,196973,236302,-3.4121650276000004,7.3471617933,-5.5645089563,729
107638,196972,236296,-3.4121650276000004,7.3471617933,-5.5645089563,730
107690,197013,236284,-3.4121650276000004,7.3471617933,-5.5645089563,731
107735,197029,236318,-3.4121650276000004,7.3471617933,-5.5645089563,732
107797,197002,236276,-3.3930224468000003,7.5182486092000005,-5.4855458105,733
107836,197038,236317,-3.3930224468000003,7.5182486092000005,-5.4855458105,734
107852,196995,236258,-3.3930224468000003,7.5182486092000005,-5.4855458105,735
107708,196965,236228,-3.4588250683,7.3950182453,-5.3431728658,736
107497,196963,236246,-3.2973095428,7.495516794499999,-5.5310094399,737
107248,196930,236232,-3.3272198253,7.4428746973,-5.5884371823,738
107052,196932,236207,-3.2518459134,7.4129644148,-5.570491012800001,739
106759,196923,236205,-3.2554351473,7.4691957459,-5.599204884000001,740
106516,196927,236169,-3.3834511564,7.4835526815,-5.5980084727,741
106323,196873,236185,-3.2602207924999997,7.446463931199999,-5.4699924636,742
106070,196864,236161,-3.4683963587,7.4644101007,-5.4604211732,743
106009,196825,236145,-3.505485109,7.5122665527,-5.5597233111,744
105846,196840,236155,-3.2937203089,7.4703921572,-5.4652068183999996,745
105700,196859,236153,-3.2027930501,7.4979096170999995,-5.5369914964,746
105560,196824,236124,-3.278166962,7.4213392939,-5.541777141600001,747
105464,196812,236115,-3.3164521235999995,7.5361947787,-5.541777141600001,748
105227,196826,236128,-3.3032915993,7.345965381999999,-5.4520462941,749
105279,196844,236087,-3.2841490185,7.5505517143,-5.575276658,750
105210,196797,236104,-3.2267212761,7.3292156238,-5.5322058512000005,751
105140,196813,236090,-3.3774690999,7.441678286,-5.513063270399999,752
105163,196825,236073,-3.4588250683,7.4177500599999995,-5.4855458105,753
105058,196822,236052,-3.4157542615,7.561319416,-5.4987063348,754
105134,196823,236043,-3.3738798660000002,7.5517481256,-5.4747781088,755
105112,196839,236069,-3.3080772444999997,7.3842505436,-5.442475003699999,756
105070,196877,236029,-3.2494530908,7.584051230699999,-5.5274202059999995,757
105084,196837,236035,-3.445664544,7.446463931199999,-5.4233324229,758
105158,196873,236068,-3.3655049869,7.5038916736,-5.3994041969,759
105108,196857,236049,-3.3595229304,7.4967132058,-5.5082776252,760
105126,196885,236094,-3.3595229304,7.4967132058,-5.5082776252,761
105169,196862,236100,-3.3595229304,7.4967132058,-5.5082776252,762
105222,196887,236136,-3.3595229304,7.4967132058,-5.5082776252,763
105242,196885,236103,-3.3595229304,7.4967132058,-5.5082776252,764
105302,196910,236087,-3.3595229304,7.4967132058,-5.5082776252,765
105356,196905,236132,-3.3595229304,7.4967132058,-5.5082776252,766
105256,196881,236105,-3.3595229304,7.4967132058,-5.5082776252,767
104954,196838,236126,-3.3595229304,7.4967132058,-5.5082776252,768
104556,196830,236095,-3.3595229304,7.4967132058,-5.5082776252,769
104203,196795,236054,-3.3595229304,7.4967132058,-5.5082776252,770
103913,196810,236037,-3.3690942208,7.5278198996,-5.4604211732,771
103643,196787,236079,-3.3690942208,7.5278198996,-5.4604211732,772
103402,196787,236059,-3.3690942208,7.5278198996,-5.4604211732,773
103212,196747,236046,-3.3690942208,7.5278198996,-5.4604211732,774
103095,196737,236042,-3.3690942208,7.5278198996,-5.4604211732,775
102964,196743,236027,-3.3690942208,7.5278198996,-5.4604211732,776
102836,196733,236004,-3.3690942208,7.5278198996,-5.4604211732,777
102702,196710,236029,-3.3690942208,7.5278198996,-5.4604211732,778
102604,196743,236006,-3.3690942208,7.5278198996,-5.4604211732,779
102550,196744,236024,-3.3690942208,7.5278198996,-5.4604211732,780
102502,196736,236011,-3.3690942208,7.5278198996,-5.4604211732,781
102500,196777,236032,-3.3690942208,7.5278198996,-5.4604211732,782
102520,196751,236017,-3.3690942208,7.5278198996,-5.4604211732,783
102545,196767,236068,-3.3690942208,7.5278198996,-5.4604211732,784
102581,196826,236089,-3.3690942208,7.5278198996,-5.4604211732,785
102620,196810,236051,-3.3690942208,7.5278198996,-5.4604211732,786
102686,196817,236044,-3.3690942208,7.5278198996,-5.4604211732,787
102756,196827,236074,-3.3690942208,7.5278198996,-5.4604211732,788
102841,196870,236065,-3.3690942208,7.5278198996,-5.4604211732,789
102896,196890,236098,-3.3690942208,7.5278198996,-5.4604211732,790
102993,196935,236122,-3.3690942208,7.5278198996,-5.4604211732,791
103066,196917,236134,-3.3690942208,7.5278198996,-5.4604211732,792
103159,196914,236120,-3.3690942208,7.5278198996,-5.4604211732,793
103271,196956,236126,-3.3690942208,7.5278198996,-5.4604211732,794
103354,196939,236189,-3.3690942208,7.5278198996,-5.4604211732,795
103347,196935,236146,-3.3690942208,7.5278198996,-5.4604211732,796
103073,196865,236192,-3.3690942208,7.5278198996,-5.4604211732,797
102693,196892,236136,-3.3690942208,7.5278198996,-5.4604211732,798
102395,196844,236113,-3.3690942208,7.5278198996,-5.4604211732,799
102158,196856,236097,-3.3690942208,7.5278198996,-5.4604211732,800
102011,196832,236101,-3.3690942208,7.5278198996,-5.4604211732,801
101871,196797,236063,-3.3690942208,7.5278198996,-5.4604211732,802
101810,196778,236079,-3.3690942208,7.5278198996,-5.4604211732,803
101789,196774,236046,-3.3690942208,7.5278198996,-5.4604211732,804
101764,196760,236078,-3.3690942208,7.5278198996,-5.4604211732,805
101711,196730,236018,-3.3690942208,7.5278198996,-5.4604211732,806
101683,196728,235980,-3.3690942208,7.5278198996,-5.4604211732,807
101673,196738,235986,-3.3690942208,7.5278198996,-5.4604211732,808
101707,196700,235976,-3.3690942208,7.5278198996,-5.4604211732,809
101759,196712,235942,-3.3690942208,7.5278198996,-5.4604211732,810
101819,196704,235976,-3.3690942208,7.5278198996,-5.4604211732,811
101886,196730,235990,-3.3690942208,7.5278198996,-5.4604211732,812
102369,196463,235901,-3.2889346637,7.4847490928,-5.513063270399999,813
102348,196475,235857,-3.2889346637,7.4847490928,-5.513063270399999,814
102351,196475,235785,-3.2889346637,7.4847490928,-5.513063270399999,815
102349,196453,235818,-3.2889346637,7.4847490928,-5.513063270399999,816
102327,196438,235811,-3.2889346637,7.4847490928,-5.513063270399999,817
102343,196448,235779,-3.2889346637,7.4847490928,-5.513063270399999,818
102369,196418,235831,-3.2889346637,7.4847490928,-5.513063270399999,819
102425,196448,235817,-3.2889346637,7.4847490928,-5.513063270399999,820
102505,196447,235866,-3.2889346637,7.4847490928,-5.513063270399999,821
102559,196437,235841,-3.2889346637,7.4847490928,-5.513063270399999,822
102648,196466,235825,-3.2889346637,7.4847490928,-5.513063270399999,823
102783,196469,235858,-3.2889346637,7.4847490928,-5.513063270399999,824
102889,196486,235866,-3.2889346637,7.4847490928,-5.513063270399999,825
103008,196512,235875,-3.2889346637,7.4847490928,-5.513063270399999,826
103126,196516,235915,-3.2889346637,7.4847490928,-5.513063270399999,827
103244,196524,235861,-3.2889346637,7.4847490928,-5.513063270399999,828
103361,196565,235905,-3.2889346637,7.4847490928,-5.513063270399999,829
103465,196554,235943,-3.2889346637,7.4847490928,-5.513063270399999,830
103586,196550,235933,-3.2889346637,7.4847490928,-5.513063270399999,831
103740,196587,235959,-3.2889346637,7.4847490928,-5.513063270399999,832
103869,196613,235940,-3.2889346637,7.4847490928,-5.513063270399999,833
103990,196632,236013,-3.2889346637,7.4847490928,-5.513063270399999,834
104138,196636,235977,-3.2889346637,7.4847490928,-5.513063270399999,835
104169,196634,235997,-3.2889346637,7.4847490928,-5.513063270399999,836
104018,196584,235990,-3.2889346637,7.4847490928,-5.513063270399999,837
103682,196525,235982,-3.2889346637,7.4847490928,-5.513063270399999,838
103377,196546,235952,-3.2889346637,7.4847490928,-5.513063270399999,839
103125,196497,235956,-3.2889346637,7.4847490928,-5.513063270399999,840
102981,196494,235944,-3.2889346637,7.4847490928,-5.513063270399999,841
102840,196474,235982,-3.2889346637,7.4847490928,-5.513063270399999,842
102748,196457,235949,-3.2889346637,7.4847490928,-5.513063270399999,843
102710,196470,235941,-3.2889346637,7.4847490928,-5.513063270399999,844
102707,196466,235928,-3.2889346637,7.4847490928,-5.513063270399999,845
102669,196467,235918,-3.2889346637,7.4847490928,-5.513063270399999,846
102619,196456,235942,-3.2889346637,7.4847490928,-5.513063270399999,847
102574,196443,235959,-3.2889346637,7.4847490928,-5.513063270399999,848
102590,196466,235939,-3.2889346637,7.4847490928,-5.513063270399999,849
102623,196470,235961,-3.2889346637,7.4847490928,-5.513063270399999,850
102671,196489,235944,-3.2889346637,7.4847490928,-5.513063270399999,851
102746,196502,235978,-3.2889346637,7.4847490928,-5.513063270399999,852
102836,196535,236000,-3.2889346637,7.4847490928,-5.513063270399999,853
102898,196551,235973,-3.2889346637,7.4847490928,-5.513063270399999,854
103409,196605,236048,-3.2458638569,7.4799634476,-5.5609197224,855
103179,196626,236076,-3.2458638569,7.4799634476,-5.5609197224,856
103024,196545,236020,-3.2458638569,7.4799634476,-5.5609197224,857
102876,196552,236068,-3.2458638569,7.4799634476,-5.5609197224,858
102820,196549,235985,-3.2458638569,7.4799634476,-5.5609197224,859
102751,196522,235936,-3.2458638569,7.4799634476,-5.5609197224,860
102726,196540,235922,-3.2458638569,7.4799634476,-5.5609197224,861
102658,196484,235929,-3.2458638569,7.4799634476,-5.5609197224,862
102577,196476,235924,-3.2458638569,7.4799634476,-5.5609197224,863
102536,196440,235899,-3.2458638569,7.4799634476,-5.5609197224,864
102549,196461,235927,-3.2458638569,7.4799634476,-5.5609197224,865
102549,196446,235869,-3.2458638569,7.4799634476,-5.5609197224,866
102599,196454,235880,-3.2458638569,7.4799634476,-5.5609197224,867
102662,196471,235894,-3.2458638569,7.4799634476,-5.5609197224,868
102723,196457,235860,-3.2458638569,7.4799634476,-5.5609197224,869
102795,196491,235917,-3.2458638569,7.4799634476,-5.5609197224,870
102901,196493,235943,-3.2458638569,7.4799634476,-5.5609197224,871
102981,196480,235950,-3.2458638569,7.4799634476,-5.5609197224,872
103104,196440,235909,-3.2458638569,7.4799634476,-5.5609197224,873
103182,196495,235909,-3.2458638569,7.4799634476,-5.5609197224,874
103300,196516,235923,-3.2458638569,7.4799634476,-5.5609197224,875
103415,196530,235909,-3.2458638569,7.4799634476,-5.5609197224,876
103530,196543,235929,-3.2458638569,7.4799634476,-5.5609197224,877
103633,196546,235951,-3.2458638569,7.4799634476,-5.5609197224,878
103757,196570,235992,-3.2458638569,7.4799634476,-5.5609197224,879
103872,196587,235983,-3.2458638569,7.4799634476,-5.5609197224,880
103973,196616,236010,-3.2458638569,7.4799634476,-5.5609197224,881
104117,196626,236012,-3.2458638569,7.4799634476,-5.5609197224,882
104232,196633,235987,-3.2458638569,7.4799634476,-5.5609197224,883
104247,196603,235978,-3.2458638569,7.4799634476,-5.5609197224,884
103990,196578,235986,-3.2458638569,7.4799634476,-5.5609197224,885
103563,196480,235945,-3.2458638569,7.4799634476,-5.5609197224,886
103126,196458,235929,-3.4121650276000004,7.5230342544,-5.541777141600001,887
102817,196422,235882,-3.4121650276000004,7.5230342544,-5.541777141600001,888
102548,196404,235899,-3.4121650276000004,7.5230342544,-5.541777141600001,889
102345,196381,235891,-3.4121650276000004,7.5230342544,-5.541777141600001,890
102155,196354,235889,-3.4121650276000004,7.5230342544,-5.541777141600001,891
102061,196325,235843,-3.4121650276000004,7.5230342544,-5.541777141600001,892
102013,196298,235830,-3.4121650276000004,7.5230342544,-5.541777141600001,893
101962,196299,235840,-3.4121650276000004,7.5230342544,-5.541777141600001,894
101852,196283,235817,-3.4121650276000004,7.5230342544,-5.541777141600001,895
101764,196288,235758,-3.4121650276000004,7.5230342544,-5.541777141600001,896
101730,196282,235801,-3.4121650276000004,7.5230342544,-5.541777141600001,897
101753,196263,235806,-3.4121650276000004,7.5230342544,-5.541777141600001,898
101776,196255,235779,-3.4121650276000004,7.5230342544,-5.541777141600001,899
101829,196242,235797,-3.4121650276000004,7.5230342544,-5.541777141600001,900
101891,196270,235801,-3.4121650276000004,7.5230342544,-5.541777141600001,901
101965,196319,235843,-3.4121650276000004,7.5230342544,-5.541777141600001,902
102053,196313,235846,-3.4121650276000004,7.5230342544,-5.541777141600001,903
102149,196323,235866,-3.4121650276000004,7.5230342544,-5.541777141600001,904
102244,196308,235814,-3.4121650276000004,7.5230342544,-5.541777141600001,905
102362,196329,235840,-3.4121650276000004,7.5230342544,-5.541777141600001,906
102482,196371,235867,-3.4121650276000004,7.5230342544,-5.541777141600001,907
102576,196348,235858,-3.4121650276000004,7.5230342544,-5.541777141600001,908
102708,196380,235907,-3.4121650276000004,7.5230342544,-5.541777141600001,909
102823,196415,235925,-3.4121650276000004,7.5230342544,-5.541777141600001,910
102944,196420,235933,-3.4121650276000004,7.5230342544,-5.541777141600001,911
103053,196426,235936,-3.4121650276000004,7.5230342544,-5.541777141600001,912
103220,196467,235934,-3.4121650276000004,7.5230342544,-5.541777141600001,913
103344,196475,235922,-3.4121650276000004,7.5230342544,-5.541777141600001,914
103456,196483,235944,-3.4121650276000004,7.5230342544,-5.541777141600001,915
103409,196466,235935,-3.4121650276000004,7.5230342544,-5.541777141600001,916
103080,196384,235912,-3.4121650276000004,7.5230342544,-5.541777141600001,917
102623,196374,235875,-3.4121650276000004,7.5230342544,-5.541777141600001,918
102198,196290,235858,-3.4121650276000004,7.5230342544,-5.541777141600001,919
101912,196264,235855,-3.4121650276000004,7.5230342544,-5.541777141600001,920
101697,196225,235812,-3.4121650276000004,7.5230342544,-5.541777141600001,921
101572,196217,235840,-3.4121650276000004,7.5230342544,-5.541777141600001,922
101452,196155,235843,-3.4121650276000004,7.5230342544,-5.541777141600001,923
101415,196174,235768,-3.4121650276000004,7.5230342544,-5.541777141600001,924
101406,196165,235807,-3.4121650276000004,7.5230342544,-5.541777141600001,925
101376,196191,235817,-3.4121650276000004,7.5230342544,-5.541777141600001,926
101353,196156,235738,-3.4121650276000004,7.5230342544,-5.541777141600001,927
101318,196142,235795,-3.4121650276000004,7.5230342544,-5.541777141600001,928
101023,195978,235788,-3.2410782117,7.5792655855,-5.5561340772,929
101119,195986,235816,-3.2410782117,7.5792655855,-5.5561340772,930
101221,195989,235834,-3.2410782117,7.5792655855,-5.5561340772,931
101352,196052,235838,-3.2410782117,7.5792655855,-5.5561340772,932
101484,196048,235781,-3.2410782117,7.5792655855,-5.5561340772,933
101631,196045,235832,-3.2410782117,7.5792655855,-5.5561340772,934
101754,196080,235842,-3.2410782117,7.5792655855,-5.5561340772,935
101919,196074,235884,-3.2410782117,7.5792655855,-5.5561340772,936
102080,196097,235872,-3.2410782117,7.5792655855,-5.5561340772,937
102173,196120,235908,-3.2410782117,7.5792655855,-5.5561340772,938
102052,196077,235849,-3.2410782117,7.5792655855,-5.5561340772,939
101654,195991,235827,-3.2410782117,7.5792655855,-5.5561340772,940
101246,195940,235796,-3.2410782117,7.5792655855,-5.5561340772,941
100949,195926,235786,-3.2410782117,7.5792655855,-5.5561340772,942
100748,195889,235748,-3.2410782117,7.5792655855,-5.5561340772,943
100592,195856,235709,-3.2410782117,7.5792655855,-5.5561340772,944
100496,195807,235760,-3.2410782117,7.5792655855,-5.5561340772,945
100448,195794,235717,-3.2410782117,7.5792655855,-5.5561340772,946
100495,195788,235734,-3.2410782117,7.5792655855,-5.5561340772,947
100530,195790,235729,-3.2410782117,7.5792655855,-5.5561340772,948
100547,195800,235731,-3.2410782117,7.5792655855,-5.5561340772,949
100556,195773,235742,-3.2410782117,7.5792655855,-5.5561340772,950
100606,195771,235697,-3.2410782117,7.5792655855,-5.5561340772,951
100668,195811,235756,-3.2410782117,7.5792655855,-5.5561340772,952
100762,195803,235731,-3.2410782117,7.5792655855,-5.5561340772,953
100878,195853,235731,-3.2410782117,7.5792655855,-5.5561340772,954
101000,195809,235733,-3.2410782117,7.5792655855,-5.5561340772,955
101139,195862,235757,-3.2410782117,7.5792655855,-5.5561340772,956
101264,195880,235788,-3.2410782117,7.5792655855,-5.5561340772,957
101432,195930,235826,-3.2410782117,7.5792655855,-5.5561340772,958
101579,195909,235813,-3.2410782117,7.5792655855,-5.5561340772,959
101711,195925,235834,-3.2410782117,7.5792655855,-5.5561340772,960
101871,195966,235870,-3.2410782117,7.5792655855,-5.5561340772,961
102035,196002,235881,-3.2410782117,7.5792655855,-5.5561340772,962
102207,196002,235838,-3.2410782117,7.5792655855,-5.5561340772,963
102355,196031,235857,-3.2410782117,7.5792655855,-5.5561340772,964
102542,196020,235889,-3.2410782117,7.5792655855,-5.5561340772,965
102699,196068,235924,-3.2410782117,7.5792655855,-5.5561340772,966
102836,196113,235920,-3.2410782117,7.5792655855,-5.5561340772,967
102977,196125,235919,-3.2410782117,7.5792655855,-5.5561340772,968
103000,196098,235897,-3.2410782117,7.5792655855,-5.5561340772,969
102733,196016,235888,-3.2410782117,7.5792655855,-5.5561340772,970
101686,195865,235773,-3.3690942208,7.489534738000001,-5.6267223439,971
101818,195862,235795,-3.3690942208,7.489534738000001,-5.6267223439,972
101951,195936,235859,-3.3690942208,7.489534738000001,-5.6267223439,973
102067,195907,235824,-3.3690942208,7.489534738000001,-5.6267223439,974
102207,195959,235871,-3.3690942208,7.489534738000001,-5.6267223439,975
102351,195960,235900,-3.3690942208,7.489534738000001,-5.6267223439,976
102476,195991,235837,-3.3690942208,7.489534738000001,-5.6267223439,977
102626,196020,235868,-3.3690942208,7.489534738000001,-5.6267223439,978
102774,196054,235954,-3.3690942208,7.489534738000001,-5.6267223439,979
102901,196051,235904,-3.3690942208,7.489534738000001,-5.6267223439,980
103060,196094,235946,-3.2111679291999997,7.3184479221,-5.4089754873,981
103186,196142,236006,-3.2111679291999997,7.3184479221,-5.4089754873,982
103325,196145,236005,-3.2111679291999997,7.3184479221,-5.4089754873,983
103483,196153,235982,-3.2111679291999997,7.3184479221,-5.4089754873,984
103421,196123,236003,-3.2111679291999997,7.3184479221,-5.4089754873,985
103145,196068,235975,-3.2111679291999997,7.3184479221,-5.4089754873,986
102706,196026,235979,-3.2111679291999997,7.3184479221,-5.4089754873,987
102350,196004,235941,-3.2111679291999997,7.3184479221,-5.4089754873,988
102093,195978,235908,-3.2111679291999997,7.3184479221,-5.4089754873,989
101922,195935,235877,-3.2111679291999997,7.3184479221,-5.4089754873,990
101786,195908,235897,-3.2111679291999997,7.3184479221,-5.4089754873,991
101702,195921,235905,-3.2111679291999997,7.3184479221,-5.4089754873,992
101701,195939,235923,-3.2111679291999997,7.3184479221,-5.4089754873,993
101690,195907,235849,-3.2111679291999997,7.3184479221,-5.4089754873,994
101660,195945,235918,-3.2111679291999997,7.3184479221,-5.4089754873,995
101608,195907,235921,-3.2111679291999997,7.3184479221,-5.4089754873,996
101588,195921,235918,-3.2111679291999997,7.3184479221,-5.4089754873,997
101624,195926,235948,-3.2111679291999997,7.3184479221,-5.4089754873,998
101694,195941,235922,-3.2111679291999997,7.3184479221,-5.4089754873,999
101764,195990,235942,-3.2111679291999997,7.3184479221,-5.4089754873,1000
101850,196008,235950,-3.2111679291999997,7.3184479221,-5.4089754873,1001
101942,196027,236002,-3.2111679291999997,7.3184479221,-5.4089754873,1002
102044,196013,235958,-3.2111679291999997,7.3184479221,-5.4089754873,1003
102146,196075,235996,-3.2111679291999997,7.3184479221,-5.4089754873,1004
102278,196076,236011,-3.2111679291999997,7.3184479221,-5.4089754873,1005
102386,196122,236013,-3.2111679291999997,7.3184479221,-5.4089754873,1006
102514,196134,236013,-3.2111679291999997,7.3184479221,-5.4089754873,1007
102630,196163,236027,-3.2111679291999997,7.3184479221,-5.4089754873,1008
102765,196182,236041,-3.2111679291999997,7.3184479221,-5.4089754873,1009
102883,196203,236065,-3.2111679291999997,7.3184479221,-5.4089754873,1010
102968,196248,236047,-3.2111679291999997,7.3184479221,-5.4089754873,1011
102875,196166,236024,-3.2111679291999997,7.3184479221,-5.4089754873,1012
102520,196164,236103,-3.2111679291999997,7.3184479221,-5.4089754873,1013
102106,196089,236035,-3.2111679291999997,7.3184479221,-5.4089754873,1014
101800,196054,235997,-3.2111679291999997,7.3184479221,-5.4089754873,1015
101597,196020,235955,-3.3212377687999997,7.4703921572,-5.5800623032,1016
101464,195983,235969,-3.3212377687999997,7.4703921572,-5.5800623032,1017
101366,195971,235916,-3.3212377687999997,7.4703921572,-5.5800623032,1018
101341,195986,235896,-3.3212377687999997,7.4703921572,-5.5800623032,1019
101347,195960,235882,-3.3212377687999997,7.4703921572,-5.5800623032,1020
101344,195950,235906,-3.3212377687999997,7.4703921572,-5.5800623032,1021
101323,195915,235919,-3.3212377687999997,7.4703921572,-5.5800623032,1022
101285,195936,235861,-3.3212377687999997,7.4703921572,-5.5800623032,1023
101295,195926,235792,-3.3212377687999997,7.4703921572,-5.5800623032,1024
101345,195944,235821,-3.3212377687999997,7.4703921572,-5.5800623032,1025
101408,195953,235866,-3.3212377687999997,7.4703921572,-5.5800623032,1026
101510,195925,235879,-3.3212377687999997,7.4703921572,-5.5800623032,1027
101607,195970,235808,-3.3212377687999997,7.4703921572,-5.5800623032,1028
101731,195939,235867,-3.3212377687999997,7.4703921572,-5.5800623032,1029
101844,195975,235853,-3.3212377687999997,7.4703921572,-5.5800623032,1030
101962,196000,235877,-3.3212377687999997,7.4703921572,-5.5800623032,1031
102088,196021,235900,-3.3212377687999997,7.4703921572,-5.5800623032,1032
102235,196026,235868,-3.3212377687999997,7.4703921572,-5.5800623032,1033
102356,196060,235892,-3.3212377687999997,7.4703921572,-5.5800623032,1034
102498,196080,235939,-3.3212377687999997,7.4703921572,-5.5800623032,1035
102605,196094,235897,-3.3212377687999997,7.4703921572,-5.5800623032,1036
102530,196044,235908,-3.3212377687999997,7.4703921572,-5.5800623032,1037
102175,195999,235866,-3.3212377687999997,7.4703921572,-5.5800623032,1038
101759,195869,235801,-3.3212377687999997,7.4703921572,-5.5800623032,1039
101412,195868,235799,-3.3212377687999997,7.4703921572,-5.5800623032,1040
101182,195813,235783,-3.3212377687999997,7.4703921572,-5.5800623032,1041
100970,195773,235774,-3.3212377687999997,7.4703921572,-5.5800623032,1042
100814,195742,235752,-3.3212377687999997,7.4703921572,-5.5800623032,1043
100747,195747,235790,-3.3212377687999997,7.4703921572,-5.5800623032,1044
100762,195727,235748,-3.3212377687999997,7.4703921572,-5.5800623032,1045
100737,195755,235766,-3.3212377687999997,7.4703921572,-5.5800623032,1046
100755,195746,235726,-3.3212377687999997,7.4703921572,-5.5800623032,1047
100728,195752,235737,-3.3212377687999997,7.4703921572,-5.5800623032,1048
100738,195772,235731,-3.3212377687999997,7.4703921572,-5.5800623032,1049
100800,195735,235729,-3.3212377687999997,7.4703921572,-5.5800623032,1050
100885,195770,235720,-3.3212377687999997,7.4703921572,-5.5800623032,1051
100965,195806,235771,-3.3212377687999997,7.4703921572,-5.5800623032,1052
101083,195777,235753,-3.3212377687999997,7.4703921572,-5.5800623032,1053
101195,195794,235760,-3.3212377687999997,7.4703921572,-5.5800623032,1054
101330,195826,235814,-3.3212377687999997,7.4703921572,-5.5800623032,1055
101459,195857,235800,-3.3212377687999997,7.4703921572,-5.5800623032,1056
101597,195873,235797,-3.3212377687999997,7.4703921572,-5.5800623032,1057
101710,195833,235782,-3.3834511564,7.428517761699999,-5.5322058512000005,1058
101563,195783,235758,-3.3834511564,7.428517761699999,-5.5322058512000005,1059
101456,195802,235795,-3.3834511564,7.428517761699999,-5.5322058512000005,1060
101405,195775,235737,-3.3834511564,7.428517761699999,-5.5322058512000005,1061
101420,195793,235792,-3.3834511564,7.428517761699999,-5.5322058512000005,1062
101399,195774,235719,-3.3834511564,7.428517761699999,-5.5322058512000005,1063
101400,195755,235739,-3.3834511564,7.428517761699999,-5.5322058512000005,1064
101389,195769,235728,-3.3834511564,7.428517761699999,-5.5322058512000005,1065
101393,195785,235757,-3.3834511564,7.428517761699999,-5.5322058512000005,1066
101448,195782,235704,-3.3834511564,7.428517761699999,-5.5322058512000005,1067
101498,195774,235744,-3.3834511564,7.428517761699999,-5.5322058512000005,1068
101567,195807,235747,-3.3834511564,7.428517761699999,-5.5322058512000005,1069
101686,195812,235798,-3.3834511564,7.428517761699999,-5.5322058512000005,1070
101785,195838,235743,-3.3834511564,7.428517761699999,-5.5322058512000005,1071
101899,195871,235779,-3.3834511564,7.428517761699999,-5.5322058512000005,1072
101996,195860,235750,-3.3834511564,7.428517761699999,-5.5322058512000005,1073
102164,195902,235816,-3.3834511564,7.428517761699999,-5.5322058512000005,1074
102280,195945,235847,-3.3834511564,7.428517761699999,-5.5322058512000005,1075
102413,195931,235808,-3.3834511564,7.428517761699999,-5.5322058512000005,1076
102562,195976,235834,-3.3834511564,7.428517761699999,-5.5322058512000005,1077
102717,195995,235863,-3.3834511564,7.428517761699999,-5.5322058512000005,1078
102856,196002,235890,-3.3834511564,7.428517761699999,-5.5322058512000005,1079
102991,196016,235856,-3.3834511564,7.428517761699999,-5.5322058512000005,1080
103154,196036,235881,-3.3834511564,7.428517761699999,-5.5322058512000005,1081
103285,196068,235890,-3.3834511564,7.428517761699999,-5.5322058512000005,1082
103425,196085,235970,-3.3834511564,7.428517761699999,-5.5322058512000005,1083
103473,196086,235928,-3.3834511564,7.428517761699999,-5.5322058512000005,1084
103259,196023,235858,-3.3834511564,7.428517761699999,-5.5322058512000005,1085
102888,195972,235897,-3.3834511564,7.428517761699999,-5.5322058512000005,1086
102525,195907,235884,-3.3834511564,7.428517761699999,-5.5322058512000005,1087
102244,195876,235834,-3.3834511564,7.428517761699999,-5.5322058512000005,1088
102027,195847,235818,-3.3834511564,7.428517761699999,-5.5322058512000005,1089
101892,195811,235821,-3.3834511564,7.428517761699999,-5.5322058512000005,1090
101788,195850,235788,-3.3834511564,7.428517761699999,-5.5322058512000005,1091
101761,195803,235812,-3.3834511564,7.428517761699999,-5.5322058512000005,1092
101751,195840,235822,-3.3834511564,7.428517761699999,-5.5322058512000005,1093
101735,195807,235809,-3.3834511564,7.428517761699999,-5.5322058512000005,1094
101702,195823,235799,-3.3834511564,7.428517761699999,-5.5322058512000005,1095
101682,195806,235781,-3.3834511564,7.428517761699999,-5.5322058512000005,1096
101688,195822,235799,-3.3834511564,7.428517761699999,-5.5322058512000005,1097
101747,195866,235797,-3.3834511564,7.428517761699999,-5.5322058512000005,1098
101798,195861,235792,-3.3834511564,7.428517761699999,-5.5322058512000005,1099
103006,195863,235784,-3.2793633733,7.6079794567,-5.4568319393,1100
103130,195857,235791,-3.2793633733,7.6079794567,-5.4568319393,1101
103060,195814,235749,-3.2793633733,7.6079794567,-5.4568319393,1102
102743,195722,235784,-3.2793633733,7.6079794567,-5.4568319393,1103
102362,195676,235691,-3.2793633733,7.6079794567,-5.4568319393,1104
102031,195615,235685,-3.2793633733,7.6079794567,-5.4568319393,1105
101803,195595,235628,-3.2793633733,7.6079794567,-5.4568319393,1106
101611,195554,235629,-3.2793633733,7.6079794567,-5.4568319393,1107
101503,195557,235666,-3.2793633733,7.6079794567,-5.4568319393,1108
101453,195530,235595,-3.2793633733,7.6079794567,-5.4568319393,1109
101458,195558,235632,-3.2793633733,7.6079794567,-5.4568319393,1110
101453,195530,235676,-3.2793633733,7.6079794567,-5.4568319393,1111
101431,195540,235622,-3.2793633733,7.6079794567,-5.4568319393,1112
101411,195530,235645,-3.2793633733,7.6079794567,-5.4568319393,1113
101425,195556,235651,-3.2793633733,7.6079794567,-5.4568319393,1114
101464,195530,235705,-3.2793633733,7.6079794567,-5.4568319393,1115
101534,195548,235640,-3.2793633733,7.6079794567,-5.4568319393,1116
101588,195567,235698,-3.2793633733,7.6079794567,-5.4568319393,1117
101675,195613,235711,-3.2793633733,7.6079794567,-5.4568319393,1118
101802,195623,235714,-3.2793633733,7.6079794567,-5.4568319393,1119
101912,195635,235710,-3.2793633733,7.6079794567,-5.4568319393,1120
102038,195672,235716,-3.2793633733,7.6079794567,-5.4568319393,1121
102159,195717,235743,-3.2793633733,7.6079794567,-5.4568319393,1122
102288,195721,235772,-3.2793633733,7.6079794567,-5.4568319393,1123
102428,195757,235807,-3.2793633733,7.6079794567,-5.4568319393,1124
102530,195786,235806,-3.2793633733,7.6079794567,-5.4568319393,1125
102668,195821,235855,-3.2793633733,7.6079794567,-5.4568319393,1126
102811,195827,235849,-3.2793633733,7.6079794567,-5.4568319393,1127
102940,195867,235827,-3.2793633733,7.6079794567,-5.4568319393,1128
103088,195889,235870,-3.2793633733,7.6079794567,-5.4568319393,1129
103191,195907,235900,-3.2793633733,7.6079794567,-5.4568319393,1130
103108,195855,235865,-3.2793633733,7.6079794567,-5.4568319393,1131
102782,195801,235793,-3.2793633733,7.6079794567,-5.4568319393,1132
102424,195726,235802,-3.2793633733,7.6079794567,-5.4568319393,1133
102142,195674,235830,-3.2793633733,7.6079794567,-5.4568319393,1134
101963,195687,235746,-3.2793633733,7.6079794567,-5.4568319393,1135
101819,195657,235790,-3.2793633733,7.6079794567,-5.4568319393,1136
101724,195629,235770,-3.2793633733,7.6079794567,-5.4568319393,1137
101708,195647,235757,-3.2793633733,7.6079794567,-5.4568319393,1138
101724,195637,235754,-3.2793633733,7.6079794567,-5.4568319393,1139
101738,195674,235739,-3.2793633733,7.6079794567,-5.4568319393,1140
101699,195606,235771,-3.2793633733,7.6079794567,-5.4568319393,1141
102428,195709,235729,-3.3966116807,7.4021967130999995,-5.4137611324999995,1142
102532,195738,235772,-3.3966116807,7.4021967130999995,-5.4137611324999995,1143
102646,195767,235737,-3.3966116807,7.4021967130999995,-5.4137611324999995,1144
102778,195780,235773,-3.3966116807,7.4021967130999995,-5.4137611324999995,1145
102782,195740,235746,-3.3966116807,7.4021967130999995,-5.4137611324999995,1146
102524,195659,235684,-3.3966116807,7.4021967130999995,-5.4137611324999995,1147
102157,195560,235620,-3.3966116807,7.4021967130999995,-5.4137611324999995,1148
101804,195513,235620,-3.3966116807,7.4021967130999995,-5.4137611324999995,1149
101560,195434,235579,-3.3966116807,7.4021967130999995,-5.4137611324999995,1150
101336,195411,235501,-3.3966116807,7.4021967130999995,-5.4137611324999995,1151
101202,195377,235538,-3.3966116807,7.4021967130999995,-5.4137611324999995,1152
101133,195364,235487,-3.3966116807,7.4021967130999995,-5.4137611324999995,1153
101118,195377,235504,-3.3966116807,7.4021967130999995,-5.4137611324999995,1154
101114,195364,235516,-3.3966116807,7.4021967130999995,-5.4137611324999995,1155
101119,195372,235441,-3.3966116807,7.4021967130999995,-5.4137611324999995,1156
101094,195375,235486,-3.3966116807,7.4021967130999995,-5.4137611324999995,1157
101093,195341,235522,-3.3966116807,7.4021967130999995,-5.4137611324999995,1158
101124,195362,235466,-3.3966116807,7.4021967130999995,-5.4137611324999995,1159
101197,195357,235517,-3.3966116807,7.4021967130999995,-5.4137611324999995,1160
101258,195363,235529,-3.3966116807,7.4021967130999995,-5.4137611324999995,1161
101379,195406,235522,-3.3966116807,7.4021967130999995,-5.4137611324999995,1162
101470,195398,235546,-3.3966116807,7.4021967130999995,-5.4137611324999995,1163
101595,195421,235541,-3.3966116807,7.4021967130999995,-5.4137611324999995,1164
101740,195489,235542,-3.3966116807,7.4021967130999995,-5.4137611324999995,1165
101870,195461,235551,-3.3966116807,7.4021967130999995,-5.4137611324999995,1166
101994,195537,235596,-3.3966116807,7.4021967130999995,-5.4137611324999995,1167
102132,195496,235600,-3.3966116807,7.4021967130999995,-5.4137611324999995,1168
102273,195541,235633,-3.3966116807,7.4021967130999995,-5.4137611324999995,1169
102315,195530,235620,-3.3966116807,7.4021967130999995,-5.4137611324999995,1170
102077,195441,235569,-3.3966116807,7.4021967130999995,-5.4137611324999995,1171
101671,195377,235541,-3.3966116807,7.4021967130999995,-5.4137611324999995,1172
101323,195280,235474,-3.3966116807,7.4021967130999995,-5.4137611324999995,1173
101044,195269,235478,-3.3966116807,7.4021967130999995,-5.4137611324999995,1174
100822,195220,235420,-3.3966116807,7.4021967130999995,-5.4137611324999995,1175
100680,195199,235393,-3.3966116807,7.4021967130999995,-5.4137611324999995,1176
100577,195127,235400,-3.3966116807,7.4021967130999995,-5.4137611324999995,1177
100573,195177,235405,-3.3966116807,7.4021967130999995,-5.4137611324999995,1178
100573,195185,235411,-3.3966116807,7.4021967130999995,-5.4137611324999995,1179
100577,195179,235438,-3.3966116807,7.4021967130999995,-5.4137611324999995,1180
100571,195159,235411,-3.3966116807,7.4021967130999995,-5.4137611324999995,1181
100581,195172,235416,-3.3966116807,7.4021967130999995,-5.4137611324999995,1182
100600,195215,235451,-3.3966116807,7.4021967130999995,-5.4137611324999995,1183
101991,195420,235579,-3.4181470840999997,7.555337359499999,-5.3850472612999996,1184
102152,195433,235595,-3.4181470840999997,7.555337359499999,-5.3850472612999996,1185
102299,195457,235584,-3.4181470840999997,7.555337359499999,-5.3850472612999996,1186
102304,195403,235558,-3.4181470840999997,7.555337359499999,-5.3850472612999996,1187
102028,195333,235520,-3.4181470840999997,7.555337359499999,-5.3850472612999996,1188
101635,195261,235476,-3.4181470840999997,7.555337359499999,-5.3850472612999996,1189
101294,195214,235468,-3.4181470840999997,7.555337359499999,-5.3850472612999996,1190
101043,195149,235436,-3.4181470840999997,7.555337359499999,-5.3850472612999996,1191
100837,195149,235453,-3.4181470840999997,7.555337359499999,-5.3850472612999996,1192
100707,195128,235420,-3.4181470840999997,7.555337359499999,-5.3850472612999996,1193
100652,195134,235406,-3.4181470840999997,7.555337359499999,-5.3850472612999996,1194
100649,195129,235416,-3.4181470840999997,7.555337359499999,-5.3850472612999996,1195
100692,195150,235370,-3.4181470840999997,7.555337359499999,-5.3850472612999996,1196
100679,195117,235373,-3.4181470840999997,7.555337359499999,-5.3850472612999996,1197
100670,195147,235413,-3.4181470840999997,7.555337359499999,-5.3850472612999996,1198
100684,195152,235418,-3.4181470840999997,7.555337359499999,-5.3850472612999996,1199
100746,195153,235389,-3.4181470840999997,7.555337359499999,-5.3850472612999996,1200
100798,195172,235448,-3.4181470840999997,7.555337359499999,-5.3850472612999996,1201
100905,195202,235464,-3.4181470840999997,7.555337359499999,-5.3850472612999996,1202
100997,195202,235501,-3.4181470840999997,7.555337359499999,-5.3850472612999996,1203
101104,195235,235486,-3.4181470840999997,7.555337359499999,-5.3850472612999996,1204
101239,195287,235549,-3.4181470840999997,7.555337359499999,-5.3850472612999996,1205
101401,195320,235558,-3.4181470840999997,7.555337359499999,-5.3850472612999996,1206
101515,195337,235584,-3.4181470840999997,7.555337359499999,-5.3850472612999996,1207
101658,195400,235593,-3.4181470840999997,7.555337359499999,-5.3850472612999996,1208
101787,195394,235577,-3.4181470840999997,7.555337359499999,-5.3850472612999996,1209
101945,195409,235646,-3.4181470840999997,7.555337359499999,-5.3850472612999996,1210
102091,195469,235621,-3.4181470840999997,7.555337359499999,-5.3850472612999996,1211
102258,195469,235643,-3.4181470840999997,7.555337359499999,-5.3850472612999996,1212
102406,195513,235674,-3.4181470840999997,7.555337359499999,-5.3850472612999996,1213
102564,195557,235698,-3.4181470840999997,7.555337359499999,-5.3850472612999996,1214
102683,195548,235699,-3.4181470840999997,7.555337359499999,-5.3850472612999996,1215
102601,195522,235700,-3.4181470840999997,7.555337359499999,-5.3850472612999996,1216
102321,195450,235694,-3.4181470840999997,7.555337359499999,-5.3850472612999996,1217
101925,195395,235600,-3.4181470840999997,7.555337359499999,-5.3850472612999996,1218
101641,195358,235593,-3.4181470840999997,7.555337359499999,-5.3850472612999996,1219
101468,195345,235595,-3.4181470840999997,7.555337359499999,-5.3850472612999996,1220
101327,195330,235590,-3.4181470840999997,7.555337359499999,-5.3850472612999996,1221
101246,195310,235616,-3.4181470840999997,7.555337359499999,-5.3850472612999996,1222
101255,195321,235629,-3.4181470840999997,7.555337359499999,-5.3850472612999996,1223
101291,195335,235620,-3.4181470840999997,7.555337359499999,-5.3850472612999996,1224
101293,195324,235595,-3.4181470840999997,7.555337359499999,-5.3850472612999996,1225
101160,195273,235504,-3.1609186546,7.4273213504,-5.3802616161,1226
101160,195284,235559,-3.1609186546,7.4273213504,-5.3802616161,1227
101177,195309,235558,-3.1609186546,7.4273213504,-5.3802616161,1228
101234,195317,235610,-3.1609186546,7.4273213504,-5.3802616161,1229
101299,195339,235599,-3.1609186546,7.4273213504,-5.3802616161,1230
101378,195335,235596,-3.1609186546,7.4273213504,-5.3802616161,1231
101507,195374,235585,-3.1609186546,7.4273213504,-5.3802616161,1232
101596,195421,235629,-3.1609186546,7.4273213504,-5.3802616161,1233
101721,195469,235647,-3.1609186546,7.4273213504,-5.3802616161,1234
101854,195457,235653,-3.1609186546,7.4273213504,-5.3802616161,1235
101989,195513,235708,-3.1609186546,7.4273213504,-5.3802616161,1236
102122,195540,235676,-3.1609186546,7.4273213504,-5.3802616161,1237
102250,195567,235717,-3.1609186546,7.4273213504,-5.3802616161,1238
102403,195601,235743,-3.1609186546,7.4273213504,-5.3802616161,1239
102537,195623,235711,-3.1609186546,7.4273213504,-5.3802616161,1240
102563,195605,235752,-3.1609186546,7.4273213504,-5.3802616161,1241
102297,195525,235700,-3.1609186546,7.4273213504,-5.3802616161,1242
101912,195457,235650,-3.1609186546,7.4273213504,-5.3802616161,1243
101562,195400,235589,-3.1609186546,7.4273213504,-5.3802616161,1244
101315,195364,235579,-3.1609186546,7.4273213504,-5.3802616161,1245
101153,195331,235539,-3.1609186546,7.4273213504,-5.3802616161,1246
101047,195296,235508,-3.5593236175,7.4847490928,-5.455635527999999,1247
101002,195289,235530,-3.5593236175,7.4847490928,-5.455635527999999,1248
101014,195274,235514,-3.5593236175,7.4847490928,-5.455635527999999,1249
101045,195271,235492,-3.2015966388,7.336394091599999,-5.513063270399999,1250
101049,195276,235490,-3.278166962,7.4751778024,-5.4855458105,1251
101052,195288,235488,-3.5593236175,7.585247642000001,-5.4891350444,1252
101062,195266,235515,-3.3882368016,7.4991060284,-5.4520462941,1253
101089,195268,235513,-3.3451659948,7.5409804239,-5.3706903257,1254
101183,195274,235478,-3.2841490185,7.4225357052000005,-5.5597233111,1255
101281,195295,235476,-3.2841490185,7.4225357052000005,-5.5597233111,1256
101404,195297,235502,-3.2841490185,7.4225357052000005,-5.5597233111,1257
101502,195310,235458,-3.2841490185,7.4225357052000005,-5.5597233111,1258
101650,195344,235504,-3.2841490185,7.4225357052000005,-5.5597233111,1259
101794,195360,235514,-3.2841490185,7.4225357052000005,-5.5597233111,1260
101920,195357,235570,-3.2841490185,7.4225357052000005,-5.5597233111,1261
102055,195412,235518,-3.2841490185,7.4225357052000005,-5.5597233111,1262
102201,195432,235571,-3.2841490185,7.4225357052000005,-5.5597233111,1263
102319,195474,235538,-3.2841490185,7.4225357052000005,-5.5597233111,1264
102427,195455,235594,-3.2841490185,7.4225357052000005,-5.5597233111,1265
102299,195396,235525,-3.2841490185,7.4225357052000005,-5.5597233111,1266
101941,195322,235449,-3.2841490185,7.4225357052000005,-5.5597233111,1267
101520,195263,235436,-3.2841490185,7.4225357052000005,-5.5597233111,1268
101218,195183,235421,-3.2841490185,7.4225357052000005,-5.5597233111,1269
100984,195169,235436,-3.2841490185,7.4225357052000005,-5.5597233111,1270
100819,195123,235408,-3.2841490185,7.4225357052000005,-5.5597233111,1271
100685,195122,235388,-3.2841490185,7.4225357052000005,-5.5597233111,1272
100629,195101,235398,-3.2841490185,7.4225357052000005,-5.5597233111,1273
100654,195087,235392,-3.2841490185,7.4225357052000005,-5.5597233111,1274
100664,195090,235373,-3.2841490185,7.4225357052000005,-5.5597233111,1275
100645,195111,235375,-3.2841490185,7.4225357052000005,-5.5597233111,1276
100680,195103,235360,-3.2829526072,7.4907311493,-5.4699924636,1277
100689,195107,235371,-3.2829526072,7.4907311493,-5.4699924636,1278
100758,195099,235392,-3.2829526072,7.4907311493,-5.4699924636,1279
100842,195183,235378,-3.2829526072,7.4907311493,-5.4699924636,1280
100936,195170,235423,-3.2829526072,7.4907311493,-5.4699924636,1281
101072,195197,235437,-3.4025937372,7.5182486092000005,-5.4891350444,1282
101199,195231,235435,-3.278166962,7.4847490928,-5.513063270399999,1283
101363,195240,235469,-3.4121650276000004,7.5026952623000005,-5.4939206895999995,1284
101498,195282,235435,-3.1142586138999997,7.526623488299999,-5.5022955687,1285
101700,195291,235474,-3.3451659948,7.4548388103,-5.4891350444,1286
101811,195313,235524,-3.4265219632000004,7.441678286,-5.3994041969,1287
101982,195370,235530,-3.3272198253,7.4368926408,-5.4520462941,1288
102138,195394,235551,-3.1740791789,7.4177500599999995,-5.4376893585,1289
102293,195410,235523,-3.3774690999,7.4943203832,-5.4604211732,1290
102472,195406,235531,-3.3750762773,7.4811598589,-5.4939206895999995,1291
102623,195420,235552,-3.2985059541,7.4703921572,-5.479563754,1292
102774,195475,235601,-3.2614172038,7.5804619967999995,-5.5322058512000005,1293
102781,195457,235583,-3.2267212761,7.4943203832,-5.5369914964,1294
102535,195412,235520,-3.4013973259,7.6139615132000005,-5.5561340772,1295
102109,195310,235478,-3.3595229304,7.4799634476,-5.442475003699999,1296
101829,195269,235470,-3.4109686163,7.4500531651,-5.528616617299999,1297
101601,195233,235501,-3.326023414,7.5122665527,-5.4759745201,1298
101368,195181,235458,-3.4301111971,7.5756763516,-5.3946185517,1299
101230,195201,235452,-3.2458638569,7.585247642000001,-5.4987063348,1300
101166,195195,235430,-3.3930224468000003,7.692924659,-5.4508498828,1301
101165,195184,235397,-3.3547372851999997,7.5601230047,-5.5788658919,1302
101176,195172,235469,-3.3786655112000004,7.5086773188,-5.541777141600001,1303
101194,195223,235442,-3.1513473642000003,7.5074809075,-5.5226345608,1304
101187,195193,235439,-3.3798619225,7.441678286,-5.4807601652999995,1305
101200,195171,235389,-3.3200413575,7.3375905029,-5.5226345608,1306
101245,195216,235437,-3.2159535744,7.542176835199999,-5.5657053676,1307
101313,195228,235434,-3.3882368016,7.5505517143,-5.4951171009,1308
101407,195235,235452,-3.3595229304,7.393821834000001,-5.551348432,1309
101507,195257,235476,-3.2638100264,7.5457660691,-5.404189842099999,1310
101669,195300,235514,-3.3499516399999996,7.5792655855,-5.4747781088,1311
101753,195341,235498,-3.1980074049,7.3567330837,-5.4891350444,1312
101875,195319,235528,-3.4265219632000004,7.5038916736,-5.5322058512000005,1313
102029,195352,235529,-3.445664544,7.4560352216,-5.5178489156,1314
102186,195382,235504,-3.3296126479000003,7.4261249391,-5.4233324229,1315
102339,195384,235574,-3.2829526072,7.307680220399999,-5.528616617299999,1316
102455,195458,235569,-3.2027930501,7.4225357052000005,-5.5573304885,1317
102602,195456,235583,-3.3164521235999995,7.4237321165,-5.5178489156,1318
102759,195506,235601,-3.2590243811999997,7.5026952623000005,-5.5657053676,1319
102830,195545,235597,-3.3308090592,7.3603223176,-5.4616175845,1320
103071,195569,235634,-3.2973095428,7.4368926408,-5.5082776252,1321
103189,195567,235657,-3.3176485349,7.4225357052000005,-5.5334022625,1322
103057,195540,235646,-3.2135607518000002,7.5541409482,-5.5226345608,1323
102682,195480,235658,-3.2231320422,7.3842505436,-5.4699924636,1324
102410,195433,235616,-3.3068808331999997,7.441678286,-5.4939206895999995,1325
102152,195396,235536,-3.3499516399999996,7.5457660691,-5.5561340772,1326
101923,195351,235527,-3.2171499857,7.4799634476,-5.528616617299999,1327
101810,195370,235563,-3.1597222433,7.446463931199999,-5.5896335936,1328
101739,195336,235527,-3.170489945,7.3603223176,-5.5178489156,1329
101740,195325,235557,-3.3068808331999997,7.4512495764,-5.5238309721,1330
101751,195349,235520,-3.3451659948,7.4703921572,-5.6231331099999995,1331
101682,195339,235549,-3.2650064377,7.5792655855,-5.5274202059999995,1332
101751,195359,235525,-3.2937203089,7.460820866800001,-5.455635527999999,1333
101766,195354,235575,-3.3690942208,7.5182486092000005,-5.6027941179,1334
101764,195423,235607,-3.3403803495999997,7.5649086499,-5.4939206895999995,1335
101886,195418,235613,-3.3702906320999997,7.399803890499999,-5.5226345608,1336
101914,195445,235646,-3.2985059541,7.4703921572,-5.5740802467,1337
102051,195466,235619,-3.1968109935999998,7.4225357052000005,-5.5645089563,1338
102089,195465,235653,-3.3595229304,7.526623488299999,-5.4807601652999995,1339
102257,195531,235679,-3.5066815203,7.5314091335,-5.575276658,1340
102393,195548,235701,-3.3930224468000003,7.4273213504,-5.4939206895999995,1341
102504,195581,235712,-3.4169506728,7.5170521979,-5.5369914964,1342
102557,195622,235686,-3.2087751066,7.555337359499999,-5.4759745201,1343
102748,195629,235733,-3.2973095428,7.399803890499999,-5.4281180681,1344
102911,195687,235736,-3.2410782117,7.514659375300001,-5.5848479484,1345
103039,195686,235737,-3.4683963587,7.4177500599999995,-5.38385085,1346
103194,195719,235812,-3.2889346637,7.428517761699999,-5.5226345608,1347
103319,195752,235837,-3.3655049869,7.5326055448,-5.4939206895999995,1348
103340,195765,235814,-3.2554351473,7.5457660691,-5.5274202059999995,1349
103155,195697,235776,-3.2889346637,7.4093751809,-5.346762099699999,1350
102764,195665,235746,-3.3702906320999997,7.4703921572,-5.4747781088,1351
102480,195624,235760,-3.3367911156999996,7.4225357052000005,-5.446064237599999,1352
102267,195562,235700,-3.2458638569,7.53739119,-5.569294601499999,1353
102185,195571,235714,-3.3176485349,7.4141608261,-5.4281180681,1354
102063,195559,235676,-3.4540394231000002,7.5122665527,-5.5178489156,1355
102075,195553,235733,-3.4253255519,7.5517481256,-5.5501520207,1356
102090,195564,235712,-3.2171499857,7.5505517143,-5.5238309721,1357
102120,195600,235720,-3.2745777280999997,7.4991060284,-5.442475003699999,1358
102130,195610,235720,-3.4121650276000004,7.4799634476,-5.404189842099999,1359
102138,195600,235705,-3.421736318,7.432106995600001,-5.4029934308,1360
102151,195614,235719,-3.3080772444999997,7.5038916736,-5.5369914964,1361
102173,195588,235718,-3.4025937372,7.5936225210999995,-5.417350366399999,1362
102249,195622,235739,-3.3738798660000002,7.6175507471,-5.4233324229,1363
102335,195603,235718,-3.3690942208,7.393821834000001,-5.389832906500001,1364
102468,195641,235748,-3.1980074049,7.5888368759,-5.3850472612999996,1365
102545,195665,235746,-3.3367911156999996,7.5696942951,-5.5465627868,1366
102613,195701,235717,-3.2937203089,7.5469624804,-5.4412785924,1367
102785,195675,235730,-3.46959277,7.5409804239,-5.4185467777000005,1368
102925,195709,235726,-3.2171499857,7.5792655855,-5.4855458105,1369
102998,195724,235717,-3.3320054705,7.459624455499999,-5.5561340772,1370
103118,195779,235750,-3.3643085755999995,7.390232600099999,-5.3659046805,1371
103244,195768,235750,-3.1429724850999996,7.4524459877,-5.5453663755000004,1372
103296,195731,235705,-3.2279176874,7.4045895357,-5.5274202059999995,1373
103155,195686,235735,-3.194418171,7.4751778024,-5.575276658,1374
102804,195624,235684,-3.4025937372,7.6366933279,-5.541777141600001,1375
102467,195561,235618,-3.2925238975999997,7.446463931199999,-5.4221360116,1376
102192,195536,235597,-3.3308090592,7.5649086499,-5.5357950851,1377
101981,195508,235557,-3.2889346637,7.459624455499999,-5.4987063348,1378
101835,195495,235545,-3.3355947043999996,7.4943203832,-5.5609197224,1379
101683,195454,235540,-3.2985059541,7.5409804239,-5.4221360116,1380
101731,195444,235502,-3.5270205124,7.3806613097,-5.4089754873,1381
101729,195443,235485,-3.2219356309,7.526623488299999,-5.5980084727,1382
101755,195461,235511,-3.2877382523999996,7.4500531651,-5.3994041969,1383
101728,195418,235571,-3.3355947043999996,7.488338326699999,-5.5226345608,1384
101726,195418,235523,-3.4552358344000003,7.5505517143,-5.5226345608,1385
101775,195437,235542,-3.3343982931,7.418946471299999,-5.4891350444,1386
101838,195436,235531,-3.3499516399999996,7.4847490928,-5.50349198,1387
101942,195466,235523,-3.2793633733,7.446463931199999,-5.4089754873,1388
101990,195473,235521,-3.4492537779,7.265805824899999,-5.4939206895999995,1389
102120,195510,235578,-3.2123643404999997,7.5038916736,-5.5561340772,1390
102237,195514,235595,-3.5066815203,7.5026952623000005,-5.442475003699999,1391
102358,195543,235541,-3.3224341800999997,7.5218378431,-5.4939206895999995,1392
102458,195571,235601,-3.3308090592,7.446463931199999,-5.5274202059999995,1393
102596,195567,235581,-3.4205399067,7.403393124400001,-5.5657053676,1394
102748,195608,235577,-3.3128628897,7.4500531651,-5.4807601652999995,1395
102866,195625,235611,-3.3451659948,7.4799634476,-5.5322058512000005,1396
102989,195628,235622,-3.421736318,7.5601230047,-5.4939206895999995,1397
103132,195629,235660,-3.4205399067,7.4799634476,-5.388636495199999,1398
103273,195677,235662,-3.421736318,7.4691957459,-5.6267223439,1399
103384,195698,235709,-3.2733813167999997,7.5278198996,-5.4939206895999995,1400
103266,195672,235630,-3.1274191382,7.4512495764,-5.5082776252,1401
102975,195578,235606,-3.4265219632000004,7.460820866800001,-5.5609197224,1402
102560,195508,235602,-3.2494530908,7.5086773188,-5.4987063348,1403
102256,195477,235583,-3.2458638569,7.5696942951,-5.6566326264,1404
101990,195406,235550,-3.3643085755999995,7.3316084464,-5.4652068183999996,1405
101818,195399,235518,-3.4025937372,7.4715885685,-5.4939206895999995,1406
101687,195350,235515,-3.3068808331999997,7.5038916736,-5.479563754,1407
101613,195370,235460,-3.3655049869,7.5278198996,-5.4951171009,1408
101561,195375,235534,-3.2841490185,7.5074809075,-5.471188874899999,1409
101589,195397,235483,-3.4229327293,7.5182486092000005,-5.455635527999999,1410
101559,195365,235428,-3.3355947043999996,7.6031938115,-5.3659046805,1411
101545,195363,235497,-3.3451659948,7.6319076827,-5.4699924636,1412
101474,195349,235495,-3.2877382523999996,7.4931239719,-5.4891350444,1413
101620,195349,235480,-3.4372896648999998,7.4787670363,-5.5274202059999995,1414
101680,195398,235512,-3.421736318,7.459624455499999,-5.442475003699999,1415
101736,195430,235518,-3.3499516399999996,7.4368926408,-5.5369914964,1416
101843,195443,235491,-3.5449666819,7.345965381999999,-5.513063270399999,1417
101967,195445,235513,-3.4121650276000004,7.5218378431,-5.5369914964,1418
102062,195495,235544,-3.2793633733,7.53739119,-5.5944192388,1419
102208,195503,235588,-3.3786655112000004,7.4560352216,-5.4376893585,1420
102312,195501,235544,-3.3786655112000004,7.4560352216,-5.4376893585,1421
102443,195524,235573,-3.3786655112000004,7.4560352216,-5.4376893585,1422
102584,195560,235624,-3.3786655112000004,7.4560352216,-5.4376893585,1423
102717,195594,235606,-3.326023414,7.5517481256,-5.4329037133,1424
102870,195607,235612,-3.3403803495999997,7.441678286,-5.50349198,1425
103001,195646,235667,-3.4444681327,7.4524459877,-5.5142596817000005,1426
103157,195654,235650,-3.1980074049,7.4751778024,-5.5621161337,1427
103228,195710,235657,-3.266202849,7.5278198996,-5.479563754,1428
103484,195731,235665,-3.2554351473,7.6163543358,-5.389832906500001,1429
103589,195730,235693,-3.3834511564,7.4368926408,-5.404189842099999,1430
103728,195726,235720,-3.3355947043999996,7.4979096170999995,-5.3946185517,1431
103715,195717,235703,-3.3355947043999996,7.4979096170999995,-5.3946185517,1432
103472,195675,235639,-3.3355947043999996,7.4979096170999995,-5.3946185517,1433
103130,195609,235633,-3.3355947043999996,7.4979096170999995,-5.3946185517,1434
102788,195554,235582,-3.3355947043999996,7.4979096170999995,-5.3946185517,1435
102540,195507,235551,-3.3355947043999996,7.4979096170999995,-5.3946185517,1436
102340,195458,235564,-3.3355947043999996,7.4979096170999995,-5.3946185517,1437
102202,195437,235532,-3.3355947043999996,7.4979096170999995,-5.3946185517,1438
102107,195449,235543,-3.3355947043999996,7.4979096170999995,-5.3946185517,1439
102087,195452,235573,-3.3355947043999996,7.4979096170999995,-5.3946185517,1440
102094,195452,235487,-3.3355947043999996,7.4979096170999995,-5.3946185517,1441
102071,195451,235496,-3.3355947043999996,7.4979096170999995,-5.3946185517,1442
102049,195451,235519,-3.3355947043999996,7.4979096170999995,-5.3946185517,1443
102036,195438,235551,-3.3355947043999996,7.4979096170999995,-5.3946185517,1444
102077,195449,235565,-3.3355947043999996,7.4979096170999995,-5.3946185517,1445
102102,195477,235532,-3.3355947043999996,7.4979096170999995,-5.3946185517,1446
102186,195493,235570,-3.3355947043999996,7.4979096170999995,-5.3946185517,1447
102263,195547,235579,-3.3355947043999996,7.4979096170999995,-5.3946185517,1448
102366,195518,235606,-3.3355947043999996,7.4979096170999995,-5.3946185517,1449
102473,195549,235585,-3.3355947043999996,7.4979096170999995,-5.3946185517,1450
102585,195586,235586,-3.3355947043999996,7.4979096170999995,-5.3946185517,1451
102697,195568,235644,-3.3355947043999996,7.4979096170999995,-5.3946185517,1452
102830,195625,235645,-3.3355947043999996,7.4979096170999995,-5.3946185517,1453
102952,195647,235654,-3.3355947043999996,7.4979096170999995,-5.3946185517,1454
103061,195693,235705,-3.3355947043999996,7.4979096170999995,-5.3946185517,1455
103206,195736,235684,-3.3355947043999996,7.4979096170999995,-5.3946185517,1456
103334,195753,235717,-3.3355947043999996,7.4979096170999995,-5.3946185517,1457
103484,195784,235766,-3.3355947043999996,7.4979096170999995,-5.3946185517,1458
103597,195824,235757,-3.3355947043999996,7.4979096170999995,-5.3946185517,1459
103733,195776,235776,-3.3355947043999996,7.4979096170999995,-5.3946185517,1460
103890,195842,235780,-3.3355947043999996,7.4979096170999995,-5.3946185517,1461
103919,195871,235822,-3.3355947043999996,7.4979096170999995,-5.3946185517,1462
103730,195796,235784,-3.3355947043999996,7.4979096170999995,-5.3946185517,1463
103385,195741,235802,-3.3355947043999996,7.4979096170999995,-5.3946185517,1464
103079,195719,235722,-3.3355947043999996,7.4979096170999995,-5.3946185517,1465
102808,195655,235682,-3.3355947043999996,7.4979096170999995,-5.3946185517,1466
102629,195635,235699,-3.3355947043999996,7.4979096170999995,-5.3946185517,1467
102501,195627,235735,-3.3355947043999996,7.4979096170999995,-5.3946185517,1468
102411,195646,235712,-3.3499516399999996,7.4548388103,-5.426921656799999,1469
102414,195634,235657,-3.3499516399999996,7.4548388103,-5.426921656799999,1470
102416,195677,235723,-3.3499516399999996,7.4548388103,-5.426921656799999,1471
102407,195644,235715,-3.3499516399999996,7.4548388103,-5.426921656799999,1472
102359,195626,235696,-3.3499516399999996,7.4548388103,-5.426921656799999,1473
102346,195645,235742,-3.3499516399999996,7.4548388103,-5.426921656799999,1474
102377,195654,235759,-3.3499516399999996,7.4548388103,-5.426921656799999,1475
102420,195680,235742,-3.3499516399999996,7.4548388103,-5.426921656799999,1476
102485,195709,235733,-3.3499516399999996,7.4548388103,-5.426921656799999,1477
102574,195749,235747,-3.3499516399999996,7.4548388103,-5.426921656799999,1478
102662,195743,235744,-3.3499516399999996,7.4548388103,-5.426921656799999,1479
102766,195733,235778,-3.3499516399999996,7.4548388103,-5.426921656799999,1480
102880,195806,235793,-3.3499516399999996,7.4548388103,-5.426921656799999,1481
102988,195798,235809,-3.3499516399999996,7.4548388103,-5.426921656799999,1482
103094,195830,235825,-3.3499516399999996,7.4548388103,-5.426921656799999,1483
103217,195861,235840,-3.3499516399999996,7.4548388103,-5.426921656799999,1484
103356,195902,235870,-3.3499516399999996,7.4548388103,-5.426921656799999,1485
103473,195947,235875,-3.3499516399999996,7.4548388103,-5.426921656799999,1486
103595,195965,235868,-3.3499516399999996,7.4548388103,-5.426921656799999,1487
103700,195987,235879,-3.3499516399999996,7.4548388103,-5.426921656799999,1488
103598,195940,235910,-3.3499516399999996,7.4548388103,-5.426921656799999,1489
103290,195877,235872,-3.3499516399999996,7.4548388103,-5.426921656799999,1490
102930,195826,235821,-3.3499516399999996,7.4548388103,-5.426921656799999,1491
102653,195778,235793,-3.3499516399999996,7.4548388103,-5.426921656799999,1492
102439,195735,235785,-3.3499516399999996,7.4548388103,-5.426921656799999,1493
102292,195744,235721,-3.3499516399999996,7.4548388103,-5.426921656799999,1494
102195,195702,235722,-3.3499516399999996,7.4548388103,-5.426921656799999,1495
102177,195705,235714,-3.3499516399999996,7.4548388103,-5.426921656799999,1496
102188,195681,235687,-3.3499516399999996,7.4548388103,-5.426921656799999,1497
102167,195662,235663,-3.3499516399999996,7.4548388103,-5.426921656799999,1498
102152,195657,235668,-3.3499516399999996,7.4548388103,-5.426921656799999,1499
102102,195662,235643,-3.3499516399999996,7.4548388103,-5.426921656799999,1500
102105,195643,235656,-3.3499516399999996,7.4548388103,-5.426921656799999,1501
102152,195631,235629,-3.3499516399999996,7.4548388103,-5.426921656799999,1502
102197,195608,235650,-3.3499516399999996,7.4548388103,-5.426921656799999,1503
102283,195673,235610,-3.3499516399999996,7.4548388103,-5.426921656799999,1504
102367,195660,235678,-3.3499516399999996,7.4548388103,-5.426921656799999,1505
102469,195679,235652,-3.3499516399999996,7.4548388103,-5.426921656799999,1506
102586,195707,235676,-3.3499516399999996,7.4548388103,-5.426921656799999,1507
102691,195724,235636,-3.3499516399999996,7.4548388103,-5.426921656799999,1508
102789,195758,235667,-3.3499516399999996,7.4548388103,-5.426921656799999,1509
102921,195738,235721,-3.3499516399999996,7.4548388103,-5.426921656799999,1510
102682,195645,235603,-3.1836504693,7.4368926408,-5.4508498828,1511
102780,195679,235640,-3.1836504693,7.4368926408,-5.4508498828,1512
102762,195623,235636,-3.1836504693,7.4368926408,-5.4508498828,1513
102529,195540,235585,-3.1836504693,7.4368926408,-5.4508498828,1514
102141,195486,235562,-3.1836504693,7.4368926408,-5.4508498828,1515
101786,195426,235522,-3.1836504693,7.4368926408,-5.4508498828,1516
101519,195376,235494,-3.1836504693,7.4368926408,-5.4508498828,1517
101332,195353,235480,-3.1836504693,7.4368926408,-5.4508498828,1518
101139,195324,235482,-3.1836504693,7.4368926408,-5.4508498828,1519
101045,195322,235425,-3.1836504693,7.4368926408,-5.4508498828,1520
101029,195293,235457,-3.1836504693,7.4368926408,-5.4508498828,1521
101034,195289,235460,-3.1836504693,7.4368926408,-5.4508498828,1522
101014,195323,235445,-3.1836504693,7.4368926408,-5.4508498828,1523
100999,195301,235410,-3.1836504693,7.4368926408,-5.4508498828,1524
100998,195291,235447,-3.1836504693,7.4368926408,-5.4508498828,1525
101053,195328,235420,-3.1836504693,7.4368926408,-5.4508498828,1526
101092,195301,235455,-3.1836504693,7.4368926408,-5.4508498828,1527
101178,195304,235465,-3.1836504693,7.4368926408,-5.4508498828,1528
101270,195335,235478,-3.1836504693,7.4368926408,-5.4508498828,1529
101363,195364,235501,-3.1836504693,7.4368926408,-5.4508498828,1530
101482,195402,235487,-3.1836504693,7.4368926408,-5.4508498828,1531
101609,195383,235487,-3.1836504693,7.4368926408,-5.4508498828,1532
101727,195439,235515,-3.1836504693,7.4368926408,-5.4508498828,1533
101842,195453,235496,-3.1836504693,7.4368926408,-5.4508498828,1534
101983,195488,235556,-3.1836504693,7.4368926408,-5.4508498828,1535
102124,195488,235550,-3.1836504693,7.4368926408,-5.4508498828,1536
102236,195519,235527,-3.1836504693,7.4368926408,-5.4508498828,1537
102367,195519,235569,-3.1836504693,7.4368926408,-5.4508498828,1538
102533,195558,235571,-3.1836504693,7.4368926408,-5.4508498828,1539
102652,195558,235635,-3.1836504693,7.4368926408,-5.4508498828,1540
102796,195619,235609,-3.1836504693,7.4368926408,-5.4508498828,1541
102930,195612,235645,-3.1836504693,7.4368926408,-5.4508498828,1542
103085,195631,235637,-3.1836504693,7.4368926408,-5.4508498828,1543
103175,195634,235653,-3.1836504693,7.4368926408,-5.4508498828,1544
103057,195598,235635,-3.1836504693,7.4368926408,-5.4508498828,1545
102724,195518,235574,-3.1836504693,7.4368926408,-5.4508498828,1546
102374,195459,235551,-3.1836504693,7.4368926408,-5.4508498828,1547
102073,195410,235518,-3.1836504693,7.4368926408,-5.4508498828,1548
101875,195419,235533,-3.1836504693,7.4368926408,-5.4508498828,1549
101708,195365,235470,-3.1836504693,7.4368926408,-5.4508498828,1550
101577,195358,235496,-3.1836504693,7.4368926408,-5.4508498828,1551
