green,red,IR,acc_x,acc_y,acc_z,sample_index
74060,156726,164637,6.005984725999999,-1.6366906583999998,7.6618179652,1
73466,156715,164624,5.9377892819,-1.5720844482,7.6319076827,2
73124,156651,164599,6.0287165407000005,-1.6462619487999999,7.6319076827,3
72938,156564,164579,6.009573959900001,-1.6761722313,7.679764134699999,4
72851,156530,164581,6.0490555328,-1.698904046,7.6809605460000006,5
72928,156504,164555,5.938985693199999,-1.6845471104,7.7036923607,6
73050,156459,164547,5.925825168899999,-1.5708880369,7.718049296299999,7
73144,156444,164550,6.0969119848,-1.7479569093,7.6271220375,8
73232,156469,164578,5.954539040099999,-1.6654045296,7.5948189324,9
73267,156477,164555,5.9772708547999995,-1.6797614652,7.651050263499999,10
73338,156472,164562,5.938985693199999,-1.6654045296,7.570890706399999,11
73435,156441,164584,6.1005012187,-1.746760498,7.556533770800001,12
73522,156379,164534,5.86241537,-1.7168502155,7.5804619967999995,13
73639,156437,164534,5.9629139192,-1.6522440053,7.585247642000001,14
73772,156390,164552,6.038287831100001,-1.6175480776,7.585247642000001,15
73878,156368,164527,6.0239308954999995,-1.7659030788,7.6522466748,16
74056,156390,164525,5.9772708547999995,-1.6426727149,7.6462646183,17
74193,156333,164528,5.954539040099999,-1.7359927963,7.5517481256,18
74330,156304,164501,5.9593246853,-1.6091731985,7.584051230699999,19
74464,156320,164494,6.038287831100001,-1.7036896912000001,7.718049296299999,20
74595,156319,164493,6.0335021859,-1.7084753364,7.6283184488,21
74754,156310,164461,5.9724852096,-1.7850456596,7.6941210703,22
74879,156311,164477,6.0239308954999995,-1.722832272,7.5900332872,23
74673,156554,164578,6.034698597199999,-1.7599210223,7.6175507471,24
74159,156712,164665,6.0107703712000005,-1.7503497318999999,7.6606215538999995,25
73645,156738,164632,6.0909299283,-1.6797614652,7.5517481256,26
73352,156615,164623,5.9868421452,-1.6271193679999998,7.6091758679999995,27
73211,156577,164594,6.0526447667,-1.6701901747999999,7.585247642000001,28
73179,156548,164628,5.9772708547999995,-1.7659030788,7.5996045776,29
73228,156518,164605,6.1531433159,-1.6797614652,7.5996045776,30
73396,156506,164606,5.9246287576,-1.7168502155,7.708478005899999,31
73542,156538,164601,5.8528440796,-1.6893327556000002,7.6713892556,32
73610,156544,164629,6.0586268232,-1.6319050132,7.651050263499999,33
73700,156538,164624,5.8683974265,-1.7276179172000001,7.5338019561000005,34
73812,156587,164631,6.089733517,-1.7611174336,7.5290163108999995,35
73919,156535,164641,5.9437713384,-1.7515461432000001,7.6043902228,36
73985,156506,164589,6.000002669500001,-1.7934205387,7.7001031268,37
74190,156525,164615,6.029912952,-1.746760498,7.666603610399999,38
74339,156534,164628,5.958128274,-1.7001004573,7.5194450205,39
74489,156504,164614,5.9629139192,-1.6797614652,7.6139615132000005,40
74661,156507,164599,5.9114682333,-1.8556339263000001,7.6989067155,41
74802,156478,164571,5.8683974265,-1.6223337227999999,7.5696942951,42
74964,156474,164586,5.9629139192,-1.698904046,7.6749784895,43
75111,156423,164563,5.938985693199999,-1.6043875533,7.6462646183,44
75270,156410,164575,5.925825168899999,-1.6905291669,7.489534738000001,45
75433,156402,164554,5.9437713384,-1.6809578765,7.585247642000001,46
75562,156394,164545,6.0107703712000005,-1.6845471104,7.6235328036,47
75511,156492,164594,5.8289158536,-1.6618152957,7.6761749007999995,48
75326,156804,164705,5.9617175078999995,-1.7563317884,7.6654071991,49
74846,156858,164738,5.942574927099999,-1.6941184008,7.622336392299999,50
74434,156762,164713,5.9724852096,-1.6486547714,7.561319416,51
74238,156716,164691,6.0526447667,-1.842473402,7.637889739199999,52
74141,156671,164704,5.9904313791,-1.722832272,7.5996045776,53
74153,156647,164691,6.034698597199999,-1.7371892076000002,7.5338019561000005,54
74226,156646,164697,6.0430734763,-1.7276179172000001,7.570890706399999,55
74374,156630,164692,6.0287165407000005,-1.579262916,7.6414789731,56
74500,156647,164672,5.9724852096,-1.5385849318,7.679764134699999,57
74615,156642,164677,6.0430734763,-1.6414763036,7.6845497799,58
74672,156663,164708,5.9054861768,-1.5996019081000001,7.5661050612,59
74771,156666,164698,5.9724852096,-1.6139588437,7.6414789731,60
74927,156634,164674,6.0011990808,-1.6941184008,7.6175507471,61
75025,156626,164668,6.0275201294,-1.6558332392,7.6474610296,62
75146,156607,164698,6.0239308954999995,-1.6881363443,7.633104094,63
75279,156573,164666,5.873183071700001,-1.722832272,7.5625158273,64
75427,156546,164672,6.1100725091,-1.8604195715,7.6031938115,65
75513,156543,164642,5.9820565,-1.722832272,7.6139615132000005,66
75690,156507,164648,5.8528440796,-1.6462619487999999,7.6809605460000006,67
75825,156564,164621,5.9198431124,-1.7371892076000002,7.561319416,68
75961,156502,164625,6.0203416616,-1.7862420709,7.5888368759,69
76094,156461,164588,6.0191452503,-1.6749758199999998,7.5696942951,70
76218,156457,164572,5.938985693199999,-1.5996019081000001,7.542176835199999,71
76347,156442,164622,5.871986660399999,-1.6271193679999998,7.6187471584,72
76466,156418,164566,5.9150574672000005,-1.6701901747999999,7.5673014725,73
76479,156554,164620,5.9294144028,-1.7132609816000002,7.5900332872,74
76199,156852,164757,5.8767723056,-1.5948162629,7.6271220375,75
75758,156906,164784,6.0526447667,-1.7790636031,7.5936225210999995,76
75432,156787,164790,6.025127306799999,-1.6342978358,7.6079794567,77
75241,156717,164734,6.1005012187,-1.8029918290999998,7.5900332872,78
75163,156735,164749,5.8157553293,-1.6414763036,7.556533770800001,79
75150,156707,164757,5.8815579507999995,-1.6809578765,7.65703232,80
75231,156673,164715,5.967699564399999,-1.8221344098999999,7.5230342544,81
75352,156672,164714,5.9198431124,-1.6319050132,7.5756763516,82
75430,156652,164707,5.9294144028,-1.7742779578999999,7.6366933279,83
75470,156688,164735,6.009573959900001,-1.6893327556000002,7.5625158273,84
75571,156674,164671,5.8636117813,-1.7371892076000002,7.6139615132000005,85
75660,156674,164706,6.0765729927,-1.7036896912000001,7.612765101899999,86
75689,156650,164711,5.9150574672000005,-1.6797614652,7.6426753844,87
75835,156607,164699,5.9712887983,-1.7324035624,7.5864440533,88
75928,156592,164677,5.8827543621,-1.7563317884,7.6618179652,89
76037,156524,164672,5.9772708547999995,-1.6558332392,7.570890706399999,90
76149,156575,164660,6.025127306799999,-1.6618152957,7.6139615132000005,91
76256,156524,164669,5.967699564399999,-1.7611174336,7.6366933279,92
76349,156466,164628,5.8097732728,-1.7742779578999999,7.543373246500001,93
76463,156465,164586,5.958128274,-1.6654045296,7.6139615132000005,94
76576,156426,164592,5.8827543621,-1.6606188843999998,7.5469624804,95
76669,156394,164595,5.9042897655,-1.6235301341000001,7.6462646183,96
76774,156355,164541,6.0873406944,-1.7036896912000001,7.7563344578999995,97
76872,156321,164556,5.886343596000001,-1.7515461432000001,7.6606215538999995,98
76959,156318,164545,5.8923256525,-1.7611174336,7.447660342499999,99
77050,156285,164538,6.009573959900001,-1.6426727149,7.5242306657,100
77062,156383,164558,5.9569318627,-1.6043875533,7.6989067155,101
76842,156709,164704,5.967699564399999,-1.6713865861,7.53739119,102
76433,156813,164753,5.745167062599999,-1.7048861025,7.6079794567,103
75965,156762,164733,5.9246287576,-1.6893327556000002,7.5804619967999995,104
75687,156675,164732,5.958128274,-1.746760498,7.6283184488,105
75585,156627,164718,5.8827543621,-1.7670994901,7.7036923607,106
75528,156597,164687,5.9820565,-1.5900306177,7.561319416,107
75501,156552,164666,6.0287165407000005,-1.7551353771,7.5900332872,108
75622,156537,164688,5.9533426288,-1.6701901747999999,7.633104094,109
75653,156528,164674,5.7643096434,-1.6235301341000001,7.5756763516,110
75682,156552,164668,6.025127306799999,-1.6283157793,7.5984081663000005,111
75694,156533,164635,6.0191452503,-1.6414763036,7.6462646183,112
75735,156547,164639,5.900700531599999,-1.6175480776,7.6606215538999995,113
75759,156506,164665,6.025127306799999,-1.7419748528,7.5756763516,114
75830,156483,164655,6.005984725999999,-1.6929219895,7.561319416,115
75920,156471,164610,5.8911292412,-1.6749758199999998,7.622336392299999,116
75983,156446,164646,5.934200048,-1.7371892076000002,7.7036923607,117
76071,156459,164598,5.858826136099999,-1.7407784414999998,7.6235328036,118
76159,156464,164610,6.0203416616,-1.7276179172000001,7.5900332872,119
76240,156396,164596,5.9665031531,-1.7611174336,7.556533770800001,120
76329,156414,164574,5.9916277904,-1.6701901747999999,7.6091758679999995,121
76420,156381,164562,5.9748780322,-1.6378870697,7.542176835199999,122
76515,156377,164574,5.9724852096,-1.7036896912000001,7.6809605460000006,123
76626,156355,164564,5.938985693199999,-1.7599210223,7.6893354250999995,124
76697,156363,164544,5.8971112976999995,-1.6618152957,7.637889739199999,125
76680,156351,164534,6.0478591215,-1.6881363443,7.6175507471,126
76566,156681,164679,5.9772708547999995,-1.6378870697,7.5278198996,127
76066,156851,164750,6.0478591215,-1.5852449725,7.637889739199999,128
75523,156837,164759,6.1160545656,-1.79461695,7.6522466748,129
75175,156738,164748,5.8636117813,-1.6331014245,7.692924659,130
74991,156672,164706,6.113661743,-1.5852449725,7.5996045776,131
74851,156685,164682,5.996413435599999,-1.7371892076000002,7.5326055448,132
74855,156624,164691,5.8971112976999995,-1.6941184008,7.637889739199999,133
74919,156606,164687,5.9473605723,-1.6043875533,7.6713892556,134
74984,156499,164688,6.0107703712000005,-1.7001004573,7.5756763516,135
75006,156624,164666,6.009573959900001,-1.6953148121,7.5948189324,136
75009,156623,164698,6.053841177999999,-1.8161523534,7.6558359087,137
75061,156633,164679,5.8923256525,-1.7036896912000001,7.542176835199999,138
75094,156604,164682,5.9102718219999995,-1.7371892076000002,7.5996045776,139
75050,156594,164675,5.9533426288,-1.6175480776,7.6091758679999995,140
75209,156583,164678,5.9772708547999995,-1.7180466268,7.6366933279,141
75289,156562,164644,5.9198431124,-1.722832272,7.5900332872,142
75399,156502,164663,5.9533426288,-1.8699908619,7.5326055448,143
75478,156508,164632,5.9377892819,-1.6235301341000001,7.585247642000001,144
75596,156500,164618,5.9377892819,-1.6235301341000001,7.585247642000001,145
75696,156438,164613,5.9377892819,-1.6235301341000001,7.585247642000001,146
75793,156423,164613,5.9377892819,-1.6235301341000001,7.585247642000001,147
75898,156420,164564,5.9377892819,-1.6235301341000001,7.585247642000001,148
75994,156380,164585,5.9377892819,-1.6235301341000001,7.585247642000001,149
76105,156377,164576,5.9377892819,-1.6235301341000001,7.585247642000001,150
76163,156401,164569,5.9377892819,-1.6235301341000001,7.585247642000001,151
75969,156671,164685,5.9377892819,-1.6235301341000001,7.585247642000001,152
75400,156881,164765,5.9377892819,-1.6235301341000001,7.585247642000001,153
74800,156846,164753,5.9377892819,-1.6235301341000001,7.585247642000001,154
74409,156775,164736,5.9377892819,-1.6235301341000001,7.585247642000001,155
74160,156745,164721,5.9377892819,-1.6235301341000001,7.585247642000001,156
74025,156674,164715,5.9377892819,-1.6235301341000001,7.585247642000001,157
74011,156633,164726,5.9377892819,-1.6235301341000001,7.585247642000001,158
74088,156613,164710,5.9377892819,-1.6235301341000001,7.585247642000001,159
74164,156618,164707,5.838487144,-1.5996019081000001,7.6091758679999995,160
74239,156660,164717,5.838487144,-1.5996019081000001,7.6091758679999995,161
74241,156635,164708,5.838487144,-1.5996019081000001,7.6091758679999995,162
74299,156637,164690,5.9054861768,-1.770688724,7.6713892556,163
74361,156606,164707,6.0813586379,-1.6941184008,7.5230342544,164
74427,156566,164687,5.9916277904,-1.7084753364,7.651050263499999,165
74508,156579,164688,5.9808600887,-1.6462619487999999,7.6426753844,166
74617,156545,164681,6.009573959900001,-1.6522440053,7.5888368759,167
74701,156526,164671,6.0107703712000005,-1.698904046,7.5134629639999995,168
74833,156521,164686,5.8576297248,-1.6091731985,7.5385876013,169
74936,156485,164658,5.9760744435,-1.6594224731,7.5756763516,170
75067,156502,164660,6.0107703712000005,-1.7419748528,7.6654071991,171
75178,156469,164619,5.9868421452,-1.7479569093,7.6522466748,172
75302,156421,164635,5.9760744435,-1.6618152957,7.5948189324,173
75403,156441,164582,5.8971112976999995,-1.6366906583999998,7.6139615132000005,174
75533,156411,164573,6.0047883147,-1.8364913454999998,7.6893354250999995,175
75586,156405,164582,5.8767723056,-1.6749758199999998,7.65703232,176
75473,156627,164679,5.9988062582,-1.7001004573,7.5661050612,177
74938,156849,164763,6.051448355400001,-1.6462619487999999,7.5409804239,178
74310,156812,164775,5.9988062582,-1.7084753364,7.6139615132000005,179
73888,156736,164734,5.9820565,-1.6941184008,7.5756763516,180
73662,156682,164714,6.0287165407000005,-1.5385849318,7.6474610296,181
73516,156638,164721,5.9868421452,-1.7335999736999999,7.6606215538999995,182
73493,156612,164704,5.8779687169,-1.8269200550999998,7.5661050612,183
73582,156563,164693,5.9485569836,-1.4991033588999998,7.6043902228,184
73605,156534,164712,6.0335021859,-1.6414763036,7.5900332872,185
73738,156578,164685,6.0490555328,-1.5565311013,7.556533770800001,186
73770,156580,164680,5.844469200500001,-1.8795621523000001,7.585247642000001,187
73836,156575,164677,6.0622160571,-1.7419748528,7.542176835199999,188
73890,156535,164679,5.9748780322,-1.722832272,7.542176835199999,189
73966,156507,164669,5.967699564399999,-1.7994025952000001,7.7276205867,190
74076,156481,164669,6.0155560164,-1.6654045296,7.5900332872,191
74176,156451,164633,5.8552369022,-1.6319050132,7.6319076827,192
74286,156456,164649,5.9485569836,-1.7036896912000001,7.6283184488,193
74399,156432,164631,5.9018969429000006,-1.6618152957,7.666603610399999,194
74516,156414,164652,5.958128274,-1.7324035624,7.6139615132000005,195
74639,156364,164609,6.0335021859,-1.6618152957,7.6749784895,196
74761,156385,164621,5.9330036367,-1.6378870697,7.5900332872,197
74888,156317,164600,5.9246287576,-1.6223337227999999,7.5385876013,198
75016,156322,164580,5.9916277904,-1.6809578765,7.6522466748,199
75123,156326,164548,6.0825550492,-1.6845471104,7.5756763516,200
75185,156303,164577,5.8959148864,-1.7012968686,7.7036923607,201
74943,156578,164698,5.9868421452,-1.6474583601,7.633104094,202
74329,156689,164722,5.9018969429000006,-1.7850456596,7.6187471584,203
73766,156663,164739,5.9353964593,-1.7288143285,7.5326055448,204
73468,156558,164722,5.9760744435,-1.7180466268,7.561319416,205
73263,156483,164684,5.9162538785,-1.7084753364,7.570890706399999,206
73117,156472,164684,5.9330036367,-1.6905291669,7.6474610296,207
73212,156461,164650,5.9808600887,-1.6929219895,7.6606215538999995,208
73334,156391,164657,6.005984725999999,-1.5708880369,7.6701928443,209
73398,156413,164664,5.8875400073,-1.7575281996999998,7.6283184488,210
73434,156438,164633,5.9210395237,-1.6941184008,7.612765101899999,211
73467,156399,164632,6.0526447667,-1.7324035624,7.6043902228,212
73536,156430,164633,5.9533426288,-1.5960126741999998,7.5278198996,213
73587,156380,164639,5.838487144,-1.5948162629,7.5900332872,214
73663,156355,164645,5.9377892819,-1.5613167465000002,7.6618179652,215
73785,156369,164627,5.9712887983,-1.6319050132,7.651050263499999,216
73879,156340,164624,5.9617175078999995,-1.7982061838999999,7.6175507471,217
73992,156357,164610,6.0155560164,-1.6905291669,7.6654071991,218
74119,156264,164622,5.9485569836,-1.7276179172000001,7.5756763516,219
74235,156309,164600,5.9485569836,-1.7324035624,7.6091758679999995,220
74358,156297,164579,5.9054861768,-1.7276179172000001,7.556533770800001,221
74481,156286,164588,5.900700531599999,-1.6845471104,7.6271220375,222
74598,156304,164593,5.9090754107,-1.6366906583999998,7.5756763516,223
74712,156326,164571,6.029912952,-1.7934205387,7.7036923607,224
74697,156399,164593,5.8899328299,-1.6833506991,7.6905318364,225
74250,156641,164722,5.9856457339,-1.6749758199999998,7.6941210703,226
73613,156683,164750,5.8360943214,-1.7132609816000002,7.6845497799,227
73128,156598,164718,5.942574927099999,-1.7515461432000001,7.6474610296,228
72885,156531,164692,5.9641103305,-1.6809578765,7.6414789731,229
72664,156503,164670,5.9820565,-1.6235301341000001,7.6654071991,230
72695,156480,164688,5.8971112976999995,-1.7455640867,7.6749784895,231
72795,156470,164704,6.1124653317,-1.8317057003,7.5326055448,232
72936,156480,164687,6.1124653317,-1.8317057003,7.5326055448,233
73018,156491,164706,6.1124653317,-1.8317057003,7.5326055448,234
73070,156516,164699,6.1124653317,-1.8317057003,7.5326055448,235
73134,156517,164706,6.1124653317,-1.8317057003,7.5326055448,236
73232,156519,164682,6.1124653317,-1.8317057003,7.5326055448,237
73330,156492,164673,6.1124653317,-1.8317057003,7.5326055448,238
73439,156501,164685,6.1124653317,-1.8317057003,7.5326055448,239
73582,156503,164676,6.1124653317,-1.8317057003,7.5326055448,240
73718,156494,164675,6.1124653317,-1.8317057003,7.5326055448,241
73864,156473,164679,6.1124653317,-1.8317057003,7.5326055448,242
74018,156478,164637,6.1124653317,-1.8317057003,7.5326055448,243
74154,156447,164705,6.1124653317,-1.8317057003,7.5326055448,244
74304,156463,164666,6.1124653317,-1.8317057003,7.5326055448,245
74459,156451,164660,6.1124653317,-1.8317057003,7.5326055448,246
74586,156449,164648,6.1124653317,-1.8317057003,7.5326055448,247
74727,156439,164643,6.1124653317,-1.8317057003,7.5326055448,248
74761,156510,164678,6.1124653317,-1.8317057003,7.5326055448,249
74408,156760,164757,6.1124653317,-1.8317057003,7.5326055448,250
73780,156802,164795,6.1124653317,-1.8317057003,7.5326055448,251
73286,156706,164755,6.1124653317,-1.8317057003,7.5326055448,252
72947,156604,164778,6.1124653317,-1.8317057003,7.5326055448,253
72773,156572,164745,6.1124653317,-1.8317057003,7.5326055448,254
72711,156559,164714,6.1124653317,-1.8317057003,7.5326055448,255
72781,156535,164765,6.1124653317,-1.8317057003,7.5326055448,256
72940,156551,164711,6.1124653317,-1.8317057003,7.5326055448,257
73073,156585,164732,6.1124653317,-1.8317057003,7.5326055448,258
73183,156590,164729,6.1124653317,-1.8317057003,7.5326055448,259
73273,156583,164734,6.1124653317,-1.8317057003,7.5326055448,260
73364,156597,164708,6.1124653317,-1.8317057003,7.5326055448,261
73477,156607,164752,6.1124653317,-1.8317057003,7.5326055448,262
73612,156569,164742,6.1124653317,-1.8317057003,7.5326055448,263
73747,156577,164738,6.1124653317,-1.8317057003,7.5326055448,264
73916,156565,164722,6.1124653317,-1.8317057003,7.5326055448,265
74080,156574,164706,6.1124653317,-1.8317057003,7.5326055448,266
74254,156579,164721,6.1124653317,-1.8317057003,7.5326055448,267
74420,156584,164731,6.1124653317,-1.8317057003,7.5326055448,268
74579,156580,164710,5.934200048,-1.6618152957,7.6187471584,269
74739,156543,164708,5.934200048,-1.6618152957,7.6187471584,270
74909,156577,164704,5.934200048,-1.6618152957,7.6187471584,271
75064,156545,164707,5.934200048,-1.6618152957,7.6187471584,272
75224,156547,164695,5.934200048,-1.6618152957,7.6187471584,273
75334,156546,164691,5.934200048,-1.6618152957,7.6187471584,274
75170,156776,164790,5.934200048,-1.6618152957,7.6187471584,275
74690,156879,164840,5.934200048,-1.6618152957,7.6187471584,276
74242,156802,164825,5.934200048,-1.6618152957,7.6187471584,277
73973,156709,164805,5.934200048,-1.6618152957,7.6187471584,278
73830,156648,164786,5.934200048,-1.6618152957,7.6187471584,279
73778,156632,164791,5.934200048,-1.6618152957,7.6187471584,280
73841,156630,164770,5.934200048,-1.6618152957,7.6187471584,281
73987,156610,164782,5.934200048,-1.6618152957,7.6187471584,282
74123,156636,164786,5.934200048,-1.6618152957,7.6187471584,283
74236,156666,164785,5.934200048,-1.6618152957,7.6187471584,284
74334,156668,164754,5.934200048,-1.6618152957,7.6187471584,285
74440,156676,164778,5.934200048,-1.6618152957,7.6187471584,286
74545,156617,164762,5.934200048,-1.6618152957,7.6187471584,287
74678,156636,164790,5.934200048,-1.6618152957,7.6187471584,288
74802,156631,164749,5.934200048,-1.6618152957,7.6187471584,289
74965,156606,164773,5.934200048,-1.6618152957,7.6187471584,290
75104,156593,164740,5.934200048,-1.6618152957,7.6187471584,291
75267,156587,164732,5.934200048,-1.6618152957,7.6187471584,292
75393,156580,164724,5.934200048,-1.6618152957,7.6187471584,293
75554,156543,164696,5.934200048,-1.6618152957,7.6187471584,294
75682,156530,164719,5.934200048,-1.6618152957,7.6187471584,295
75819,156536,164702,5.934200048,-1.6618152957,7.6187471584,296
75959,156510,164723,5.934200048,-1.6618152957,7.6187471584,297
76081,156514,164712,5.934200048,-1.6618152957,7.6187471584,298
76218,156495,164717,5.934200048,-1.6618152957,7.6187471584,299
76314,156492,164713,5.934200048,-1.6618152957,7.6187471584,300
76194,156716,164811,5.934200048,-1.6618152957,7.6187471584,301
75775,156836,164842,5.934200048,-1.6618152957,7.6187471584,302
75374,156762,164852,5.934200048,-1.6618152957,7.6187471584,303
75110,156687,164810,5.934200048,-1.6618152957,7.6187471584,304
74969,156643,164799,5.934200048,-1.6618152957,7.6187471584,305
74906,156602,164768,5.934200048,-1.6618152957,7.6187471584,306
74941,156586,164767,5.934200048,-1.6618152957,7.6187471584,307
75036,156565,164766,5.934200048,-1.6618152957,7.6187471584,308
75140,156542,164747,5.934200048,-1.6618152957,7.6187471584,309
75202,156601,164780,5.934200048,-1.6618152957,7.6187471584,310
75241,156483,164685,6.0622160571,-1.770688724,7.6091758679999995,311
75365,156470,164702,6.0622160571,-1.770688724,7.6091758679999995,312
75492,156433,164702,6.0622160571,-1.770688724,7.6091758679999995,313
75600,156412,164701,6.0622160571,-1.770688724,7.6091758679999995,314
75704,156395,164670,6.0622160571,-1.770688724,7.6091758679999995,315
75836,156386,164617,6.0622160571,-1.770688724,7.6091758679999995,316
75930,156377,164648,6.0622160571,-1.770688724,7.6091758679999995,317
76038,156336,164617,6.0622160571,-1.770688724,7.6091758679999995,318
75977,156519,164710,6.0622160571,-1.770688724,7.6091758679999995,319
75572,156837,164790,6.0622160571,-1.770688724,7.6091758679999995,320
74945,156850,164829,6.0622160571,-1.770688724,7.6091758679999995,321
74516,156757,164812,6.0622160571,-1.770688724,7.6091758679999995,322
74241,156673,164825,6.0622160571,-1.770688724,7.6091758679999995,323
74101,156620,164816,6.0622160571,-1.770688724,7.6091758679999995,324
74049,156602,164782,6.0622160571,-1.770688724,7.6091758679999995,325
74123,156572,164753,6.0622160571,-1.770688724,7.6091758679999995,326
74217,156565,164736,6.0622160571,-1.770688724,7.6091758679999995,327
74290,156542,164746,6.0622160571,-1.770688724,7.6091758679999995,328
74357,156583,164746,6.0622160571,-1.770688724,7.6091758679999995,329
74401,156575,164756,6.0622160571,-1.770688724,7.6091758679999995,330
74449,156534,164730,6.0622160571,-1.770688724,7.6091758679999995,331
74533,156525,164745,6.0622160571,-1.770688724,7.6091758679999995,332
74625,156517,164709,6.0622160571,-1.770688724,7.6091758679999995,333
74720,156478,164749,6.0622160571,-1.770688724,7.6091758679999995,334
74823,156497,164684,6.0622160571,-1.770688724,7.6091758679999995,335
74961,156433,164683,6.0622160571,-1.770688724,7.6091758679999995,336
75077,156420,164658,6.0622160571,-1.770688724,7.6091758679999995,337
75197,156374,164643,6.0622160571,-1.770688724,7.6091758679999995,338
75328,156358,164625,6.0622160571,-1.770688724,7.6091758679999995,339
75438,156327,164620,6.0622160571,-1.770688724,7.6091758679999995,340
75545,156310,164596,6.0622160571,-1.770688724,7.6091758679999995,341
75676,156284,164591,6.0622160571,-1.770688724,7.6091758679999995,342
75783,156275,164608,6.0622160571,-1.770688724,7.6091758679999995,343
75889,156229,164619,6.0622160571,-1.770688724,7.6091758679999995,344
75976,156201,164599,6.0622160571,-1.770688724,7.6091758679999995,345
75957,156394,164658,6.0622160571,-1.770688724,7.6091758679999995,346
75585,156722,164767,6.0622160571,-1.770688724,7.6091758679999995,347
74985,156775,164795,6.0622160571,-1.770688724,7.6091758679999995,348
74538,156689,164792,6.0622160571,-1.770688724,7.6091758679999995,349
74269,156607,164745,6.0622160571,-1.770688724,7.6091758679999995,350
74095,156520,164716,6.0622160571,-1.770688724,7.6091758679999995,351
74037,156494,164713,6.0622160571,-1.770688724,7.6091758679999995,352
74714,156797,164834,5.9856457339,-1.7659030788,7.6905318364,353
74309,156702,164770,5.9856457339,-1.7659030788,7.6905318364,354
74088,156616,164753,5.9856457339,-1.7659030788,7.6905318364,355
73957,156588,164755,5.9856457339,-1.7659030788,7.6905318364,356
73936,156535,164699,5.9856457339,-1.7659030788,7.6905318364,357
74030,156487,164713,5.9856457339,-1.7659030788,7.6905318364,358
74131,156517,164738,5.9856457339,-1.7659030788,7.6905318364,359
74211,156529,164709,5.9856457339,-1.7659030788,7.6905318364,360
74243,156509,164712,5.9856457339,-1.7659030788,7.6905318364,361
74289,156443,164691,5.9856457339,-1.7659030788,7.6905318364,362
74338,156373,164655,5.9856457339,-1.7659030788,7.6905318364,363
74391,156364,164629,5.9856457339,-1.7659030788,7.6905318364,364
74493,156319,164626,5.9856457339,-1.7659030788,7.6905318364,365
74579,156261,164631,5.9856457339,-1.7659030788,7.6905318364,366
74670,156183,164591,5.9856457339,-1.7659030788,7.6905318364,367
74774,156167,164566,5.9856457339,-1.7659030788,7.6905318364,368
74896,156127,164587,5.9856457339,-1.7659030788,7.6905318364,369
75006,156103,164528,5.9856457339,-1.7659030788,7.6905318364,370
75132,156068,164503,5.9856457339,-1.7659030788,7.6905318364,371
75258,156050,164509,5.9856457339,-1.7659030788,7.6905318364,372
75392,156055,164505,5.9856457339,-1.7659030788,7.6905318364,373
75522,156014,164500,5.9856457339,-1.7659030788,7.6905318364,374
75635,155998,164474,5.9856457339,-1.7659030788,7.6905318364,375
75757,155985,164516,5.9856457339,-1.7659030788,7.6905318364,376
75766,156097,164521,5.9856457339,-1.7659030788,7.6905318364,377
75495,156458,164673,5.9856457339,-1.7659030788,7.6905318364,378
74908,156649,164724,5.9856457339,-1.7659030788,7.6905318364,379
74395,156608,164715,5.9856457339,-1.7659030788,7.6905318364,380
74081,156527,164709,5.9856457339,-1.7659030788,7.6905318364,381
73906,156465,164691,5.9856457339,-1.7659030788,7.6905318364,382
73836,156444,164658,5.9856457339,-1.7659030788,7.6905318364,383
73877,156401,164641,5.9856457339,-1.7659030788,7.6905318364,384
73955,156359,164650,5.9856457339,-1.7659030788,7.6905318364,385
74049,156372,164667,5.9856457339,-1.7659030788,7.6905318364,386
74097,156378,164662,5.9856457339,-1.7659030788,7.6905318364,387
74125,156402,164648,5.9856457339,-1.7659030788,7.6905318364,388
74188,156369,164618,5.9856457339,-1.7659030788,7.6905318364,389
74248,156354,164629,5.9856457339,-1.7659030788,7.6905318364,390
74321,156341,164623,5.9856457339,-1.7659030788,7.6905318364,391
74427,156320,164620,5.9856457339,-1.7659030788,7.6905318364,392
74533,156305,164598,5.9856457339,-1.7659030788,7.6905318364,393
74641,156239,164605,5.9856457339,-1.7659030788,7.6905318364,394
73987,156672,164673,6.0442698876,-1.7371892076000002,7.5864440533,395
74108,156657,164667,6.0442698876,-1.7371892076000002,7.5864440533,396
74229,156622,164674,6.0442698876,-1.7371892076000002,7.5864440533,397
74373,156625,164646,6.0442698876,-1.7371892076000002,7.5864440533,398
74501,156577,164623,6.0442698876,-1.7371892076000002,7.5864440533,399
74639,156529,164590,6.0442698876,-1.7371892076000002,7.5864440533,400
74787,156499,164598,6.0442698876,-1.7371892076000002,7.5864440533,401
74944,156504,164581,6.0442698876,-1.7371892076000002,7.5864440533,402
75097,156470,164602,6.0442698876,-1.7371892076000002,7.5864440533,403
75221,156455,164566,6.0442698876,-1.7371892076000002,7.5864440533,404
75383,156423,164584,6.0442698876,-1.7371892076000002,7.5864440533,405
75498,156469,164575,6.0442698876,-1.7371892076000002,7.5864440533,406
75401,156842,164701,6.0442698876,-1.7371892076000002,7.5864440533,407
74920,157220,164870,6.0442698876,-1.7371892076000002,7.5864440533,408
74418,157317,164874,6.0442698876,-1.7371892076000002,7.5864440533,409
74139,157289,164859,6.0442698876,-1.7371892076000002,7.5864440533,410
74012,157233,164855,6.0442698876,-1.7371892076000002,7.5864440533,411
73991,157182,164820,6.0442698876,-1.7371892076000002,7.5864440533,412
74078,157088,164791,6.0442698876,-1.7371892076000002,7.5864440533,413
74221,157024,164786,6.0442698876,-1.7371892076000002,7.5864440533,414
74388,156970,164757,6.0442698876,-1.7371892076000002,7.5864440533,415
74480,157000,164744,6.0442698876,-1.7371892076000002,7.5864440533,416
74587,157032,164803,6.0442698876,-1.7371892076000002,7.5864440533,417
74704,157026,164776,6.0442698876,-1.7371892076000002,7.5864440533,418
74821,157018,164752,6.0442698876,-1.7371892076000002,7.5864440533,419
74966,157002,164751,6.0442698876,-1.7371892076000002,7.5864440533,420
75098,156983,164731,6.0442698876,-1.7371892076000002,7.5864440533,421
75245,156969,164742,6.0442698876,-1.7371892076000002,7.5864440533,422
75390,156908,164728,6.0442698876,-1.7371892076000002,7.5864440533,423
75545,156896,164723,6.0442698876,-1.7371892076000002,7.5864440533,424
75719,156862,164687,6.0442698876,-1.7371892076000002,7.5864440533,425
75865,156836,164686,6.0442698876,-1.7371892076000002,7.5864440533,426
76030,156824,164641,6.0442698876,-1.7371892076000002,7.5864440533,427
76196,156800,164641,6.0442698876,-1.7371892076000002,7.5864440533,428
76341,156776,164631,6.0442698876,-1.7371892076000002,7.5864440533,429
76515,156738,164606,6.0442698876,-1.7371892076000002,7.5864440533,430
76657,156755,164596,6.0442698876,-1.7371892076000002,7.5864440533,431
76722,157046,164700,6.0442698876,-1.7371892076000002,7.5864440533,432
76527,157551,164926,6.0442698876,-1.7371892076000002,7.5864440533,433
76158,157718,165010,6.0442698876,-1.7371892076000002,7.5864440533,434
75908,157726,164970,6.0442698876,-1.7371892076000002,7.5864440533,435
75793,157655,164958,6.0442698876,-1.7371892076000002,7.5864440533,436
76026,157360,164860,5.8911292412,-1.7419748528,7.679764134699999,437
76152,157379,164876,5.8911292412,-1.7419748528,7.679764134699999,438
76269,157421,164879,5.8911292412,-1.7419748528,7.679764134699999,439
76370,157416,164846,5.8911292412,-1.7419748528,7.679764134699999,440
76460,157403,164867,5.8911292412,-1.7419748528,7.679764134699999,441
76556,157384,164842,5.8911292412,-1.7419748528,7.679764134699999,442
76681,157321,164830,5.8911292412,-1.7419748528,7.679764134699999,443
76800,157338,164795,5.8911292412,-1.7419748528,7.679764134699999,444
76923,157287,164779,5.8911292412,-1.7419748528,7.679764134699999,445
77038,157280,164787,5.8911292412,-1.7419748528,7.679764134699999,446
77160,157249,164735,5.8911292412,-1.7419748528,7.679764134699999,447
77292,157201,164725,5.8911292412,-1.7419748528,7.679764134699999,448
77416,157162,164722,5.8911292412,-1.7419748528,7.679764134699999,449
77526,157123,164702,5.8911292412,-1.7419748528,7.679764134699999,450
77648,157101,164689,5.8911292412,-1.7419748528,7.679764134699999,451
77757,157078,164664,5.8911292412,-1.7419748528,7.679764134699999,452
77883,157032,164665,5.8911292412,-1.7419748528,7.679764134699999,453
77975,157072,164670,5.8911292412,-1.7419748528,7.679764134699999,454
77964,157525,164846,5.8911292412,-1.7419748528,7.679764134699999,455
77691,157910,164974,5.8911292412,-1.7419748528,7.679764134699999,456
77396,157949,165000,5.8911292412,-1.7419748528,7.679764134699999,457
77187,157894,164994,5.8911292412,-1.7419748528,7.679764134699999,458
77058,157789,164981,5.8911292412,-1.7419748528,7.679764134699999,459
77012,157719,164946,5.8911292412,-1.7419748528,7.679764134699999,460
77012,157639,164900,5.8911292412,-1.7419748528,7.679764134699999,461
77070,157546,164919,5.8911292412,-1.7419748528,7.679764134699999,462
77131,157559,164876,5.8911292412,-1.7419748528,7.679764134699999,463
77173,157528,164876,5.8911292412,-1.7419748528,7.679764134699999,464
77209,157526,164870,5.8911292412,-1.7419748528,7.679764134699999,465
77232,157512,164861,5.8911292412,-1.7419748528,7.679764134699999,466
77252,157520,164860,5.8911292412,-1.7419748528,7.679764134699999,467
77331,157457,164837,5.8911292412,-1.7419748528,7.679764134699999,468
77384,157449,164851,5.8911292412,-1.7419748528,7.679764134699999,469
77453,157389,164794,5.8911292412,-1.7419748528,7.679764134699999,470
77517,157366,164760,5.8911292412,-1.7419748528,7.679764134699999,471
77595,157305,164746,5.8911292412,-1.7419748528,7.679764134699999,472
77650,157262,164762,5.8911292412,-1.7419748528,7.679764134699999,473
77724,157217,164717,5.8911292412,-1.7419748528,7.679764134699999,474
77804,157167,164684,5.8911292412,-1.7419748528,7.679764134699999,475
77873,157121,164688,5.8911292412,-1.7419748528,7.679764134699999,476
77965,157114,164655,5.8911292412,-1.7419748528,7.679764134699999,477
78037,157013,164639,5.8911292412,-1.7419748528,7.679764134699999,478
76488,157304,164740,5.9712887983,-1.6426727149,7.612765101899999,479
76555,157244,164747,5.9712887983,-1.6426727149,7.612765101899999,480
76630,157224,164712,5.9712887983,-1.6426727149,7.612765101899999,481
76700,157170,164685,5.9712887983,-1.6426727149,7.612765101899999,482
76752,157180,164702,5.9712887983,-1.6426727149,7.612765101899999,483
76810,157128,164695,5.9712887983,-1.6426727149,7.612765101899999,484
76904,157107,164646,5.9712887983,-1.6426727149,7.612765101899999,485
76994,157088,164654,5.9712887983,-1.6426727149,7.612765101899999,486
77019,157100,164637,5.9712887983,-1.6426727149,7.612765101899999,487
76850,157454,164794,5.9712887983,-1.6426727149,7.612765101899999,488
76252,157729,164914,5.9712887983,-1.6426727149,7.612765101899999,489
75639,157744,164920,5.9712887983,-1.6426727149,7.612765101899999,490
75224,157648,164920,5.9712887983,-1.6426727149,7.612765101899999,491
74975,157560,164849,5.9712887983,-1.6426727149,7.612765101899999,492
74866,157507,164858,5.9712887983,-1.6426727149,7.612765101899999,493
74831,157464,164823,5.9712887983,-1.6426727149,7.612765101899999,494
74862,157411,164789,5.9712887983,-1.6426727149,7.612765101899999,495
74930,157403,164819,5.9712887983,-1.6426727149,7.612765101899999,496
74961,157432,164814,5.9712887983,-1.6426727149,7.612765101899999,497
74981,157430,164798,5.9712887983,-1.6426727149,7.612765101899999,498
74991,157415,164782,5.9712887983,-1.6426727149,7.612765101899999,499
75047,157401,164784,5.9712887983,-1.6426727149,7.612765101899999,500
75091,157376,164800,5.9712887983,-1.6426727149,7.612765101899999,501
75168,157362,164780,5.9712887983,-1.6426727149,7.612765101899999,502
75256,157339,164769,5.9712887983,-1.6426727149,7.612765101899999,503
75358,157301,164778,5.9712887983,-1.6426727149,7.612765101899999,504
75438,157269,164757,5.9712887983,-1.6426727149,7.612765101899999,505
75537,157226,164738,5.9712887983,-1.6426727149,7.612765101899999,506
75662,157194,164732,5.9712887983,-1.6426727149,7.612765101899999,507
75748,157153,164721,5.9712887983,-1.6426727149,7.612765101899999,508
75859,157148,164715,5.9712887983,-1.6426727149,7.612765101899999,509
75959,157116,164678,5.9712887983,-1.6426727149,7.612765101899999,510
76063,157084,164693,5.9712887983,-1.6426727149,7.612765101899999,511
76019,157275,164744,5.9712887983,-1.6426727149,7.612765101899999,512
75570,157640,164917,5.9712887983,-1.6426727149,7.612765101899999,513
74867,157697,164930,5.9712887983,-1.6426727149,7.612765101899999,514
74326,157647,164908,5.9712887983,-1.6426727149,7.612765101899999,515
74037,157522,164932,5.9712887983,-1.6426727149,7.612765101899999,516
73855,157454,164895,5.9712887983,-1.6426727149,7.612765101899999,517
73822,157412,164850,5.9712887983,-1.6426727149,7.612765101899999,518
73868,157371,164846,5.9712887983,-1.6426727149,7.612765101899999,519
73995,157344,164831,5.9712887983,-1.6426727149,7.612765101899999,520
74863,156732,164735,5.9485569836,-1.6175480776,7.6235328036,521
75001,156716,164657,5.9485569836,-1.6175480776,7.6235328036,522
75116,156707,164716,5.9485569836,-1.6175480776,7.6235328036,523
75258,156679,164710,5.9485569836,-1.6175480776,7.6235328036,524
75373,156683,164688,5.9485569836,-1.6175480776,7.6235328036,525
75371,156840,164739,5.9485569836,-1.6175480776,7.6235328036,526
74963,157112,164850,5.9485569836,-1.6175480776,7.6235328036,527
74369,157146,164844,5.9485569836,-1.6175480776,7.6235328036,528
73938,157030,164864,5.9485569836,-1.6175480776,7.6235328036,529
73683,156969,164826,5.9485569836,-1.6175480776,7.6235328036,530
73585,156922,164807,5.9485569836,-1.6175480776,7.6235328036,531
73533,156902,164775,5.9485569836,-1.6175480776,7.6235328036,532
73653,156858,164763,5.9485569836,-1.6175480776,7.6235328036,533
73786,156832,164779,5.9485569836,-1.6175480776,7.6235328036,534
73887,156873,164765,5.9485569836,-1.6175480776,7.6235328036,535
73961,156879,164777,5.9485569836,-1.6175480776,7.6235328036,536
74015,156878,164792,5.9485569836,-1.6175480776,7.6235328036,537
74092,156862,164804,5.9485569836,-1.6175480776,7.6235328036,538
74200,156833,164783,5.9485569836,-1.6175480776,7.6235328036,539
74302,156839,164769,5.9485569836,-1.6175480776,7.6235328036,540
74418,156818,164770,5.9485569836,-1.6175480776,7.6235328036,541
74559,156799,164764,5.9485569836,-1.6175480776,7.6235328036,542
74695,156762,164747,5.9485569836,-1.6175480776,7.6235328036,543
74834,156748,164736,5.9485569836,-1.6175480776,7.6235328036,544
74974,156729,164713,5.9485569836,-1.6175480776,7.6235328036,545
75120,156697,164715,5.9485569836,-1.6175480776,7.6235328036,546
75254,156669,164695,5.9485569836,-1.6175480776,7.6235328036,547
75399,156663,164693,5.9485569836,-1.6175480776,7.6235328036,548
75527,156628,164684,5.9485569836,-1.6175480776,7.6235328036,549
75648,156632,164668,5.9485569836,-1.6175480776,7.6235328036,550
75614,156872,164747,5.9485569836,-1.6175480776,7.6235328036,551
75210,157109,164837,5.9485569836,-1.6175480776,7.6235328036,552
74676,157103,164868,5.9485569836,-1.6175480776,7.6235328036,553
74320,156994,164839,5.9485569836,-1.6175480776,7.6235328036,554
74116,156932,164808,5.9485569836,-1.6175480776,7.6235328036,555
74015,156870,164766,5.9485569836,-1.6175480776,7.6235328036,556
74036,156843,164797,5.9485569836,-1.6175480776,7.6235328036,557
74144,156803,164776,5.9485569836,-1.6175480776,7.6235328036,558
74272,156751,164743,5.9485569836,-1.6175480776,7.6235328036,559
74397,156801,164769,5.9485569836,-1.6175480776,7.6235328036,560
74488,156842,164779,5.9485569836,-1.6175480776,7.6235328036,561
74559,156821,164785,5.9485569836,-1.6175480776,7.6235328036,562
74209,156458,164549,5.996413435599999,-1.746760498,7.556533770800001,563
74273,156399,164514,5.996413435599999,-1.746760498,7.556533770800001,564
74352,156379,164557,5.996413435599999,-1.746760498,7.556533770800001,565
74439,156400,164528,5.996413435599999,-1.746760498,7.556533770800001,566
74484,156427,164522,5.996413435599999,-1.746760498,7.556533770800001,567
74503,156385,164535,5.996413435599999,-1.746760498,7.556533770800001,568
74539,156374,164515,5.996413435599999,-1.746760498,7.556533770800001,569
74594,156345,164463,5.996413435599999,-1.746760498,7.556533770800001,570
74687,156298,164491,5.996413435599999,-1.746760498,7.556533770800001,571
74766,156283,164449,5.996413435599999,-1.746760498,7.556533770800001,572
74867,156250,164451,5.996413435599999,-1.746760498,7.556533770800001,573
74954,156203,164455,5.996413435599999,-1.746760498,7.556533770800001,574
75074,156187,164431,5.996413435599999,-1.746760498,7.556533770800001,575
75184,156118,164415,5.996413435599999,-1.746760498,7.556533770800001,576
75277,156083,164390,5.996413435599999,-1.746760498,7.556533770800001,577
75397,156051,164364,5.996413435599999,-1.746760498,7.556533770800001,578
75507,156021,164332,5.996413435599999,-1.746760498,7.556533770800001,579
75604,155970,164345,5.996413435599999,-1.746760498,7.556533770800001,580
75661,155961,164323,5.996413435599999,-1.746760498,7.556533770800001,581
75523,156267,164397,5.996413435599999,-1.746760498,7.556533770800001,582
74977,156449,164505,5.996413435599999,-1.746760498,7.556533770800001,583
74379,156394,164508,5.996413435599999,-1.746760498,7.556533770800001,584
74021,156313,164471,5.996413435599999,-1.746760498,7.556533770800001,585
73833,156261,164447,5.996413435599999,-1.746760498,7.556533770800001,586
73734,156220,164435,5.996413435599999,-1.746760498,7.556533770800001,587
73742,156182,164407,5.996413435599999,-1.746760498,7.556533770800001,588
73841,156123,164439,5.996413435599999,-1.746760498,7.556533770800001,589
73954,156095,164367,5.996413435599999,-1.746760498,7.556533770800001,590
73996,156111,164395,5.996413435599999,-1.746760498,7.556533770800001,591
74048,156106,164358,5.996413435599999,-1.746760498,7.556533770800001,592
74080,156109,164367,5.996413435599999,-1.746760498,7.556533770800001,593
74143,156077,164383,5.996413435599999,-1.746760498,7.556533770800001,594
74213,156053,164383,5.996413435599999,-1.746760498,7.556533770800001,595
74296,156017,164353,5.996413435599999,-1.746760498,7.556533770800001,596
74408,155995,164362,5.996413435599999,-1.746760498,7.556533770800001,597
74515,155934,164333,5.996413435599999,-1.746760498,7.556533770800001,598
74612,155906,164310,5.996413435599999,-1.746760498,7.556533770800001,599
74744,155858,164277,5.996413435599999,-1.746760498,7.556533770800001,600
74854,155855,164275,5.996413435599999,-1.746760498,7.556533770800001,601
74972,155810,164255,5.996413435599999,-1.746760498,7.556533770800001,602
75080,155763,164235,5.996413435599999,-1.746760498,7.556533770800001,603
75193,155757,164219,5.996413435599999,-1.746760498,7.556533770800001,604
73009,156157,164445,5.942574927099999,-1.6187444889,7.6989067155,605
73037,156150,164427,5.942574927099999,-1.6187444889,7.6989067155,606
73147,156103,164421,5.942574927099999,-1.6187444889,7.6989067155,607
73265,156123,164444,5.942574927099999,-1.6187444889,7.6989067155,608
73362,156159,164435,5.942574927099999,-1.6187444889,7.6989067155,609
73408,156129,164442,5.942574927099999,-1.6187444889,7.6989067155,610
73469,156149,164429,5.942574927099999,-1.6187444889,7.6989067155,611
73542,156131,164414,5.942574927099999,-1.6187444889,7.6989067155,612
73643,156100,164429,5.942574927099999,-1.6187444889,7.6989067155,613
73730,156057,164406,5.942574927099999,-1.6187444889,7.6989067155,614
73854,156061,164390,5.942574927099999,-1.6187444889,7.6989067155,615
74003,156051,164419,5.942574927099999,-1.6187444889,7.6989067155,616
74115,156031,164380,5.942574927099999,-1.6187444889,7.6989067155,617
74252,156013,164361,5.942574927099999,-1.6187444889,7.6989067155,618
74379,155987,164345,5.942574927099999,-1.6187444889,7.6989067155,619
74494,155970,164335,5.942574927099999,-1.6187444889,7.6989067155,620
74616,155941,164359,5.942574927099999,-1.6187444889,7.6989067155,621
74748,155935,164312,5.942574927099999,-1.6187444889,7.6989067155,622
74854,155915,164323,5.942574927099999,-1.6187444889,7.6989067155,623
74751,156128,164403,5.942574927099999,-1.6187444889,7.6989067155,624
74205,156359,164501,5.942574927099999,-1.6187444889,7.6989067155,625
73565,156319,164496,5.942574927099999,-1.6187444889,7.6989067155,626
73128,156254,164486,5.942574927099999,-1.6187444889,7.6989067155,627
72874,156170,164469,5.942574927099999,-1.6187444889,7.6989067155,628
72752,156152,164435,5.942574927099999,-1.6187444889,7.6989067155,629
72756,156152,164455,5.942574927099999,-1.6187444889,7.6989067155,630
72857,156130,164460,5.942574927099999,-1.6187444889,7.6989067155,631
72990,156085,164438,5.942574927099999,-1.6187444889,7.6989067155,632
73078,156106,164463,5.942574927099999,-1.6187444889,7.6989067155,633
73164,156152,164466,5.942574927099999,-1.6187444889,7.6989067155,634
73209,156140,164453,5.942574927099999,-1.6187444889,7.6989067155,635
73306,156126,164474,5.942574927099999,-1.6187444889,7.6989067155,636
73407,156086,164469,5.942574927099999,-1.6187444889,7.6989067155,637
73502,156088,164423,5.942574927099999,-1.6187444889,7.6989067155,638
73637,156069,164405,5.942574927099999,-1.6187444889,7.6989067155,639
73753,156036,164429,5.942574927099999,-1.6187444889,7.6989067155,640
73894,156015,164370,5.942574927099999,-1.6187444889,7.6989067155,641
74026,155987,164389,5.942574927099999,-1.6187444889,7.6989067155,642
74169,155964,164372,5.942574927099999,-1.6187444889,7.6989067155,643
74304,155934,164388,5.942574927099999,-1.6187444889,7.6989067155,644
74440,155934,164333,5.942574927099999,-1.6187444889,7.6989067155,645
74577,155901,164327,5.942574927099999,-1.6187444889,7.6989067155,646
75274,156082,164464,5.9294144028,-1.6498511827,7.5900332872,647
75400,156069,164488,5.9294144028,-1.6498511827,7.5900332872,648
75555,156024,164451,5.9294144028,-1.6498511827,7.5900332872,649
75668,156037,164469,5.9294144028,-1.6498511827,7.5900332872,650
75810,156004,164448,5.9294144028,-1.6498511827,7.5900332872,651
75922,156003,164449,5.9294144028,-1.6498511827,7.5900332872,652
75820,156277,164553,5.9294144028,-1.6498511827,7.5900332872,653
75408,156450,164617,5.9294144028,-1.6498511827,7.5900332872,654
74999,156399,164627,5.9294144028,-1.6498511827,7.5900332872,655
74765,156335,164603,5.9294144028,-1.6498511827,7.5900332872,656
74627,156276,164575,5.9294144028,-1.6498511827,7.5900332872,657
74601,156260,164580,5.9294144028,-1.6498511827,7.5900332872,658
74674,156250,164596,5.9294144028,-1.6498511827,7.5900332872,659
74806,156212,164583,5.9294144028,-1.6498511827,7.5900332872,660
74920,156232,164552,5.9294144028,-1.6498511827,7.5900332872,661
75026,156235,164567,5.9294144028,-1.6498511827,7.5900332872,662
75095,156259,164594,5.9294144028,-1.6498511827,7.5900332872,663
75181,156260,164569,5.9294144028,-1.6498511827,7.5900332872,664
75270,156240,164578,5.9294144028,-1.6498511827,7.5900332872,665
75371,156245,164547,5.9294144028,-1.6498511827,7.5900332872,666
75476,156238,164564,5.9294144028,-1.6498511827,7.5900332872,667
75602,156199,164545,5.9294144028,-1.6498511827,7.5900332872,668
75736,156184,164535,5.9294144028,-1.6498511827,7.5900332872,669
75841,156166,164523,5.9294144028,-1.6498511827,7.5900332872,670
75965,156157,164503,5.9294144028,-1.6498511827,7.5900332872,671
76076,156124,164519,5.9294144028,-1.6498511827,7.5900332872,672
76208,156092,164513,5.9294144028,-1.6498511827,7.5900332872,673
76304,156067,164486,5.9294144028,-1.6498511827,7.5900332872,674
76423,156051,164470,5.9294144028,-1.6498511827,7.5900332872,675
76522,156023,164490,5.9294144028,-1.6498511827,7.5900332872,676
76551,156124,164507,5.9294144028,-1.6498511827,7.5900332872,677
76329,156412,164613,5.9294144028,-1.6498511827,7.5900332872,678
75884,156472,164631,5.9294144028,-1.6498511827,7.5900332872,679
75548,156385,164616,5.9294144028,-1.6498511827,7.5900332872,680
75358,156309,164600,5.9294144028,-1.6498511827,7.5900332872,681
75248,156266,164592,5.9294144028,-1.6498511827,7.5900332872,682
75241,156255,164609,5.9294144028,-1.6498511827,7.5900332872,683
75298,156243,164590,5.9294144028,-1.6498511827,7.5900332872,684
75409,156209,164562,5.9294144028,-1.6498511827,7.5900332872,685
75491,156221,164579,5.9294144028,-1.6498511827,7.5900332872,686
75540,156258,164617,5.9294144028,-1.6498511827,7.5900332872,687
75603,156252,164590,5.9294144028,-1.6498511827,7.5900332872,688
74573,156317,164660,6.034698597199999,-1.7371892076000002,7.5900332872,689
74529,156313,164630,6.034698597199999,-1.7371892076000002,7.5900332872,690
74581,156278,164585,6.034698597199999,-1.7371892076000002,7.5900332872,691
74655,156250,164615,6.034698597199999,-1.7371892076000002,7.5900332872,692
74740,156293,164607,6.034698597199999,-1.7371892076000002,7.5900332872,693
74773,156292,164639,6.034698597199999,-1.7371892076000002,7.5900332872,694
74801,156287,164614,6.034698597199999,-1.7371892076000002,7.5900332872,695
74838,156306,164635,6.034698597199999,-1.7371892076000002,7.5900332872,696
74896,156246,164579,6.034698597199999,-1.7371892076000002,7.5900332872,697
74975,156267,164598,6.034698597199999,-1.7371892076000002,7.5900332872,698
75065,156232,164574,6.034698597199999,-1.7371892076000002,7.5900332872,699
75165,156204,164602,6.034698597199999,-1.7371892076000002,7.5900332872,700
75262,156178,164572,6.034698597199999,-1.7371892076000002,7.5900332872,701
75386,156163,164577,6.034698597199999,-1.7371892076000002,7.5900332872,702
75497,156158,164541,6.034698597199999,-1.7371892076000002,7.5900332872,703
75582,156123,164511,6.034698597199999,-1.7371892076000002,7.5900332872,704
75703,156110,164499,6.034698597199999,-1.7371892076000002,7.5900332872,705
75809,156082,164504,6.034698597199999,-1.7371892076000002,7.5900332872,706
75905,156035,164503,6.034698597199999,-1.7371892076000002,7.5900332872,707
75988,156121,164484,6.034698597199999,-1.7371892076000002,7.5900332872,708
75787,156384,164625,6.034698597199999,-1.7371892076000002,7.5900332872,709
75252,156556,164657,6.034698597199999,-1.7371892076000002,7.5900332872,710
74687,156488,164711,6.034698597199999,-1.7371892076000002,7.5900332872,711
74331,156402,164662,6.034698597199999,-1.7371892076000002,7.5900332872,712
74126,156360,164636,6.034698597199999,-1.7371892076000002,7.5900332872,713
74011,156318,164657,6.034698597199999,-1.7371892076000002,7.5900332872,714
74032,156292,164650,6.034698597199999,-1.7371892076000002,7.5900332872,715
74140,156286,164636,6.034698597199999,-1.7371892076000002,7.5900332872,716
74246,156241,164603,6.034698597199999,-1.7371892076000002,7.5900332872,717
74306,156291,164621,6.034698597199999,-1.7371892076000002,7.5900332872,718
74366,156316,164630,6.034698597199999,-1.7371892076000002,7.5900332872,719
74387,156282,164630,6.034698597199999,-1.7371892076000002,7.5900332872,720
74458,156264,164620,6.034698597199999,-1.7371892076000002,7.5900332872,721
74552,156241,164611,6.034698597199999,-1.7371892076000002,7.5900332872,722
74637,156258,164587,6.034698597199999,-1.7371892076000002,7.5900332872,723
74737,156238,164587,6.034698597199999,-1.7371892076000002,7.5900332872,724
74850,156192,164565,6.034698597199999,-1.7371892076000002,7.5900332872,725
74976,156147,164556,6.034698597199999,-1.7371892076000002,7.5900332872,726
75083,156138,164550,6.034698597199999,-1.7371892076000002,7.5900332872,727
75206,156109,164524,6.034698597199999,-1.7371892076000002,7.5900332872,728
75321,156090,164511,6.034698597199999,-1.7371892076000002,7.5900332872,729
75436,156059,164520,6.034698597199999,-1.7371892076000002,7.5900332872,730
75457,156388,164632,5.9473605723,-1.7132609816000002,7.6271220375,731
74866,156521,164712,5.9473605723,-1.7132609816000002,7.6271220375,732
74355,156450,164693,5.9473605723,-1.7132609816000002,7.6271220375,733
74045,156361,164687,5.9473605723,-1.7132609816000002,7.6271220375,734
73852,156341,164626,5.9473605723,-1.7132609816000002,7.6271220375,735
73783,156259,164646,5.9473605723,-1.7132609816000002,7.6271220375,736
73837,156262,164619,5.9473605723,-1.7132609816000002,7.6271220375,737
73958,156225,164603,5.9473605723,-1.7132609816000002,7.6271220375,738
74055,156213,164604,5.9473605723,-1.7132609816000002,7.6271220375,739
74124,156224,164629,5.9473605723,-1.7132609816000002,7.6271220375,740
74175,156220,164635,5.9473605723,-1.7132609816000002,7.6271220375,741
74247,156209,164583,5.9473605723,-1.7132609816000002,7.6271220375,742
74319,156175,164596,5.9473605723,-1.7132609816000002,7.6271220375,743
74423,156159,164565,5.9473605723,-1.7132609816000002,7.6271220375,744
74521,156104,164546,5.9473605723,-1.7132609816000002,7.6271220375,745
74622,156064,164534,5.9473605723,-1.7132609816000002,7.6271220375,746
74763,156027,164520,5.9473605723,-1.7132609816000002,7.6271220375,747
74861,155988,164529,5.9473605723,-1.7132609816000002,7.6271220375,748
74986,155954,164509,5.9473605723,-1.7132609816000002,7.6271220375,749
75110,155886,164444,5.9473605723,-1.7132609816000002,7.6271220375,750
75237,155897,164461,5.9473605723,-1.7132609816000002,7.6271220375,751
75364,155879,164442,5.9473605723,-1.7132609816000002,7.6271220375,752
75479,155832,164432,5.9473605723,-1.7132609816000002,7.6271220375,753
75578,155825,164414,5.9473605723,-1.7132609816000002,7.6271220375,754
75534,156045,164472,5.9473605723,-1.7132609816000002,7.6271220375,755
75085,156317,164643,5.9473605723,-1.7132609816000002,7.6271220375,756
74496,156327,164628,5.9473605723,-1.7132609816000002,7.6271220375,757
74115,156223,164589,5.9473605723,-1.7132609816000002,7.6271220375,758
73893,156144,164577,5.9473605723,-1.7132609816000002,7.6271220375,759
73796,156075,164576,5.9473605723,-1.7132609816000002,7.6271220375,760
73797,156071,164517,5.9473605723,-1.7132609816000002,7.6271220375,761
73885,156018,164558,5.9473605723,-1.7132609816000002,7.6271220375,762
74000,156003,164537,5.9473605723,-1.7132609816000002,7.6271220375,763
74075,156015,164540,5.9473605723,-1.7132609816000002,7.6271220375,764
74131,156022,164547,5.9473605723,-1.7132609816000002,7.6271220375,765
74193,156017,164558,5.9473605723,-1.7132609816000002,7.6271220375,766
74239,155994,164519,5.9473605723,-1.7132609816000002,7.6271220375,767
74312,155972,164512,5.9473605723,-1.7132609816000002,7.6271220375,768
74411,155940,164473,5.9473605723,-1.7132609816000002,7.6271220375,769
74506,155889,164487,5.9473605723,-1.7132609816000002,7.6271220375,770
74610,155893,164488,5.9473605723,-1.7132609816000002,7.6271220375,771
74729,155870,164455,5.9473605723,-1.7132609816000002,7.6271220375,772
73452,156296,164663,5.9533426288,-1.722832272,7.6091758679999995,773
73173,156223,164651,5.9533426288,-1.722832272,7.6091758679999995,774
73032,156185,164675,5.9533426288,-1.722832272,7.6091758679999995,775
73008,156184,164665,5.9533426288,-1.722832272,7.6091758679999995,776
73111,156143,164616,5.9533426288,-1.722832272,7.6091758679999995,777
73244,156154,164642,5.9533426288,-1.722832272,7.6091758679999995,778
73370,156160,164656,5.9533426288,-1.722832272,7.6091758679999995,779
73456,156181,164626,5.9533426288,-1.722832272,7.6091758679999995,780
73530,156169,164633,5.9533426288,-1.722832272,7.6091758679999995,781
73618,156162,164661,5.9533426288,-1.722832272,7.6091758679999995,782
73728,156149,164632,5.9533426288,-1.722832272,7.6091758679999995,783
73845,156112,164601,5.9533426288,-1.722832272,7.6091758679999995,784
73979,156108,164576,5.9533426288,-1.722832272,7.6091758679999995,785
74122,156068,164574,5.9533426288,-1.722832272,7.6091758679999995,786
74252,156048,164538,5.9533426288,-1.722832272,7.6091758679999995,787
74396,156033,164537,5.9533426288,-1.722832272,7.6091758679999995,788
74545,156031,164562,5.9533426288,-1.722832272,7.6091758679999995,789
74707,155983,164519,5.9533426288,-1.722832272,7.6091758679999995,790
74833,155971,164520,5.9533426288,-1.722832272,7.6091758679999995,791
74980,155956,164520,5.9533426288,-1.722832272,7.6091758679999995,792
75109,155924,164515,5.9533426288,-1.722832272,7.6091758679999995,793
75243,155932,164501,5.9533426288,-1.722832272,7.6091758679999995,794
75362,155922,164510,5.9533426288,-1.722832272,7.6091758679999995,795
75301,156142,164599,5.9533426288,-1.722832272,7.6091758679999995,796
74874,156342,164656,5.9533426288,-1.722832272,7.6091758679999995,797
74393,156324,164650,5.9533426288,-1.722832272,7.6091758679999995,798
74107,156190,164638,5.9533426288,-1.722832272,7.6091758679999995,799
73956,156160,164611,5.9533426288,-1.722832272,7.6091758679999995,800
73920,156102,164628,5.9533426288,-1.722832272,7.6091758679999995,801
73965,156091,164611,5.9533426288,-1.722832272,7.6091758679999995,802
74084,156081,164588,5.9533426288,-1.722832272,7.6091758679999995,803
74233,156071,164609,5.9533426288,-1.722832272,7.6091758679999995,804
74315,156121,164618,5.9533426288,-1.722832272,7.6091758679999995,805
74371,156127,164587,5.9533426288,-1.722832272,7.6091758679999995,806
74461,156122,164590,5.9533426288,-1.722832272,7.6091758679999995,807
74548,156091,164607,5.9533426288,-1.722832272,7.6091758679999995,808
74642,156093,164599,5.9533426288,-1.722832272,7.6091758679999995,809
74760,156099,164601,5.9533426288,-1.722832272,7.6091758679999995,810
74890,156082,164601,5.9533426288,-1.722832272,7.6091758679999995,811
75024,156075,164603,5.9533426288,-1.722832272,7.6091758679999995,812
75164,156052,164571,5.9533426288,-1.722832272,7.6091758679999995,813
75306,156031,164581,5.9533426288,-1.722832272,7.6091758679999995,814
76386,156310,164688,5.900700531599999,-1.6737794087,7.6522466748,815
76477,156221,164678,5.900700531599999,-1.6737794087,7.6522466748,816
76591,156260,164647,5.900700531599999,-1.6737794087,7.6522466748,817
76684,156204,164617,5.900700531599999,-1.6737794087,7.6522466748,818
76785,156171,164589,5.900700531599999,-1.6737794087,7.6522466748,819
76874,156170,164609,5.900700531599999,-1.6737794087,7.6522466748,820
76960,156163,164589,5.900700531599999,-1.6737794087,7.6522466748,821
77048,156149,164608,5.900700531599999,-1.6737794087,7.6522466748,822
77134,156099,164603,5.900700531599999,-1.6737794087,7.6522466748,823
77101,156284,164652,5.900700531599999,-1.6737794087,7.6522466748,824
76760,156596,164761,5.900700531599999,-1.6737794087,7.6522466748,825
76257,156581,164773,5.900700531599999,-1.6737794087,7.6522466748,826
75859,156504,164741,5.900700531599999,-1.6737794087,7.6522466748,827
75608,156433,164727,5.900700531599999,-1.6737794087,7.6522466748,828
75437,156390,164741,5.900700531599999,-1.6737794087,7.6522466748,829
75392,156344,164722,5.900700531599999,-1.6737794087,7.6522466748,830
75421,156322,164706,5.900700531599999,-1.6737794087,7.6522466748,831
75461,156318,164695,5.900700531599999,-1.6737794087,7.6522466748,832
75498,156332,164682,5.900700531599999,-1.6737794087,7.6522466748,833
75500,156322,164697,5.900700531599999,-1.6737794087,7.6522466748,834
75518,156331,164681,5.900700531599999,-1.6737794087,7.6522466748,835
75541,156325,164705,5.900700531599999,-1.6737794087,7.6522466748,836
75582,156307,164687,5.900700531599999,-1.6737794087,7.6522466748,837
75605,156267,164662,5.900700531599999,-1.6737794087,7.6522466748,838
75675,156255,164632,5.900700531599999,-1.6737794087,7.6522466748,839
75760,156240,164620,5.900700531599999,-1.6737794087,7.6522466748,840
75842,156216,164600,5.900700531599999,-1.6737794087,7.6522466748,841
75914,156189,164625,5.900700531599999,-1.6737794087,7.6522466748,842
76016,156157,164629,5.900700531599999,-1.6737794087,7.6522466748,843
76112,156126,164593,5.900700531599999,-1.6737794087,7.6522466748,844
76201,156098,164575,5.900700531599999,-1.6737794087,7.6522466748,845
76298,156078,164568,5.900700531599999,-1.6737794087,7.6522466748,846
76386,156055,164541,5.900700531599999,-1.6737794087,7.6522466748,847
76473,156041,164556,5.900700531599999,-1.6737794087,7.6522466748,848
76549,156011,164552,5.900700531599999,-1.6737794087,7.6522466748,849
76611,156010,164505,5.900700531599999,-1.6737794087,7.6522466748,850
76464,156327,164625,5.900700531599999,-1.6737794087,7.6522466748,851
75968,156503,164686,5.900700531599999,-1.6737794087,7.6522466748,852
75450,156472,164717,5.900700531599999,-1.6737794087,7.6522466748,853
75094,156380,164680,5.900700531599999,-1.6737794087,7.6522466748,854
74891,156316,164672,5.900700531599999,-1.6737794087,7.6522466748,855
74774,156267,164651,5.900700531599999,-1.6737794087,7.6522466748,856
75862,155936,164490,6.0430734763,-1.7180466268,7.5338019561000005,857
75969,155937,164473,6.0430734763,-1.7180466268,7.5338019561000005,858
76032,155894,164442,6.0430734763,-1.7180466268,7.5338019561000005,859
76064,156021,164485,6.0430734763,-1.7180466268,7.5338019561000005,860
75754,156369,164613,6.0430734763,-1.7180466268,7.5338019561000005,861
75167,156434,164646,6.0430734763,-1.7180466268,7.5338019561000005,862
74696,156388,164669,6.0430734763,-1.7180466268,7.5338019561000005,863
74423,156293,164626,6.0430734763,-1.7180466268,7.5338019561000005,864
74276,156244,164621,6.0430734763,-1.7180466268,7.5338019561000005,865
74218,156211,164608,6.0430734763,-1.7180466268,7.5338019561000005,866
74285,156193,164596,6.0430734763,-1.7180466268,7.5338019561000005,867
74374,156182,164600,6.0430734763,-1.7180466268,7.5338019561000005,868
74463,156181,164585,6.0430734763,-1.7180466268,7.5338019561000005,869
74503,156207,164589,6.0430734763,-1.7180466268,7.5338019561000005,870
74541,156205,164584,6.0430734763,-1.7180466268,7.5338019561000005,871
74585,156185,164581,6.0430734763,-1.7180466268,7.5338019561000005,872
74667,156168,164560,6.0430734763,-1.7180466268,7.5338019561000005,873
74756,156147,164587,6.0430734763,-1.7180466268,7.5338019561000005,874
74841,156117,164563,6.0430734763,-1.7180466268,7.5338019561000005,875
74951,156109,164541,6.0430734763,-1.7180466268,7.5338019561000005,876
75047,156078,164540,6.0430734763,-1.7180466268,7.5338019561000005,877
75171,156051,164531,6.0430734763,-1.7180466268,7.5338019561000005,878
75292,156011,164509,6.0430734763,-1.7180466268,7.5338019561000005,879
75400,155972,164512,6.0430734763,-1.7180466268,7.5338019561000005,880
75520,155931,164456,6.0430734763,-1.7180466268,7.5338019561000005,881
75638,155946,164470,6.0430734763,-1.7180466268,7.5338019561000005,882
75745,155902,164448,6.0430734763,-1.7180466268,7.5338019561000005,883
75860,155909,164426,6.0430734763,-1.7180466268,7.5338019561000005,884
75964,155874,164448,6.0430734763,-1.7180466268,7.5338019561000005,885
75988,155975,164500,6.0430734763,-1.7180466268,7.5338019561000005,886
75697,156349,164621,6.0430734763,-1.7180466268,7.5338019561000005,887
75109,156445,164697,6.0430734763,-1.7180466268,7.5338019561000005,888
74602,156385,164684,5.8145589179999995,-1.6522440053,7.6283184488,889
74313,156302,164652,5.8145589179999995,-1.6522440053,7.6283184488,890
74155,156253,164607,5.8145589179999995,-1.6522440053,7.6283184488,891
74100,156215,164597,5.8145589179999995,-1.6522440053,7.6283184488,892
74142,156199,164583,5.8145589179999995,-1.6522440053,7.6283184488,893
74232,156162,164589,5.8145589179999995,-1.6522440053,7.6283184488,894
74327,156182,164570,5.8145589179999995,-1.6522440053,7.6283184488,895
74380,156186,164580,5.8145589179999995,-1.6522440053,7.6283184488,896
74444,156184,164614,5.8145589179999995,-1.6522440053,7.6283184488,897
74485,156153,164566,5.8145589179999995,-1.6522440053,7.6283184488,898
74553,156129,164561,5.8145589179999995,-1.6522440053,7.6283184488,899
74646,156135,164536,5.8145589179999995,-1.6522440053,7.6283184488,900
74737,156078,164554,5.8145589179999995,-1.6522440053,7.6283184488,901
74855,156069,164514,5.8241302084,-1.7551353771,7.6857461912,902
74956,156020,164517,5.8241302084,-1.7551353771,7.6857461912,903
75067,155982,164490,5.8241302084,-1.7551353771,7.6857461912,904
75187,155934,164474,5.8241302084,-1.7551353771,7.6857461912,905
75311,155892,164442,5.8241302084,-1.7551353771,7.6857461912,906
75411,155852,164432,5.8241302084,-1.7551353771,7.6857461912,907
75524,155857,164451,5.8241302084,-1.7551353771,7.6857461912,908
75630,155817,164447,5.8241302084,-1.7551353771,7.6857461912,909
75757,155788,164410,5.8241302084,-1.7551353771,7.6857461912,910
75874,155757,164392,5.8241302084,-1.7551353771,7.6857461912,911
75923,155807,164423,5.8241302084,-1.7551353771,7.6857461912,912
75720,156174,164585,5.8241302084,-1.7551353771,7.6857461912,913
75194,156377,164625,5.8241302084,-1.7551353771,7.6857461912,914
74672,156326,164623,5.8241302084,-1.7551353771,7.6857461912,915
74347,156249,164602,5.8241302084,-1.7551353771,7.6857461912,916
74171,156187,164610,5.8241302084,-1.7551353771,7.6857461912,917
74089,156154,164585,5.8241302084,-1.7551353771,7.6857461912,918
74125,156102,164583,5.8241302084,-1.7551353771,7.6857461912,919
74226,156051,164567,5.8241302084,-1.7551353771,7.6857461912,920
74310,156051,164521,5.8241302084,-1.7551353771,7.6857461912,921
74376,156069,164532,5.8241302084,-1.7551353771,7.6857461912,922
74413,156051,164532,5.8241302084,-1.7551353771,7.6857461912,923
74463,156046,164515,5.8241302084,-1.7551353771,7.6857461912,924
74533,156026,164522,5.8241302084,-1.7551353771,7.6857461912,925
74618,156035,164529,5.8241302084,-1.7551353771,7.6857461912,926
74698,155967,164507,5.8241302084,-1.7551353771,7.6857461912,927
74794,155940,164484,5.8241302084,-1.7551353771,7.6857461912,928
74903,155915,164493,5.8241302084,-1.7551353771,7.6857461912,929
75008,155875,164448,5.8241302084,-1.7551353771,7.6857461912,930
75111,155841,164441,5.8241302084,-1.7551353771,7.6857461912,931
75237,155755,164426,5.8241302084,-1.7551353771,7.6857461912,932
75347,155752,164381,5.8241302084,-1.7551353771,7.6857461912,933
75463,155691,164401,5.8241302084,-1.7551353771,7.6857461912,934
75584,155662,164368,5.8241302084,-1.7551353771,7.6857461912,935
75680,155636,164353,5.8241302084,-1.7551353771,7.6857461912,936
75788,155596,164351,5.8241302084,-1.7551353771,7.6857461912,937
75861,155631,164333,5.8241302084,-1.7551353771,7.6857461912,938
75728,156003,164458,5.8241302084,-1.7551353771,7.6857461912,939
75244,156254,164568,5.8241302084,-1.7551353771,7.6857461912,940
74721,156228,164563,5.8241302084,-1.7551353771,7.6857461912,941
74390,156167,164551,5.8241302084,-1.7551353771,7.6857461912,942
74230,156080,164541,5.8241302084,-1.7551353771,7.6857461912,943
75444,155676,164361,5.9437713384,-1.6331014245,7.5804619967999995,944
75532,155705,164356,5.9437713384,-1.6331014245,7.5804619967999995,945
75631,155689,164378,5.9437713384,-1.6331014245,7.5804619967999995,946
75717,155666,164348,5.9437713384,-1.6331014245,7.5804619967999995,947
75609,156016,164455,5.9437713384,-1.6331014245,7.5804619967999995,948
75147,156317,164602,5.9437713384,-1.6331014245,7.5804619967999995,949
74582,156312,164623,5.9437713384,-1.6331014245,7.5804619967999995,950
74169,156216,164564,5.9437713384,-1.6331014245,7.5804619967999995,951
73951,156191,164551,5.9437713384,-1.6331014245,7.5804619967999995,952
73832,156123,164530,5.9437713384,-1.6331014245,7.5804619967999995,953
73848,156095,164505,5.9437713384,-1.6331014245,7.5804619967999995,954
73925,156033,164500,5.9437713384,-1.6331014245,7.5804619967999995,955
74010,156016,164500,5.9437713384,-1.6331014245,7.5804619967999995,956
74080,156050,164513,5.9437713384,-1.6331014245,7.5804619967999995,957
74130,156053,164513,5.9437713384,-1.6331014245,7.5804619967999995,958
74182,156052,164490,5.9437713384,-1.6331014245,7.5804619967999995,959
74256,156024,164505,5.9437713384,-1.6331014245,7.5804619967999995,960
74318,155990,164487,5.9437713384,-1.6331014245,7.5804619967999995,961
74414,155980,164461,5.9437713384,-1.6331014245,7.5804619967999995,962
74509,155950,164465,5.9437713384,-1.6331014245,7.5804619967999995,963
74615,155936,164456,5.9437713384,-1.6331014245,7.5804619967999995,964
74725,155884,164414,5.9437713384,-1.6331014245,7.5804619967999995,965
74843,155864,164400,5.9437713384,-1.6331014245,7.5804619967999995,966
74959,155810,164403,5.9437713384,-1.6331014245,7.5804619967999995,967
75087,155805,164366,5.9437713384,-1.6331014245,7.5804619967999995,968
75215,155736,164347,5.9437713384,-1.6331014245,7.5804619967999995,969
75323,155731,164347,5.9437713384,-1.6331014245,7.5804619967999995,970
75457,155681,164318,5.9437713384,-1.6331014245,7.5804619967999995,971
75570,155677,164333,5.9437713384,-1.6331014245,7.5804619967999995,972
75657,155672,164337,5.9437713384,-1.6331014245,7.5804619967999995,973
75566,155979,164438,5.9437713384,-1.6331014245,7.5804619967999995,974
75095,156332,164583,5.9437713384,-1.6331014245,7.5804619967999995,975
74520,156315,164599,5.7870414581,-1.6175480776,7.6043902228,976
74145,156237,164556,5.7870414581,-1.6175480776,7.6043902228,977
73936,156184,164520,5.7870414581,-1.6175480776,7.6043902228,978
73823,156143,164512,5.7870414581,-1.6175480776,7.6043902228,979
73819,156101,164518,5.7870414581,-1.6175480776,7.6043902228,980
73903,156042,164484,5.7870414581,-1.6175480776,7.6043902228,981
74000,156007,164503,5.7870414581,-1.6175480776,7.6043902228,982
74071,156030,164474,5.7870414581,-1.6175480776,7.6043902228,983
74140,156043,164507,5.7870414581,-1.6175480776,7.6043902228,984
74204,156033,164466,5.7870414581,-1.6175480776,7.6043902228,985
74248,156009,164452,5.7870414581,-1.6175480776,7.6043902228,986
74341,155963,164473,5.7870414581,-1.6175480776,7.6043902228,987
74428,155965,164452,5.7870414581,-1.6175480776,7.6043902228,988
74533,155932,164459,5.7870414581,-1.6175480776,7.6043902228,989
74634,155891,164447,5.7870414581,-1.6175480776,7.6043902228,990
74746,155866,164418,5.7870414581,-1.6175480776,7.6043902228,991
74858,155824,164393,5.7870414581,-1.6175480776,7.6043902228,992
75001,155779,164377,5.7870414581,-1.6175480776,7.6043902228,993
75105,155754,164379,5.7870414581,-1.6175480776,7.6043902228,994
75222,155723,164354,5.7870414581,-1.6175480776,7.6043902228,995
75361,155664,164316,5.7870414581,-1.6175480776,7.6043902228,996
75470,155625,164306,5.7870414581,-1.6175480776,7.6043902228,997
75582,155647,164322,5.7870414581,-1.6175480776,7.6043902228,998
75675,155616,164292,5.7870414581,-1.6175480776,7.6043902228,999
75708,155700,164317,5.7870414581,-1.6175480776,7.6043902228,1000
75446,156150,164483,5.7870414581,-1.6175480776,7.6043902228,1001
74884,156290,164550,5.7870414581,-1.6175480776,7.6043902228,1002
74427,156215,164557,5.7870414581,-1.6175480776,7.6043902228,1003
74175,156154,164521,5.7870414581,-1.6175480776,7.6043902228,1004
74034,156091,164493,5.7870414581,-1.6175480776,7.6043902228,1005
73986,156034,164487,5.7870414581,-1.6175480776,7.6043902228,1006
74051,155975,164473,5.7870414581,-1.6175480776,7.6043902228,1007
74142,155964,164445,5.7870414581,-1.6175480776,7.6043902228,1008
74221,155970,164436,5.7870414581,-1.6175480776,7.6043902228,1009
74279,155965,164449,5.7870414581,-1.6175480776,7.6043902228,1010
74317,155960,164446,5.7870414581,-1.6175480776,7.6043902228,1011
74372,155948,164432,5.7870414581,-1.6175480776,7.6043902228,1012
74426,155950,164429,5.7870414581,-1.6175480776,7.6043902228,1013
74496,155904,164428,5.7870414581,-1.6175480776,7.6043902228,1014
74602,155878,164417,5.7870414581,-1.6175480776,7.6043902228,1015
74687,155859,164415,5.7870414581,-1.6175480776,7.6043902228,1016
74791,155788,164379,5.7870414581,-1.6175480776,7.6043902228,1017
74411,156126,164429,5.923432346299999,-1.5756736821000001,7.5804619967999995,1018
74526,156117,164474,5.923432346299999,-1.5756736821000001,7.5804619967999995,1019
74593,156141,164472,5.923432346299999,-1.5756736821000001,7.5804619967999995,1020
74666,156126,164475,5.923432346299999,-1.5756736821000001,7.5804619967999995,1021
74748,156152,164469,5.923432346299999,-1.5756736821000001,7.5804619967999995,1022
74849,156128,164492,5.923432346299999,-1.5756736821000001,7.5804619967999995,1023
74958,156089,164462,5.923432346299999,-1.5756736821000001,7.5804619967999995,1024
75053,156112,164448,5.923432346299999,-1.5756736821000001,7.5804619967999995,1025
75188,156080,164442,5.923432346299999,-1.5756736821000001,7.5804619967999995,1026
75300,156070,164421,5.923432346299999,-1.5756736821000001,7.5804619967999995,1027
75421,156035,164400,5.923432346299999,-1.5756736821000001,7.5804619967999995,1028
75559,156013,164401,5.923432346299999,-1.5756736821000001,7.5804619967999995,1029
75676,155997,164400,5.923432346299999,-1.5756736821000001,7.5804619967999995,1030
75804,155973,164389,5.923432346299999,-1.5756736821000001,7.5804619967999995,1031
75909,155969,164356,5.923432346299999,-1.5756736821000001,7.5804619967999995,1032
76034,155909,164372,5.923432346299999,-1.5756736821000001,7.5804619967999995,1033
76159,155921,164389,5.923432346299999,-1.5756736821000001,7.5804619967999995,1034
76153,156125,164447,5.923432346299999,-1.5756736821000001,7.5804619967999995,1035
75827,156402,164569,5.923432346299999,-1.5756736821000001,7.5804619967999995,1036
75387,156423,164590,5.923432346299999,-1.5756736821000001,7.5804619967999995,1037
75069,156333,164549,5.923432346299999,-1.5756736821000001,7.5804619967999995,1038
74891,156313,164543,5.923432346299999,-1.5756736821000001,7.5804619967999995,1039
74815,156248,164523,5.923432346299999,-1.5756736821000001,7.5804619967999995,1040
74814,156226,164517,5.923432346299999,-1.5756736821000001,7.5804619967999995,1041
74903,156212,164504,5.923432346299999,-1.5756736821000001,7.5804619967999995,1042
75023,156184,164505,5.923432346299999,-1.5756736821000001,7.5804619967999995,1043
75113,156226,164516,5.923432346299999,-1.5756736821000001,7.5804619967999995,1044
75169,156222,164506,5.923432346299999,-1.5756736821000001,7.5804619967999995,1045
75232,156227,164498,5.923432346299999,-1.5756736821000001,7.5804619967999995,1046
75295,156206,164500,5.923432346299999,-1.5756736821000001,7.5804619967999995,1047
75390,156172,164495,5.923432346299999,-1.5756736821000001,7.5804619967999995,1048
75469,156162,164463,5.923432346299999,-1.5756736821000001,7.5804619967999995,1049
75553,156160,164465,5.923432346299999,-1.5756736821000001,7.5804619967999995,1050
75646,156125,164474,5.923432346299999,-1.5756736821000001,7.5804619967999995,1051
75747,156101,164429,5.923432346299999,-1.5756736821000001,7.5804619967999995,1052
75859,156088,164446,5.923432346299999,-1.5756736821000001,7.5804619967999995,1053
75962,156071,164386,5.923432346299999,-1.5756736821000001,7.5804619967999995,1054
76079,156024,164423,5.923432346299999,-1.5756736821000001,7.5804619967999995,1055
76172,156014,164352,5.923432346299999,-1.5756736821000001,7.5804619967999995,1056
76292,155986,164360,5.923432346299999,-1.5756736821000001,7.5804619967999995,1057
76392,155932,164370,5.923432346299999,-1.5756736821000001,7.5804619967999995,1058
76474,155939,164372,5.923432346299999,-1.5756736821000001,7.5804619967999995,1059
74985,156146,164468,5.9054861768,-1.7419748528,7.6235328036,1060
75096,156148,164440,5.9054861768,-1.7419748528,7.6235328036,1061
75211,156133,164412,5.9054861768,-1.7419748528,7.6235328036,1062
75303,156112,164418,5.9054861768,-1.7419748528,7.6235328036,1063
75387,156115,164456,5.9054861768,-1.7419748528,7.6235328036,1064
75186,156361,164507,5.9054861768,-1.7419748528,7.6235328036,1065
74574,156449,164537,5.9054861768,-1.7419748528,7.6235328036,1066
74007,156372,164523,5.9054861768,-1.7419748528,7.6235328036,1067
73606,156272,164525,5.9054861768,-1.7419748528,7.6235328036,1068
73382,156218,164491,5.9054861768,-1.7419748528,7.6235328036,1069
73258,156197,164502,5.9054861768,-1.7419748528,7.6235328036,1070
73291,156197,164463,5.9054861768,-1.7419748528,7.6235328036,1071
73406,156176,164475,5.9054861768,-1.7419748528,7.6235328036,1072
73512,156174,164460,5.9054861768,-1.7419748528,7.6235328036,1073
73588,156221,164480,5.9054861768,-1.7419748528,7.6235328036,1074
73638,156219,164475,5.9054861768,-1.7419748528,7.6235328036,1075
73668,156219,164476,5.9054861768,-1.7419748528,7.6235328036,1076
73746,156190,164444,5.9054861768,-1.7419748528,7.6235328036,1077
73851,156179,164443,5.9102718219999995,-1.6558332392,7.542176835199999,1078
73919,156128,164444,5.9102718219999995,-1.6558332392,7.542176835199999,1079
74052,156148,164431,5.9102718219999995,-1.6558332392,7.542176835199999,1080
74182,156119,164440,5.9102718219999995,-1.6558332392,7.542176835199999,1081
74298,156090,164415,5.9102718219999995,-1.6558332392,7.542176835199999,1082
74437,156072,164413,5.9102718219999995,-1.6558332392,7.542176835199999,1083
74545,156050,164412,5.9102718219999995,-1.6558332392,7.542176835199999,1084
74654,156007,164360,5.9102718219999995,-1.6558332392,7.542176835199999,1085
74791,156025,164378,5.9102718219999995,-1.6558332392,7.542176835199999,1086
74908,156011,164372,5.9102718219999995,-1.6558332392,7.542176835199999,1087
75021,155993,164373,5.9102718219999995,-1.6558332392,7.542176835199999,1088
74924,156163,164449,5.9102718219999995,-1.6558332392,7.542176835199999,1089
74399,156335,164515,5.9102718219999995,-1.6558332392,7.542176835199999,1090
73777,156280,164487,5.9102718219999995,-1.6558332392,7.542176835199999,1091
73377,156211,164448,5.9102718219999995,-1.6558332392,7.542176835199999,1092
73151,156126,164471,5.9102718219999995,-1.6558332392,7.542176835199999,1093
73035,156089,164421,5.9102718219999995,-1.6558332392,7.542176835199999,1094
73042,156104,164446,5.9102718219999995,-1.6558332392,7.542176835199999,1095
73164,156074,164425,5.9102718219999995,-1.6558332392,7.542176835199999,1096
73275,156067,164451,5.9102718219999995,-1.6558332392,7.542176835199999,1097
73340,156098,164420,5.9102718219999995,-1.6558332392,7.542176835199999,1098
73409,156106,164410,6.0861442831,-1.6821542877999998,7.6474610296,1099
73428,156069,164430,6.0861442831,-1.6821542877999998,7.6474610296,1100
73481,156066,164426,6.0861442831,-1.6821542877999998,7.6474610296,1101
73569,156050,164418,6.0861442831,-1.6821542877999998,7.6474610296,1102
73664,156054,164399,6.0861442831,-1.6821542877999998,7.6474610296,1103
73783,156054,164402,6.0861442831,-1.6821542877999998,7.6474610296,1104
73904,156035,164389,6.0861442831,-1.6821542877999998,7.6474610296,1105
74035,156009,164405,6.0861442831,-1.6821542877999998,7.6474610296,1106
74161,156013,164389,6.0861442831,-1.6821542877999998,7.6474610296,1107
74274,156004,164375,6.0861442831,-1.6821542877999998,7.6474610296,1108
74390,155977,164375,6.0861442831,-1.6821542877999998,7.6474610296,1109
74498,155969,164394,6.0861442831,-1.6821542877999998,7.6474610296,1110
74601,155992,164348,6.0861442831,-1.6821542877999998,7.6474610296,1111
74504,156166,164462,6.0861442831,-1.6821542877999998,7.6474610296,1112
73939,156283,164475,6.0861442831,-1.6821542877999998,7.6474610296,1113
73301,156235,164488,6.0861442831,-1.6821542877999998,7.6474610296,1114
72905,156181,164454,6.0861442831,-1.6821542877999998,7.6474610296,1115
72694,156104,164474,6.0861442831,-1.6821542877999998,7.6474610296,1116
72619,156103,164460,6.0861442831,-1.6821542877999998,7.6474610296,1117
72657,156079,164426,5.9629139192,-1.698904046,7.6761749007999995,1118
72820,156082,164460,5.9629139192,-1.698904046,7.6761749007999995,1119
72946,156123,164431,5.9629139192,-1.698904046,7.6761749007999995,1120
73040,156131,164431,5.9629139192,-1.698904046,7.6761749007999995,1121
73086,156160,164472,5.9629139192,-1.698904046,7.6761749007999995,1122
73160,156121,164450,5.9629139192,-1.698904046,7.6761749007999995,1123
73239,156151,164432,5.9629139192,-1.698904046,7.6761749007999995,1124
73346,156131,164439,5.9629139192,-1.698904046,7.6761749007999995,1125
73475,156133,164448,5.9629139192,-1.698904046,7.6761749007999995,1126
73605,156131,164459,5.9629139192,-1.698904046,7.6761749007999995,1127
73742,156124,164419,5.9629139192,-1.698904046,7.6761749007999995,1128
73890,156114,164429,5.9629139192,-1.698904046,7.6761749007999995,1129
74019,156097,164416,5.9629139192,-1.698904046,7.6761749007999995,1130
74151,156097,164443,5.9629139192,-1.698904046,7.6761749007999995,1131
74291,156089,164428,5.9629139192,-1.698904046,7.6761749007999995,1132
74434,156101,164412,5.9629139192,-1.698904046,7.6761749007999995,1133
74553,156086,164404,5.9629139192,-1.698904046,7.6761749007999995,1134
74586,156150,164448,5.9629139192,-1.698904046,7.6761749007999995,1135
74186,156383,164514,5.9629139192,-1.698904046,7.6761749007999995,1136
73498,156369,164525,5.9629139192,-1.698904046,7.6761749007999995,1137
72962,156269,164530,5.9629139192,-1.698904046,7.6761749007999995,1138
72608,156203,164501,5.9629139192,-1.698904046,7.6761749007999995,1139
72421,156156,164494,5.9629139192,-1.698904046,7.6761749007999995,1140
72370,156146,164490,5.9629139192,-1.698904046,7.6761749007999995,1141
72474,156145,164467,5.9629139192,-1.698904046,7.6761749007999995,1142
72645,156124,164470,5.9629139192,-1.698904046,7.6761749007999995,1143
72775,156160,164442,5.9629139192,-1.698904046,7.6761749007999995,1144
72857,156179,164476,5.9629139192,-1.698904046,7.6761749007999995,1145
72931,156225,164479,5.9629139192,-1.698904046,7.6761749007999995,1146
73005,156189,164495,5.9629139192,-1.698904046,7.6761749007999995,1147
73118,156182,164446,5.9629139192,-1.698904046,7.6761749007999995,1148
73232,156190,164440,5.9629139192,-1.698904046,7.6761749007999995,1149
73355,156166,164455,5.9629139192,-1.698904046,7.6761749007999995,1150
73507,156156,164425,5.9629139192,-1.698904046,7.6761749007999995,1151
73663,156135,164414,5.9629139192,-1.698904046,7.6761749007999995,1152
73812,156165,164442,5.9629139192,-1.698904046,7.6761749007999995,1153
73968,156148,164451,5.9629139192,-1.698904046,7.6761749007999995,1154
74098,156112,164438,5.9629139192,-1.698904046,7.6761749007999995,1155
74263,156099,164425,5.9629139192,-1.698904046,7.6761749007999995,1156
74369,156095,164413,5.9629139192,-1.698904046,7.6761749007999995,1157
74508,156080,164427,5.9629139192,-1.698904046,7.6761749007999995,1158
74565,156128,164438,5.9629139192,-1.698904046,7.6761749007999995,1159
72743,156183,164450,5.934200048,-1.6271193679999998,7.6701928443,1160
72584,156113,164476,5.934200048,-1.6271193679999998,7.6701928443,1161
72553,156097,164457,5.934200048,-1.6271193679999998,7.6701928443,1162
72676,156109,164464,5.934200048,-1.6271193679999998,7.6701928443,1163
72842,156088,164440,5.934200048,-1.6271193679999998,7.6701928443,1164
72985,156106,164453,5.934200048,-1.6271193679999998,7.6701928443,1165
73104,156117,164446,5.934200048,-1.6271193679999998,7.6701928443,1166
73175,156117,164450,5.934200048,-1.6271193679999998,7.6701928443,1167
73252,156118,164477,5.934200048,-1.6271193679999998,7.6701928443,1168
73367,156104,164428,5.934200048,-1.6271193679999998,7.6701928443,1169
73513,156073,164431,5.934200048,-1.6271193679999998,7.6701928443,1170
73657,156092,164447,5.934200048,-1.6271193679999998,7.6701928443,1171
73816,156062,164412,5.934200048,-1.6271193679999998,7.6701928443,1172
73981,156027,164394,5.934200048,-1.6271193679999998,7.6701928443,1173
74125,156028,164401,5.934200048,-1.6271193679999998,7.6701928443,1174
74279,155995,164377,5.934200048,-1.6271193679999998,7.6701928443,1175
74441,155981,164400,5.934200048,-1.6271193679999998,7.6701928443,1176
74589,155976,164382,5.934200048,-1.6271193679999998,7.6701928443,1177
74729,155939,164369,5.934200048,-1.6271193679999998,7.6701928443,1178
74866,155912,164378,5.934200048,-1.6271193679999998,7.6701928443,1179
74937,155987,164373,5.934200048,-1.6271193679999998,7.6701928443,1180
74655,156249,164485,5.934200048,-1.6271193679999998,7.6701928443,1181
74143,156235,164488,5.934200048,-1.6271193679999998,7.6701928443,1182
73779,156156,164488,5.934200048,-1.6271193679999998,7.6701928443,1183
73560,156065,164422,5.934200048,-1.6271193679999998,7.6701928443,1184
73480,156038,164471,5.934200048,-1.6271193679999998,7.6701928443,1185
73494,155988,164412,5.934200048,-1.6271193679999998,7.6701928443,1186
73612,155976,164437,5.934200048,-1.6271193679999998,7.6701928443,1187
73773,155965,164433,5.934200048,-1.6271193679999998,7.6701928443,1188
73905,156041,164450,5.934200048,-1.6271193679999998,7.6701928443,1189
73992,156036,164441,5.934200048,-1.6271193679999998,7.6701928443,1190
74080,156057,164441,5.934200048,-1.6271193679999998,7.6701928443,1191
74153,156032,164432,5.934200048,-1.6271193679999998,7.6701928443,1192
74269,156022,164426,5.934200048,-1.6271193679999998,7.6701928443,1193
74391,155997,164404,5.934200048,-1.6271193679999998,7.6701928443,1194
74507,156026,164403,5.934200048,-1.6271193679999998,7.6701928443,1195
74651,156013,164412,5.934200048,-1.6271193679999998,7.6701928443,1196
74776,156008,164390,5.934200048,-1.6271193679999998,7.6701928443,1197
74920,155988,164400,5.934200048,-1.6271193679999998,7.6701928443,1198
75071,155973,164374,5.934200048,-1.6271193679999998,7.6701928443,1199
75187,155963,164384,5.934200048,-1.6271193679999998,7.6701928443,1200
75324,155969,164369,5.934200048,-1.6271193679999998,7.6701928443,1201
75546,156018,164437,5.9724852096,-1.6797614652,7.6809605460000006,1202
75671,155994,164415,5.9724852096,-1.6797614652,7.6809605460000006,1203
75780,155962,164398,5.9724852096,-1.6797614652,7.6809605460000006,1204
75911,155929,164408,5.9724852096,-1.6797614652,7.6809605460000006,1205
75997,155908,164367,5.9724852096,-1.6797614652,7.6809605460000006,1206
76104,155859,164379,5.9724852096,-1.6797614652,7.6809605460000006,1207
76156,155925,164382,5.9724852096,-1.6797614652,7.6809605460000006,1208
75921,156240,164501,5.9724852096,-1.6797614652,7.6809605460000006,1209
75403,156290,164541,5.9724852096,-1.6797614652,7.6809605460000006,1210
74953,156212,164508,5.9724852096,-1.6797614652,7.6809605460000006,1211
74676,156170,164470,5.9724852096,-1.6797614652,7.6809605460000006,1212
74509,156087,164496,5.9724852096,-1.6797614652,7.6809605460000006,1213
74454,156063,164456,5.9724852096,-1.6797614652,7.6809605460000006,1214
74496,156047,164469,5.9724852096,-1.6797614652,7.6809605460000006,1215
74585,155998,164456,5.9724852096,-1.6797614652,7.6809605460000006,1216
74679,156020,164455,5.9724852096,-1.6797614652,7.6809605460000006,1217
74726,156051,164452,5.9724852096,-1.6797614652,7.6809605460000006,1218
74770,156023,164430,5.9724852096,-1.6797614652,7.6809605460000006,1219
74802,156007,164453,5.9724852096,-1.6797614652,7.6809605460000006,1220
74857,155984,164430,5.9724852096,-1.6797614652,7.6809605460000006,1221
74939,155948,164396,5.9724852096,-1.6797614652,7.6809605460000006,1222
75031,155921,164407,5.9724852096,-1.6797614652,7.6809605460000006,1223
75133,155900,164384,5.9724852096,-1.6797614652,7.6809605460000006,1224
75252,155877,164375,5.9724852096,-1.6797614652,7.6809605460000006,1225
75347,155850,164379,5.9724852096,-1.6797614652,7.6809605460000006,1226
75464,155813,164349,5.9724852096,-1.6797614652,7.6809605460000006,1227
75568,155785,164354,5.9724852096,-1.6797614652,7.6809605460000006,1228
75664,155751,164293,5.9724852096,-1.6797614652,7.6809605460000006,1229
75784,155738,164314,5.9724852096,-1.6797614652,7.6809605460000006,1230
75787,155881,164351,5.9724852096,-1.6797614652,7.6809605460000006,1231
75436,156168,164469,5.9724852096,-1.6797614652,7.6809605460000006,1232
74909,156180,164510,5.9724852096,-1.6797614652,7.6809605460000006,1233
74548,156125,164475,5.9724852096,-1.6797614652,7.6809605460000006,1234
74336,156056,164452,5.9724852096,-1.6797614652,7.6809605460000006,1235
74244,156037,164461,5.9724852096,-1.6797614652,7.6809605460000006,1236
74247,156016,164465,5.9724852096,-1.6797614652,7.6809605460000006,1237
74349,155978,164436,5.9724852096,-1.6797614652,7.6809605460000006,1238
74447,155974,164432,5.9724852096,-1.6797614652,7.6809605460000006,1239
74525,156029,164459,5.9724852096,-1.6797614652,7.6809605460000006,1240
74584,156038,164452,5.9724852096,-1.6797614652,7.6809605460000006,1241
74646,156092,164472,5.9724852096,-1.6797614652,7.6809605460000006,1242
74722,156051,164439,5.9724852096,-1.6797614652,7.6809605460000006,1243
74655,155997,164434,5.8480584344,-1.6510475939999998,7.6749784895,1244
74741,155942,164449,5.8480584344,-1.6510475939999998,7.6749784895,1245
74828,155906,164400,5.8480584344,-1.6510475939999998,7.6749784895,1246
74929,155823,164377,5.8480584344,-1.6510475939999998,7.6749784895,1247
75014,155765,164329,5.8480584344,-1.6510475939999998,7.6749784895,1248
75131,155722,164343,5.8480584344,-1.6510475939999998,7.6749784895,1249
75241,155689,164288,5.8480584344,-1.6510475939999998,7.6749784895,1250
75339,155644,164315,5.8480584344,-1.6510475939999998,7.6749784895,1251
75372,155754,164359,5.8480584344,-1.6510475939999998,7.6749784895,1252
75061,156090,164468,5.8480584344,-1.6510475939999998,7.6749784895,1253
74523,156198,164541,5.8480584344,-1.6510475939999998,7.6749784895,1254
74098,156175,164518,5.8480584344,-1.6510475939999998,7.6749784895,1255
73851,156145,164523,5.8480584344,-1.6510475939999998,7.6749784895,1256
73698,156154,164514,5.8480584344,-1.6510475939999998,7.6749784895,1257
73686,156150,164506,5.8480584344,-1.6510475939999998,7.6749784895,1258
73790,156165,164522,5.8480584344,-1.6510475939999998,7.6749784895,1259
73940,156185,164500,5.8480584344,-1.6510475939999998,7.6749784895,1260
74067,156282,164585,5.8480584344,-1.6510475939999998,7.6749784895,1261
74161,156343,164611,5.8480584344,-1.6510475939999998,7.6749784895,1262
74260,156437,164653,5.8480584344,-1.6510475939999998,7.6749784895,1263
74363,156495,164644,5.8480584344,-1.6510475939999998,7.6749784895,1264
74471,156504,164638,5.8480584344,-1.6510475939999998,7.6749784895,1265
74614,156553,164673,5.8480584344,-1.6510475939999998,7.6749784895,1266
74742,156593,164685,5.8480584344,-1.6510475939999998,7.6749784895,1267
74875,156633,164710,5.8480584344,-1.6510475939999998,7.6749784895,1268
75017,156608,164696,5.8480584344,-1.6510475939999998,7.6749784895,1269
75122,156607,164677,5.8480584344,-1.6510475939999998,7.6749784895,1270
75241,156548,164682,5.8480584344,-1.6510475939999998,7.6749784895,1271
75347,156480,164636,5.8480584344,-1.6510475939999998,7.6749784895,1272
75353,156507,164649,5.8480584344,-1.6510475939999998,7.6749784895,1273
74999,156713,164733,5.8480584344,-1.6510475939999998,7.6749784895,1274
74404,156727,164745,5.8480584344,-1.6510475939999998,7.6749784895,1275
73991,156679,164714,5.8480584344,-1.6510475939999998,7.6749784895,1276
73749,156587,164710,5.8480584344,-1.6510475939999998,7.6749784895,1277
73592,156544,164694,5.8480584344,-1.6510475939999998,7.6749784895,1278
73564,156455,164672,5.8480584344,-1.6510475939999998,7.6749784895,1279
73618,156305,164626,5.8480584344,-1.6510475939999998,7.6749784895,1280
73687,156156,164555,5.8480584344,-1.6510475939999998,7.6749784895,1281
73700,156003,164522,5.8480584344,-1.6510475939999998,7.6749784895,1282
73677,155840,164416,5.8480584344,-1.6510475939999998,7.6749784895,1283
73644,155629,164338,5.8480584344,-1.6510475939999998,7.6749784895,1284
73638,155444,164268,5.8480584344,-1.6510475939999998,7.6749784895,1285
73745,154672,163938,5.942574927099999,-1.6761722313,7.5756763516,1286
73806,154589,163888,5.942574927099999,-1.6761722313,7.5756763516,1287
73911,154532,163895,5.942574927099999,-1.6761722313,7.5756763516,1288
74033,154532,163898,5.942574927099999,-1.6761722313,7.5756763516,1289
74100,154652,163956,5.942574927099999,-1.6761722313,7.5756763516,1290
73770,154951,164062,5.942574927099999,-1.6761722313,7.5756763516,1291
73175,155114,164100,5.942574927099999,-1.6761722313,7.5756763516,1292
72765,155208,164171,5.942574927099999,-1.6761722313,7.5756763516,1293
72585,155397,164267,5.942574927099999,-1.6761722313,7.5756763516,1294
72548,155518,164312,5.942574927099999,-1.6761722313,7.5756763516,1295
72598,155582,164355,5.942574927099999,-1.6761722313,7.5756763516,1296
72753,155543,164329,5.942574927099999,-1.6761722313,7.5756763516,1297
72889,155524,164338,5.942574927099999,-1.6761722313,7.5756763516,1298
72955,155581,164307,5.942574927099999,-1.6761722313,7.5756763516,1299
73024,155615,164329,5.942574927099999,-1.6761722313,7.5756763516,1300
73096,155696,164395,5.942574927099999,-1.6761722313,7.5756763516,1301
73233,155787,164393,5.942574927099999,-1.6761722313,7.5756763516,1302
73361,155849,164401,5.942574927099999,-1.6761722313,7.5756763516,1303
73496,155898,164446,5.942574927099999,-1.6761722313,7.5756763516,1304
73591,155854,164433,5.942574927099999,-1.6761722313,7.5756763516,1305
73671,155736,164384,5.942574927099999,-1.6761722313,7.5756763516,1306
73754,155590,164342,5.942574927099999,-1.6761722313,7.5756763516,1307
73773,155336,164244,5.942574927099999,-1.6761722313,7.5756763516,1308
73812,155095,164130,5.942574927099999,-1.6761722313,7.5756763516,1309
73564,154983,164115,5.942574927099999,-1.6761722313,7.5756763516,1310
72872,154942,164102,5.942574927099999,-1.6761722313,7.5756763516,1311
72171,154870,164031,5.942574927099999,-1.6761722313,7.5756763516,1312
71746,154897,164060,5.942574927099999,-1.6761722313,7.5756763516,1313
71533,154954,164114,5.942574927099999,-1.6761722313,7.5756763516,1314
71475,155099,164186,5.942574927099999,-1.6761722313,7.5756763516,1315
71582,155218,164191,5.942574927099999,-1.6761722313,7.5756763516,1316
71785,155293,164212,5.942574927099999,-1.6761722313,7.5756763516,1317
71979,155344,164239,5.942574927099999,-1.6761722313,7.5756763516,1318
72081,155396,164267,5.942574927099999,-1.6761722313,7.5756763516,1319
72164,155349,164226,5.942574927099999,-1.6761722313,7.5756763516,1320
72214,155297,164206,5.942574927099999,-1.6761722313,7.5756763516,1321
72301,155215,164170,5.942574927099999,-1.6761722313,7.5756763516,1322
72442,155198,164150,5.942574927099999,-1.6761722313,7.5756763516,1323
72580,155192,164141,5.942574927099999,-1.6761722313,7.5756763516,1324
72743,155192,164147,5.942574927099999,-1.6761722313,7.5756763516,1325
72894,155232,164160,5.942574927099999,-1.6761722313,7.5756763516,1326
73109,155208,164181,5.942574927099999,-1.6761722313,7.5756763516,1327
73521,155529,164285,5.8899328299,-1.8125631194999998,7.6522466748,1328
73752,155522,164261,5.8899328299,-1.8125631194999998,7.6522466748,1329
73980,155481,164247,5.8899328299,-1.8125631194999998,7.6522466748,1330
74193,155500,164238,5.8899328299,-1.8125631194999998,7.6522466748,1331
74398,155476,164210,5.8899328299,-1.8125631194999998,7.6522466748,1332
74614,155444,164210,5.8899328299,-1.8125631194999998,7.6522466748,1333
74829,155447,164167,5.8899328299,-1.8125631194999998,7.6522466748,1334
74888,155681,164249,5.8899328299,-1.8125631194999998,7.6522466748,1335
74705,155910,164381,5.8899328299,-1.8125631194999998,7.6522466748,1336
74533,155990,164410,5.8899328299,-1.8125631194999998,7.6522466748,1337
74437,155993,164399,5.8899328299,-1.8125631194999998,7.6522466748,1338
74411,155973,164392,5.8899328299,-1.8125631194999998,7.6522466748,1339
74442,155916,164386,5.8899328299,-1.8125631194999998,7.6522466748,1340
74574,155852,164343,5.8899328299,-1.8125631194999998,7.6522466748,1341
74749,155789,164290,5.8899328299,-1.8125631194999998,7.6522466748,1342
74937,155786,164287,5.8899328299,-1.8125631194999998,7.6522466748,1343
75093,155800,164312,5.8899328299,-1.8125631194999998,7.6522466748,1344
75237,155839,164284,5.8899328299,-1.8125631194999998,7.6522466748,1345
75384,155807,164277,5.8899328299,-1.8125631194999998,7.6522466748,1346
75547,155800,164260,5.8899328299,-1.8125631194999998,7.6522466748,1347
75705,155760,164263,5.8899328299,-1.8125631194999998,7.6522466748,1348
75871,155682,164204,5.8899328299,-1.8125631194999998,7.6522466748,1349
76038,155687,164169,5.8899328299,-1.8125631194999998,7.6522466748,1350
76204,155621,164178,5.8899328299,-1.8125631194999998,7.6522466748,1351
76361,155587,164124,5.8899328299,-1.8125631194999998,7.6522466748,1352
76524,155561,164112,5.8899328299,-1.8125631194999998,7.6522466748,1353
76682,155526,164072,5.8899328299,-1.8125631194999998,7.6522466748,1354
76830,155488,164053,5.8899328299,-1.8125631194999998,7.6522466748,1355
76956,155420,164024,5.8899328299,-1.8125631194999998,7.6522466748,1356
77126,155380,163955,5.8899328299,-1.8125631194999998,7.6522466748,1357
77258,155341,163927,5.8899328299,-1.8125631194999998,7.6522466748,1358
77376,155488,163972,5.8899328299,-1.8125631194999998,7.6522466748,1359
77399,155858,164149,5.8899328299,-1.8125631194999998,7.6522466748,1360
77355,156065,164246,5.8899328299,-1.8125631194999998,7.6522466748,1361
77307,156081,164238,5.8899328299,-1.8125631194999998,7.6522466748,1362
77321,156030,164233,5.8899328299,-1.8125631194999998,7.6522466748,1363
77337,155948,164188,5.8899328299,-1.8125631194999998,7.6522466748,1364
77364,155905,164115,5.8899328299,-1.8125631194999998,7.6522466748,1365
77441,155812,164070,5.8899328299,-1.8125631194999998,7.6522466748,1366
77512,155715,164049,5.8899328299,-1.8125631194999998,7.6522466748,1367
77586,155715,164006,5.8899328299,-1.8125631194999998,7.6522466748,1368
77667,155711,163981,5.8899328299,-1.8125631194999998,7.6522466748,1369
77993,155532,163888,5.8492548457,-1.818545176,7.7419775223,1370
78087,155505,163844,5.8492548457,-1.818545176,7.7419775223,1371
78187,155456,163816,5.8492548457,-1.818545176,7.7419775223,1372
78274,155412,163783,5.8492548457,-1.818545176,7.7419775223,1373
78367,155358,163769,5.8492548457,-1.818545176,7.7419775223,1374
78439,155333,163710,5.8492548457,-1.818545176,7.7419775223,1375
78549,155292,163649,5.8492548457,-1.818545176,7.7419775223,1376
78642,155264,163676,5.8492548457,-1.818545176,7.7419775223,1377
78734,155248,163619,5.8492548457,-1.818545176,7.7419775223,1378
78815,155206,163606,5.8492548457,-1.818545176,7.7419775223,1379
78898,155169,163534,5.8492548457,-1.818545176,7.7419775223,1380
79006,155176,163554,5.8492548457,-1.818545176,7.7419775223,1381
79081,155133,163542,5.8492548457,-1.818545176,7.7419775223,1382
79160,155126,163491,5.8492548457,-1.818545176,7.7419775223,1383
79261,155291,163583,5.8492548457,-1.818545176,7.7419775223,1384
79331,155778,163790,5.8492548457,-1.818545176,7.7419775223,1385
79375,155967,163902,5.8492548457,-1.818545176,7.7419775223,1386
79383,155969,163911,5.8492548457,-1.818545176,7.7419775223,1387
79399,155926,163868,5.8492548457,-1.818545176,7.7419775223,1388
79402,155892,163845,5.8492548457,-1.818545176,7.7419775223,1389
79423,155827,163816,5.8492548457,-1.818545176,7.7419775223,1390
79463,155731,163749,5.8492548457,-1.818545176,7.7419775223,1391
79503,155645,163722,5.8492548457,-1.818545176,7.7419775223,1392
79567,155671,163675,5.8492548457,-1.818545176,7.7419775223,1393
79612,155654,163665,5.8492548457,-1.818545176,7.7419775223,1394
79663,155643,163631,5.8492548457,-1.818545176,7.7419775223,1395
79706,155620,163629,5.8492548457,-1.818545176,7.7419775223,1396
79747,155572,163571,5.8492548457,-1.818545176,7.7419775223,1397
79794,155511,163561,5.8492548457,-1.818545176,7.7419775223,1398
79854,155458,163517,5.8492548457,-1.818545176,7.7419775223,1399
79892,155418,163465,5.8492548457,-1.818545176,7.7419775223,1400
79944,155352,163444,5.8492548457,-1.818545176,7.7419775223,1401
79982,155327,163387,5.8492548457,-1.818545176,7.7419775223,1402
80044,155255,163359,5.8492548457,-1.818545176,7.7419775223,1403
80096,155216,163293,5.8492548457,-1.818545176,7.7419775223,1404
80135,155180,163254,5.8492548457,-1.818545176,7.7419775223,1405
80188,155130,163247,5.8492548457,-1.818545176,7.7419775223,1406
80236,155097,163183,5.8492548457,-1.818545176,7.7419775223,1407
80284,155058,163143,5.8492548457,-1.818545176,7.7419775223,1408
80335,155000,163144,5.8492548457,-1.818545176,7.7419775223,1409
80362,154944,163103,5.8492548457,-1.818545176,7.7419775223,1410
80423,154912,163035,5.8492548457,-1.818545176,7.7419775223,1411
77258,154231,162062,5.8002019824,-1.6462619487999999,7.633104094,1412
77042,154145,162053,5.8002019824,-1.6462619487999999,7.633104094,1413
76855,154076,161980,5.8002019824,-1.6462619487999999,7.633104094,1414
76725,153969,161938,5.8002019824,-1.6462619487999999,7.633104094,1415
76628,153836,161875,5.8002019824,-1.6462619487999999,7.633104094,1416
76548,153815,161847,5.8002019824,-1.6462619487999999,7.633104094,1417
76466,153809,161839,5.8002019824,-1.6462619487999999,7.633104094,1418
76385,153800,161845,5.8002019824,-1.6462619487999999,7.633104094,1419
76287,153774,161849,5.8002019824,-1.6462619487999999,7.633104094,1420
76234,153719,161832,5.8002019824,-1.6462619487999999,7.633104094,1421
76210,153671,161752,5.8002019824,-1.6462619487999999,7.633104094,1422
76190,153635,161716,5.8002019824,-1.6462619487999999,7.633104094,1423
76170,153598,161718,5.8002019824,-1.6462619487999999,7.633104094,1424
76184,153518,161688,5.8002019824,-1.6462619487999999,7.633104094,1425
76184,153465,161653,5.8002019824,-1.6462619487999999,7.633104094,1426
76205,153435,161625,5.8002019824,-1.6462619487999999,7.633104094,1427
76236,153412,161608,5.8002019824,-1.6462619487999999,7.633104094,1428
76273,153371,161564,5.8002019824,-1.6462619487999999,7.633104094,1429
76325,153326,161567,5.8002019824,-1.6462619487999999,7.633104094,1430
76363,153296,161550,5.8002019824,-1.6462619487999999,7.633104094,1431
76393,153229,161526,5.8002019824,-1.6462619487999999,7.633104094,1432
76444,153234,161498,5.8002019824,-1.6462619487999999,7.633104094,1433
76471,153240,161459,5.8002019824,-1.6462619487999999,7.633104094,1434
76515,153174,161467,5.8002019824,-1.6462619487999999,7.633104094,1435
76566,153126,161449,5.8002019824,-1.6462619487999999,7.633104094,1436
76530,153373,161541,5.8002019824,-1.6462619487999999,7.633104094,1437
76264,153828,161767,5.8002019824,-1.6462619487999999,7.633104094,1438
75882,153935,161890,5.8002019824,-1.6462619487999999,7.633104094,1439
75570,153892,161842,5.8002019824,-1.6462619487999999,7.633104094,1440
75337,153816,161815,5.8002019824,-1.6462619487999999,7.633104094,1441
75178,153724,161828,5.8002019824,-1.6462619487999999,7.633104094,1442
75068,153660,161782,5.8002019824,-1.6462619487999999,7.633104094,1443
75023,153576,161750,5.8002019824,-1.6462619487999999,7.633104094,1444
75025,153528,161699,5.8002019824,-1.6462619487999999,7.633104094,1445
75019,153528,161708,5.8002019824,-1.6462619487999999,7.633104094,1446
75022,153546,161721,5.8002019824,-1.6462619487999999,7.633104094,1447
74998,153554,161716,5.8002019824,-1.6462619487999999,7.633104094,1448
75001,153502,161719,5.8002019824,-1.6462619487999999,7.633104094,1449
75028,153477,161709,5.8002019824,-1.6462619487999999,7.633104094,1450
75049,153428,161693,5.8002019824,-1.6462619487999999,7.633104094,1451
75099,153399,161654,5.8002019824,-1.6462619487999999,7.633104094,1452
75158,153369,161630,5.8002019824,-1.6462619487999999,7.633104094,1453
75590,153122,162254,5.9330036367,-1.6606188843999998,7.6343005053,1454
75582,153105,162196,5.9330036367,-1.6606188843999998,7.6343005053,1455
75592,153083,162194,5.9330036367,-1.6606188843999998,7.6343005053,1456
75608,153059,162189,5.9330036367,-1.6606188843999998,7.6343005053,1457
75667,153042,162190,5.9330036367,-1.6606188843999998,7.6343005053,1458
75701,153000,162216,5.9330036367,-1.6606188843999998,7.6343005053,1459
75735,152958,162216,5.9330036367,-1.6606188843999998,7.6343005053,1460
75804,152956,162134,5.9330036367,-1.6606188843999998,7.6343005053,1461
75866,152941,162152,5.9330036367,-1.6606188843999998,7.6343005053,1462
75916,152884,162153,5.9330036367,-1.6606188843999998,7.6343005053,1463
75964,152877,162145,5.9330036367,-1.6606188843999998,7.6343005053,1464
76041,152863,162133,5.9330036367,-1.6606188843999998,7.6343005053,1465
76089,152842,162137,5.9330036367,-1.6606188843999998,7.6343005053,1466
76150,152824,162117,5.9330036367,-1.6606188843999998,7.6343005053,1467
76168,152896,162157,5.9330036367,-1.6606188843999998,7.6343005053,1468
75921,153238,162280,5.9330036367,-1.6606188843999998,7.6343005053,1469
75448,153414,162400,5.9330036367,-1.6606188843999998,7.6343005053,1470
75024,153392,162421,5.9330036367,-1.6606188843999998,7.6343005053,1471
74710,153344,162383,5.9330036367,-1.6606188843999998,7.6343005053,1472
74486,153265,162375,5.9330036367,-1.6606188843999998,7.6343005053,1473
74353,153222,162350,5.9330036367,-1.6606188843999998,7.6343005053,1474
74311,153164,162353,6.038287831100001,-1.6654045296,7.6091758679999995,1475
74310,153102,162332,6.038287831100001,-1.6654045296,7.6091758679999995,1476
74319,153094,162303,6.038287831100001,-1.6654045296,7.6091758679999995,1477
74285,153110,162331,6.038287831100001,-1.6654045296,7.6091758679999995,1478
74277,153094,162332,6.038287831100001,-1.6654045296,7.6091758679999995,1479
74244,153102,162360,6.038287831100001,-1.6654045296,7.6091758679999995,1480
74269,153069,162354,6.038287831100001,-1.6654045296,7.6091758679999995,1481
74308,153034,162364,6.038287831100001,-1.6654045296,7.6091758679999995,1482
74324,153015,162331,6.038287831100001,-1.6654045296,7.6091758679999995,1483
74398,152975,162310,6.038287831100001,-1.6654045296,7.6091758679999995,1484
74437,152949,162333,6.038287831100001,-1.6654045296,7.6091758679999995,1485
74534,152909,162328,6.038287831100001,-1.6654045296,7.6091758679999995,1486
74596,152885,162302,6.038287831100001,-1.6654045296,7.6091758679999995,1487
74672,152860,162285,6.038287831100001,-1.6654045296,7.6091758679999995,1488
74760,152825,162279,6.038287831100001,-1.6654045296,7.6091758679999995,1489
74839,152823,162256,6.038287831100001,-1.6654045296,7.6091758679999995,1490
74932,152806,162271,6.038287831100001,-1.6654045296,7.6091758679999995,1491
75004,152786,162265,6.038287831100001,-1.6654045296,7.6091758679999995,1492
75094,152759,162240,6.038287831100001,-1.6654045296,7.6091758679999995,1493
75171,152745,162224,6.038287831100001,-1.6654045296,7.6091758679999995,1494
75151,152856,162295,6.038287831100001,-1.6654045296,7.6091758679999995,1495
74805,153189,162414,6.038287831100001,-1.6654045296,7.6091758679999995,1496
74273,153325,162512,6.038287831100001,-1.6654045296,7.6091758679999995,1497
73832,153272,162520,6.038287831100001,-1.6654045296,7.6091758679999995,1498
73577,153216,162512,6.038287831100001,-1.6654045296,7.6091758679999995,1499
73423,153156,162479,6.038287831100001,-1.6654045296,7.6091758679999995,1500
73358,153123,162484,6.038287831100001,-1.6654045296,7.6091758679999995,1501
73369,153055,162466,6.038287831100001,-1.6654045296,7.6091758679999995,1502
73430,153015,162450,6.038287831100001,-1.6654045296,7.6091758679999995,1503
73480,153022,162458,6.038287831100001,-1.6654045296,7.6091758679999995,1504
73517,153020,162488,6.038287831100001,-1.6654045296,7.6091758679999995,1505
73525,153022,162464,6.038287831100001,-1.6654045296,7.6091758679999995,1506
73526,152983,162512,6.038287831100001,-1.6654045296,7.6091758679999995,1507
73573,152951,162479,6.038287831100001,-1.6654045296,7.6091758679999995,1508
73648,152948,162508,6.038287831100001,-1.6654045296,7.6091758679999995,1509
73728,152902,162485,6.038287831100001,-1.6654045296,7.6091758679999995,1510
73811,152882,162500,6.038287831100001,-1.6654045296,7.6091758679999995,1511
73898,152896,162467,6.038287831100001,-1.6654045296,7.6091758679999995,1512
73998,152833,162449,6.038287831100001,-1.6654045296,7.6091758679999995,1513
74092,152830,162455,6.038287831100001,-1.6654045296,7.6091758679999995,1514
74206,152799,162435,6.038287831100001,-1.6654045296,7.6091758679999995,1515
74308,152785,162437,6.038287831100001,-1.6654045296,7.6091758679999995,1516
74510,152755,162417,5.9569318627,-1.6654045296,7.572087117700001,1517
74606,152709,162412,5.9569318627,-1.6654045296,7.572087117700001,1518
74692,152747,162383,5.9569318627,-1.6654045296,7.572087117700001,1519
74777,152739,162401,5.9569318627,-1.6654045296,7.572087117700001,1520
74707,152876,162459,5.9569318627,-1.6654045296,7.572087117700001,1521
74321,153213,162620,5.9569318627,-1.6654045296,7.572087117700001,1522
73791,153246,162640,5.9569318627,-1.6654045296,7.572087117700001,1523
73441,153190,162653,5.9569318627,-1.6654045296,7.572087117700001,1524
73237,153114,162640,5.9569318627,-1.6654045296,7.572087117700001,1525
73157,153054,162615,5.9569318627,-1.6654045296,7.572087117700001,1526
73127,153005,162603,5.9569318627,-1.6654045296,7.572087117700001,1527
73206,152961,162590,5.9569318627,-1.6654045296,7.572087117700001,1528
73283,152908,162608,5.9569318627,-1.6654045296,7.572087117700001,1529
73338,152923,162637,5.9569318627,-1.6654045296,7.572087117700001,1530
73358,152932,162624,5.9569318627,-1.6654045296,7.572087117700001,1531
73394,152925,162620,5.9569318627,-1.6654045296,7.572087117700001,1532
73432,152859,162624,5.9569318627,-1.6654045296,7.572087117700001,1533
73487,152835,162614,5.9569318627,-1.6654045296,7.572087117700001,1534
73555,152797,162614,5.9569318627,-1.6654045296,7.572087117700001,1535
73648,152799,162612,5.9569318627,-1.6654045296,7.572087117700001,1536
73747,152767,162588,5.9569318627,-1.6654045296,7.572087117700001,1537
73843,152723,162563,5.9569318627,-1.6654045296,7.572087117700001,1538
73945,152704,162566,5.9569318627,-1.6654045296,7.572087117700001,1539
74060,152702,162578,5.9569318627,-1.6654045296,7.572087117700001,1540
74160,152653,162556,5.9569318627,-1.6654045296,7.572087117700001,1541
74275,152637,162537,5.9569318627,-1.6654045296,7.572087117700001,1542
74379,152624,162521,5.9569318627,-1.6654045296,7.572087117700001,1543
74469,152603,162500,5.9569318627,-1.6654045296,7.572087117700001,1544
74583,152594,162515,5.9569318627,-1.6654045296,7.572087117700001,1545
74670,152596,162519,5.9569318627,-1.6654045296,7.572087117700001,1546
74706,152608,162531,5.9569318627,-1.6654045296,7.572087117700001,1547
74540,152844,162609,5.9569318627,-1.6654045296,7.572087117700001,1548
74045,153047,162740,5.9569318627,-1.6654045296,7.572087117700001,1549
73621,153013,162724,5.9569318627,-1.6654045296,7.572087117700001,1550
73384,152968,162672,5.9569318627,-1.6654045296,7.572087117700001,1551
