green,red,IR,acc_x,acc_y,acc_z,sample_index
107532,161952,221251,-6.673582231399999,7.142575461000001,-2.3102702203,1
107724,161963,221302,-6.6065831986,7.1174508237000005,-2.3844477209,2
107834,161940,221313,-6.5862442065,7.1210400576,-2.2360927197000002,3
108149,161953,221282,-6.575476504799999,7.088736952500001,-2.4131615921,4
108312,161965,221291,-6.5383877545,7.0779692508,-2.4071795356,5
108489,161959,221287,-6.6544396506,7.3064838090999995,-2.3832513096,6
108686,162013,221290,-6.533602109299999,7.1569323966,-2.3054845751,7
108829,162016,221343,-6.5383877545,7.0767728395,-2.4729821571,8
108638,162008,221306,-6.550351867499999,7.094719009,-2.3832513096,9
108071,161969,221289,-6.546762633599999,7.1330041706000005,-2.3641087288000002,10
107380,161938,221256,-6.642475537599999,7.058826669999999,-2.2839491717,11
106751,161913,221197,-6.6843499331,6.9260250157000005,-2.4000010678,12
106272,161877,221181,-6.6975104574,7.2490560667,-2.3270199785,13
106091,161854,221182,-6.6807606991999995,7.2514488893,-2.2097716711,14
106122,161854,221207,-6.6017975534,7.1940211469,-2.3521446158,15
106148,161865,221195,-6.6125652551,7.2059852599,-2.3138594542,16
106284,161845,221138,-6.7752771919,7.0289163875,-2.3306092124,17
106347,161866,221223,-6.6927248122,7.183253445199999,-2.4215364712,18
106444,161830,221207,-6.6927248122,7.1365934045,-2.3497517932000003,19
106518,161856,221222,-6.6029939646999996,7.1940211469,-2.3234307446,20
106633,161857,221200,-6.5659052144,7.082754896,-2.3617159062,21
106747,161876,221227,-6.6699929975,7.094719009,-2.3306092124,22
106870,161825,221182,-6.6568324732,7.118647235,-2.3030917525,23
107007,161803,221201,-6.6089760212,7.046862557000001,-2.3042881638,24
107138,161824,221209,-6.5970119082,7.1856462678,-2.3174486881,25
107290,161839,221186,-6.5611195692,7.1760749774,-2.3736800192,26
107427,161834,221215,-6.6257257794,7.2490560667,-2.3162522768000002,27
107666,161796,221206,-6.6269221907,7.1282185253999995,-2.3593230836,28
107779,161827,221214,-6.5994047308,7.0552374361,-2.3665015514,29
107949,161811,221150,-6.6125652551,7.1437718723,-2.3497517932000003,30
108087,161806,221167,-6.686742755699999,7.1856462678,-2.2145573163,31
108237,161818,221201,-6.5096738833000005,7.104290299400001,-2.404786713,32
108331,161816,221174,-6.5527446901,7.125825702799999,-2.2384855423,33
107997,161798,221157,-6.5120667059,7.1892355017,-2.3760728418,34
107417,161734,221085,-6.5790657387,7.1952175581999995,-2.3102702203,35
106715,161730,221046,-6.629315013299999,7.0959154203,-2.3174486881,36
106230,161684,221028,-6.687939167000001,7.1377898158,-2.2983061073,37
105882,161679,221031,-6.5120667059,7.1784678,-2.309073809,38
105819,161641,221013,-6.576672916100001,7.154539573999999,-2.2875384056,39
105842,161626,221029,-6.5718872709,7.0791656621,-2.2875384056,40
105955,161632,221033,-6.6209401342000005,7.2047888486,-2.3940190112999997,41
105990,161648,221065,-6.5730836822,7.1593252192,-2.3306092124,42
106080,161661,221062,-6.628118602,7.094719009,-2.3497517932000003,43
106152,161641,221034,-6.591029851699999,7.1150580011,-2.344966148,44
106269,161682,221067,-6.6089760212,7.058826669999999,-2.3186450994000003,45
106377,161629,221035,-6.642475537599999,7.2011996147,-2.3808584870000002,46
106497,161667,221057,-6.6089760212,7.155735985300001,-2.3880369548,47
106670,161644,221040,-6.5359949319,7.130611348,-2.3437697367,48
106788,161644,221079,-6.559923157899999,7.1210400576,-2.2803599377999997,49
106913,161660,221075,-6.604190375999999,7.1162544124,-2.2935204621,50
107086,161654,221036,-6.4689958991,7.1162544124,-2.3557338497,51
107263,161649,221086,-6.549155456199999,7.110272355899999,-2.3365912689,52
107456,161673,221094,-6.5934226743,7.2167529616,-2.3521446158,53
107547,161673,221076,-6.659225295800001,7.0492553796,-2.3425733254,54
107821,161696,221067,-6.6903319896,7.2107709050999995,-2.2983061073,55
107999,161694,221101,-6.604190375999999,6.975077879,-2.3748764305,56
108120,161734,221084,-6.592226263000001,7.1976103808000005,-2.356930261,57
107871,161710,221122,-6.6065831986,7.1856462678,-2.3868405435,58
107320,161695,221036,-6.709474570399999,7.2323063085,-2.3186450994000003,59
106652,161672,221019,-6.632904247199999,7.1018974768000005,-2.3665015514,60
106231,161652,221022,-6.686742755699999,7.3268228012,-2.2923240508,61
105960,161624,220975,-6.6221365455,7.058826669999999,-2.27318147,62
105895,161672,221011,-6.5096738833000005,7.1078795333,-2.3353948576,63
105968,161668,221035,-6.5551375127,7.1868426791,-2.4311077616,64
106106,161690,221031,-6.4570317861,7.1952175581999995,-2.3330020350000003,65
106208,161691,221055,-6.5850477951999995,7.1485575175,-2.344966148,66
106208,161731,221075,-6.534798520600001,7.046862557000001,-2.2911276395,67
106422,161729,221087,-6.492924125099999,7.113861589800001,-2.3126630429,68
106544,161735,221082,-6.6053867873000005,7.1880390904,-2.3078773977,69
106717,161696,221138,-6.7202422721,7.154539573999999,-2.3629123174999997,70
106826,161752,221108,-6.652046828,7.1150580011,-2.2671994135,71
107024,161767,221111,-6.6269221907,7.1090759446,-2.3521446158,72
107163,161751,221104,-6.5515482788,7.2107709050999995,-2.2863419943,73
107340,161809,221174,-6.5838513839,7.0660051378,-2.3030917525,74
107491,161811,221165,-6.5455662223,7.0779692508,-2.3593230836,75
107684,161806,221170,-6.563512391800001,7.106683122,-2.4239292938,76
107885,161836,221173,-6.5994047308,7.125825702799999,-2.2648065909,77
108092,161874,221177,-6.6221365455,7.1605216305,-2.2935204621,78
108260,161859,221194,-6.6352970698,7.1653072757,-2.3054845751,79
108458,161880,221164,-6.613761666399999,7.075576428200001,-2.2911276395,80
108585,161910,221232,-6.6257257794,7.1018974768000005,-2.3054845751,81
108498,161935,221207,-6.699903279999999,7.1461646949,-2.3341984463,82
107958,161868,221156,-6.632904247199999,7.1856462678,-2.4658036893,83
107290,161861,221170,-6.5838513839,7.1736821548,-2.3928226,84
106621,161822,221108,-6.5264236415,7.3136622769,-2.4562323989,85
106101,161787,221086,-6.6113688438,7.1377898158,-2.3736800192,86
105785,161800,221069,-6.652046828,7.196413969499999,-2.2911276395,87
105754,161794,221071,-6.6305114246,7.198806792099999,-2.3892333661,88
105839,161787,221109,-6.6376898924,7.1724857435,-2.3102702203,89
105919,161784,221078,-6.6376898924,7.1724857435,-2.3102702203,90
106009,161808,221116,-6.6376898924,7.1724857435,-2.3102702203,91
106086,161818,221144,-6.6376898924,7.1724857435,-2.3102702203,92
106220,161807,221137,-6.6376898924,7.1724857435,-2.3102702203,93
106336,161846,221155,-6.6376898924,7.1724857435,-2.3102702203,94
106481,161841,221138,-6.6376898924,7.1724857435,-2.3102702203,95
106627,161873,221187,-6.6376898924,7.1724857435,-2.3102702203,96
106796,161871,221165,-6.6376898924,7.1724857435,-2.3102702203,97
106963,161864,221202,-6.6376898924,7.1724857435,-2.3102702203,98
107111,161894,221220,-6.6376898924,7.1724857435,-2.3102702203,99
107308,161920,221189,-6.6376898924,7.1724857435,-2.3102702203,100
107502,161913,221212,-6.6376898924,7.1724857435,-2.3102702203,101
107700,161912,221206,-6.6376898924,7.1724857435,-2.3102702203,102
107866,161923,221213,-6.6376898924,7.1724857435,-2.3102702203,103
108031,161920,221205,-6.58026215,7.070790783,-2.4442682859,104
108198,161923,221177,-6.58026215,7.070790783,-2.4442682859,105
108237,161930,221188,-6.7202422721,7.1617180418,-2.3234307446,106
107868,161906,221190,-6.5850477951999995,7.125825702799999,-2.3198415107,107
107190,161868,221177,-6.644868360199999,7.2047888486,-2.3736800192,108
106461,161832,221091,-6.7070817478,7.0779692508,-2.3258235672,109
105917,161802,221070,-6.5479590449,7.0779692508,-2.3641087288000002,110
105498,161736,221053,-6.556333924,7.0660051378,-2.3234307446,111
105396,161753,221056,-6.556333924,7.0660051378,-2.3234307446,112
105491,161732,221046,-6.556333924,7.0660051378,-2.3234307446,113
105585,161712,221015,-6.556333924,7.0660051378,-2.3234307446,114
105619,161751,221047,-6.556333924,7.0660051378,-2.3234307446,115
105717,161722,221056,-6.556333924,7.0660051378,-2.3234307446,116
105810,161711,221082,-6.556333924,7.0660051378,-2.3234307446,117
105908,161704,221039,-6.556333924,7.0660051378,-2.3234307446,118
106026,161707,221042,-6.556333924,7.0660051378,-2.3234307446,119
106130,161702,221098,-6.556333924,7.0660051378,-2.3234307446,120
106291,161714,221064,-6.556333924,7.0660051378,-2.3234307446,121
106423,161697,221061,-6.556333924,7.0660051378,-2.3234307446,122
106578,161684,221030,-6.556333924,7.0660051378,-2.3234307446,123
106735,161709,221075,-6.556333924,7.0660051378,-2.3234307446,124
106902,161719,221067,-6.556333924,7.0660051378,-2.3234307446,125
107088,161703,221066,-6.556333924,7.0660051378,-2.3234307446,126
107250,161705,221063,-6.556333924,7.0660051378,-2.3234307446,127
107405,161697,221023,-6.556333924,7.0660051378,-2.3234307446,128
107563,161682,221070,-6.6855463444,7.142575461000001,-2.404786713,129
107705,161682,221057,-6.6855463444,7.142575461000001,-2.404786713,130
107484,161686,221035,-6.6855463444,7.142575461000001,-2.404786713,131
106941,161654,221025,-6.6855463444,7.142575461000001,-2.404786713,132
106338,161628,220974,-6.6855463444,7.142575461000001,-2.404786713,133
105742,161595,220930,-6.6855463444,7.142575461000001,-2.404786713,134
105397,161596,220910,-6.6855463444,7.142575461000001,-2.404786713,135
105324,161571,220940,-6.6855463444,7.142575461000001,-2.404786713,136
105386,161560,220970,-6.6855463444,7.142575461000001,-2.404786713,137
105472,161549,220949,-6.6855463444,7.142575461000001,-2.404786713,138
105557,161564,220975,-6.6855463444,7.142575461000001,-2.404786713,139
105639,161553,220970,-6.6855463444,7.142575461000001,-2.404786713,140
105757,161594,221001,-6.6855463444,7.142575461000001,-2.404786713,141
105885,161555,221012,-6.6855463444,7.142575461000001,-2.404786713,142
106024,161560,221021,-6.6855463444,7.142575461000001,-2.404786713,143
106169,161602,221015,-6.6855463444,7.142575461000001,-2.404786713,144
106330,161595,221028,-6.6855463444,7.142575461000001,-2.404786713,145
106499,161621,221015,-6.6855463444,7.142575461000001,-2.404786713,146
106672,161622,221027,-6.6855463444,7.142575461000001,-2.404786713,147
106855,161634,221034,-6.6855463444,7.142575461000001,-2.404786713,148
107034,161642,221069,-6.6855463444,7.142575461000001,-2.404786713,149
107228,161652,221077,-6.6855463444,7.142575461000001,-2.404786713,150
107430,161677,221076,-6.6855463444,7.142575461000001,-2.404786713,151
107633,161655,221084,-6.6855463444,7.142575461000001,-2.404786713,152
107814,161734,221122,-6.6855463444,7.142575461000001,-2.404786713,153
107791,161714,221111,-6.6855463444,7.142575461000001,-2.404786713,154
107387,161697,221065,-6.6855463444,7.142575461000001,-2.404786713,155
106791,161685,221031,-6.6855463444,7.142575461000001,-2.404786713,156
106237,161633,220999,-6.6855463444,7.142575461000001,-2.404786713,157
105792,161652,221014,-6.6855463444,7.142575461000001,-2.404786713,158
105552,161638,221030,-6.6855463444,7.142575461000001,-2.404786713,159
105596,161668,221037,-6.6855463444,7.142575461000001,-2.404786713,160
105724,161683,221052,-6.6855463444,7.142575461000001,-2.404786713,161
105854,161672,221063,-6.6855463444,7.142575461000001,-2.404786713,162
105932,161686,221125,-6.6855463444,7.142575461000001,-2.404786713,163
106066,161662,221089,-6.6855463444,7.142575461000001,-2.404786713,164
106202,161712,221146,-6.6855463444,7.142575461000001,-2.404786713,165
106333,161722,221092,-6.6855463444,7.142575461000001,-2.404786713,166
106494,161726,221110,-6.6855463444,7.142575461000001,-2.404786713,167
106677,161732,221140,-6.6855463444,7.142575461000001,-2.404786713,168
106840,161727,221141,-6.6855463444,7.142575461000001,-2.404786713,169
106974,161757,221162,-6.6855463444,7.142575461000001,-2.404786713,170
107791,161828,221158,-6.5850477951999995,7.0899333638,-2.2959132847,171
107218,161825,221126,-6.5850477951999995,7.0899333638,-2.2959132847,172
106629,161771,221098,-6.5850477951999995,7.0899333638,-2.2959132847,173
106155,161759,221097,-6.5850477951999995,7.0899333638,-2.2959132847,174
105862,161733,221039,-6.5850477951999995,7.0899333638,-2.2959132847,175
105841,161763,221117,-6.5850477951999995,7.0899333638,-2.2959132847,176
105974,161761,221136,-6.5850477951999995,7.0899333638,-2.2959132847,177
106099,161761,221117,-6.5850477951999995,7.0899333638,-2.2959132847,178
106203,161770,221103,-6.5850477951999995,7.0899333638,-2.2959132847,179
106345,161811,221157,-6.5850477951999995,7.0899333638,-2.2959132847,180
106457,161790,221146,-6.5850477951999995,7.0899333638,-2.2959132847,181
106582,161795,221137,-6.5850477951999995,7.0899333638,-2.2959132847,182
106717,161813,221171,-6.5850477951999995,7.0899333638,-2.2959132847,183
106861,161821,221138,-6.5850477951999995,7.0899333638,-2.2959132847,184
107052,161830,221175,-6.5850477951999995,7.0899333638,-2.2959132847,185
107208,161825,221157,-6.5850477951999995,7.0899333638,-2.2959132847,186
107350,161796,221190,-6.5850477951999995,7.0899333638,-2.2959132847,187
107486,161833,221137,-6.5850477951999995,7.0899333638,-2.2959132847,188
107632,161815,221152,-6.5850477951999995,7.0899333638,-2.2959132847,189
107775,161813,221168,-6.5850477951999995,7.0899333638,-2.2959132847,190
107906,161809,221147,-6.5850477951999995,7.0899333638,-2.2959132847,191
108057,161799,221172,-6.5850477951999995,7.0899333638,-2.2959132847,192
108191,161802,221143,-6.5850477951999995,7.0899333638,-2.2959132847,193
108148,161811,221112,-6.5850477951999995,7.0899333638,-2.2959132847,194
107783,161794,221139,-6.5850477951999995,7.0899333638,-2.2959132847,195
107231,161779,221061,-6.5850477951999995,7.0899333638,-2.2959132847,196
106660,161738,221037,-6.5850477951999995,7.0899333638,-2.2959132847,197
106200,161718,220990,-6.5850477951999995,7.0899333638,-2.2959132847,198
105898,161665,220961,-6.5850477951999995,7.0899333638,-2.2959132847,199
105855,161690,220993,-6.5850477951999995,7.0899333638,-2.2959132847,200
105964,161647,221017,-6.5850477951999995,7.0899333638,-2.2959132847,201
106021,161663,220995,-6.5850477951999995,7.0899333638,-2.2959132847,202
106108,161645,221033,-6.5850477951999995,7.0899333638,-2.2959132847,203
106196,161657,221000,-6.5850477951999995,7.0899333638,-2.2959132847,204
106283,161638,221040,-6.5850477951999995,7.0899333638,-2.2959132847,205
106394,161614,220988,-6.5850477951999995,7.0899333638,-2.2959132847,206
106525,161621,220995,-6.5850477951999995,7.0899333638,-2.2959132847,207
106657,161649,220990,-6.5850477951999995,7.0899333638,-2.2959132847,208
106793,161623,221000,-6.5850477951999995,7.0899333638,-2.2959132847,209
106920,161631,221025,-6.5850477951999995,7.0899333638,-2.2959132847,210
107027,161578,220990,-6.5850477951999995,7.0899333638,-2.2959132847,211
107171,161595,220966,-6.5850477951999995,7.0899333638,-2.2959132847,212
107460,161591,221014,-6.6855463444,7.2574309458,-2.4502503424,213
107565,161615,220997,-6.6855463444,7.2574309458,-2.4502503424,214
107710,161619,220996,-6.6855463444,7.2574309458,-2.4502503424,215
107872,161654,220988,-6.6855463444,7.2574309458,-2.4502503424,216
107831,161650,221006,-6.6855463444,7.2574309458,-2.4502503424,217
107465,161643,220967,-6.6855463444,7.2574309458,-2.4502503424,218
106970,161616,220914,-6.6855463444,7.2574309458,-2.4502503424,219
106518,161583,220891,-6.6855463444,7.2574309458,-2.4502503424,220
106151,161573,220887,-6.6855463444,7.2574309458,-2.4502503424,221
105963,161584,220931,-6.6855463444,7.2574309458,-2.4502503424,222
106018,161610,220905,-6.6855463444,7.2574309458,-2.4502503424,223
106140,161608,220957,-6.6855463444,7.2574309458,-2.4502503424,224
106251,161599,220910,-6.6855463444,7.2574309458,-2.4502503424,225
106364,161619,220949,-6.6855463444,7.2574309458,-2.4502503424,226
106465,161618,220910,-6.6855463444,7.2574309458,-2.4502503424,227
106602,161605,220960,-6.6855463444,7.2574309458,-2.4502503424,228
106722,161634,220960,-6.6855463444,7.2574309458,-2.4502503424,229
106862,161605,220973,-6.6855463444,7.2574309458,-2.4502503424,230
107008,161623,220948,-6.6855463444,7.2574309458,-2.4502503424,231
107163,161649,220988,-6.6939212235,7.1593252192,-2.2935204621,232
107336,161679,220994,-6.6939212235,7.1593252192,-2.2935204621,233
107498,161662,221002,-6.6939212235,7.1593252192,-2.2935204621,234
107641,161665,220964,-6.6939212235,7.1593252192,-2.2935204621,235
107801,161681,221015,-6.6939212235,7.1593252192,-2.2935204621,236
107956,161681,221011,-6.6939212235,7.1593252192,-2.2935204621,237
108093,161701,221036,-6.6939212235,7.1593252192,-2.2935204621,238
108254,161722,221002,-6.6939212235,7.1593252192,-2.2935204621,239
108389,161736,221017,-6.6939212235,7.1593252192,-2.2935204621,240
108329,161753,221039,-6.6939212235,7.1593252192,-2.2935204621,241
107990,161742,220988,-6.6939212235,7.1593252192,-2.2935204621,242
107471,161741,220992,-6.6939212235,7.1593252192,-2.2935204621,243
106960,161748,220951,-6.6939212235,7.1593252192,-2.2935204621,244
106518,161731,220976,-6.6939212235,7.1593252192,-2.2935204621,245
106223,161704,220911,-6.6939212235,7.1593252192,-2.2935204621,246
106169,161712,220946,-6.6939212235,7.1593252192,-2.2935204621,247
106288,161733,220959,-6.6939212235,7.1593252192,-2.2935204621,248
106404,161725,220951,-6.6939212235,7.1593252192,-2.2935204621,249
106519,161730,221004,-6.6939212235,7.1593252192,-2.2935204621,250
106632,161717,220980,-6.6939212235,7.1593252192,-2.2935204621,251
106762,161744,220992,-6.6939212235,7.1593252192,-2.2935204621,252
106895,161747,220966,-6.6939212235,7.1593252192,-2.2935204621,253
107027,161763,220962,-6.6939212235,7.1593252192,-2.2935204621,254
107174,161720,220965,-6.6939212235,7.1593252192,-2.2935204621,255
107329,161754,221008,-6.6939212235,7.1593252192,-2.2935204621,256
107514,161757,221015,-6.6939212235,7.1593252192,-2.2935204621,257
107656,161781,220989,-6.6939212235,7.1593252192,-2.2935204621,258
107816,161785,220989,-6.6939212235,7.1593252192,-2.2935204621,259
107968,161782,221029,-6.6939212235,7.1593252192,-2.2935204621,260
108124,161778,221014,-6.6939212235,7.1593252192,-2.2935204621,261
108263,161788,221001,-6.6939212235,7.1593252192,-2.2935204621,262
108433,161765,221007,-6.6939212235,7.1593252192,-2.2935204621,263
108576,161794,220988,-6.6939212235,7.1593252192,-2.2935204621,264
108697,161847,221010,-6.6939212235,7.1593252192,-2.2935204621,265
108578,161859,220994,-6.6939212235,7.1593252192,-2.2935204621,266
108225,161840,221017,-6.6939212235,7.1593252192,-2.2935204621,267
107703,161814,220960,-6.6939212235,7.1593252192,-2.2935204621,268
107240,161802,220968,-6.6939212235,7.1593252192,-2.2935204621,269
106840,161794,220959,-6.6939212235,7.1593252192,-2.2935204621,270
106635,161769,220948,-6.6939212235,7.1593252192,-2.2935204621,271
106643,161797,220962,-6.6939212235,7.1593252192,-2.2935204621,272
106778,161809,220955,-6.6939212235,7.1593252192,-2.2935204621,273
107365,161578,220750,-6.613761666399999,7.2095744938,-2.2600209457,274
107059,161574,220735,-6.613761666399999,7.2095744938,-2.2600209457,275
106993,161563,220701,-6.613761666399999,7.2095744938,-2.2600209457,276
107054,161527,220684,-6.613761666399999,7.2095744938,-2.2600209457,277
107117,161539,220698,-6.613761666399999,7.2095744938,-2.2600209457,278
107203,161514,220687,-6.613761666399999,7.2095744938,-2.2600209457,279
107291,161533,220654,-6.613761666399999,7.2095744938,-2.2600209457,280
107360,161536,220685,-6.613761666399999,7.2095744938,-2.2600209457,281
107492,161492,220691,-6.613761666399999,7.2095744938,-2.2600209457,282
107590,161499,220642,-6.613761666399999,7.2095744938,-2.2600209457,283
107718,161483,220668,-6.613761666399999,7.2095744938,-2.2600209457,284
107856,161481,220662,-6.613761666399999,7.2095744938,-2.2600209457,285
107992,161509,220652,-6.613761666399999,7.2095744938,-2.2600209457,286
108138,161492,220629,-6.613761666399999,7.2095744938,-2.2600209457,287
108273,161480,220646,-6.613761666399999,7.2095744938,-2.2600209457,288
108417,161546,220644,-6.613761666399999,7.2095744938,-2.2600209457,289
108540,161511,220641,-6.613761666399999,7.2095744938,-2.2600209457,290
108694,161490,220606,-6.613761666399999,7.2095744938,-2.2600209457,291
108845,161490,220621,-6.613761666399999,7.2095744938,-2.2600209457,292
108969,161496,220611,-6.613761666399999,7.2095744938,-2.2600209457,293
109083,161560,220619,-6.613761666399999,7.2095744938,-2.2600209457,294
109015,161557,220644,-6.613761666399999,7.2095744938,-2.2600209457,295
108783,161550,220638,-6.613761666399999,7.2095744938,-2.2600209457,296
108438,161557,220600,-6.613761666399999,7.2095744938,-2.2600209457,297
108131,161547,220571,-6.613761666399999,7.2095744938,-2.2600209457,298
107844,161568,220589,-6.613761666399999,7.2095744938,-2.2600209457,299
107700,161577,220607,-6.613761666399999,7.2095744938,-2.2600209457,300
107708,161550,220607,-6.613761666399999,7.2095744938,-2.2600209457,301
107802,161562,220584,-6.613761666399999,7.2095744938,-2.2600209457,302
107888,161581,220635,-6.613761666399999,7.2095744938,-2.2600209457,303
107970,161565,220562,-6.613761666399999,7.2095744938,-2.2600209457,304
108066,161579,220560,-6.613761666399999,7.2095744938,-2.2600209457,305
108174,161595,220587,-6.613761666399999,7.2095744938,-2.2600209457,306
108305,161560,220544,-6.613761666399999,7.2095744938,-2.2600209457,307
108418,161583,220590,-6.613761666399999,7.2095744938,-2.2600209457,308
108567,161626,220540,-6.613761666399999,7.2095744938,-2.2600209457,309
108717,161575,220540,-6.613761666399999,7.2095744938,-2.2600209457,310
108859,161584,220548,-6.613761666399999,7.2095744938,-2.2600209457,311
109000,161598,220535,-6.613761666399999,7.2095744938,-2.2600209457,312
109153,161592,220519,-6.613761666399999,7.2095744938,-2.2600209457,313
109286,161598,220527,-6.613761666399999,7.2095744938,-2.2600209457,314
109399,161604,220517,-6.613761666399999,7.2095744938,-2.2600209457,315
108325,161332,219996,-6.664010941,7.1114687672,-2.3665015514,316
108349,161308,219970,-6.664010941,7.1114687672,-2.3665015514,317
108415,161290,220006,-6.664010941,7.1114687672,-2.3665015514,318
108463,161281,219942,-6.664010941,7.1114687672,-2.3665015514,319
108542,161251,219934,-6.664010941,7.1114687672,-2.3665015514,320
108613,161255,219921,-6.664010941,7.1114687672,-2.3665015514,321
108730,161248,219894,-6.664010941,7.1114687672,-2.3665015514,322
108815,161245,219913,-6.664010941,7.1114687672,-2.3665015514,323
108908,161223,219919,-6.664010941,7.1114687672,-2.3665015514,324
109004,161210,219882,-6.664010941,7.1114687672,-2.3665015514,325
109083,161188,219846,-6.664010941,7.1114687672,-2.3665015514,326
109171,161166,219847,-6.664010941,7.1114687672,-2.3665015514,327
109264,161149,219824,-6.664010941,7.1114687672,-2.3665015514,328
109366,161154,219838,-6.664010941,7.1114687672,-2.3665015514,329
109452,161224,219853,-6.664010941,7.1114687672,-2.3665015514,330
109336,161211,219832,-6.664010941,7.1114687672,-2.3665015514,331
109118,161190,219868,-6.664010941,7.1114687672,-2.3665015514,332
108847,161191,219846,-6.664010941,7.1114687672,-2.3665015514,333
108550,161184,219858,-6.664010941,7.1114687672,-2.3665015514,334
108330,161221,219837,-6.664010941,7.1114687672,-2.3665015514,335
108219,161137,219793,-6.664010941,7.1114687672,-2.3665015514,336
108220,161199,219776,-6.664010941,7.1114687672,-2.3665015514,337
108228,161161,219792,-6.664010941,7.1114687672,-2.3665015514,338
108287,161197,219782,-6.664010941,7.1114687672,-2.3665015514,339
108298,161171,219769,-6.664010941,7.1114687672,-2.3665015514,340
108361,161156,219790,-6.664010941,7.1114687672,-2.3665015514,341
108439,161132,219786,-6.664010941,7.1114687672,-2.3665015514,342
108529,161149,219766,-6.664010941,7.1114687672,-2.3665015514,343
108632,161124,219787,-6.664010941,7.1114687672,-2.3665015514,344
108745,161131,219755,-6.664010941,7.1114687672,-2.3665015514,345
108868,161142,219752,-6.664010941,7.1114687672,-2.3665015514,346
108992,161131,219743,-6.664010941,7.1114687672,-2.3665015514,347
109129,161123,219756,-6.664010941,7.1114687672,-2.3665015514,348
109257,161157,219754,-6.664010941,7.1114687672,-2.3665015514,349
109390,161133,219743,-6.664010941,7.1114687672,-2.3665015514,350
109503,161151,219725,-6.664010941,7.1114687672,-2.3665015514,351
109625,161135,219774,-6.664010941,7.1114687672,-2.3665015514,352
109738,161130,219759,-6.664010941,7.1114687672,-2.3665015514,353
109804,161176,219746,-6.664010941,7.1114687672,-2.3665015514,354
109703,161189,219748,-6.664010941,7.1114687672,-2.3665015514,355
109475,161196,219766,-6.664010941,7.1114687672,-2.3665015514,356
109215,161189,219735,-6.664010941,7.1114687672,-2.3665015514,357
109714,161089,219386,-6.6065831986,7.2335027198,-2.3353948576,358
109829,161063,219386,-6.6065831986,7.2335027198,-2.3353948576,359
109924,161090,219394,-6.6065831986,7.2335027198,-2.3353948576,360
110014,161016,219358,-6.6065831986,7.2335027198,-2.3353948576,361
110128,161075,219383,-6.6065831986,7.2335027198,-2.3353948576,362
110238,161084,219385,-6.6065831986,7.2335027198,-2.3353948576,363
110281,161121,219427,-6.6065831986,7.2335027198,-2.3353948576,364
110143,161156,219432,-6.6065831986,7.2335027198,-2.3353948576,365
109849,161179,219430,-6.6065831986,7.2335027198,-2.3353948576,366
109480,161204,219392,-6.6065831986,7.2335027198,-2.3353948576,367
109152,161178,219456,-6.6065831986,7.2335027198,-2.3353948576,368
108829,161195,219391,-6.6065831986,7.2335027198,-2.3353948576,369
108698,161190,219396,-6.6065831986,7.2335027198,-2.3353948576,370
108683,161182,219449,-6.6065831986,7.2335027198,-2.3353948576,371
108736,161196,219386,-6.6065831986,7.2335027198,-2.3353948576,372
108794,161217,219482,-6.6065831986,7.2335027198,-2.3353948576,373
108846,161194,219378,-6.6065831986,7.2335027198,-2.3353948576,374
108921,161227,219400,-6.6065831986,7.2335027198,-2.3353948576,375
109016,161180,219439,-6.6065831986,7.2335027198,-2.3353948576,376
109118,161157,219394,-6.6065831986,7.2335027198,-2.3353948576,377
109235,161181,219396,-6.6065831986,7.2335027198,-2.3353948576,378
109359,161185,219412,-6.6065831986,7.2335027198,-2.3353948576,379
109494,161178,219422,-6.6065831986,7.2335027198,-2.3353948576,380
109603,161165,219385,-6.6065831986,7.2335027198,-2.3353948576,381
109741,161157,219430,-6.6065831986,7.2335027198,-2.3353948576,382
109869,161176,219366,-6.6065831986,7.2335027198,-2.3353948576,383
109982,161164,219387,-6.6065831986,7.2335027198,-2.3353948576,384
110143,161211,219379,-6.6065831986,7.2335027198,-2.3353948576,385
110247,161213,219401,-6.6065831986,7.2335027198,-2.3353948576,386
110363,161176,219390,-6.6065831986,7.2335027198,-2.3353948576,387
110477,161216,219382,-6.6065831986,7.2335027198,-2.3353948576,388
110448,161260,219456,-6.6065831986,7.2335027198,-2.3353948576,389
110266,161272,219459,-6.6065831986,7.2335027198,-2.3353948576,390
109983,161262,219441,-6.6065831986,7.2335027198,-2.3353948576,391
109659,161292,219430,-6.6065831986,7.2335027198,-2.3353948576,392
109356,161303,219449,-6.6065831986,7.2335027198,-2.3353948576,393
109131,161279,219433,-6.6065831986,7.2335027198,-2.3353948576,394
109044,161298,219434,-6.6065831986,7.2335027198,-2.3353948576,395
109074,161263,219421,-6.6065831986,7.2335027198,-2.3353948576,396
109121,161268,219413,-6.6065831986,7.2335027198,-2.3353948576,397
109212,161281,219428,-6.6065831986,7.2335027198,-2.3353948576,398
109279,161267,219425,-6.6065831986,7.2335027198,-2.3353948576,399
110976,160951,218940,-6.592226263000001,7.1198436463,-2.3006989299,400
110788,160924,218923,-6.592226263000001,7.1198436463,-2.3006989299,401
110582,160941,218899,-6.592226263000001,7.1198436463,-2.3006989299,402
110410,160932,218934,-6.592226263000001,7.1198436463,-2.3006989299,403
110332,160936,218921,-6.592226263000001,7.1198436463,-2.3006989299,404
110341,160866,218887,-6.592226263000001,7.1198436463,-2.3006989299,405
110336,160900,218860,-6.592226263000001,7.1198436463,-2.3006989299,406
110364,160875,218841,-6.592226263000001,7.1198436463,-2.3006989299,407
110392,160828,218843,-6.592226263000001,7.1198436463,-2.3006989299,408
110419,160819,218794,-6.592226263000001,7.1198436463,-2.3006989299,409
110474,160814,218785,-6.592226263000001,7.1198436463,-2.3006989299,410
110533,160795,218780,-6.592226263000001,7.1198436463,-2.3006989299,411
110603,160766,218758,-6.592226263000001,7.1198436463,-2.3006989299,412
110686,160751,218770,-6.592226263000001,7.1198436463,-2.3006989299,413
110761,160767,218733,-6.592226263000001,7.1198436463,-2.3006989299,414
110836,160752,218722,-6.592226263000001,7.1198436463,-2.3006989299,415
110922,160752,218702,-6.592226263000001,7.1198436463,-2.3006989299,416
111029,160754,218704,-6.592226263000001,7.1198436463,-2.3006989299,417
111103,160749,218713,-6.592226263000001,7.1198436463,-2.3006989299,418
111209,160736,218718,-6.592226263000001,7.1198436463,-2.3006989299,419
111287,160747,218689,-6.592226263000001,7.1198436463,-2.3006989299,420
111389,160762,218687,-6.592226263000001,7.1198436463,-2.3006989299,421
111429,160817,218751,-6.592226263000001,7.1198436463,-2.3006989299,422
111368,160878,218787,-6.592226263000001,7.1198436463,-2.3006989299,423
111205,160906,218780,-6.592226263000001,7.1198436463,-2.3006989299,424
110976,160917,218762,-6.592226263000001,7.1198436463,-2.3006989299,425
110752,160902,218788,-6.592226263000001,7.1198436463,-2.3006989299,426
110529,160903,218774,-6.592226263000001,7.1198436463,-2.3006989299,427
110420,160912,218789,-6.592226263000001,7.1198436463,-2.3006989299,428
110414,160922,218753,-6.592226263000001,7.1198436463,-2.3006989299,429
110425,160911,218801,-6.592226263000001,7.1198436463,-2.3006989299,430
110397,160916,218767,-6.592226263000001,7.1198436463,-2.3006989299,431
110428,160939,218782,-6.592226263000001,7.1198436463,-2.3006989299,432
110502,160936,218810,-6.592226263000001,7.1198436463,-2.3006989299,433
110539,160951,218791,-6.592226263000001,7.1198436463,-2.3006989299,434
110579,160956,218796,-6.592226263000001,7.1198436463,-2.3006989299,435
110652,160947,218817,-6.592226263000001,7.1198436463,-2.3006989299,436
110742,160957,218787,-6.592226263000001,7.1198436463,-2.3006989299,437
110821,160986,218773,-6.592226263000001,7.1198436463,-2.3006989299,438
110941,160957,218785,-6.592226263000001,7.1198436463,-2.3006989299,439
111019,160980,218796,-6.592226263000001,7.1198436463,-2.3006989299,440
111113,160980,218769,-6.592226263000001,7.1198436463,-2.3006989299,441
108676,161100,218683,-6.673582231399999,7.0325056214,-2.3353948576,442
108793,161054,218665,-6.673582231399999,7.0325056214,-2.3353948576,443
108866,161081,218652,-6.673582231399999,7.0325056214,-2.3353948576,444
108921,161109,218657,-6.673582231399999,7.0325056214,-2.3353948576,445
108742,161113,218717,-6.673582231399999,7.0325056214,-2.3353948576,446
108349,161138,218636,-6.673582231399999,7.0325056214,-2.3353948576,447
107852,161138,218660,-6.673582231399999,7.0325056214,-2.3353948576,448
107407,161108,218624,-6.673582231399999,7.0325056214,-2.3353948576,449
107038,161100,218667,-6.673582231399999,7.0325056214,-2.3353948576,450
106864,161113,218632,-6.673582231399999,7.0325056214,-2.3353948576,451
106869,161103,218653,-6.673582231399999,7.0325056214,-2.3353948576,452
106942,161100,218651,-6.673582231399999,7.0325056214,-2.3353948576,453
106982,161105,218651,-6.673582231399999,7.0325056214,-2.3353948576,454
107034,161100,218627,-6.673582231399999,7.0325056214,-2.3353948576,455
107104,161082,218612,-6.673582231399999,7.0325056214,-2.3353948576,456
107212,161051,218605,-6.673582231399999,7.0325056214,-2.3353948576,457
107312,161029,218607,-6.673582231399999,7.0325056214,-2.3353948576,458
107424,161031,218586,-6.673582231399999,7.0325056214,-2.3353948576,459
107556,161022,218594,-6.673582231399999,7.0325056214,-2.3353948576,460
107681,161030,218636,-6.673582231399999,7.0325056214,-2.3353948576,461
107795,161018,218616,-6.673582231399999,7.0325056214,-2.3353948576,462
107926,161005,218610,-6.673582231399999,7.0325056214,-2.3353948576,463
108044,161001,218609,-6.673582231399999,7.0325056214,-2.3353948576,464
108166,161039,218569,-6.673582231399999,7.0325056214,-2.3353948576,465
108308,160997,218619,-6.673582231399999,7.0325056214,-2.3353948576,466
108421,161017,218597,-6.673582231399999,7.0325056214,-2.3353948576,467
108528,161019,218538,-6.673582231399999,7.0325056214,-2.3353948576,468
108660,161020,218598,-6.673582231399999,7.0325056214,-2.3353948576,469
108743,161061,218627,-6.673582231399999,7.0325056214,-2.3353948576,470
108624,161086,218665,-6.673582231399999,7.0325056214,-2.3353948576,471
108267,161092,218670,-6.673582231399999,7.0325056214,-2.3353948576,472
107883,161126,218662,-6.673582231399999,7.0325056214,-2.3353948576,473
107511,161123,218638,-6.673582231399999,7.0325056214,-2.3353948576,474
107249,161115,218642,-6.673582231399999,7.0325056214,-2.3353948576,475
107147,161141,218664,-6.673582231399999,7.0325056214,-2.3353948576,476
107202,161148,218723,-6.673582231399999,7.0325056214,-2.3353948576,477
107315,161156,218684,-6.673582231399999,7.0325056214,-2.3353948576,478
107405,161151,218745,-6.673582231399999,7.0325056214,-2.3353948576,479
107523,161167,218702,-6.673582231399999,7.0325056214,-2.3353948576,480
107622,161180,218746,-6.673582231399999,7.0325056214,-2.3353948576,481
107748,161153,218730,-6.673582231399999,7.0325056214,-2.3353948576,482
107871,161155,218684,-6.673582231399999,7.0325056214,-2.3353948576,483
108769,161336,218807,-6.7441704981,7.1593252192,-2.3856441322,484
108860,161344,218818,-6.7441704981,7.1593252192,-2.3856441322,485
108961,161319,218746,-6.7441704981,7.1593252192,-2.3856441322,486
109055,161344,218791,-6.7441704981,7.1593252192,-2.3856441322,487
109163,161343,218771,-6.7441704981,7.1593252192,-2.3856441322,488
109269,161345,218758,-6.7441704981,7.1593252192,-2.3856441322,489
109293,161355,218760,-6.7441704981,7.1593252192,-2.3856441322,490
109060,161373,218780,-6.7441704981,7.1593252192,-2.3856441322,491
108616,161354,218725,-6.7441704981,7.1593252192,-2.3856441322,492
108098,161313,218704,-6.7441704981,7.1593252192,-2.3856441322,493
107612,161331,218731,-6.7441704981,7.1593252192,-2.3856441322,494
107239,161321,218724,-6.7441704981,7.1593252192,-2.3856441322,495
107090,161319,218735,-6.7441704981,7.1593252192,-2.3856441322,496
107049,161302,218733,-6.7441704981,7.1593252192,-2.3856441322,497
107100,161329,218740,-6.7441704981,7.1593252192,-2.3856441322,498
107110,161314,218718,-6.7441704981,7.1593252192,-2.3856441322,499
107116,161318,218709,-6.7441704981,7.1593252192,-2.3856441322,500
107166,161289,218688,-6.7441704981,7.1593252192,-2.3856441322,501
107206,161284,218675,-6.7441704981,7.1593252192,-2.3856441322,502
107297,161267,218682,-6.7441704981,7.1593252192,-2.3856441322,503
107367,161276,218681,-6.7441704981,7.1593252192,-2.3856441322,504
107475,161267,218687,-6.7441704981,7.1593252192,-2.3856441322,505
107590,161260,218691,-6.7441704981,7.1593252192,-2.3856441322,506
107689,161263,218689,-6.7441704981,7.1593252192,-2.3856441322,507
107801,161253,218694,-6.7441704981,7.1593252192,-2.3856441322,508
107901,161276,218722,-6.7441704981,7.1593252192,-2.3856441322,509
108002,161266,218682,-6.7441704981,7.1593252192,-2.3856441322,510
108119,161269,218732,-6.7441704981,7.1593252192,-2.3856441322,511
108238,161232,218723,-6.7441704981,7.1593252192,-2.3856441322,512
108365,161285,218696,-6.7441704981,7.1593252192,-2.3856441322,513
108483,161239,218681,-6.7441704981,7.1593252192,-2.3856441322,514
108601,161323,218741,-6.7441704981,7.1593252192,-2.3856441322,515
108501,161325,218760,-6.7441704981,7.1593252192,-2.3856441322,516
108074,161346,218730,-6.7441704981,7.1593252192,-2.3856441322,517
107562,161330,218704,-6.7441704981,7.1593252192,-2.3856441322,518
107069,161338,218711,-6.7441704981,7.1593252192,-2.3856441322,519
106711,161335,218736,-6.7441704981,7.1593252192,-2.3856441322,520
106492,161343,218760,-6.7441704981,7.1593252192,-2.3856441322,521
106497,161362,218728,-6.7441704981,7.1593252192,-2.3856441322,522
106594,161370,218763,-6.7441704981,7.1593252192,-2.3856441322,523
106666,161380,218783,-6.7441704981,7.1593252192,-2.3856441322,524
106743,161386,218786,-6.7441704981,7.1593252192,-2.3856441322,525
108835,161510,218956,-6.6065831986,7.1401826384,-2.3066809864,526
108957,161519,218904,-6.6065831986,7.1401826384,-2.3066809864,527
108900,161565,218940,-6.6065831986,7.1401826384,-2.3066809864,528
108517,161580,218977,-6.6065831986,7.1401826384,-2.3066809864,529
107962,161582,218887,-6.6065831986,7.1401826384,-2.3066809864,530
107409,161547,218918,-6.6065831986,7.1401826384,-2.3066809864,531
106928,161545,218952,-6.6065831986,7.1401826384,-2.3066809864,532
106653,161550,218928,-6.6065831986,7.1401826384,-2.3066809864,533
106574,161566,218955,-6.6065831986,7.1401826384,-2.3066809864,534
106661,161567,218966,-6.6065831986,7.1401826384,-2.3066809864,535
106759,161576,218972,-6.6065831986,7.1401826384,-2.3066809864,536
106838,161593,218991,-6.6065831986,7.1401826384,-2.3066809864,537
106914,161604,218990,-6.6065831986,7.1401826384,-2.3066809864,538
107021,161598,219013,-6.6065831986,7.1401826384,-2.3066809864,539
107159,161597,219037,-6.6065831986,7.1401826384,-2.3066809864,540
107281,161618,219035,-6.6065831986,7.1401826384,-2.3066809864,541
107425,161586,219029,-6.6065831986,7.1401826384,-2.3066809864,542
107552,161621,219055,-6.6065831986,7.1401826384,-2.3066809864,543
107701,161591,219040,-6.6065831986,7.1401826384,-2.3066809864,544
107844,161623,219043,-6.6065831986,7.1401826384,-2.3066809864,545
107981,161602,219063,-6.6065831986,7.1401826384,-2.3066809864,546
108133,161648,219047,-6.6065831986,7.1401826384,-2.3066809864,547
108282,161581,219049,-6.6065831986,7.1401826384,-2.3066809864,548
108426,161626,219057,-6.6065831986,7.1401826384,-2.3066809864,549
108603,161668,219034,-6.6065831986,7.1401826384,-2.3066809864,550
108747,161629,219052,-6.6065831986,7.1401826384,-2.3066809864,551
108914,161636,219080,-6.6065831986,7.1401826384,-2.3066809864,552
109053,161687,219067,-6.6065831986,7.1401826384,-2.3066809864,553
109082,161693,219076,-6.6065831986,7.1401826384,-2.3066809864,554
108802,161671,219054,-6.6065831986,7.1401826384,-2.3066809864,555
108317,161634,219076,-6.6065831986,7.1401826384,-2.3066809864,556
107761,161607,219057,-6.6065831986,7.1401826384,-2.3066809864,557
107318,161616,219025,-6.6065831986,7.1401826384,-2.3066809864,558
106976,161612,218999,-6.6065831986,7.1401826384,-2.3066809864,559
106887,161581,219000,-6.6065831986,7.1401826384,-2.3066809864,560
106947,161572,218979,-6.6065831986,7.1401826384,-2.3066809864,561
107019,161558,218986,-6.6065831986,7.1401826384,-2.3066809864,562
107096,161544,219021,-6.6065831986,7.1401826384,-2.3066809864,563
107153,161560,219015,-6.6065831986,7.1401826384,-2.3066809864,564
107241,161535,219009,-6.6065831986,7.1401826384,-2.3066809864,565
107305,161511,219021,-6.6065831986,7.1401826384,-2.3066809864,566
107422,161558,219027,-6.6065831986,7.1401826384,-2.3066809864,567
107232,161384,218944,-6.559923157899999,7.2047888486,-2.3904297774,568
107275,161372,218941,-6.559923157899999,7.2047888486,-2.3904297774,569
107327,161387,218977,-6.559923157899999,7.2047888486,-2.3904297774,570
107395,161382,218964,-6.559923157899999,7.2047888486,-2.3904297774,571
107474,161352,218996,-6.559923157899999,7.2047888486,-2.3904297774,572
107570,161363,218957,-6.559923157899999,7.2047888486,-2.3904297774,573
107696,161357,218957,-6.559923157899999,7.2047888486,-2.3904297774,574
107801,161354,219012,-6.559923157899999,7.2047888486,-2.3904297774,575
107921,161367,218964,-6.559923157899999,7.2047888486,-2.3904297774,576
108052,161391,218955,-6.559923157899999,7.2047888486,-2.3904297774,577
108189,161367,218981,-6.559923157899999,7.2047888486,-2.3904297774,578
108319,161390,219026,-6.559923157899999,7.2047888486,-2.3904297774,579
108453,161389,219048,-6.559923157899999,7.2047888486,-2.3904297774,580
108595,161392,219011,-6.559923157899999,7.2047888486,-2.3904297774,581
108720,161366,219022,-6.559923157899999,7.2047888486,-2.3904297774,582
108871,161418,219015,-6.559923157899999,7.2047888486,-2.3904297774,583
109013,161398,218996,-6.559923157899999,7.2047888486,-2.3904297774,584
109132,161433,219054,-6.559923157899999,7.2047888486,-2.3904297774,585
109024,161472,219075,-6.559923157899999,7.2047888486,-2.3904297774,586
108599,161465,219007,-6.559923157899999,7.2047888486,-2.3904297774,587
108126,161433,218997,-6.559923157899999,7.2047888486,-2.3904297774,588
107657,161393,219043,-6.559923157899999,7.2047888486,-2.3904297774,589
107305,161408,219037,-6.559923157899999,7.2047888486,-2.3904297774,590
107133,161426,219076,-6.559923157899999,7.2047888486,-2.3904297774,591
107144,161455,219077,-6.559923157899999,7.2047888486,-2.3904297774,592
107211,161441,219067,-6.559923157899999,7.2047888486,-2.3904297774,593
107281,161461,219110,-6.559923157899999,7.2047888486,-2.3904297774,594
107351,161500,219139,-6.559923157899999,7.2047888486,-2.3904297774,595
107412,161509,219143,-6.559923157899999,7.2047888486,-2.3904297774,596
107530,161473,219155,-6.559923157899999,7.2047888486,-2.3904297774,597
107637,161505,219188,-6.559923157899999,7.2047888486,-2.3904297774,598
107779,161532,219164,-6.559923157899999,7.2047888486,-2.3904297774,599
107907,161534,219215,-6.559923157899999,7.2047888486,-2.3904297774,600
108048,161524,219213,-6.559923157899999,7.2047888486,-2.3904297774,601
108202,161543,219188,-6.559923157899999,7.2047888486,-2.3904297774,602
108320,161554,219208,-6.559923157899999,7.2047888486,-2.3904297774,603
108468,161561,219217,-6.559923157899999,7.2047888486,-2.3904297774,604
108602,161587,219261,-6.559923157899999,7.2047888486,-2.3904297774,605
108776,161595,219249,-6.559923157899999,7.2047888486,-2.3904297774,606
108926,161618,219245,-6.559923157899999,7.2047888486,-2.3904297774,607
109085,161641,219260,-6.559923157899999,7.2047888486,-2.3904297774,608
109260,161623,219241,-6.559923157899999,7.2047888486,-2.3904297774,609
108485,161785,219451,-6.757331022400001,7.2490560667,-2.2719850587,610
108635,161761,219386,-6.757331022400001,7.2490560667,-2.2719850587,611
108813,161777,219435,-6.757331022400001,7.2490560667,-2.2719850587,612
108981,161749,219450,-6.757331022400001,7.2490560667,-2.2719850587,613
109111,161728,219395,-6.757331022400001,7.2490560667,-2.2719850587,614
109240,161779,219438,-6.757331022400001,7.2490560667,-2.2719850587,615
109316,161758,219472,-6.757331022400001,7.2490560667,-2.2719850587,616
109041,161756,219449,-6.757331022400001,7.2490560667,-2.2719850587,617
108521,161713,219394,-6.757331022400001,7.2490560667,-2.2719850587,618
107920,161695,219364,-6.757331022400001,7.2490560667,-2.2719850587,619
107392,161686,219365,-6.757331022400001,7.2490560667,-2.2719850587,620
107001,161656,219366,-6.757331022400001,7.2490560667,-2.2719850587,621
106850,161658,219394,-6.757331022400001,7.2490560667,-2.2719850587,622
106882,161640,219381,-6.757331022400001,7.2490560667,-2.2719850587,623
106929,161640,219360,-6.757331022400001,7.2490560667,-2.2719850587,624
107000,161639,219355,-6.757331022400001,7.2490560667,-2.2719850587,625
107043,161630,219394,-6.757331022400001,7.2490560667,-2.2719850587,626
107124,161604,219323,-6.757331022400001,7.2490560667,-2.2719850587,627
107210,161621,219348,-6.757331022400001,7.2490560667,-2.2719850587,628
107325,161593,219354,-6.757331022400001,7.2490560667,-2.2719850587,629
107447,161586,219390,-6.757331022400001,7.2490560667,-2.2719850587,630
107577,161586,219361,-6.757331022400001,7.2490560667,-2.2719850587,631
107701,161575,219370,-6.757331022400001,7.2490560667,-2.2719850587,632
107834,161575,219352,-6.757331022400001,7.2490560667,-2.2719850587,633
107964,161579,219393,-6.757331022400001,7.2490560667,-2.2719850587,634
108109,161569,219365,-6.757331022400001,7.2490560667,-2.2719850587,635
108250,161561,219365,-6.757331022400001,7.2490560667,-2.2719850587,636
108392,161562,219355,-6.757331022400001,7.2490560667,-2.2719850587,637
108551,161547,219350,-6.757331022400001,7.2490560667,-2.2719850587,638
108723,161558,219380,-6.757331022400001,7.2490560667,-2.2719850587,639
108842,161567,219360,-6.757331022400001,7.2490560667,-2.2719850587,640
108976,161580,219388,-6.757331022400001,7.2490560667,-2.2719850587,641
108949,161564,219388,-6.757331022400001,7.2490560667,-2.2719850587,642
108602,161557,219342,-6.757331022400001,7.2490560667,-2.2719850587,643
108095,161523,219333,-6.757331022400001,7.2490560667,-2.2719850587,644
107602,161509,219315,-6.757331022400001,7.2490560667,-2.2719850587,645
107213,161500,219354,-6.757331022400001,7.2490560667,-2.2719850587,646
107022,161498,219372,-6.757331022400001,7.2490560667,-2.2719850587,647
107036,161496,219346,-6.757331022400001,7.2490560667,-2.2719850587,648
107091,161506,219344,-6.757331022400001,7.2490560667,-2.2719850587,649
107165,161512,219373,-6.757331022400001,7.2490560667,-2.2719850587,650
107222,161512,219368,-6.757331022400001,7.2490560667,-2.2719850587,651
106849,161588,219779,-6.5659052144,7.1353969932,-2.3832513096,652
106894,161589,219819,-6.5659052144,7.1353969932,-2.3832513096,653
107003,161595,219825,-6.5659052144,7.1353969932,-2.3832513096,654
107070,161598,219854,-6.5659052144,7.1353969932,-2.3832513096,655
107157,161614,219864,-6.5659052144,7.1353969932,-2.3832513096,656
107258,161619,219875,-6.5659052144,7.1353969932,-2.3832513096,657
107354,161610,219847,-6.5659052144,7.1353969932,-2.3832513096,658
107483,161601,219861,-6.5659052144,7.1353969932,-2.3832513096,659
107620,161659,219900,-6.5659052144,7.1353969932,-2.3832513096,660
107757,161647,219872,-6.5659052144,7.1353969932,-2.3832513096,661
107903,161656,219912,-6.5659052144,7.1353969932,-2.3832513096,662
108076,161674,219879,-6.5659052144,7.1353969932,-2.3832513096,663
108206,161682,219887,-6.5659052144,7.1353969932,-2.3832513096,664
108375,161693,219925,-6.5659052144,7.1353969932,-2.3832513096,665
108513,161714,219936,-6.5659052144,7.1353969932,-2.3832513096,666
108700,161680,219941,-6.5659052144,7.1353969932,-2.3832513096,667
108851,161708,219979,-6.5659052144,7.1353969932,-2.3832513096,668
109023,161742,219954,-6.5659052144,7.1353969932,-2.3832513096,669
109173,161756,220002,-6.5659052144,7.1353969932,-2.3832513096,670
109136,161735,220000,-6.5659052144,7.1353969932,-2.3832513096,671
108744,161762,219958,-6.5659052144,7.1353969932,-2.3832513096,672
108191,161767,219953,-6.5659052144,7.1353969932,-2.3832513096,673
107622,161709,219956,-6.5659052144,7.1353969932,-2.3832513096,674
107121,161709,219951,-6.5659052144,7.1353969932,-2.3832513096,675
106819,161710,219957,-6.5659052144,7.1353969932,-2.3832513096,676
106769,161709,219966,-6.5659052144,7.1353969932,-2.3832513096,677
106840,161722,219985,-6.5659052144,7.1353969932,-2.3832513096,678
106939,161726,219988,-6.5659052144,7.1353969932,-2.3832513096,679
106990,161743,220027,-6.5659052144,7.1353969932,-2.3832513096,680
107076,161748,220029,-6.5659052144,7.1353969932,-2.3832513096,681
107177,161742,220035,-6.5659052144,7.1353969932,-2.3832513096,682
107293,161746,220052,-6.5659052144,7.1353969932,-2.3832513096,683
107421,161726,220041,-6.5659052144,7.1353969932,-2.3832513096,684
107558,161735,220075,-6.5659052144,7.1353969932,-2.3832513096,685
107703,161744,220078,-6.5659052144,7.1353969932,-2.3832513096,686
107846,161764,220114,-6.5659052144,7.1353969932,-2.3832513096,687
108002,161773,220095,-6.5659052144,7.1353969932,-2.3832513096,688
108134,161780,220117,-6.5659052144,7.1353969932,-2.3832513096,689
108281,161793,220103,-6.5659052144,7.1353969932,-2.3832513096,690
108448,161802,220141,-6.5659052144,7.1353969932,-2.3832513096,691
108613,161794,220144,-6.5659052144,7.1353969932,-2.3832513096,692
108786,161823,220106,-6.5659052144,7.1353969932,-2.3832513096,693
108271,161813,220334,-6.6855463444,7.0803620734,-2.3389840915,694
107698,161801,220332,-6.6855463444,7.0803620734,-2.3389840915,695
107098,161746,220275,-6.6855463444,7.0803620734,-2.3389840915,696
106599,161736,220299,-6.6855463444,7.0803620734,-2.3389840915,697
106246,161693,220247,-6.6855463444,7.0803620734,-2.3389840915,698
106124,161712,220286,-6.6855463444,7.0803620734,-2.3389840915,699
106214,161697,220257,-6.6855463444,7.0803620734,-2.3389840915,700
106321,161712,220280,-6.6855463444,7.0803620734,-2.3389840915,701
106405,161660,220272,-6.6855463444,7.0803620734,-2.3389840915,702
106461,161698,220277,-6.6855463444,7.0803620734,-2.3389840915,703
106569,161666,220303,-6.6855463444,7.0803620734,-2.3389840915,704
106677,161666,220272,-6.6855463444,7.0803620734,-2.3389840915,705
106784,161653,220276,-6.6855463444,7.0803620734,-2.3389840915,706
106902,161618,220302,-6.6855463444,7.0803620734,-2.3389840915,707
107037,161639,220263,-6.6855463444,7.0803620734,-2.3389840915,708
107185,161649,220309,-6.6855463444,7.0803620734,-2.3389840915,709
107292,161612,220289,-6.6855463444,7.0803620734,-2.3389840915,710
107428,161616,220302,-6.6855463444,7.0803620734,-2.3389840915,711
107573,161628,220275,-6.6855463444,7.0803620734,-2.3389840915,712
107725,161638,220249,-6.6855463444,7.0803620734,-2.3389840915,713
107875,161604,220269,-6.6855463444,7.0803620734,-2.3389840915,714
108017,161625,220267,-6.6855463444,7.0803620734,-2.3389840915,715
108172,161598,220257,-6.6855463444,7.0803620734,-2.3389840915,716
108301,161592,220268,-6.6855463444,7.0803620734,-2.3389840915,717
108385,161629,220278,-6.6855463444,7.0803620734,-2.3389840915,718
108115,161604,220224,-6.6855463444,7.0803620734,-2.3389840915,719
107608,161565,220210,-6.6855463444,7.0803620734,-2.3389840915,720
107069,161536,220235,-6.6855463444,7.0803620734,-2.3389840915,721
106585,161531,220213,-6.6855463444,7.0803620734,-2.3389840915,722
106286,161515,220159,-6.6855463444,7.0803620734,-2.3389840915,723
106217,161518,220199,-6.6855463444,7.0803620734,-2.3389840915,724
106266,161495,220179,-6.6855463444,7.0803620734,-2.3389840915,725
106345,161509,220158,-6.6855463444,7.0803620734,-2.3389840915,726
106396,161484,220233,-6.6855463444,7.0803620734,-2.3389840915,727
106477,161482,220169,-6.6855463444,7.0803620734,-2.3389840915,728
106553,161476,220199,-6.6855463444,7.0803620734,-2.3389840915,729
106653,161512,220222,-6.6855463444,7.0803620734,-2.3389840915,730
106768,161483,220242,-6.6855463444,7.0803620734,-2.3389840915,731
106884,161491,220206,-6.6855463444,7.0803620734,-2.3389840915,732
107022,161484,220209,-6.6855463444,7.0803620734,-2.3389840915,733
107148,161501,220222,-6.6855463444,7.0803620734,-2.3389840915,734
107266,161522,220228,-6.6855463444,7.0803620734,-2.3389840915,735
106624,161642,220457,-6.6125652551,7.0660051378,-2.4514467537,736
106689,161686,220444,-6.6125652551,7.0660051378,-2.4514467537,737
106794,161651,220484,-6.6125652551,7.0660051378,-2.4514467537,738
106880,161657,220473,-6.6125652551,7.0660051378,-2.4514467537,739
107016,161637,220484,-6.6125652551,7.0660051378,-2.4514467537,740
107131,161633,220460,-6.6125652551,7.0660051378,-2.4514467537,741
107248,161620,220457,-6.6125652551,7.0660051378,-2.4514467537,742
107358,161617,220447,-6.6125652551,7.0660051378,-2.4514467537,743
107507,161610,220472,-6.6125652551,7.0660051378,-2.4514467537,744
107648,161602,220504,-6.6125652551,7.0660051378,-2.4514467537,745
107794,161586,220466,-6.6125652551,7.0660051378,-2.4514467537,746
107943,161645,220462,-6.6125652551,7.0660051378,-2.4514467537,747
108104,161607,220484,-6.6125652551,7.0660051378,-2.4514467537,748
108238,161626,220488,-6.6125652551,7.0660051378,-2.4514467537,749
108410,161614,220474,-6.6125652551,7.0660051378,-2.4514467537,750
108536,161605,220469,-6.6125652551,7.0660051378,-2.4514467537,751
108582,161621,220469,-6.6125652551,7.0660051378,-2.4514467537,752
108304,161579,220418,-6.6125652551,7.0660051378,-2.4514467537,753
107764,161573,220413,-6.6125652551,7.0660051378,-2.4514467537,754
107244,161552,220402,-6.6125652551,7.0660051378,-2.4514467537,755
106785,161524,220361,-6.6125652551,7.0660051378,-2.4514467537,756
106526,161503,220364,-6.6125652551,7.0660051378,-2.4514467537,757
106476,161493,220365,-6.6125652551,7.0660051378,-2.4514467537,758
106581,161491,220396,-6.6125652551,7.0660051378,-2.4514467537,759
106611,161484,220419,-6.6125652551,7.0660051378,-2.4514467537,760
106669,161509,220447,-6.6125652551,7.0660051378,-2.4514467537,761
106736,161519,220426,-6.6125652551,7.0660051378,-2.4514467537,762
106820,161474,220458,-6.6125652551,7.0660051378,-2.4514467537,763
106935,161506,220430,-6.6125652551,7.0660051378,-2.4514467537,764
107044,161473,220445,-6.6125652551,7.0660051378,-2.4514467537,765
107173,161493,220415,-6.6125652551,7.0660051378,-2.4514467537,766
107305,161479,220449,-6.6125652551,7.0660051378,-2.4514467537,767
107467,161504,220442,-6.6125652551,7.0660051378,-2.4514467537,768
107584,161521,220457,-6.6125652551,7.0660051378,-2.4514467537,769
107737,161539,220440,-6.6125652551,7.0660051378,-2.4514467537,770
107901,161516,220494,-6.6125652551,7.0660051378,-2.4514467537,771
108052,161526,220457,-6.6125652551,7.0660051378,-2.4514467537,772
108208,161550,220465,-6.6125652551,7.0660051378,-2.4514467537,773
108383,161518,220502,-6.6125652551,7.0660051378,-2.4514467537,774
108550,161549,220503,-6.6125652551,7.0660051378,-2.4514467537,775
108624,161613,220498,-6.6125652551,7.0660051378,-2.4514467537,776
108359,161585,220490,-6.6125652551,7.0660051378,-2.4514467537,777
108414,161771,220697,-6.5958154969,7.1018974768000005,-2.4622144554,778
108557,161742,220675,-6.5958154969,7.1018974768000005,-2.4622144554,779
108668,161773,220710,-6.5958154969,7.1018974768000005,-2.4622144554,780
108537,161723,220687,-6.5958154969,7.1018974768000005,-2.4622144554,781
108000,161695,220636,-6.5958154969,7.1018974768000005,-2.4622144554,782
107308,161666,220582,-6.5958154969,7.1018974768000005,-2.4622144554,783
106686,161626,220571,-6.5958154969,7.1018974768000005,-2.4622144554,784
106140,161598,220560,-6.5958154969,7.1018974768000005,-2.4622144554,785
105897,161613,220537,-6.5958154969,7.1018974768000005,-2.4622144554,786
105875,161583,220548,-6.5958154969,7.1018974768000005,-2.4622144554,787
105938,161541,220549,-6.5958154969,7.1018974768000005,-2.4622144554,788
106009,161579,220586,-6.5958154969,7.1018974768000005,-2.4622144554,789
106064,161579,220602,-6.5958154969,7.1018974768000005,-2.4622144554,790
106128,161588,220609,-6.5958154969,7.1018974768000005,-2.4622144554,791
106204,161558,220569,-6.5958154969,7.1018974768000005,-2.4622144554,792
106298,161556,220547,-6.5958154969,7.1018974768000005,-2.4622144554,793
106407,161535,220580,-6.5958154969,7.1018974768000005,-2.4622144554,794
106512,161533,220598,-6.5958154969,7.1018974768000005,-2.4622144554,795
106664,161557,220574,-6.5958154969,7.1018974768000005,-2.4622144554,796
106774,161542,220531,-6.5958154969,7.1018974768000005,-2.4622144554,797
106932,161532,220597,-6.5958154969,7.1018974768000005,-2.4622144554,798
107079,161542,220579,-6.5958154969,7.1018974768000005,-2.4622144554,799
107212,161550,220593,-6.5958154969,7.1018974768000005,-2.4622144554,800
107376,161558,220594,-6.5958154969,7.1018974768000005,-2.4622144554,801
107528,161529,220584,-6.5958154969,7.1018974768000005,-2.4622144554,802
107677,161544,220574,-6.5958154969,7.1018974768000005,-2.4622144554,803
107840,161559,220597,-6.5958154969,7.1018974768000005,-2.4622144554,804
107938,161561,220567,-6.5958154969,7.1018974768000005,-2.4622144554,805
107706,161545,220534,-6.5958154969,7.1018974768000005,-2.4622144554,806
107161,161495,220517,-6.5958154969,7.1018974768000005,-2.4622144554,807
106560,161457,220480,-6.5958154969,7.1018974768000005,-2.4622144554,808
106031,161437,220479,-6.5958154969,7.1018974768000005,-2.4622144554,809
105704,161411,220470,-6.5958154969,7.1018974768000005,-2.4622144554,810
105615,161448,220525,-6.5958154969,7.1018974768000005,-2.4622144554,811
105684,161437,220499,-6.5958154969,7.1018974768000005,-2.4622144554,812
105769,161448,220520,-6.5958154969,7.1018974768000005,-2.4622144554,813
105813,161440,220522,-6.5958154969,7.1018974768000005,-2.4622144554,814
105887,161457,220499,-6.5958154969,7.1018974768000005,-2.4622144554,815
105974,161454,220523,-6.5958154969,7.1018974768000005,-2.4622144554,816
106075,161440,220539,-6.5958154969,7.1018974768000005,-2.4622144554,817
106202,161456,220532,-6.5958154969,7.1018974768000005,-2.4622144554,818
106346,161457,220487,-6.5958154969,7.1018974768000005,-2.4622144554,819
106029,161552,220642,-6.5742800935,7.082754896,-2.3030917525,820
106143,161570,220613,-6.5742800935,7.082754896,-2.3030917525,821
106258,161571,220613,-6.5742800935,7.082754896,-2.3030917525,822
106403,161572,220607,-6.5742800935,7.082754896,-2.3030917525,823
106537,161549,220618,-6.5742800935,7.082754896,-2.3030917525,824
106694,161541,220624,-6.5742800935,7.082754896,-2.3030917525,825
106823,161548,220637,-6.5742800935,7.082754896,-2.3030917525,826
106967,161545,220618,-6.5742800935,7.082754896,-2.3030917525,827
107146,161550,220629,-6.5742800935,7.082754896,-2.3030917525,828
107286,161557,220618,-6.5742800935,7.082754896,-2.3030917525,829
107463,161548,220666,-6.5742800935,7.082754896,-2.3030917525,830
107612,161540,220625,-6.5742800935,7.082754896,-2.3030917525,831
107776,161549,220597,-6.5742800935,7.082754896,-2.3030917525,832
107928,161520,220597,-6.5742800935,7.082754896,-2.3030917525,833
107906,161539,220602,-6.5742800935,7.082754896,-2.3030917525,834
107514,161516,220598,-6.5742800935,7.082754896,-2.3030917525,835
106921,161472,220578,-6.5742800935,7.082754896,-2.3030917525,836
106337,161485,220524,-6.5742800935,7.082754896,-2.3030917525,837
105871,161442,220521,-6.5742800935,7.082754896,-2.3030917525,838
105675,161453,220551,-6.5742800935,7.082754896,-2.3030917525,839
105682,161423,220527,-6.5742800935,7.082754896,-2.3030917525,840
105775,161437,220513,-6.5742800935,7.082754896,-2.3030917525,841
105836,161429,220525,-6.5742800935,7.082754896,-2.3030917525,842
105880,161409,220511,-6.5742800935,7.082754896,-2.3030917525,843
105983,161422,220548,-6.5742800935,7.082754896,-2.3030917525,844
106058,161411,220554,-6.5742800935,7.082754896,-2.3030917525,845
106211,161430,220539,-6.5742800935,7.082754896,-2.3030917525,846
106314,161425,220537,-6.5742800935,7.082754896,-2.3030917525,847
106451,161426,220564,-6.5742800935,7.082754896,-2.3030917525,848
106572,161448,220587,-6.5742800935,7.082754896,-2.3030917525,849
106744,161443,220608,-6.5742800935,7.082754896,-2.3030917525,850
106896,161448,220565,-6.5742800935,7.082754896,-2.3030917525,851
107046,161439,220612,-6.5742800935,7.082754896,-2.3030917525,852
107192,161483,220597,-6.5742800935,7.082754896,-2.3030917525,853
107371,161469,220579,-6.5742800935,7.082754896,-2.3030917525,854
107548,161475,220610,-6.5742800935,7.082754896,-2.3030917525,855
107743,161474,220593,-6.5742800935,7.082754896,-2.3030917525,856
107922,161492,220624,-6.5742800935,7.082754896,-2.3030917525,857
108054,161521,220608,-6.5742800935,7.082754896,-2.3030917525,858
107945,161513,220615,-6.5742800935,7.082754896,-2.3030917525,859
107487,161485,220613,-6.5742800935,7.082754896,-2.3030917525,860
106894,161424,220538,-6.5742800935,7.082754896,-2.3030917525,861
108490,161702,220751,-6.5934226743,7.1270221141,-2.3497517932000003,862
108644,161706,220760,-6.5934226743,7.1270221141,-2.3497517932000003,863
108530,161729,220732,-6.5934226743,7.1270221141,-2.3497517932000003,864
108048,161699,220713,-6.5934226743,7.1270221141,-2.3497517932000003,865
107406,161662,220669,-6.5934226743,7.1270221141,-2.3497517932000003,866
106763,161639,220685,-6.5934226743,7.1270221141,-2.3497517932000003,867
106240,161642,220664,-6.5934226743,7.1270221141,-2.3497517932000003,868
105958,161632,220672,-6.5934226743,7.1270221141,-2.3497517932000003,869
105959,161630,220666,-6.5934226743,7.1270221141,-2.3497517932000003,870
106052,161654,220678,-6.5934226743,7.1270221141,-2.3497517932000003,871
106170,161640,220674,-6.5934226743,7.1270221141,-2.3497517932000003,872
106257,161664,220677,-6.5934226743,7.1270221141,-2.3497517932000003,873
106367,161671,220718,-6.5934226743,7.1270221141,-2.3497517932000003,874
106475,161691,220724,-6.5934226743,7.1270221141,-2.3497517932000003,875
106604,161684,220738,-6.5934226743,7.1270221141,-2.3497517932000003,876
106768,161704,220739,-6.5934226743,7.1270221141,-2.3497517932000003,877
106901,161689,220762,-6.5934226743,7.1270221141,-2.3497517932000003,878
107082,161735,220789,-6.5934226743,7.1270221141,-2.3497517932000003,879
107219,161737,220794,-6.5934226743,7.1270221141,-2.3497517932000003,880
107387,161734,220806,-6.5934226743,7.1270221141,-2.3497517932000003,881
107558,161784,220806,-6.5934226743,7.1270221141,-2.3497517932000003,882
107757,161760,220819,-6.5934226743,7.1270221141,-2.3497517932000003,883
107932,161799,220823,-6.5934226743,7.1270221141,-2.3497517932000003,884
108100,161800,220843,-6.5934226743,7.1270221141,-2.3497517932000003,885
108285,161803,220797,-6.5934226743,7.1270221141,-2.3497517932000003,886
108473,161806,220790,-6.5934226743,7.1270221141,-2.3497517932000003,887
108562,161846,220803,-6.5934226743,7.1270221141,-2.3497517932000003,888
108285,161836,220818,-6.5934226743,7.1270221141,-2.3497517932000003,889
107688,161767,220752,-6.5934226743,7.1270221141,-2.3497517932000003,890
107027,161738,220728,-6.5934226743,7.1270221141,-2.3497517932000003,891
106402,161716,220697,-6.5934226743,7.1270221141,-2.3497517932000003,892
105979,161684,220690,-6.5934226743,7.1270221141,-2.3497517932000003,893
105833,161649,220708,-6.5934226743,7.1270221141,-2.3497517932000003,894
105860,161660,220689,-6.5934226743,7.1270221141,-2.3497517932000003,895
105952,161648,220702,-6.5934226743,7.1270221141,-2.3497517932000003,896
106011,161649,220728,-6.5934226743,7.1270221141,-2.3497517932000003,897
106078,161636,220714,-6.5934226743,7.1270221141,-2.3497517932000003,898
106165,161641,220699,-6.5934226743,7.1270221141,-2.3497517932000003,899
106267,161626,220663,-6.5934226743,7.1270221141,-2.3497517932000003,900
106353,161623,220702,-6.5934226743,7.1270221141,-2.3497517932000003,901
106456,161610,220657,-6.5934226743,7.1270221141,-2.3497517932000003,902
106585,161614,220701,-6.5934226743,7.1270221141,-2.3497517932000003,903
113444,160468,218809,-6.7070817478,7.0923261864,-2.3712871966,904
113490,160432,218812,-6.7070817478,7.0923261864,-2.3712871966,905
113535,160467,218818,-6.7070817478,7.0923261864,-2.3712871966,906
113581,160468,218812,-6.7070817478,7.0923261864,-2.3712871966,907
113641,160465,218790,-6.7070817478,7.0923261864,-2.3712871966,908
113708,160480,218805,-6.7070817478,7.0923261864,-2.3712871966,909
113769,160455,218735,-6.7070817478,7.0923261864,-2.3712871966,910
113810,160438,218740,-6.7070817478,7.0923261864,-2.3712871966,911
113864,160440,218690,-6.7070817478,7.0923261864,-2.3712871966,912
113940,160463,218761,-6.7070817478,7.0923261864,-2.3712871966,913
113927,160545,218794,-6.7070817478,7.0923261864,-2.3712871966,914
113864,160567,218853,-6.7070817478,7.0923261864,-2.3712871966,915
113743,160608,218841,-6.7070817478,7.0923261864,-2.3712871966,916
113602,160662,218846,-6.7070817478,7.0923261864,-2.3712871966,917
113451,160697,218909,-6.7070817478,7.0923261864,-2.3712871966,918
113345,160709,218886,-6.7070817478,7.0923261864,-2.3712871966,919
113335,160771,218928,-6.7070817478,7.0923261864,-2.3712871966,920
113328,160751,218902,-6.7070817478,7.0923261864,-2.3712871966,921
113321,160738,218849,-6.7070817478,7.0923261864,-2.3712871966,922
113305,160691,218876,-6.7070817478,7.0923261864,-2.3712871966,923
113295,160693,218862,-6.7070817478,7.0923261864,-2.3712871966,924
113313,160652,218821,-6.7070817478,7.0923261864,-2.3712871966,925
113325,160642,218785,-6.7070817478,7.0923261864,-2.3712871966,926
113344,160632,218840,-6.7070817478,7.0923261864,-2.3712871966,927
113397,160619,218802,-6.7070817478,7.0923261864,-2.3712871966,928
113440,160628,218805,-6.5527446901,7.1198436463,-2.2600209457,929
113477,160632,218795,-6.5527446901,7.1198436463,-2.2600209457,930
113515,160657,218799,-6.5527446901,7.1198436463,-2.2600209457,931
113558,160658,218762,-6.5527446901,7.1198436463,-2.2600209457,932
113634,160667,218781,-6.5527446901,7.1198436463,-2.2600209457,933
113682,160655,218784,-6.5527446901,7.1198436463,-2.2600209457,934
113745,160650,218789,-6.5527446901,7.1198436463,-2.2600209457,935
113790,160662,218798,-6.5527446901,7.1198436463,-2.2600209457,936
113822,160725,218810,-6.5527446901,7.1198436463,-2.2600209457,937
113771,160765,218808,-6.5527446901,7.1198436463,-2.2600209457,938
113601,160837,218846,-6.5527446901,7.1198436463,-2.2600209457,939
113347,160844,218856,-6.5527446901,7.1198436463,-2.2600209457,940
112976,160867,218829,-6.5527446901,7.1198436463,-2.2600209457,941
112563,160877,218836,-6.5527446901,7.1198436463,-2.2600209457,942
112192,160924,218855,-6.5527446901,7.1198436463,-2.2600209457,943
111941,160895,218881,-6.5527446901,7.1198436463,-2.2600209457,944
111800,160924,218882,-6.5527446901,7.1198436463,-2.2600209457,945
111692,160883,218878,-6.5527446901,7.1198436463,-2.2600209457,946
111601,160931,218863,-6.5527446901,7.1198436463,-2.2600209457,947
111520,160925,218847,-6.5527446901,7.1198436463,-2.2600209457,948
111476,160890,218799,-6.5527446901,7.1198436463,-2.2600209457,949
111452,160924,218840,-6.5527446901,7.1198436463,-2.2600209457,950
111453,160908,218831,-6.5527446901,7.1198436463,-2.2600209457,951
111457,160904,218818,-6.5527446901,7.1198436463,-2.2600209457,952
111503,160891,218830,-6.5527446901,7.1198436463,-2.2600209457,953
111533,160871,218821,-6.5527446901,7.1198436463,-2.2600209457,954
111554,160895,218802,-6.5527446901,7.1198436463,-2.2600209457,955
111622,160896,218769,-6.5527446901,7.1198436463,-2.2600209457,956
111694,160877,218795,-6.5527446901,7.1198436463,-2.2600209457,957
111763,160906,218773,-6.5527446901,7.1198436463,-2.2600209457,958
111810,160926,218800,-6.5527446901,7.1198436463,-2.2600209457,959
111872,160886,218775,-6.5527446901,7.1198436463,-2.2600209457,960
111937,160923,218775,-6.5527446901,7.1198436463,-2.2600209457,961
111938,160953,218821,-6.5527446901,7.1198436463,-2.2600209457,962
111799,161017,218797,-6.5527446901,7.1198436463,-2.2600209457,963
111548,161057,218841,-6.5527446901,7.1198436463,-2.2600209457,964
111193,161052,218811,-6.5527446901,7.1198436463,-2.2600209457,965
110821,161066,218847,-6.7046889252,7.2323063085,-2.4311077616,966
110481,161097,218838,-6.7046889252,7.2323063085,-2.4311077616,967
110289,161058,218817,-6.7046889252,7.2323063085,-2.4311077616,968
110239,161052,218870,-6.7046889252,7.2323063085,-2.4311077616,969
110223,161048,218808,-6.7046889252,7.2323063085,-2.4311077616,970
110253,161065,218844,-6.7046889252,7.2323063085,-2.4311077616,971
110246,161070,218827,-6.7046889252,7.2323063085,-2.4311077616,972
110290,161103,218854,-6.7046889252,7.2323063085,-2.4311077616,973
110346,161099,218836,-6.7046889252,7.2323063085,-2.4311077616,974
110410,161094,218827,-6.7046889252,7.2323063085,-2.4311077616,975
110518,161115,218878,-6.7046889252,7.2323063085,-2.4311077616,976
110600,161131,218849,-6.7046889252,7.2323063085,-2.4311077616,977
110712,161150,218923,-6.7046889252,7.2323063085,-2.4311077616,978
110828,161207,218894,-6.7046889252,7.2323063085,-2.4311077616,979
110969,161235,218940,-6.7046889252,7.2323063085,-2.4311077616,980
111088,161282,218924,-6.7046889252,7.2323063085,-2.4311077616,981
111199,161303,218941,-6.7046889252,7.2323063085,-2.4311077616,982
111328,161295,218955,-6.7046889252,7.2323063085,-2.4311077616,983
111425,161301,218973,-6.7046889252,7.2323063085,-2.4311077616,984
111515,161277,218930,-6.7046889252,7.2323063085,-2.4311077616,985
111589,161324,218950,-6.7046889252,7.2323063085,-2.4311077616,986
111586,161341,218974,-6.7046889252,7.2323063085,-2.4311077616,987
111408,161315,218968,-6.7046889252,7.2323063085,-2.4311077616,988
111082,161286,218901,-6.7046889252,7.2323063085,-2.4311077616,989
110691,161241,218891,-6.7046889252,7.2323063085,-2.4311077616,990
110295,161180,218849,-6.7046889252,7.2323063085,-2.4311077616,991
109953,161140,218836,-6.7046889252,7.2323063085,-2.4311077616,992
109780,161077,218768,-6.7046889252,7.2323063085,-2.4311077616,993
109679,161057,218764,-6.7046889252,7.2323063085,-2.4311077616,994
109612,161016,218707,-6.7046889252,7.2323063085,-2.4311077616,995
109568,160959,218685,-6.7046889252,7.2323063085,-2.4311077616,996
109541,160945,218664,-6.7046889252,7.2323063085,-2.4311077616,997
109487,160933,218626,-6.7046889252,7.2323063085,-2.4311077616,998
109499,160865,218586,-6.7046889252,7.2323063085,-2.4311077616,999
109523,160875,218598,-6.7046889252,7.2323063085,-2.4311077616,1000
109567,160819,218576,-6.7046889252,7.2323063085,-2.4311077616,1001
109615,160810,218508,-6.7046889252,7.2323063085,-2.4311077616,1002
109667,160790,218514,-6.7046889252,7.2323063085,-2.4311077616,1003
109719,160754,218503,-6.7046889252,7.2323063085,-2.4311077616,1004
109789,160755,218456,-6.7046889252,7.2323063085,-2.4311077616,1005
109838,160742,218441,-6.7046889252,7.2323063085,-2.4311077616,1006
109903,160679,218408,-6.7046889252,7.2323063085,-2.4311077616,1007
110614,161124,218597,-6.5934226743,7.0325056214,-2.3856441322,1008
110411,161147,218606,-6.5934226743,7.0325056214,-2.3856441322,1009
110151,161160,218578,-6.5934226743,7.0325056214,-2.3856441322,1010
109901,161151,218596,-6.5934226743,7.0325056214,-2.3856441322,1011
109684,161123,218563,-6.5934226743,7.0325056214,-2.3856441322,1012
109570,161128,218589,-6.5934226743,7.0325056214,-2.3856441322,1013
109582,161106,218557,-6.5934226743,7.0325056214,-2.3856441322,1014
109648,161125,218576,-6.5934226743,7.0325056214,-2.3856441322,1015
109711,161074,218534,-6.5934226743,7.0325056214,-2.3856441322,1016
109783,161103,218538,-6.5934226743,7.0325056214,-2.3856441322,1017
109854,161054,218531,-6.5934226743,7.0325056214,-2.3856441322,1018
109939,161041,218470,-6.5934226743,7.0325056214,-2.3856441322,1019
110047,161000,218475,-6.5934226743,7.0325056214,-2.3856441322,1020
110142,160997,218439,-6.5934226743,7.0325056214,-2.3856441322,1021
110242,160965,218452,-6.5934226743,7.0325056214,-2.3856441322,1022
110360,160929,218426,-6.5934226743,7.0325056214,-2.3856441322,1023
110440,160935,218381,-6.5934226743,7.0325056214,-2.3856441322,1024
110564,160907,218396,-6.5934226743,7.0325056214,-2.3856441322,1025
110648,160883,218339,-6.5934226743,7.0325056214,-2.3856441322,1026
110745,160878,218330,-6.5934226743,7.0325056214,-2.3856441322,1027
110854,160831,218328,-6.5934226743,7.0325056214,-2.3856441322,1028
110939,160853,218343,-6.5934226743,7.0325056214,-2.3856441322,1029
111029,160844,218316,-6.5934226743,7.0325056214,-2.3856441322,1030
111086,160829,218337,-6.5934226743,7.0325056214,-2.3856441322,1031
111085,160868,218348,-6.5934226743,7.0325056214,-2.3856441322,1032
110934,160890,218324,-6.5934226743,7.0325056214,-2.3856441322,1033
110671,160868,218307,-6.5934226743,7.0325056214,-2.3856441322,1034
110385,160869,218308,-6.5934226743,7.0325056214,-2.3856441322,1035
110097,160854,218271,-6.5934226743,7.0325056214,-2.3856441322,1036
109907,160832,218269,-6.5934226743,7.0325056214,-2.3856441322,1037
109820,160807,218227,-6.5934226743,7.0325056214,-2.3856441322,1038
109822,160771,218221,-6.5934226743,7.0325056214,-2.3856441322,1039
109828,160746,218229,-6.5934226743,7.0325056214,-2.3856441322,1040
109852,160740,218193,-6.5934226743,7.0325056214,-2.3856441322,1041
109866,160726,218183,-6.5934226743,7.0325056214,-2.3856441322,1042
109905,160694,218167,-6.5934226743,7.0325056214,-2.3856441322,1043
109970,160673,218150,-6.5934226743,7.0325056214,-2.3856441322,1044
110019,160664,218105,-6.5934226743,7.0325056214,-2.3856441322,1045
110106,160674,218100,-6.5934226743,7.0325056214,-2.3856441322,1046
110187,160660,218108,-6.5934226743,7.0325056214,-2.3856441322,1047
110270,160644,218114,-6.5934226743,7.0325056214,-2.3856441322,1048
110355,160637,218091,-6.5934226743,7.0325056214,-2.3856441322,1049
108465,161184,218334,-6.6197437229,7.0983082429,-2.4335005842,1050
107950,161148,218308,-6.6197437229,7.0983082429,-2.4335005842,1051
107552,161201,218299,-6.6197437229,7.0983082429,-2.4335005842,1052
107314,161208,218313,-6.6197437229,7.0983082429,-2.4335005842,1053
107295,161186,218351,-6.6197437229,7.0983082429,-2.4335005842,1054
107333,161174,218299,-6.6197437229,7.0983082429,-2.4335005842,1055
107349,161163,218288,-6.6197437229,7.0983082429,-2.4335005842,1056
107380,161127,218338,-6.6197437229,7.0983082429,-2.4335005842,1057
107440,161115,218336,-6.6197437229,7.0983082429,-2.4335005842,1058
107493,161100,218340,-6.6197437229,7.0983082429,-2.4335005842,1059
107589,161094,218275,-6.6197437229,7.0983082429,-2.4335005842,1060
107691,161090,218292,-6.6197437229,7.0983082429,-2.4335005842,1061
107783,161037,218286,-6.6197437229,7.0983082429,-2.4335005842,1062
107931,161020,218283,-6.6197437229,7.0983082429,-2.4335005842,1063
108025,161008,218244,-6.6197437229,7.0983082429,-2.4335005842,1064
108151,161000,218256,-6.6197437229,7.0983082429,-2.4335005842,1065
108240,161020,218190,-6.6197437229,7.0983082429,-2.4335005842,1066
108344,160993,218241,-6.6197437229,7.0983082429,-2.4335005842,1067
108450,160938,218146,-6.6197437229,7.0983082429,-2.4335005842,1068
108549,160968,218181,-6.6197437229,7.0983082429,-2.4335005842,1069
108652,160912,218193,-6.6197437229,7.0983082429,-2.4335005842,1070
108732,160987,218176,-6.6197437229,7.0983082429,-2.4335005842,1071
108761,161002,218154,-6.6197437229,7.0983082429,-2.4335005842,1072
108502,160991,218207,-6.6197437229,7.0983082429,-2.4335005842,1073
108048,161010,218169,-6.6197437229,7.0983082429,-2.4335005842,1074
107604,160980,218181,-6.6197437229,7.0983082429,-2.4335005842,1075
107235,160964,218197,-6.6197437229,7.0983082429,-2.4335005842,1076
106986,161000,218205,-6.6197437229,7.0983082429,-2.4335005842,1077
106949,160990,218182,-6.6197437229,7.0983082429,-2.4335005842,1078
107019,160987,218161,-6.6197437229,7.0983082429,-2.4335005842,1079
107092,160971,218193,-6.6197437229,7.0983082429,-2.4335005842,1080
107162,160948,218171,-6.6197437229,7.0983082429,-2.4335005842,1081
107236,160945,218152,-6.6197437229,7.0983082429,-2.4335005842,1082
107315,160940,218161,-6.6197437229,7.0983082429,-2.4335005842,1083
107414,160947,218169,-6.6197437229,7.0983082429,-2.4335005842,1084
107557,160930,218140,-6.6197437229,7.0983082429,-2.4335005842,1085
107665,160909,218102,-6.6197437229,7.0983082429,-2.4335005842,1086
107782,160905,218178,-6.6197437229,7.0983082429,-2.4335005842,1087
107957,160922,218177,-6.6197437229,7.0983082429,-2.4335005842,1088
108079,160914,218152,-6.6197437229,7.0983082429,-2.4335005842,1089
108217,160927,218179,-6.6197437229,7.0983082429,-2.4335005842,1090
108375,160959,218156,-6.6197437229,7.0983082429,-2.4335005842,1091
107781,161094,218319,-6.7525453772,7.0995046541999995,-2.2707886474,1092
107531,161084,218292,-6.7525453772,7.0995046541999995,-2.2707886474,1093
107498,161096,218314,-6.7525453772,7.0995046541999995,-2.2707886474,1094
107576,161117,218305,-6.7525453772,7.0995046541999995,-2.2707886474,1095
107711,161105,218312,-6.7525453772,7.0995046541999995,-2.2707886474,1096
107794,161149,218330,-6.7525453772,7.0995046541999995,-2.2707886474,1097
107906,161135,218379,-6.7525453772,7.0995046541999995,-2.2707886474,1098
108034,161178,218375,-6.7525453772,7.0995046541999995,-2.2707886474,1099
108162,161159,218376,-6.7525453772,7.0995046541999995,-2.2707886474,1100
108288,161151,218397,-6.7525453772,7.0995046541999995,-2.2707886474,1101
108438,161133,218385,-6.7525453772,7.0995046541999995,-2.2707886474,1102
108580,161155,218390,-6.7525453772,7.0995046541999995,-2.2707886474,1103
108728,161146,218372,-6.7525453772,7.0995046541999995,-2.2707886474,1104
108869,161169,218384,-6.7525453772,7.0995046541999995,-2.2707886474,1105
109021,161170,218394,-6.7525453772,7.0995046541999995,-2.2707886474,1106
109144,161192,218376,-6.7525453772,7.0995046541999995,-2.2707886474,1107
109283,161202,218415,-6.7525453772,7.0995046541999995,-2.2707886474,1108
109429,161228,218429,-6.7525453772,7.0995046541999995,-2.2707886474,1109
109549,161222,218449,-6.7525453772,7.0995046541999995,-2.2707886474,1110
109676,161227,218458,-6.7525453772,7.0995046541999995,-2.2707886474,1111
109798,161242,218434,-6.7525453772,7.0995046541999995,-2.2707886474,1112
109787,161314,218512,-6.7525453772,7.0995046541999995,-2.2707886474,1113
109506,161352,218502,-6.7525453772,7.0995046541999995,-2.2707886474,1114
109133,161343,218479,-6.7525453772,7.0995046541999995,-2.2707886474,1115
108683,161320,218450,-6.7525453772,7.0995046541999995,-2.2707886474,1116
108322,161342,218489,-6.7525453772,7.0995046541999995,-2.2707886474,1117
108029,161353,218528,-6.7525453772,7.0995046541999995,-2.2707886474,1118
107943,161373,218515,-6.7525453772,7.0995046541999995,-2.2707886474,1119
107993,161371,218522,-6.7525453772,7.0995046541999995,-2.2707886474,1120
108090,161362,218486,-6.7525453772,7.0995046541999995,-2.2707886474,1121
108179,161362,218489,-6.7525453772,7.0995046541999995,-2.2707886474,1122
108234,161352,218473,-6.7525453772,7.0995046541999995,-2.2707886474,1123
108329,161348,218531,-6.7525453772,7.0995046541999995,-2.2707886474,1124
108429,161320,218482,-6.7525453772,7.0995046541999995,-2.2707886474,1125
108534,161308,218487,-6.7525453772,7.0995046541999995,-2.2707886474,1126
108665,161306,218455,-6.7525453772,7.0995046541999995,-2.2707886474,1127
108775,161254,218484,-6.7525453772,7.0995046541999995,-2.2707886474,1128
108878,161249,218472,-6.7525453772,7.0995046541999995,-2.2707886474,1129
108996,161248,218442,-6.7525453772,7.0995046541999995,-2.2707886474,1130
109107,161241,218396,-6.7525453772,7.0995046541999995,-2.2707886474,1131
109203,161212,218396,-6.7525453772,7.0995046541999995,-2.2707886474,1132
109324,161216,218403,-6.7525453772,7.0995046541999995,-2.2707886474,1133
108404,161558,218594,-6.532405698,7.118647235,-2.3497517932000003,1134
108549,161544,218617,-6.532405698,7.118647235,-2.3497517932000003,1135
108670,161537,218607,-6.532405698,7.118647235,-2.3497517932000003,1136
108801,161539,218606,-6.532405698,7.118647235,-2.3497517932000003,1137
108951,161559,218620,-6.532405698,7.118647235,-2.3497517932000003,1138
109063,161532,218666,-6.532405698,7.118647235,-2.3497517932000003,1139
109201,161531,218638,-6.532405698,7.118647235,-2.3497517932000003,1140
109297,161535,218628,-6.532405698,7.118647235,-2.3497517932000003,1141
109420,161553,218624,-6.532405698,7.118647235,-2.3497517932000003,1142
109566,161556,218634,-6.532405698,7.118647235,-2.3497517932000003,1143
109685,161556,218656,-6.532405698,7.118647235,-2.3497517932000003,1144
109816,161539,218621,-6.532405698,7.118647235,-2.3497517932000003,1145
109930,161550,218607,-6.532405698,7.118647235,-2.3497517932000003,1146
109926,161563,218673,-6.532405698,7.118647235,-2.3497517932000003,1147
109657,161574,218622,-6.532405698,7.118647235,-2.3497517932000003,1148
109191,161553,218597,-6.532405698,7.118647235,-2.3497517932000003,1149
108734,161536,218606,-6.532405698,7.118647235,-2.3497517932000003,1150
108327,161529,218595,-6.532405698,7.118647235,-2.3497517932000003,1151
108038,161511,218527,-6.532405698,7.118647235,-2.3497517932000003,1152
107941,161535,218625,-6.532405698,7.118647235,-2.3497517932000003,1153
107994,161509,218566,-6.532405698,7.118647235,-2.3497517932000003,1154
108045,161502,218616,-6.532405698,7.118647235,-2.3497517932000003,1155
108103,161478,218610,-6.532405698,7.118647235,-2.3497517932000003,1156
108172,161497,218508,-6.532405698,7.118647235,-2.3497517932000003,1157
108236,161467,218560,-6.532405698,7.118647235,-2.3497517932000003,1158
108297,161454,218533,-6.6484575941,7.1533431627,-2.3665015514,1159
108409,161430,218540,-6.6484575941,7.1533431627,-2.3665015514,1160
108493,161435,218542,-6.6484575941,7.1533431627,-2.3665015514,1161
108612,161438,218537,-6.6484575941,7.1533431627,-2.3665015514,1162
108711,161409,218501,-6.6484575941,7.1533431627,-2.3665015514,1163
108833,161415,218477,-6.6484575941,7.1533431627,-2.3665015514,1164
108934,161403,218502,-6.6484575941,7.1533431627,-2.3665015514,1165
109028,161404,218481,-6.6484575941,7.1533431627,-2.3665015514,1166
109151,161368,218491,-6.6484575941,7.1533431627,-2.3665015514,1167
109241,161352,218484,-6.6484575941,7.1533431627,-2.3665015514,1168
109341,161362,218477,-6.6484575941,7.1533431627,-2.3665015514,1169
109452,161367,218472,-6.6484575941,7.1533431627,-2.3665015514,1170
109551,161389,218490,-6.6484575941,7.1533431627,-2.3665015514,1171
109610,161391,218476,-6.6484575941,7.1533431627,-2.3665015514,1172
109384,161404,218475,-6.6484575941,7.1533431627,-2.3665015514,1173
108963,161376,218474,-6.6484575941,7.1533431627,-2.3665015514,1174
108531,161357,218474,-6.6484575941,7.1533431627,-2.3665015514,1175
108171,161340,218522,-6.6484575941,7.1533431627,-2.3665015514,1176
107908,161313,218447,-6.6484575941,7.1533431627,-2.3665015514,1177
107864,161339,218476,-6.6484575941,7.1533431627,-2.3665015514,1178
107897,161360,218503,-6.6484575941,7.1533431627,-2.3665015514,1179
107960,161357,218490,-6.6484575941,7.1533431627,-2.3665015514,1180
107984,161322,218480,-6.6484575941,7.1533431627,-2.3665015514,1181
108034,161323,218523,-6.6484575941,7.1533431627,-2.3665015514,1182
108105,161330,218499,-6.6484575941,7.1533431627,-2.3665015514,1183
108179,161305,218504,-6.6484575941,7.1533431627,-2.3665015514,1184
108269,161294,218516,-6.6484575941,7.1533431627,-2.3665015514,1185
108384,161329,218493,-6.6484575941,7.1533431627,-2.3665015514,1186
108521,161320,218521,-6.6484575941,7.1533431627,-2.3665015514,1187
108626,161330,218500,-6.6484575941,7.1533431627,-2.3665015514,1188
108750,161311,218510,-6.6484575941,7.1533431627,-2.3665015514,1189
108850,161331,218520,-6.6484575941,7.1533431627,-2.3665015514,1190
108988,161327,218506,-6.6484575941,7.1533431627,-2.3665015514,1191
109096,161321,218538,-6.6484575941,7.1533431627,-2.3665015514,1192
109233,161319,218559,-6.6484575941,7.1533431627,-2.3665015514,1193
109337,161319,218509,-6.6484575941,7.1533431627,-2.3665015514,1194
109460,161319,218569,-6.6484575941,7.1533431627,-2.3665015514,1195
109575,161367,218578,-6.6484575941,7.1533431627,-2.3665015514,1196
109546,161400,218600,-6.6484575941,7.1533431627,-2.3665015514,1197
109241,161396,218592,-6.6484575941,7.1533431627,-2.3665015514,1198
108813,161393,218558,-6.6484575941,7.1533431627,-2.3665015514,1199
108402,161402,218589,-6.6484575941,7.1533431627,-2.3665015514,1200
108311,161510,218716,-6.7848484823,6.993024048500001,-2.3772692530999997,1201
108417,161514,218707,-6.7848484823,6.993024048500001,-2.3772692530999997,1202
108550,161489,218737,-6.7848484823,6.993024048500001,-2.3772692530999997,1203
108666,161495,218745,-6.7848484823,6.993024048500001,-2.3772692530999997,1204
108806,161516,218729,-6.7848484823,6.993024048500001,-2.3772692530999997,1205
108951,161531,218741,-6.7848484823,6.993024048500001,-2.3772692530999997,1206
109060,161523,218776,-6.7848484823,6.993024048500001,-2.3772692530999997,1207
109190,161550,218772,-6.7848484823,6.993024048500001,-2.3772692530999997,1208
109324,161546,218764,-6.7848484823,6.993024048500001,-2.3772692530999997,1209
109453,161552,218792,-6.7848484823,6.993024048500001,-2.3772692530999997,1210
109588,161552,218821,-6.7848484823,6.993024048500001,-2.3772692530999997,1211
109749,161583,218792,-6.7848484823,6.993024048500001,-2.3772692530999997,1212
109867,161561,218820,-6.7848484823,6.993024048500001,-2.3772692530999997,1213
109918,161633,218804,-6.7848484823,6.993024048500001,-2.3772692530999997,1214
109658,161622,218794,-6.7848484823,6.993024048500001,-2.3772692530999997,1215
109208,161620,218803,-6.7848484823,6.993024048500001,-2.3772692530999997,1216
108662,161605,218792,-6.7848484823,6.993024048500001,-2.3772692530999997,1217
108196,161588,218800,-6.7848484823,6.993024048500001,-2.3772692530999997,1218
107821,161612,218799,-6.7848484823,6.993024048500001,-2.3772692530999997,1219
107641,161605,218848,-6.7848484823,6.993024048500001,-2.3772692530999997,1220
107663,161608,218806,-6.7848484823,6.993024048500001,-2.3772692530999997,1221
107743,161609,218834,-6.7848484823,6.993024048500001,-2.3772692530999997,1222
107811,161617,218864,-6.7848484823,6.993024048500001,-2.3772692530999997,1223
107869,161623,218859,-6.7848484823,6.993024048500001,-2.3772692530999997,1224
107964,161615,218840,-6.7848484823,6.993024048500001,-2.3772692530999997,1225
108064,161612,218871,-6.7848484823,6.993024048500001,-2.3772692530999997,1226
108166,161645,218868,-6.7848484823,6.993024048500001,-2.3772692530999997,1227
108300,161611,218878,-6.7848484823,6.993024048500001,-2.3772692530999997,1228
108424,161604,218894,-6.7848484823,6.993024048500001,-2.3772692530999997,1229
108558,161619,218872,-6.7848484823,6.993024048500001,-2.3772692530999997,1230
108690,161630,218860,-6.7848484823,6.993024048500001,-2.3772692530999997,1231
108827,161638,218872,-6.7848484823,6.993024048500001,-2.3772692530999997,1232
108951,161616,218902,-6.7848484823,6.993024048500001,-2.3772692530999997,1233
109100,161633,218929,-6.7848484823,6.993024048500001,-2.3772692530999997,1234
109230,161648,218912,-6.7848484823,6.993024048500001,-2.3772692530999997,1235
109360,161660,218918,-6.7848484823,6.993024048500001,-2.3772692530999997,1236
109523,161627,218868,-6.7848484823,6.993024048500001,-2.3772692530999997,1237
109648,161628,218883,-6.7848484823,6.993024048500001,-2.3772692530999997,1238
109767,161690,218934,-6.7848484823,6.993024048500001,-2.3772692530999997,1239
109686,161695,218941,-6.7848484823,6.993024048500001,-2.3772692530999997,1240
109292,161646,218901,-6.7848484823,6.993024048500001,-2.3772692530999997,1241
108782,161624,218869,-6.7848484823,6.993024048500001,-2.3772692530999997,1242
108482,161695,219197,-6.7920269500999995,7.1892355017,-2.3030917525,1243
108582,161686,219199,-6.7920269500999995,7.1892355017,-2.3030917525,1244
108703,161687,219193,-6.7920269500999995,7.1892355017,-2.3030917525,1245
108821,161693,219242,-6.7920269500999995,7.1892355017,-2.3030917525,1246
108957,161697,219231,-6.7920269500999995,7.1892355017,-2.3030917525,1247
109097,161704,219220,-6.7920269500999995,7.1892355017,-2.3030917525,1248
109223,161688,219241,-6.7920269500999995,7.1892355017,-2.3030917525,1249
109355,161726,219253,-6.7920269500999995,7.1892355017,-2.3030917525,1250
109477,161698,219253,-6.7920269500999995,7.1892355017,-2.3030917525,1251
109613,161738,219273,-6.7920269500999995,7.1892355017,-2.3030917525,1252
109750,161738,219259,-6.7920269500999995,7.1892355017,-2.3030917525,1253
109858,161734,219235,-6.7920269500999995,7.1892355017,-2.3030917525,1254
110027,161727,219278,-6.7920269500999995,7.1892355017,-2.3030917525,1255
110101,161759,219292,-6.7920269500999995,7.1892355017,-2.3030917525,1256
109990,161777,219294,-6.7920269500999995,7.1892355017,-2.3030917525,1257
109582,161764,219286,-6.7920269500999995,7.1892355017,-2.3030917525,1258
109057,161713,219284,-6.7920269500999995,7.1892355017,-2.3030917525,1259
108595,161720,219275,-6.6245293681,7.046862557000001,-2.2648065909,1260
108193,161716,219269,-6.6245293681,7.046862557000001,-2.2648065909,1261
107937,161716,219316,-6.6245293681,7.046862557000001,-2.2648065909,1262
107927,161712,219303,-6.5838513839,7.0923261864,-2.3784656644,1263
107975,161717,219291,-6.735795619,7.1784678,-2.3808584870000002,1264
108034,161691,219308,-6.664010941,7.1126651784999995,-2.4789642136,1265
108054,161710,219283,-6.6185473116,7.0564338474,-2.3389840915,1266
108116,161681,219310,-6.6185473116,7.0564338474,-2.3389840915,1267
108139,161676,219294,-6.5970119082,7.1353969932,-2.2695922361,1268
108231,161687,219280,-6.6927248122,7.0325056214,-2.3856441322,1269
108329,161659,219319,-6.5958154969,7.2011996147,-2.3712871966,1270
108421,161655,219328,-6.6209401342000005,7.075576428200001,-2.4000010678,1271
108541,161678,219291,-6.5659052144,7.0337020327,-2.3856441322,1272
108624,161634,219315,-6.6029939646999996,7.237091953699999,-2.2983061073,1273
108723,161677,219300,-6.6783678766,7.141379049699999,-2.4023938904,1274
108827,161614,219270,-6.7178494495,7.196413969499999,-2.3353948576,1275
108930,161618,219301,-6.591029851699999,7.138986227099999,-2.4478575198,1276
109033,161658,219292,-6.769295135399999,7.060023081300001,-2.356930261,1277
109130,161616,219289,-6.769295135399999,7.060023081300001,-2.356930261,1278
109262,161597,219273,-6.769295135399999,7.060023081300001,-2.356930261,1279
109390,161600,219304,-6.6496540054,7.0325056214,-2.452643165,1280
109391,161643,219267,-6.6831535217999996,7.106683122,-2.3162522768000002,1281
109111,161592,219253,-6.6269221907,7.1078795333,-2.3952154226,1282
108574,161588,219268,-6.5862442065,7.1748785661,-2.3198415107,1283
108011,161549,219246,-6.6664037636,7.0516482022,-2.4131615921,1284
107486,161533,219218,-6.6508504167,7.1653072757,-2.4119651808,1285
107147,161553,219177,-6.5671016257,7.106683122,-2.3665015514,1286
106976,161513,219241,-6.735795619,6.9882384033,-2.4071795356,1287
107006,161518,219219,-6.728617151199999,7.1569323966,-2.3832513096,1288
107010,161543,219237,-6.7130638043,7.0803620734,-2.3928226,1289
107040,161521,219265,-6.6376898924,7.014559451899999,-2.3497517932000003,1290
107064,161484,219259,-6.6496540054,7.1629144531,-2.3653051401,1291
107083,161499,219219,-6.6915284009,7.125825702799999,-2.3641087288000002,1292
107152,161488,219213,-6.6305114246,6.999006104999999,-2.3425733254,1293
107171,161499,219229,-6.687939167000001,7.0791656621,-2.4227328825,1294
107307,161467,219217,-6.5814585613,7.1318077593,-2.3641087288000002,1295
107437,161484,219215,-6.6233329568,7.1210400576,-2.3150558654999998,1296
107520,161459,219203,-6.7920269500999995,7.1174508237000005,-2.3401805028,1297
107638,161455,219200,-6.5706908596,7.070790783,-2.3282163898,1298
107759,161487,219212,-6.686742755699999,7.1126651784999995,-2.3712871966,1299
107847,161466,219198,-6.5730836822,7.2598237683999995,-2.3174486881,1300
107956,161446,219212,-6.5718872709,7.0193450971,-2.356930261,1301
108093,161455,219215,-6.5551375127,7.1234328802,-2.2863419943,1302
108188,161461,219193,-6.7130638043,7.0504517909,-2.356930261,1303
108313,161489,219259,-6.699903279999999,7.1162544124,-2.2432711875,1304
108336,161489,219268,-6.6185473116,7.167700098299999,-2.3760728418,1305
108043,161468,219211,-6.6783678766,7.1533431627,-2.344966148,1306
107550,161476,219232,-6.7022961026,7.0624159039,-2.4000010678,1307
107032,161460,219214,-6.674778642700001,7.0971118315999995,-2.3760728418,1308
106615,161478,219195,-6.6472611828,7.1270221141,-2.368894374,1309
106358,161495,219213,-6.5814585613,7.058826669999999,-2.3617159062,1310
106257,161487,219227,-6.472585133,7.2490560667,-2.4000010678,1311
106363,161465,219256,-6.699903279999999,6.948756830400001,-2.3401805028,1312
106484,161482,219264,-6.6975104574,7.0372912666,-2.4335005842,1313
106581,161493,219272,-6.7262243286,7.2442704215000004,-2.4023938904,1314
106678,161491,219235,-6.6113688438,6.9738814677,-2.3844477209,1315
106786,161493,219293,-6.6556360619,7.1473611062,-2.3078773977,1316
106927,161470,219258,-6.6161544889999995,7.0337020327,-2.3389840915,1317
107045,161481,219268,-6.5814585613,7.0839513072999996,-2.356930261,1318
107203,161500,219252,-6.6089760212,7.1210400576,-2.2624137683,1319
107337,161475,219287,-6.6089760212,7.2466632441,-2.2695922361,1320
107509,161471,219231,-6.7022961026,7.1222364689,-2.3676979627,1321
107650,161481,219264,-6.7022961026,7.1222364689,-2.3676979627,1322
107811,161448,219271,-6.7022961026,7.1222364689,-2.3676979627,1323
107933,161483,219234,-6.7022961026,7.1222364689,-2.3676979627,1324
108084,161476,219253,-6.7022961026,7.1222364689,-2.3676979627,1325
108252,161477,219235,-6.7022961026,7.1222364689,-2.3676979627,1326
108367,161480,219227,-6.7022961026,7.1222364689,-2.3676979627,1327
108515,161471,219188,-6.7022961026,7.1222364689,-2.3676979627,1328
108603,161510,219260,-6.7022961026,7.1222364689,-2.3676979627,1329
108438,161518,219289,-6.7022961026,7.1222364689,-2.3676979627,1330
108026,161515,219230,-6.7022961026,7.1222364689,-2.3676979627,1331
107593,161525,219203,-6.7022961026,7.1222364689,-2.3676979627,1332
107208,161490,219193,-6.7022961026,7.1222364689,-2.3676979627,1333
106888,161499,219165,-6.7022961026,7.1222364689,-2.3676979627,1334
106728,161467,219166,-6.7022961026,7.1222364689,-2.3676979627,1335
106763,161457,219140,-6.7022961026,7.1222364689,-2.3676979627,1336
106906,161441,219154,-6.7022961026,7.1222364689,-2.3676979627,1337
107033,161454,219128,-6.7022961026,7.1222364689,-2.3676979627,1338
107144,161459,219133,-6.7022961026,7.1222364689,-2.3676979627,1339
107264,161432,219141,-6.7022961026,7.1222364689,-2.3676979627,1340
107426,161454,219112,-6.7022961026,7.1222364689,-2.3676979627,1341
107579,161409,219107,-6.7022961026,7.1222364689,-2.3676979627,1342
107737,161402,219087,-6.7022961026,7.1222364689,-2.3676979627,1343
107900,161405,219101,-6.7022961026,7.1222364689,-2.3676979627,1344
108077,161386,219075,-6.7022961026,7.1222364689,-2.3676979627,1345
108245,161381,219063,-6.7022961026,7.1222364689,-2.3676979627,1346
108425,161369,219050,-6.7022961026,7.1222364689,-2.3676979627,1347
108581,161360,219052,-6.7022961026,7.1222364689,-2.3676979627,1348
108773,161379,219023,-6.6831535217999996,6.9858455806999995,-2.368894374,1349
108884,161365,219001,-6.6831535217999996,6.9858455806999995,-2.368894374,1350
109043,161345,218996,-6.6831535217999996,6.9858455806999995,-2.368894374,1351
109195,161338,219040,-6.6831535217999996,6.9858455806999995,-2.368894374,1352
109332,161355,219018,-6.6831535217999996,6.9858455806999995,-2.368894374,1353
109331,161394,219053,-6.6831535217999996,6.9858455806999995,-2.368894374,1354
109146,161423,219045,-6.6831535217999996,6.9858455806999995,-2.368894374,1355
108872,161421,219036,-6.6831535217999996,6.9858455806999995,-2.368894374,1356
108592,161399,218978,-6.6831535217999996,6.9858455806999995,-2.368894374,1357
108345,161368,218968,-6.6831535217999996,6.9858455806999995,-2.368894374,1358
108235,161365,218939,-6.6831535217999996,6.9858455806999995,-2.368894374,1359
108211,161340,218935,-6.6831535217999996,6.9858455806999995,-2.368894374,1360
108317,161282,218917,-6.6831535217999996,6.9858455806999995,-2.368894374,1361
108452,161270,218875,-6.6831535217999996,6.9858455806999995,-2.368894374,1362
108554,161248,218824,-6.6831535217999996,6.9858455806999995,-2.368894374,1363
108677,161235,218815,-6.6831535217999996,6.9858455806999995,-2.368894374,1364
108798,161191,218822,-6.6831535217999996,6.9858455806999995,-2.368894374,1365
108922,161196,218775,-6.6831535217999996,6.9858455806999995,-2.368894374,1366
109043,161133,218725,-6.6831535217999996,6.9858455806999995,-2.368894374,1367
109189,161101,218747,-6.6831535217999996,6.9858455806999995,-2.368894374,1368
109335,161075,218716,-6.6831535217999996,6.9858455806999995,-2.368894374,1369
109477,161084,218695,-6.6831535217999996,6.9858455806999995,-2.368894374,1370
109620,161029,218666,-6.6831535217999996,6.9858455806999995,-2.368894374,1371
109764,161023,218639,-6.6831535217999996,6.9858455806999995,-2.368894374,1372
109897,160983,218604,-6.6831535217999996,6.9858455806999995,-2.368894374,1373
110012,160951,218628,-6.5455662223,7.031309210100001,-2.4610180441000002,1374
110178,160950,218543,-6.5455662223,7.031309210100001,-2.4610180441000002,1375
110288,160938,218558,-6.5455662223,7.031309210100001,-2.4610180441000002,1376
110393,160909,218535,-6.5455662223,7.031309210100001,-2.4610180441000002,1377
110504,160913,218525,-6.5455662223,7.031309210100001,-2.4610180441000002,1378
110468,160975,218538,-6.5455662223,7.031309210100001,-2.4610180441000002,1379
110342,160968,218547,-6.5455662223,7.031309210100001,-2.4610180441000002,1380
110188,160964,218484,-6.5455662223,7.031309210100001,-2.4610180441000002,1381
110029,160948,218454,-6.5455662223,7.031309210100001,-2.4610180441000002,1382
109890,160877,218458,-6.5455662223,7.031309210100001,-2.4610180441000002,1383
109843,160867,218423,-6.5455662223,7.031309210100001,-2.4610180441000002,1384
109897,160852,218431,-6.5455662223,7.031309210100001,-2.4610180441000002,1385
109962,160836,218392,-6.5455662223,7.031309210100001,-2.4610180441000002,1386
110012,160809,218372,-6.5455662223,7.031309210100001,-2.4610180441000002,1387
110088,160795,218376,-6.5455662223,7.031309210100001,-2.4610180441000002,1388
110158,160763,218311,-6.5455662223,7.031309210100001,-2.4610180441000002,1389
110253,160740,218289,-6.5455662223,7.031309210100001,-2.4610180441000002,1390
110351,160736,218299,-6.5455662223,7.031309210100001,-2.4610180441000002,1391
110446,160689,218245,-6.5455662223,7.031309210100001,-2.4610180441000002,1392
110590,160674,218231,-6.5455662223,7.031309210100001,-2.4610180441000002,1393
110691,160674,218239,-6.5455662223,7.031309210100001,-2.4610180441000002,1394
110800,160665,218206,-6.5455662223,7.031309210100001,-2.4610180441000002,1395
110916,160649,218177,-6.5455662223,7.031309210100001,-2.4610180441000002,1396
111056,160629,218174,-6.5455662223,7.031309210100001,-2.4610180441000002,1397
111181,160647,218169,-6.5455662223,7.031309210100001,-2.4610180441000002,1398
111284,160616,218169,-6.5455662223,7.031309210100001,-2.4610180441000002,1399
111388,160616,218184,-6.5455662223,7.031309210100001,-2.4610180441000002,1400
111512,160663,218177,-6.5455662223,7.031309210100001,-2.4610180441000002,1401
111578,160695,218194,-6.5455662223,7.031309210100001,-2.4610180441000002,1402
111566,160768,218256,-6.5455662223,7.031309210100001,-2.4610180441000002,1403
111514,160750,218244,-6.5455662223,7.031309210100001,-2.4610180441000002,1404
111416,160759,218236,-6.5455662223,7.031309210100001,-2.4610180441000002,1405
111354,160760,218222,-6.5455662223,7.031309210100001,-2.4610180441000002,1406
111281,160744,218188,-6.5455662223,7.031309210100001,-2.4610180441000002,1407
111302,160741,218195,-6.5455662223,7.031309210100001,-2.4610180441000002,1408
111361,160746,218184,-6.5455662223,7.031309210100001,-2.4610180441000002,1409
111385,160709,218142,-6.5455662223,7.031309210100001,-2.4610180441000002,1410
111469,160715,218165,-6.5455662223,7.031309210100001,-2.4610180441000002,1411
111550,160692,218164,-6.5455662223,7.031309210100001,-2.4610180441000002,1412
111618,160669,218164,-6.5455662223,7.031309210100001,-2.4610180441000002,1413
111696,160693,218121,-6.5455662223,7.031309210100001,-2.4610180441000002,1414
111803,160702,218148,-6.5455662223,7.031309210100001,-2.4610180441000002,1415
114163,160777,218124,-6.5527446901,7.196413969499999,-2.3772692530999997,1416
114084,160814,218161,-6.5527446901,7.196413969499999,-2.3772692530999997,1417
113982,160828,218185,-6.5527446901,7.196413969499999,-2.3772692530999997,1418
113820,160849,218161,-6.5527446901,7.196413969499999,-2.3772692530999997,1419
113677,160829,218160,-6.5527446901,7.196413969499999,-2.3772692530999997,1420
113555,160815,218163,-6.5527446901,7.196413969499999,-2.3772692530999997,1421
113489,160818,218148,-6.5527446901,7.196413969499999,-2.3772692530999997,1422
113514,160815,218114,-6.5527446901,7.196413969499999,-2.3772692530999997,1423
113484,160769,218127,-6.5527446901,7.196413969499999,-2.3772692530999997,1424
113499,160769,218108,-6.5527446901,7.196413969499999,-2.3772692530999997,1425
113501,160783,218131,-6.5527446901,7.196413969499999,-2.3772692530999997,1426
113512,160761,218094,-6.5527446901,7.196413969499999,-2.3772692530999997,1427
113527,160774,218074,-6.5527446901,7.196413969499999,-2.3772692530999997,1428
113547,160706,218089,-6.5527446901,7.196413969499999,-2.3772692530999997,1429
113586,160702,218038,-6.5527446901,7.196413969499999,-2.3772692530999997,1430
113617,160718,218034,-6.5527446901,7.196413969499999,-2.3772692530999997,1431
113656,160691,218039,-6.5527446901,7.196413969499999,-2.3772692530999997,1432
113694,160642,218025,-6.5527446901,7.196413969499999,-2.3772692530999997,1433
113734,160668,218038,-6.5527446901,7.196413969499999,-2.3772692530999997,1434
113758,160690,217993,-6.5527446901,7.196413969499999,-2.3772692530999997,1435
113843,160650,217973,-6.5527446901,7.196413969499999,-2.3772692530999997,1436
113877,160646,217962,-6.5527446901,7.196413969499999,-2.3772692530999997,1437
113905,160665,217928,-6.5527446901,7.196413969499999,-2.3772692530999997,1438
113967,160659,217990,-6.5527446901,7.196413969499999,-2.3772692530999997,1439
113946,160713,217969,-6.5527446901,7.196413969499999,-2.3772692530999997,1440
113891,160735,217999,-6.5527446901,7.196413969499999,-2.3772692530999997,1441
113739,160754,217990,-6.5527446901,7.196413969499999,-2.3772692530999997,1442
113579,160746,217995,-6.5527446901,7.196413969499999,-2.3772692530999997,1443
113417,160772,217986,-6.5527446901,7.196413969499999,-2.3772692530999997,1444
113281,160783,218001,-6.5527446901,7.196413969499999,-2.3772692530999997,1445
113236,160787,218005,-6.5527446901,7.196413969499999,-2.3772692530999997,1446
113238,160782,218011,-6.5527446901,7.196413969499999,-2.3772692530999997,1447
113236,160816,217976,-6.5527446901,7.196413969499999,-2.3772692530999997,1448
113238,160799,218013,-6.5527446901,7.196413969499999,-2.3772692530999997,1449
113245,160819,217983,-6.5527446901,7.196413969499999,-2.3772692530999997,1450
113264,160788,217958,-6.5527446901,7.196413969499999,-2.3772692530999997,1451
113304,160767,217974,-6.5527446901,7.196413969499999,-2.3772692530999997,1452
113327,160771,217923,-6.5527446901,7.196413969499999,-2.3772692530999997,1453
113396,160748,217959,-6.5527446901,7.196413969499999,-2.3772692530999997,1454
113453,160753,217959,-6.5527446901,7.196413969499999,-2.3772692530999997,1455
113532,160787,217909,-6.5527446901,7.196413969499999,-2.3772692530999997,1456
113589,160789,217930,-6.5527446901,7.196413969499999,-2.3772692530999997,1457
112113,161129,218130,-6.604190375999999,7.1593252192,-2.4071795356,1458
112094,161145,218156,-6.604190375999999,7.1593252192,-2.4071795356,1459
112128,161097,218138,-6.604190375999999,7.1593252192,-2.4071795356,1460
112145,161122,218112,-6.604190375999999,7.1593252192,-2.4071795356,1461
112156,161104,218130,-6.604190375999999,7.1593252192,-2.4071795356,1462
112203,161143,218173,-6.604190375999999,7.1593252192,-2.4071795356,1463
112232,161153,218144,-6.604190375999999,7.1593252192,-2.4071795356,1464
112253,161134,218151,-6.604190375999999,7.1593252192,-2.4071795356,1465
112277,161188,218137,-6.604190375999999,7.1593252192,-2.4071795356,1466
112200,161195,218189,-6.604190375999999,7.1593252192,-2.4071795356,1467
111845,161240,218207,-6.604190375999999,7.1593252192,-2.4071795356,1468
111335,161231,218210,-6.604190375999999,7.1593252192,-2.4071795356,1469
110711,161262,218166,-6.604190375999999,7.1593252192,-2.4071795356,1470
110011,161244,218198,-6.604190375999999,7.1593252192,-2.4071795356,1471
109371,161272,218214,-6.604190375999999,7.1593252192,-2.4071795356,1472
108967,161271,218182,-6.604190375999999,7.1593252192,-2.4071795356,1473
108758,161268,218214,-6.604190375999999,7.1593252192,-2.4071795356,1474
108608,161240,218205,-6.604190375999999,7.1593252192,-2.4071795356,1475
108470,161233,218201,-6.604190375999999,7.1593252192,-2.4071795356,1476
108356,161232,218165,-6.604190375999999,7.1593252192,-2.4071795356,1477
108284,161195,218206,-6.604190375999999,7.1593252192,-2.4071795356,1478
108263,161198,218160,-6.604190375999999,7.1593252192,-2.4071795356,1479
108247,161187,218155,-6.604190375999999,7.1593252192,-2.4071795356,1480
108256,161162,218151,-6.604190375999999,7.1593252192,-2.4071795356,1481
108279,161095,218126,-6.604190375999999,7.1593252192,-2.4071795356,1482
108345,161122,218045,-6.6568324732,7.106683122,-2.3521446158,1483
108407,161091,218132,-6.6568324732,7.106683122,-2.3521446158,1484
108430,161044,218050,-6.6568324732,7.106683122,-2.3521446158,1485
108501,161043,218039,-6.6568324732,7.106683122,-2.3521446158,1486
108537,161058,218059,-6.6568324732,7.106683122,-2.3521446158,1487
108586,161019,218018,-6.6568324732,7.106683122,-2.3521446158,1488
108647,161014,218030,-6.6568324732,7.106683122,-2.3521446158,1489
108714,161017,218014,-6.6568324732,7.106683122,-2.3521446158,1490
108712,161064,218006,-6.6568324732,7.106683122,-2.3521446158,1491
108507,161070,218035,-6.6568324732,7.106683122,-2.3521446158,1492
107970,161065,218064,-6.6568324732,7.106683122,-2.3521446158,1493
107340,161052,218027,-6.6568324732,7.106683122,-2.3521446158,1494
106732,161005,218034,-6.5886370291,7.1114687672,-2.3844477209,1495
106238,161023,218032,-6.5886370291,7.1114687672,-2.3844477209,1496
105969,161044,218012,-6.5886370291,7.1114687672,-2.3844477209,1497
105957,161021,218023,-6.5886370291,7.1114687672,-2.3844477209,1498
106046,160986,218011,-6.5886370291,7.1114687672,-2.3844477209,1499
106081,161008,218043,-6.5886370291,7.1114687672,-2.3844477209,1500
106110,160996,218009,-6.576672916100001,7.0073809841,-2.3760728418,1501
106185,160980,217988,-6.576672916100001,7.0073809841,-2.3760728418,1502
106260,160937,218025,-6.6951176348,7.094719009,-2.3282163898,1503
106350,160914,217997,-6.6125652551,7.0576302587,-2.3030917525,1504
106470,160919,218029,-6.6556360619,7.1162544124,-2.2671994135,1505
106611,160920,218003,-6.6664037636,7.2765735266,-2.3126630429,1506
106736,160893,217999,-6.5228344076,7.060023081300001,-2.3916261887,1507
106878,160886,218008,-6.703492513900001,7.1461646949,-2.3665015514,1508
107026,160885,217951,-6.6616181184,7.113861589800001,-2.3808584870000002,1509
107163,160886,217982,-6.7465633207,7.1401826384,-2.3353948576,1510
107316,160879,217968,-6.6687965862,7.196413969499999,-2.3377876802,1511
107460,160890,217970,-6.6831535217999996,7.0157558632,-2.3545374384,1512
107599,160861,218006,-6.6053867873000005,7.0372912666,-2.3617159062,1513
107754,160874,217959,-6.843472636,7.1796642112999995,-2.2695922361,1514
107883,160890,218016,-6.6544396506,7.1330041706000005,-2.3605194949,1515
107823,160963,218043,-6.492924125099999,7.0564338474,-2.2947168733999996,1516
107456,160991,218020,-6.6305114246,7.0516482022,-2.3545374384,1517
106992,160985,218042,-6.6532432393,7.1820570339,-2.3234307446,1518
