green,red,IR,acc_x,acc_y,acc_z,sample_index
117309,206867,241735,-2.6380869165,-2.0279171535,9.3236332609,1
117548,206886,241758,-2.6249263922,-1.9166509025999998,9.2542414055,2
117776,206889,241770,-2.7804598612,-1.8269200550999998,9.3367937852,3
117983,206952,241785,-2.7625136916999997,-1.8305092889999999,9.2985086236,4
118238,206925,241803,-2.7134608283999997,-1.8532411037,9.308079914,5
118413,206948,241745,-2.7684957482,-1.8783657409999999,9.330811728699999,6
118590,206988,241835,-2.6907290137,-1.9824535241,9.273383986299999,7
118742,207034,241830,-2.5782663514999995,-2.0255243308999997,9.5294160045,8
118387,206935,241797,-2.7134608283999997,-1.938186306,9.2889373332,9
117225,206785,241697,-2.7242285301,-1.9405791285999998,9.320044027,10
115882,206726,241658,-2.6380869165,-1.8436698133,9.2530449942,11
115109,206615,241634,-2.7493531674,-1.9932212258000002,9.2769732202,12
114757,206613,241589,-2.7014967154,-1.8675980393,9.3056870914,13
114685,206559,241604,-2.739781877,-1.8233308212,9.1824567275,14
114779,206528,241615,-2.7828526838,-1.8520446924,9.2829552767,15
115027,206589,241599,-2.6799613119999997,-2.0949161863,9.397810761499999,16
115298,206650,241618,-2.7649065143000002,-2.0087745727,9.3068835027,17
115484,206654,241677,-2.7541388126,-1.9310078382,9.286544510599999,18
115558,206669,241690,-2.7553352239,-1.8472590472,9.3906322937,19
115565,206649,241699,-2.8283163132,-1.8855442087999998,9.3236332609,20
115628,206634,241676,-2.8199414341,-2.0350956213,9.2889373332,21
115771,206670,241679,-2.6608187311999996,-1.9788642901999998,9.296115801,22
115969,206714,241683,-2.6500510295,-1.9501504189999999,9.2458665264,23
116177,206689,241684,-2.6668007876999997,-1.9429719511999999,9.3583291886,24
116402,206749,241657,-2.6237299809,-1.9848463467,9.2446701151,25
116682,206794,241744,-2.8402804262,-1.9214365478,9.286544510599999,26
116952,206802,241700,-2.7445675222,-1.8711872732,9.3774717694,27
117156,206816,241726,-2.7637101029999998,-1.9405791285999998,9.3571327773,28
117453,206850,241748,-2.6344976826,-1.9405791285999998,9.2853480993,29
117608,206825,241748,-2.7637101029999998,-1.9274186043000001,9.3296153174,30
117840,206815,241801,-2.7385854657,-1.8245272325,9.3332045513,31
118022,206913,241802,-2.7804598612,-1.8089738856,9.353543543399999,32
118233,206921,241829,-2.6787649007,-1.9501504189999999,9.320044027,33
118127,206858,241777,-2.8175486115,-1.9262221929999999,9.3260260835,34
117187,206742,241748,-2.6524438520999998,-1.8317057003,9.4049892293,35
115899,206673,241669,-2.7828526838,-1.9082760235,9.3547399547,36
115104,206620,241589,-2.7302105866,-1.8939190879,9.3643112451,37
114826,206514,241634,-2.7613172804,-1.9286150156,9.3738825355,38
114829,206554,241577,-2.7421746995999996,-1.8855442087999998,9.4612205604,39
114968,206541,241619,-2.703889538,-1.8448662246,9.3427758417,40
115244,206553,241606,-2.5471596577,-1.9692929998,9.242277292499999,41
115575,206579,241649,-2.644068973,-1.9034903783000001,9.3702933016,42
115827,206585,241610,-2.5806591741,-1.9573288867999998,9.3391866078,43
115912,206634,241656,-2.715853651,-1.9956140484,9.2446701151,44
115964,206664,241654,-2.656033086,-1.9824535241,9.1669033806,45
116066,206621,241663,-2.7601208691,-1.9262221929999999,9.3032942688,46
116214,206613,241647,-2.5567309481,-1.9405791285999998,9.407382051899999,47
116430,206685,241677,-2.6656043763999997,-1.9561324755,9.2255275343,48
116678,206686,241691,-2.8271199019,-1.9645073545999998,9.2386880586,49
116918,206677,241706,-2.7146572396999997,-2.093719775,9.3284189061,50
117179,206742,241712,-2.6321048599999997,-1.8963119105000001,9.3128655592,51
117465,206735,241759,-2.6751756668,-1.9178473139,9.343972252999999,52
117735,206794,241765,-2.7314069979,-2.0769700168,9.3667040677,53
118022,206811,241797,-2.6871397798,-1.8843477975,9.2973122123,54
118278,206831,241819,-2.6584259086,-1.9274186043000001,9.296115801,55
118554,206850,241781,-2.739781877,-2.0386848552,9.3332045513,56
118802,206917,241801,-2.5471596577,-1.9417755399,9.3009014462,57
119022,206899,241801,-2.8642086522,-1.9453647738,9.3188476157,58
119036,206914,241826,-2.596212521,-1.9082760235,9.3224368496,59
118320,206780,241791,-2.5591237707,-1.9118652574,9.1872423727,60
117336,206693,241706,-2.7385854657,-1.938186306,9.2590270507,61
116711,206636,241647,-2.5974089322999996,-1.9812571127999998,9.3344009626,62
116521,206634,241649,-2.8618158296000002,-1.9238293703999998,9.3104727366,63
116660,206648,241661,-2.6548366747000003,-1.998006871,9.3882394711,64
116939,206686,241668,-2.5842484079999997,-2.0267207422,9.3248296722,65
117373,206724,241712,-2.5926232871,-1.9393827173,9.229116768199999,66
117695,206712,241713,-2.739781877,-1.9561324755,9.2626162846,67
117843,206734,241739,-2.7062823606,-1.9118652574,9.2626162846,68
117833,206703,241744,-2.6476582069,-1.9860427579999997,9.3786681807,69
117794,206765,241781,-2.6799613119999997,-2.0315063874,9.330811728699999,70
117909,206779,241710,-2.644068973,-1.9549360641999998,9.3738825355,71
117958,206787,241688,-2.6069802227000003,-2.0303099761,9.2267239456,72
118215,206787,241737,-2.7936203855,-1.9405791285999998,9.2889373332,73
118450,206801,241710,-2.8259234905999997,-1.9202401365000001,9.2697947524,74
118650,206802,241749,-2.6883361911000003,-1.9525432416,9.3296153174,75
118917,206830,241783,-2.667997199,-2.0195422744,9.4528456813,76
119165,206860,241789,-2.7720849821,-2.0985054202,9.3750789468,77
119419,206859,241800,-2.7409782883,-1.9250257817,9.3942215276,78
119623,206916,241785,-2.5627130046,-1.9872391693,9.220741889100001,79
119858,206907,241817,-2.5256242543,-1.9932212258000002,9.3332045513,80
119986,206945,241851,-2.6644079651,-1.9932212258000002,9.286544510599999,81
120143,206929,241817,-2.6129622792,-1.8484554585000001,9.4145605197,82
119959,206930,241784,-2.7098715945,-1.91425808,9.2805624541,83
119189,206782,241705,-2.6189443356999997,-1.962114532,9.3511507208,84
118096,206713,241660,-2.6775684894,-1.9058832009,9.3009014462,85
117395,206700,241609,-2.5304098995,-2.0171494518,9.2554378168,86
117143,206656,241604,-2.7529424013,-1.8173487647,9.3248296722,87
117136,206646,241582,-2.6991038927999997,-1.7120645703,9.2793660428,88
117318,206669,241652,-2.7349962318,-1.9704894111,9.3738825355,89
117620,206672,241657,-2.7661029256000003,-2.0614166699,9.3332045513,90
117885,206751,241688,-2.6524438520999998,-2.0159530405,9.3966143502,91
117978,206735,241665,-2.6991038927999997,-1.8317057003,9.3248296722,92
117922,206750,241665,-2.7780670386,-1.91425808,9.3690968903,93
117907,206730,241658,-2.6500510295,-1.9238293703999998,9.3104727366,94
118004,206735,241632,-2.6859433685,-1.9286150156,9.3188476157,95
118120,206742,241727,-2.7326034091999998,-1.9094724347999998,9.274580397600001,96
118333,206771,241688,-2.703889538,-1.8508482811000002,9.2111705987,97
118540,206777,241690,-2.7840490951,-1.8364913454999998,9.3427758417,98
118655,206758,241748,-2.691925425,-1.8687944506,9.3152583818,99
118950,206814,241746,-2.6464617955999996,-1.9525432416,9.265009107200001,100
119181,206840,241750,-2.7637101029999998,-1.9238293703999998,9.3894358824,101
119396,206872,241773,-2.739781877,-1.8723836845000001,9.1824567275,102
119560,206918,241721,-2.7684957482,-1.8376877568,9.2506521716,103
119804,206914,241827,-2.823530668,-1.9034903783000001,9.3009014462,104
120000,206905,241749,-2.6668007876999997,-1.9429719511999999,9.2374916473,105
120130,206930,241804,-2.6632115538,-1.9992032822999999,9.343972252999999,106
119727,206892,241762,-2.6883361911000003,-1.8699908619,9.3667040677,107
118574,206728,241681,-2.7278177639999996,-1.9956140484,9.3009014462,108
117353,206659,241607,-2.7086751831999996,-2.0518453795,9.3379901965,109
116590,206561,241561,-2.6751756668,-1.8855442087999998,9.3152583818,110
116219,206510,241564,-2.7074787719,-2.0781664281,9.3260260835,111
116057,206546,241510,-2.6859433685,-1.9022939669999999,9.284151688,112
116052,206530,241552,-2.8283163132,-1.8807585636,9.3284189061,113
116213,206547,241576,-2.7086751831999996,-1.91425808,9.379864592,114
116390,206548,241568,-2.6823541346,-1.8077774743,9.332008140000001,115
116580,206534,241614,-2.6356940939,-1.7659030788,9.3499543095,116
116589,206558,241581,-2.6943182475999996,-1.7670994901,9.3882394711,117
116648,206562,241558,-2.6344976826,-1.8879370314,9.3595255999,118
116695,206557,241579,-2.7326034091999998,-1.8029918290999998,9.3954179389,119
116821,206579,241620,-2.7373890544,-1.9190437251999999,9.2111705987,120
117024,206570,241664,-2.8139593776000003,-1.8197415872999998,9.3607220112,121
117240,206574,241661,-2.6967110702,-1.9393827173,9.2985086236,122
117478,206614,241593,-2.5567309481,-1.890329854,9.296115801,123
117728,206653,241685,-2.7337998205,-1.806581063,9.4121676971,124
117951,206671,241684,-2.8223342567,-2.0303099761,9.2985086236,125
118195,206708,241733,-2.7266213527,-1.9860427579999997,9.2889373332,126
118398,206693,241712,-2.7349962318,-1.7694923127,9.343972252999999,127
118626,206755,241725,-2.6596223199,-1.9322042495,9.2434737038,128
118869,206771,241752,-2.6751756668,-1.91425808,9.3056870914,129
119054,206823,241792,-2.7421746995999996,-1.9908284031999999,9.3511507208,130
119244,206823,241767,-2.7302105866,-1.9298114269,9.3128655592,131
119094,206801,241763,-2.739781877,-1.8245272325,9.3176512044,132
118185,206615,241684,-2.7828526838,-1.7862420709,9.4049892293,133
116891,206513,241599,-2.8103701436999997,-1.8484554585000001,9.2614198733,134
115914,206433,241532,-2.6871397798,-2.0997018315,9.3379901965,135
115475,206434,241493,-2.8163522002,-1.9932212258000002,9.2985086236,136
115280,206402,241517,-2.6823541346,-1.8173487647,9.1968136631,137
115305,206389,241448,-2.7290141752999997,-1.9178473139,9.3344009626,138
115484,206422,241541,-2.6644079651,-1.8855442087999998,9.2231347117,139
115789,206436,241550,-2.6727828442,-1.9334006607999998,9.2937229784,140
115998,206433,241548,-2.5998017549,-1.7742779578999999,9.327222494799999,141
116113,206445,241553,-2.7505495787000003,-1.8723836845000001,9.296115801,142
116148,206488,241561,-2.7613172804,-1.9214365478,9.3595255999,143
116218,206448,241559,-2.7888347403,-1.962114532,9.2530449942,144
116320,206459,241605,-2.6548366747000003,-1.9405791285999998,9.3523471321,145
116518,206505,241605,-2.8821548217,-1.8293128776999998,9.330811728699999,146
116734,206510,241604,-2.6297120374,-1.8616159827999998,9.3774717694,147
116990,206520,241628,-2.6811577232999997,-1.8771693297,9.3248296722,148
117208,206532,241653,-2.7912275628999996,-1.9465611851,9.2829552767,149
117484,206551,241667,-2.7421746995999996,-2.0051853388,9.3296153174,150
117738,206617,241687,-2.6273192148,-1.8233308212,9.407382051899999,151
118004,206626,241699,-2.6871397798,-1.9549360641999998,9.3643112451,152
118271,206695,241697,-2.6620151425,-1.8855442087999998,9.2877409219,153
118521,206658,241720,-2.7230321187999995,-1.8161523534,9.3571327773,154
118773,206694,241733,-2.7122644171,-1.8592231602,9.3391866078,155
119011,206736,241676,-2.6344976826,-2.0291135648000003,9.2674019298,156
119205,206759,241742,-2.5758735289,-2.0662023151,9.3774717694,157
118914,206656,241722,-2.6883361911000003,-1.8843477975,9.2757768089,158
117863,206567,241681,-2.6069802227000003,-1.9645073545999998,9.3248296722,159
116727,206466,241520,-2.6799613119999997,-1.9250257817,9.272187575,160
115986,206405,241548,-2.7852455064000003,-1.9166509025999998,9.371489712899999,161
115860,206373,241516,-2.7122644171,-1.9956140484,9.384650237199999,162
115865,206379,241507,-2.7026931267000003,-1.9728822337,9.273383986299999,163
116042,206393,241520,-2.8558337731,-1.9944176371,9.3176512044,164
116379,206447,241593,-2.7003003040999998,-1.9441683625,9.4181497536,165
116719,206429,241602,-2.6129622792,-1.9860427579999997,9.2087777761,166
116890,206449,241573,-2.6847469572,-1.9154544913,9.3571327773,167
116932,206479,241597,-2.5627130046,-1.8819549749,9.308079914,168
116973,206442,241589,-2.715853651,-1.9238293703999998,9.3044906801,169
117049,206432,241575,-2.7445675222,-1.8412769907000002,9.3248296722,170
117201,206454,241638,-2.5926232871,-2.0542382021,9.284151688,171
117331,206526,241617,-2.644068973,-2.021935097,9.3427758417,172
117638,206503,241698,-2.7828526838,-1.9118652574,9.2303131795,173
117918,206536,241632,-2.7302105866,-1.8855442087999998,9.3332045513,174
118195,206573,241680,-2.6584259086,-1.8963119105000001,9.3296153174,175
118436,206600,241687,-2.6943182475999996,-1.9238293703999998,9.3954179389,176
118714,206601,241730,-2.6548366747000003,-1.9202401365000001,9.3870430598,177
118949,206633,241750,-2.7457639335,-1.818545176,9.299705034899999,178
119209,206689,241726,-2.6141586905,-1.9369898947,9.3643112451,179
119464,206694,241743,-2.7816562725,-2.0398812665,9.4193461649,180
119669,206743,241762,-2.6584259086,-1.9812571127999998,9.2626162846,181
119894,206700,241800,-2.7708885708000004,-2.0267207422,9.4337031005,182
119670,206750,241800,-2.7026931267000003,-1.9130616687,9.2458665264,183
118852,206633,241727,-2.7912275628999996,-1.8783657409999999,9.2697947524,184
117875,206520,241646,-2.5591237707,-1.9262221929999999,9.3355973739,185
117333,206470,241624,-2.6871397798,-1.9836499354,9.4097748745,186
117200,206441,241589,-2.7601208691,-1.9369898947,9.3619184225,187
117417,206479,241626,-2.8426732488,-1.9214365478,9.353543543399999,188
117694,206511,241680,-2.7469603447999997,-2.0554346134,9.2542414055,189
118087,206562,241670,-2.6069802227000003,-1.9513468303000001,9.2674019298,190
118362,206604,241690,-2.644068973,-1.9310078382,9.2303131795,191
118464,206548,241736,-2.5746771176,-1.9776678789,9.265009107200001,192
118376,206564,241670,-2.7385854657,-1.8891334427000002,9.308079914,193
118350,206522,241708,-2.775674216,-1.9405791285999998,9.340383019099999,194
118438,206539,241647,-2.7661029256000003,-1.9836499354,9.3391866078,195
118549,206590,241661,-2.7326034091999998,-1.8747765071,9.4360959231,196
118718,206613,241655,-2.6117658679000004,-1.8819549749,9.2554378168,197
118858,206620,241649,-2.5423740125,-1.9429719511999999,9.2949193897,198
119061,206635,241698,-2.6847469572,-1.962114532,9.2925265671,199
119153,206690,241708,-2.6943182475999996,-2.0362920326,9.3499543095,200
119402,206664,241702,-2.6488546182,-1.9298114269,9.274580397600001,201
119529,206661,241722,-2.5926232871,-1.9082760235,9.353543543399999,202
119717,206716,241724,-2.7613172804,-1.9214365478,9.2410808812,203
119884,206717,241755,-2.703889538,-1.8628123941,9.379864592,204
120044,206682,241723,-2.6632115538,-1.9118652574,9.3367937852,205
119866,206709,241720,-2.8606194183,-1.8149559420999999,9.3607220112,206
118892,206561,241674,-2.6392833278,-1.842473402,9.224331123,207
117780,206477,241630,-2.715853651,-1.890329854,9.3511507208,208
116981,206342,241564,-2.5351955446999996,-2.0075781614,9.3164547931,209
116663,206384,241566,-2.6356940939,-2.0027925162,9.2578306394,210
116651,206379,241545,-2.8689942974,-1.9549360641999998,9.3619184225,211
116695,206359,241567,-2.6165515131,-1.8640088054,9.3930251163,212
116907,206387,241577,-2.656033086,-1.938186306,9.2937229784,213
117215,206471,241608,-2.6488546182,-1.9836499354,9.2889373332,214
117393,206454,241609,-2.7230321187999995,-1.9214365478,9.2793660428,215
117385,206425,241576,-2.6524438520999998,-1.8149559420999999,9.4049892293,216
117386,206443,241619,-2.6572294973,-1.8867406201,9.2674019298,217
117469,206412,241615,-2.7062823606,-2.0123638066000002,9.4253282214,218
117498,206485,241582,-2.6524438520999998,-1.7958133612999998,9.3367937852,219
117770,206461,241617,-2.7708885708000004,-1.8221344098999999,9.3954179389,220
117988,206478,241653,-2.7708885708000004,-1.9274186043000001,9.286544510599999,221
118163,206518,241628,-2.6739792555000004,-2.0123638066000002,9.3810610033,222
118378,206518,241707,-2.7290141752999997,-1.7910277161,9.308079914,223
118574,206567,241648,-2.6847469572,-1.8556339263000001,9.3463650756,224
118658,206565,241666,-2.656033086,-1.9573288867999998,9.2889373332,225
118938,206619,241730,-2.7278177639999996,-1.8759729184,9.2015993083,226
119110,206622,241729,-2.7900311516,-1.9286150156,9.299705034899999,227
119292,206675,241718,-2.5591237707,-1.9501504189999999,9.3822574146,228
119141,206626,241722,-2.5890340532,-1.9070796122,9.3009014462,229
118150,206502,241621,-2.6117658679000004,-1.9070796122,9.265009107200001,230
116840,206384,241579,-2.6632115538,-1.8855442087999998,9.2889373332,231
115784,206323,241507,-2.5782663514999995,-1.8508482811000002,9.3056870914,232
115248,206277,241487,-2.5782663514999995,-1.8508482811000002,9.3056870914,233
115001,206234,241495,-2.5782663514999995,-1.8508482811000002,9.3056870914,234
114908,206207,241464,-2.5782663514999995,-1.8508482811000002,9.3056870914,235
115021,206220,241449,-2.5782663514999995,-1.8508482811000002,9.3056870914,236
115246,206238,241504,-2.5782663514999995,-1.8508482811000002,9.3056870914,237
115413,206279,241483,-2.5782663514999995,-1.8508482811000002,9.3056870914,238
115433,206297,241510,-2.5782663514999995,-1.8508482811000002,9.3056870914,239
115373,206267,241498,-2.5782663514999995,-1.8508482811000002,9.3056870914,240
115362,206267,241502,-2.5782663514999995,-1.8508482811000002,9.3056870914,241
115441,206274,241539,-2.5782663514999995,-1.8508482811000002,9.3056870914,242
115578,206298,241493,-2.5782663514999995,-1.8508482811000002,9.3056870914,243
115717,206316,241512,-2.5782663514999995,-1.8508482811000002,9.3056870914,244
115900,206336,241537,-2.5782663514999995,-1.8508482811000002,9.3056870914,245
116121,206368,241590,-2.5782663514999995,-1.8508482811000002,9.3056870914,246
116302,206353,241575,-2.5782663514999995,-1.8508482811000002,9.3056870914,247
116497,206393,241588,-2.5782663514999995,-1.8508482811000002,9.3056870914,248
116670,206408,241618,-2.5782663514999995,-1.8508482811000002,9.3056870914,249
116872,206462,241602,-2.5782663514999995,-1.8508482811000002,9.3056870914,250
117057,206504,241588,-2.5782663514999995,-1.8508482811000002,9.3056870914,251
117221,206486,241667,-2.5782663514999995,-1.8508482811000002,9.3056870914,252
116888,206465,241599,-2.5782663514999995,-1.8508482811000002,9.3056870914,253
115689,206335,241519,-2.5782663514999995,-1.8508482811000002,9.3056870914,254
114313,206211,241451,-2.5782663514999995,-1.8508482811000002,9.3056870914,255
113471,206126,241389,-2.5782663514999995,-1.8508482811000002,9.3056870914,256
113061,206109,241394,-2.656033086,-1.9477575963999998,9.2973122123,257
113134,206071,241395,-2.656033086,-1.9477575963999998,9.2973122123,258
113395,206089,241393,-2.656033086,-1.9477575963999998,9.2973122123,259
113719,206143,241422,-2.656033086,-1.9477575963999998,9.2973122123,260
113921,206156,241406,-2.656033086,-1.9477575963999998,9.2973122123,261
113984,206179,241427,-2.656033086,-1.9477575963999998,9.2973122123,262
114057,206180,241421,-2.656033086,-1.9477575963999998,9.2973122123,263
114163,206171,241425,-2.656033086,-1.9477575963999998,9.2973122123,264
114338,206186,241458,-2.656033086,-1.9477575963999998,9.2973122123,265
114583,206235,241468,-2.656033086,-1.9477575963999998,9.2973122123,266
114825,206261,241492,-2.656033086,-1.9477575963999998,9.2973122123,267
115080,206248,241503,-2.656033086,-1.9477575963999998,9.2973122123,268
115327,206294,241518,-2.656033086,-1.9477575963999998,9.2973122123,269
115601,206329,241538,-2.656033086,-1.9477575963999998,9.2973122123,270
115877,206353,241574,-2.656033086,-1.9477575963999998,9.2973122123,271
116127,206374,241578,-2.656033086,-1.9477575963999998,9.2973122123,272
116400,206417,241581,-2.656033086,-1.9477575963999998,9.2973122123,273
116658,206445,241609,-2.656033086,-1.9477575963999998,9.2973122123,274
116920,206464,241608,-2.656033086,-1.9477575963999998,9.2973122123,275
117042,206463,241655,-2.656033086,-1.9477575963999998,9.2973122123,276
116437,206363,241584,-2.656033086,-1.9477575963999998,9.2973122123,277
115215,206267,241496,-2.656033086,-1.9477575963999998,9.2973122123,278
114263,206194,241427,-2.656033086,-1.9477575963999998,9.2973122123,279
113882,206159,241510,-2.656033086,-1.9477575963999998,9.2973122123,280
113880,206155,241426,-2.656033086,-1.9477575963999998,9.2973122123,281
114079,206195,241442,-2.656033086,-1.9477575963999998,9.2973122123,282
114472,206255,241460,-2.656033086,-1.9477575963999998,9.2973122123,283
114889,206253,241500,-2.656033086,-1.9477575963999998,9.2973122123,284
115126,206297,241505,-2.656033086,-1.9477575963999998,9.2973122123,285
115197,206266,241475,-2.656033086,-1.9477575963999998,9.2973122123,286
115163,206294,241521,-2.656033086,-1.9477575963999998,9.2973122123,287
115229,206284,241550,-2.656033086,-1.9477575963999998,9.2973122123,288
115350,206296,241538,-2.656033086,-1.9477575963999998,9.2973122123,289
115551,206358,241522,-2.656033086,-1.9477575963999998,9.2973122123,290
115807,206349,241571,-2.656033086,-1.9477575963999998,9.2973122123,291
116045,206400,241611,-2.656033086,-1.9477575963999998,9.2973122123,292
116325,206438,241586,-2.656033086,-1.9477575963999998,9.2973122123,293
116619,206419,241607,-2.656033086,-1.9477575963999998,9.2973122123,294
116915,206455,241623,-2.8043880872,-1.8855442087999998,9.3391866078,295
117213,206512,241654,-2.8043880872,-1.8855442087999998,9.3391866078,296
117486,206555,241681,-2.8043880872,-1.8855442087999998,9.3391866078,297
117708,206561,241662,-2.8043880872,-1.8855442087999998,9.3391866078,298
117936,206569,241714,-2.8043880872,-1.8855442087999998,9.3391866078,299
117719,206502,241666,-2.8043880872,-1.8855442087999998,9.3391866078,300
116752,206441,241617,-2.8043880872,-1.8855442087999998,9.3391866078,301
115706,206388,241552,-2.7349962318,-1.8460626359,9.286544510599999,302
115183,206345,241515,-2.7349962318,-1.8460626359,9.286544510599999,303
115097,206319,241513,-2.7349962318,-1.8460626359,9.286544510599999,304
115289,206350,241537,-2.7349962318,-1.8460626359,9.286544510599999,305
115626,206365,241578,-2.7349962318,-1.8460626359,9.286544510599999,306
116029,206373,241556,-2.7349962318,-1.8460626359,9.286544510599999,307
116259,206413,241573,-2.7349962318,-1.8460626359,9.286544510599999,308
116276,206384,241617,-2.7349962318,-1.8460626359,9.286544510599999,309
116155,206430,241547,-2.7349962318,-1.8460626359,9.286544510599999,310
116112,206403,241565,-2.7349962318,-1.8460626359,9.286544510599999,311
116193,206456,241624,-2.7349962318,-1.8460626359,9.286544510599999,312
116347,206472,241616,-2.7349962318,-1.8460626359,9.286544510599999,313
116523,206473,241621,-2.7349962318,-1.8460626359,9.286544510599999,314
116781,206494,241653,-2.7349962318,-1.8460626359,9.286544510599999,315
117010,206518,241679,-2.7349962318,-1.8460626359,9.286544510599999,316
117214,206562,241646,-2.7349962318,-1.8460626359,9.286544510599999,317
117430,206544,241705,-2.7349962318,-1.8460626359,9.286544510599999,318
117647,206607,241644,-2.7349962318,-1.8460626359,9.286544510599999,319
117867,206612,241716,-2.7349962318,-1.8460626359,9.286544510599999,320
118073,206637,241687,-2.7349962318,-1.8460626359,9.286544510599999,321
118227,206619,241749,-2.7349962318,-1.8460626359,9.286544510599999,322
117827,206596,241747,-2.7349962318,-1.8460626359,9.286544510599999,323
116639,206520,241610,-2.7349962318,-1.8460626359,9.286544510599999,324
115427,206385,241557,-2.7349962318,-1.8460626359,9.286544510599999,325
114817,206311,241567,-2.7349962318,-1.8460626359,9.286544510599999,326
114613,206307,241494,-2.7349962318,-1.8460626359,9.286544510599999,327
114636,206291,241536,-2.7349962318,-1.8460626359,9.286544510599999,328
114819,206326,241535,-2.7349962318,-1.8460626359,9.286544510599999,329
115140,206351,241598,-2.7349962318,-1.8460626359,9.286544510599999,330
115505,206370,241618,-2.7349962318,-1.8460626359,9.286544510599999,331
115725,206427,241587,-2.7349962318,-1.8460626359,9.286544510599999,332
115811,206390,241612,-2.703889538,-1.9154544913,9.3248296722,333
115880,206444,241628,-2.703889538,-1.9154544913,9.3248296722,334
116038,206441,241642,-2.703889538,-1.9154544913,9.3248296722,335
116213,206456,241666,-2.703889538,-1.9154544913,9.3248296722,336
116421,206486,241671,-2.703889538,-1.9154544913,9.3248296722,337
116676,206534,241656,-2.703889538,-1.9154544913,9.3248296722,338
116968,206527,241710,-2.703889538,-1.9154544913,9.3248296722,339
117251,206575,241738,-2.703889538,-1.9154544913,9.3248296722,340
117525,206603,241697,-2.703889538,-1.9154544913,9.3248296722,341
117785,206598,241743,-2.703889538,-1.9154544913,9.3248296722,342
118028,206638,241801,-2.703889538,-1.9154544913,9.3248296722,343
118282,206666,241843,-2.703889538,-1.9154544913,9.3248296722,344
118507,206666,241813,-2.703889538,-1.9154544913,9.3248296722,345
118737,206728,241827,-2.703889538,-1.9154544913,9.3248296722,346
118969,206785,241857,-2.703889538,-1.9154544913,9.3248296722,347
119054,206737,241868,-2.703889538,-1.9154544913,9.3248296722,348
118485,206698,241810,-2.703889538,-1.9154544913,9.3248296722,349
117220,206559,241732,-2.703889538,-1.9154544913,9.3248296722,350
116158,206468,241700,-2.703889538,-1.9154544913,9.3248296722,351
115607,206436,241666,-2.703889538,-1.9154544913,9.3248296722,352
115425,206448,241664,-2.703889538,-1.9154544913,9.3248296722,353
115441,206420,241697,-2.703889538,-1.9154544913,9.3248296722,354
115620,206401,241678,-2.703889538,-1.9154544913,9.3248296722,355
115929,206449,241661,-2.703889538,-1.9154544913,9.3248296722,356
116232,206496,241690,-2.703889538,-1.9154544913,9.3248296722,357
116441,206497,241709,-2.703889538,-1.9154544913,9.3248296722,358
116569,206505,241734,-2.703889538,-1.9154544913,9.3248296722,359
116618,206537,241739,-2.703889538,-1.9154544913,9.3248296722,360
116728,206541,241749,-2.703889538,-1.9154544913,9.3248296722,361
116924,206548,241781,-2.703889538,-1.9154544913,9.3248296722,362
117153,206588,241774,-2.703889538,-1.9154544913,9.3248296722,363
117432,206576,241741,-2.703889538,-1.9154544913,9.3248296722,364
117688,206664,241827,-2.703889538,-1.9154544913,9.3248296722,365
117964,206651,241818,-2.703889538,-1.9154544913,9.3248296722,366
118217,206704,241864,-2.703889538,-1.9154544913,9.3248296722,367
118476,206715,241833,-2.703889538,-1.9154544913,9.3248296722,368
118736,206787,241886,-2.703889538,-1.9154544913,9.3248296722,369
118971,206789,241896,-2.703889538,-1.9154544913,9.3248296722,370
119180,206789,241910,-2.703889538,-1.9154544913,9.3248296722,371
119400,206843,241889,-2.703889538,-1.9154544913,9.3248296722,372
119599,206819,241923,-2.703889538,-1.9154544913,9.3248296722,373
119806,206878,241868,-2.703889538,-1.9154544913,9.3248296722,374
118144,206731,241806,-2.7302105866,-1.8759729184,9.1968136631,375
118359,206763,241848,-2.7302105866,-1.8759729184,9.1968136631,376
118600,206796,241868,-2.7302105866,-1.8759729184,9.1968136631,377
118881,206819,241866,-2.7302105866,-1.8759729184,9.1968136631,378
119129,206815,241845,-2.7302105866,-1.8759729184,9.1968136631,379
119357,206905,241888,-2.7302105866,-1.8759729184,9.1968136631,380
119572,206912,241902,-2.7302105866,-1.8759729184,9.1968136631,381
119798,206878,241944,-2.7302105866,-1.8759729184,9.1968136631,382
120006,206943,241927,-2.7302105866,-1.8759729184,9.1968136631,383
120217,206918,241944,-2.7302105866,-1.8759729184,9.1968136631,384
120409,206980,241921,-2.7302105866,-1.8759729184,9.1968136631,385
120301,206990,241918,-2.7302105866,-1.8759729184,9.1968136631,386
119509,206874,241906,-2.7302105866,-1.8759729184,9.1968136631,387
118466,206801,241843,-2.7302105866,-1.8759729184,9.1968136631,388
117865,206748,241763,-2.7302105866,-1.8759729184,9.1968136631,389
117666,206724,241837,-2.7302105866,-1.8759729184,9.1968136631,390
117722,206786,241799,-2.7302105866,-1.8759729184,9.1968136631,391
117987,206798,241774,-2.7302105866,-1.8759729184,9.1968136631,392
118346,206847,241824,-2.7302105866,-1.8759729184,9.1968136631,393
118590,206838,241845,-2.7302105866,-1.8759729184,9.1968136631,394
118642,206842,241837,-2.7302105866,-1.8759729184,9.1968136631,395
118542,206821,241864,-2.7302105866,-1.8759729184,9.1968136631,396
118515,206862,241846,-2.7302105866,-1.8759729184,9.1968136631,397
118506,206891,241847,-2.7302105866,-1.8759729184,9.1968136631,398
118632,206853,241855,-2.7302105866,-1.8759729184,9.1968136631,399
118807,206901,241845,-2.7302105866,-1.8759729184,9.1968136631,400
118982,206919,241862,-2.7302105866,-1.8759729184,9.1968136631,401
119192,206924,241905,-2.7302105866,-1.8759729184,9.1968136631,402
119399,206923,241898,-2.7302105866,-1.8759729184,9.1968136631,403
119576,206939,241876,-2.7302105866,-1.8759729184,9.1968136631,404
119720,207001,241893,-2.7302105866,-1.8759729184,9.1968136631,405
119901,206992,241870,-2.7302105866,-1.8759729184,9.1968136631,406
120022,206967,241894,-2.7302105866,-1.8759729184,9.1968136631,407
120122,206994,241899,-2.7302105866,-1.8759729184,9.1968136631,408
120191,207022,241921,-2.7302105866,-1.8759729184,9.1968136631,409
119983,206999,241877,-2.7302105866,-1.8759729184,9.1968136631,410
119071,206907,241796,-2.7302105866,-1.8759729184,9.1968136631,411
117864,206803,241776,-2.7302105866,-1.8759729184,9.1968136631,412
117084,206747,241698,-2.7445675222,-1.9549360641999998,9.3667040677,413
116751,206719,241692,-2.7445675222,-1.9549360641999998,9.3667040677,414
116690,206678,241683,-2.7445675222,-1.9549360641999998,9.3667040677,415
116818,206741,241679,-2.7445675222,-1.9549360641999998,9.3667040677,416
117060,206772,241712,-2.7445675222,-1.9549360641999998,9.3667040677,417
117301,206817,241767,-2.7445675222,-1.9549360641999998,9.3667040677,418
117396,206791,241733,-2.7445675222,-1.9549360641999998,9.3667040677,419
117359,206761,241729,-2.7445675222,-1.9549360641999998,9.3667040677,420
117341,206791,241745,-2.7445675222,-1.9549360641999998,9.3667040677,421
117410,206827,241728,-2.7445675222,-1.9549360641999998,9.3667040677,422
117529,206790,241725,-2.7445675222,-1.9549360641999998,9.3667040677,423
117696,206826,241756,-2.7445675222,-1.9549360641999998,9.3667040677,424
117898,206831,241720,-2.7445675222,-1.9549360641999998,9.3667040677,425
118090,206886,241783,-2.7445675222,-1.9549360641999998,9.3667040677,426
118294,206924,241795,-2.7445675222,-1.9549360641999998,9.3667040677,427
118525,206933,241815,-2.7445675222,-1.9549360641999998,9.3667040677,428
118736,206950,241801,-2.7445675222,-1.9549360641999998,9.3667040677,429
118916,206996,241823,-2.7445675222,-1.9549360641999998,9.3667040677,430
119135,206949,241843,-2.7445675222,-1.9549360641999998,9.3667040677,431
119325,207015,241824,-2.7445675222,-1.9549360641999998,9.3667040677,432
119418,207016,241865,-2.7445675222,-1.9549360641999998,9.3667040677,433
118987,206895,241827,-2.7445675222,-1.9549360641999998,9.3667040677,434
117730,206832,241698,-2.7445675222,-1.9549360641999998,9.3667040677,435
116473,206699,241663,-2.7445675222,-1.9549360641999998,9.3667040677,436
115771,206667,241600,-2.7445675222,-1.9549360641999998,9.3667040677,437
115472,206666,241642,-2.7445675222,-1.9549360641999998,9.3667040677,438
115398,206644,241634,-2.7445675222,-1.9549360641999998,9.3667040677,439
115474,206632,241640,-2.7445675222,-1.9549360641999998,9.3667040677,440
115693,206657,241624,-2.7445675222,-1.9549360641999998,9.3667040677,441
115958,206685,241653,-2.7445675222,-1.9549360641999998,9.3667040677,442
116142,206719,241671,-2.7445675222,-1.9549360641999998,9.3667040677,443
116210,206715,241703,-2.7445675222,-1.9549360641999998,9.3667040677,444
116244,206703,241701,-2.7445675222,-1.9549360641999998,9.3667040677,445
116344,206701,241722,-2.7445675222,-1.9549360641999998,9.3667040677,446
116485,206719,241708,-2.7445675222,-1.9549360641999998,9.3667040677,447
116689,206787,241733,-2.7445675222,-1.9549360641999998,9.3667040677,448
116907,206766,241742,-2.7445675222,-1.9549360641999998,9.3667040677,449
117197,206784,241726,-2.7445675222,-1.9549360641999998,9.3667040677,450
117424,206791,241741,-2.7445675222,-1.9549360641999998,9.3667040677,451
117688,206832,241786,-2.7445675222,-1.9549360641999998,9.3667040677,452
117940,206885,241802,-2.7445675222,-1.9549360641999998,9.3667040677,453
118181,206886,241782,-2.7445675222,-1.9549360641999998,9.3667040677,454
117941,206810,241752,-2.7218357075,-1.9549360641999998,9.343972252999999,455
118130,206830,241741,-2.7218357075,-1.9549360641999998,9.343972252999999,456
118303,206845,241830,-2.7218357075,-1.9549360641999998,9.343972252999999,457
118529,206846,241773,-2.7218357075,-1.9549360641999998,9.343972252999999,458
118768,206860,241802,-2.7218357075,-1.9549360641999998,9.343972252999999,459
119022,206877,241857,-2.7218357075,-1.9549360641999998,9.343972252999999,460
119277,206945,241808,-2.7218357075,-1.9549360641999998,9.343972252999999,461
119532,206932,241863,-2.7218357075,-1.9549360641999998,9.343972252999999,462
119771,206945,241839,-2.7218357075,-1.9549360641999998,9.343972252999999,463
120047,207032,241855,-2.7218357075,-1.9549360641999998,9.343972252999999,464
120209,206988,241867,-2.7218357075,-1.9549360641999998,9.343972252999999,465
120462,207056,241878,-2.7218357075,-1.9549360641999998,9.343972252999999,466
120642,207034,241867,-2.7218357075,-1.9549360641999998,9.343972252999999,467
120464,207017,241855,-2.7218357075,-1.9549360641999998,9.343972252999999,468
119652,206942,241802,-2.7218357075,-1.9549360641999998,9.343972252999999,469
118721,206878,241765,-2.7218357075,-1.9549360641999998,9.343972252999999,470
118199,206852,241714,-2.7218357075,-1.9549360641999998,9.343972252999999,471
118101,206842,241755,-2.7218357075,-1.9549360641999998,9.343972252999999,472
118214,206851,241724,-2.7218357075,-1.9549360641999998,9.343972252999999,473
118500,206898,241729,-2.7218357075,-1.9549360641999998,9.343972252999999,474
118828,206888,241766,-2.7218357075,-1.9549360641999998,9.343972252999999,475
119096,206922,241770,-2.7218357075,-1.9549360641999998,9.343972252999999,476
119129,206912,241746,-2.7218357075,-1.9549360641999998,9.343972252999999,477
119089,206920,241772,-2.7218357075,-1.9549360641999998,9.343972252999999,478
119023,206931,241741,-2.7218357075,-1.9549360641999998,9.343972252999999,479
119075,206920,241753,-2.7218357075,-1.9549360641999998,9.343972252999999,480
119196,206961,241762,-2.7218357075,-1.9549360641999998,9.343972252999999,481
119346,206957,241767,-2.7218357075,-1.9549360641999998,9.343972252999999,482
119540,206973,241789,-2.7218357075,-1.9549360641999998,9.343972252999999,483
119736,206983,241798,-2.7218357075,-1.9549360641999998,9.343972252999999,484
119939,207027,241794,-2.7218357075,-1.9549360641999998,9.343972252999999,485
120152,206987,241831,-2.7218357075,-1.9549360641999998,9.343972252999999,486
120294,207051,241804,-2.7218357075,-1.9549360641999998,9.343972252999999,487
120436,207054,241811,-2.7218357075,-1.9549360641999998,9.343972252999999,488
120536,207041,241808,-2.7218357075,-1.9549360641999998,9.343972252999999,489
120623,207086,241852,-2.7218357075,-1.9549360641999998,9.343972252999999,490
120438,207035,241798,-2.7218357075,-1.9549360641999998,9.343972252999999,491
119554,206965,241764,-2.7218357075,-1.9549360641999998,9.343972252999999,492
118427,206843,241715,-2.7218357075,-1.9549360641999998,9.343972252999999,493
117692,206809,241672,-2.7218357075,-1.9549360641999998,9.343972252999999,494
117410,206788,241661,-2.7218357075,-1.9549360641999998,9.343972252999999,495
117357,206815,241664,-2.7218357075,-1.9549360641999998,9.343972252999999,496
117473,206828,241646,-2.5782663514999995,-1.9274186043000001,9.2985086236,497
117713,206873,241684,-2.5782663514999995,-1.9274186043000001,9.2985086236,498
117951,206890,241705,-2.5782663514999995,-1.9274186043000001,9.2985086236,499
118173,206888,241736,-2.5782663514999995,-1.9274186043000001,9.2985086236,500
118372,206933,241715,-2.5782663514999995,-1.9274186043000001,9.2985086236,501
118535,206927,241738,-2.5782663514999995,-1.9274186043000001,9.2985086236,502
118157,206878,241668,-2.5782663514999995,-1.9274186043000001,9.2985086236,503
116994,206744,241630,-2.5782663514999995,-1.9274186043000001,9.2985086236,504
115784,206627,241561,-2.5782663514999995,-1.9274186043000001,9.2985086236,505
115069,206585,241529,-2.5782663514999995,-1.9274186043000001,9.2985086236,506
114826,206566,241547,-2.5782663514999995,-1.9274186043000001,9.2985086236,507
114798,206505,241508,-2.5782663514999995,-1.9274186043000001,9.2985086236,508
114927,206556,241527,-2.5782663514999995,-1.9274186043000001,9.2985086236,509
115190,206592,241505,-2.5782663514999995,-1.9274186043000001,9.2985086236,510
115481,206619,241556,-2.5782663514999995,-1.9274186043000001,9.2985086236,511
115675,206636,241548,-2.5782663514999995,-1.9274186043000001,9.2985086236,512
115725,206674,241635,-2.5782663514999995,-1.9274186043000001,9.2985086236,513
115770,206647,241603,-2.5782663514999995,-1.9274186043000001,9.2985086236,514
115858,206635,241620,-2.5782663514999995,-1.9274186043000001,9.2985086236,515
116019,206627,241624,-2.5782663514999995,-1.9274186043000001,9.2985086236,516
116210,206685,241656,-2.5782663514999995,-1.9274186043000001,9.2985086236,517
116461,206713,241634,-2.5782663514999995,-1.9274186043000001,9.2985086236,518
116711,206736,241660,-2.5782663514999995,-1.9274186043000001,9.2985086236,519
116952,206816,241654,-2.5782663514999995,-1.9274186043000001,9.2985086236,520
117222,206741,241674,-2.5782663514999995,-1.9274186043000001,9.2985086236,521
117478,206760,241725,-2.5782663514999995,-1.9274186043000001,9.2985086236,522
117694,206855,241738,-2.5782663514999995,-1.9274186043000001,9.2985086236,523
117902,206868,241775,-2.5782663514999995,-1.9274186043000001,9.2985086236,524
118134,206857,241748,-2.5782663514999995,-1.9274186043000001,9.2985086236,525
118331,206846,241716,-2.5782663514999995,-1.9274186043000001,9.2985086236,526
118268,206863,241744,-2.5782663514999995,-1.9274186043000001,9.2985086236,527
117460,206759,241676,-2.5782663514999995,-1.9274186043000001,9.2985086236,528
116227,206661,241615,-2.5782663514999995,-1.9274186043000001,9.2985086236,529
115409,206583,241565,-2.5782663514999995,-1.9274186043000001,9.2985086236,530
115126,206564,241554,-2.5782663514999995,-1.9274186043000001,9.2985086236,531
115160,206558,241537,-2.5782663514999995,-1.9274186043000001,9.2985086236,532
115356,206593,241566,-2.5782663514999995,-1.9274186043000001,9.2985086236,533
115641,206614,241607,-2.5782663514999995,-1.9274186043000001,9.2985086236,534
116012,206631,241542,-2.5782663514999995,-1.9274186043000001,9.2985086236,535
116265,206678,241619,-2.5782663514999995,-1.9274186043000001,9.2985086236,536
116361,206657,241609,-2.5782663514999995,-1.9274186043000001,9.2985086236,537
116443,206662,241634,-2.5782663514999995,-1.9274186043000001,9.2985086236,538
118333,206871,241608,-2.6392833278,-1.9525432416,9.2638126959,539
118513,206935,241632,-2.6392833278,-1.9525432416,9.2638126959,540
118678,206901,241624,-2.6392833278,-1.9525432416,9.2638126959,541
118848,206939,241648,-2.6392833278,-1.9525432416,9.2638126959,542
119076,206931,241671,-2.6392833278,-1.9525432416,9.2638126959,543
119266,206956,241705,-2.6392833278,-1.9525432416,9.2638126959,544
119485,206964,241648,-2.6392833278,-1.9525432416,9.2638126959,545
119670,206999,241696,-2.6392833278,-1.9525432416,9.2638126959,546
119856,207002,241703,-2.6392833278,-1.9525432416,9.2638126959,547
120020,206986,241721,-2.6392833278,-1.9525432416,9.2638126959,548
119711,207016,241680,-2.6392833278,-1.9525432416,9.2638126959,549
118632,206876,241626,-2.6392833278,-1.9525432416,9.2638126959,550
117363,206804,241587,-2.6392833278,-1.9525432416,9.2638126959,551
116568,206694,241499,-2.6392833278,-1.9525432416,9.2638126959,552
116178,206666,241537,-2.6392833278,-1.9525432416,9.2638126959,553
116053,206660,241465,-2.6392833278,-1.9525432416,9.2638126959,554
116023,206650,241499,-2.6392833278,-1.9525432416,9.2638126959,555
116216,206716,241479,-2.6392833278,-1.9525432416,9.2638126959,556
116444,206681,241547,-2.6392833278,-1.9525432416,9.2638126959,557
116636,206684,241559,-2.6392833278,-1.9525432416,9.2638126959,558
116705,206683,241567,-2.6392833278,-1.9525432416,9.2638126959,559
116719,206688,241536,-2.6392833278,-1.9525432416,9.2638126959,560
116785,206706,241564,-2.6392833278,-1.9525432416,9.2638126959,561
116891,206726,241548,-2.6392833278,-1.9525432416,9.2638126959,562
117074,206741,241562,-2.6392833278,-1.9525432416,9.2638126959,563
117255,206751,241576,-2.6392833278,-1.9525432416,9.2638126959,564
117486,206768,241587,-2.6392833278,-1.9525432416,9.2638126959,565
117721,206791,241603,-2.6392833278,-1.9525432416,9.2638126959,566
117955,206825,241597,-2.6392833278,-1.9525432416,9.2638126959,567
118193,206799,241645,-2.6392833278,-1.9525432416,9.2638126959,568
118394,206854,241698,-2.6392833278,-1.9525432416,9.2638126959,569
118609,206864,241675,-2.6392833278,-1.9525432416,9.2638126959,570
118828,206834,241713,-2.6392833278,-1.9525432416,9.2638126959,571
119022,206906,241720,-2.6392833278,-1.9525432416,9.2638126959,572
119214,206882,241692,-2.6392833278,-1.9525432416,9.2638126959,573
119094,206895,241684,-2.6392833278,-1.9525432416,9.2638126959,574
118189,206800,241620,-2.6392833278,-1.9525432416,9.2638126959,575
116947,206696,241560,-2.6392833278,-1.9525432416,9.2638126959,576
116115,206625,241542,-2.6392833278,-1.9525432416,9.2638126959,577
115705,206564,241529,-2.6392833278,-1.9525432416,9.2638126959,578
115594,206572,241524,-2.6392833278,-1.9525432416,9.2638126959,579
115642,206536,241510,-2.6392833278,-1.9525432416,9.2638126959,580
117955,206621,241557,-2.6105694566,-1.9274186043000001,9.242277292499999,581
117771,206606,241552,-2.6105694566,-1.9274186043000001,9.242277292499999,582
117780,206594,241566,-2.6105694566,-1.9274186043000001,9.242277292499999,583
117972,206645,241581,-2.6105694566,-1.9274186043000001,9.242277292499999,584
118197,206659,241602,-2.6105694566,-1.9274186043000001,9.242277292499999,585
118373,206695,241645,-2.6105694566,-1.9274186043000001,9.242277292499999,586
118423,206687,241648,-2.6105694566,-1.9274186043000001,9.242277292499999,587
118375,206673,241593,-2.6105694566,-1.9274186043000001,9.242277292499999,588
118362,206669,241602,-2.6105694566,-1.9274186043000001,9.242277292499999,589
118416,206682,241650,-2.6105694566,-1.9274186043000001,9.242277292499999,590
118550,206685,241623,-2.6105694566,-1.9274186043000001,9.242277292499999,591
118712,206713,241687,-2.6105694566,-1.9274186043000001,9.242277292499999,592
118894,206743,241627,-2.6105694566,-1.9274186043000001,9.242277292499999,593
119063,206792,241730,-2.6105694566,-1.9274186043000001,9.242277292499999,594
119273,206762,241661,-2.6105694566,-1.9274186043000001,9.242277292499999,595
119445,206758,241674,-2.6105694566,-1.9274186043000001,9.242277292499999,596
119641,206794,241710,-2.6105694566,-1.9274186043000001,9.242277292499999,597
119806,206845,241728,-2.6105694566,-1.9274186043000001,9.242277292499999,598
120019,206837,241748,-2.6105694566,-1.9274186043000001,9.242277292499999,599
120206,206898,241751,-2.6105694566,-1.9274186043000001,9.242277292499999,600
120287,206862,241728,-2.6105694566,-1.9274186043000001,9.242277292499999,601
119853,206836,241724,-2.6105694566,-1.9274186043000001,9.242277292499999,602
118689,206680,241621,-2.6105694566,-1.9274186043000001,9.242277292499999,603
117536,206574,241570,-2.6105694566,-1.9274186043000001,9.242277292499999,604
116828,206514,241524,-2.6105694566,-1.9274186043000001,9.242277292499999,605
116462,206477,241494,-2.6105694566,-1.9274186043000001,9.242277292499999,606
116306,206480,241540,-2.6105694566,-1.9274186043000001,9.242277292499999,607
116291,206470,241512,-2.6105694566,-1.9274186043000001,9.242277292499999,608
116454,206468,241517,-2.6105694566,-1.9274186043000001,9.242277292499999,609
116655,206470,241531,-2.6105694566,-1.9274186043000001,9.242277292499999,610
116780,206504,241562,-2.6105694566,-1.9274186043000001,9.242277292499999,611
116796,206492,241529,-2.6105694566,-1.9274186043000001,9.242277292499999,612
116810,206521,241546,-2.6105694566,-1.9274186043000001,9.242277292499999,613
116844,206504,241515,-2.6105694566,-1.9274186043000001,9.242277292499999,614
116943,206502,241573,-2.6105694566,-1.9274186043000001,9.242277292499999,615
117126,206506,241560,-2.6105694566,-1.9274186043000001,9.242277292499999,616
117311,206539,241600,-2.6105694566,-1.9274186043000001,9.242277292499999,617
117551,206572,241607,-2.6105694566,-1.9274186043000001,9.242277292499999,618
117794,206603,241639,-2.6105694566,-1.9274186043000001,9.242277292499999,619
118019,206612,241674,-2.6105694566,-1.9274186043000001,9.242277292499999,620
118255,206651,241665,-2.6105694566,-1.9274186043000001,9.242277292499999,621
118482,206652,241679,-2.6105694566,-1.9274186043000001,9.242277292499999,622
115621,206351,241509,-2.5914268758000003,-1.806581063,9.3104727366,623
115672,206342,241507,-2.5914268758000003,-1.806581063,9.3104727366,624
115835,206375,241499,-2.5914268758000003,-1.806581063,9.3104727366,625
116006,206383,241576,-2.5914268758000003,-1.806581063,9.3104727366,626
116230,206431,241560,-2.5914268758000003,-1.806581063,9.3104727366,627
116429,206448,241578,-2.5914268758000003,-1.806581063,9.3104727366,628
116693,206457,241541,-2.5914268758000003,-1.806581063,9.3104727366,629
116955,206450,241590,-2.5914268758000003,-1.806581063,9.3104727366,630
117202,206529,241543,-2.5914268758000003,-1.806581063,9.3104727366,631
117459,206546,241600,-2.5914268758000003,-1.806581063,9.3104727366,632
117678,206570,241661,-2.5914268758000003,-1.806581063,9.3104727366,633
117887,206605,241612,-2.5914268758000003,-1.806581063,9.3104727366,634
118116,206618,241628,-2.5914268758000003,-1.806581063,9.3104727366,635
118282,206627,241633,-2.5914268758000003,-1.806581063,9.3104727366,636
118050,206584,241627,-2.5914268758000003,-1.806581063,9.3104727366,637
117135,206473,241516,-2.5914268758000003,-1.806581063,9.3104727366,638
116140,206395,241489,-2.5914268758000003,-1.806581063,9.3104727366,639
115597,206384,241491,-2.5914268758000003,-1.806581063,9.3104727366,640
115476,206367,241476,-2.5914268758000003,-1.806581063,9.3104727366,641
115604,206385,241470,-2.5914268758000003,-1.806581063,9.3104727366,642
115901,206397,241480,-2.5914268758000003,-1.806581063,9.3104727366,643
116285,206436,241500,-2.5914268758000003,-1.806581063,9.3104727366,644
116547,206464,241521,-2.5914268758000003,-1.806581063,9.3104727366,645
116632,206440,241555,-2.5914268758000003,-1.806581063,9.3104727366,646
116597,206458,241530,-2.5914268758000003,-1.806581063,9.3104727366,647
116575,206459,241543,-2.5914268758000003,-1.806581063,9.3104727366,648
116669,206481,241520,-2.5914268758000003,-1.806581063,9.3104727366,649
116811,206468,241543,-2.5914268758000003,-1.806581063,9.3104727366,650
117044,206478,241509,-2.5914268758000003,-1.806581063,9.3104727366,651
117249,206507,241504,-2.5914268758000003,-1.806581063,9.3104727366,652
117457,206537,241569,-2.5914268758000003,-1.806581063,9.3104727366,653
117710,206574,241578,-2.5914268758000003,-1.806581063,9.3104727366,654
117908,206575,241569,-2.5914268758000003,-1.806581063,9.3104727366,655
118113,206595,241609,-2.5914268758000003,-1.806581063,9.3104727366,656
118291,206634,241613,-2.5914268758000003,-1.806581063,9.3104727366,657
118422,206596,241624,-2.5914268758000003,-1.806581063,9.3104727366,658
118584,206656,241639,-2.5914268758000003,-1.806581063,9.3104727366,659
118597,206668,241635,-2.5914268758000003,-1.806581063,9.3104727366,660
118064,206607,241589,-2.75174599,-1.9034903783000001,9.3128655592,661
116974,206453,241497,-2.75174599,-1.9034903783000001,9.3128655592,662
116049,206383,241436,-2.75174599,-1.9034903783000001,9.3128655592,663
115630,206360,241456,-2.75174599,-1.9034903783000001,9.3128655592,664
115520,206370,241484,-2.75174599,-1.9034903783000001,9.3128655592,665
115619,206377,241454,-2.75174599,-1.9034903783000001,9.3128655592,666
115890,206434,241465,-2.75174599,-1.9034903783000001,9.3128655592,667
116210,206385,241482,-2.75174599,-1.9034903783000001,9.3128655592,668
116408,206440,241510,-2.75174599,-1.9034903783000001,9.3128655592,669
116459,206453,241457,-2.75174599,-1.9034903783000001,9.3128655592,670
116474,206441,241510,-2.75174599,-1.9034903783000001,9.3128655592,671
116514,206448,241513,-2.75174599,-1.9034903783000001,9.3128655592,672
116647,206451,241528,-2.75174599,-1.9034903783000001,9.3128655592,673
116818,206493,241549,-2.75174599,-1.9034903783000001,9.3128655592,674
117045,206488,241546,-2.75174599,-1.9034903783000001,9.3128655592,675
117255,206534,241580,-2.75174599,-1.9034903783000001,9.3128655592,676
117489,206554,241564,-2.75174599,-1.9034903783000001,9.3128655592,677
117713,206603,241574,-2.75174599,-1.9034903783000001,9.3128655592,678
117926,206630,241616,-2.75174599,-1.9034903783000001,9.3128655592,679
118164,206608,241613,-2.75174599,-1.9034903783000001,9.3128655592,680
118359,206628,241604,-2.75174599,-1.9034903783000001,9.3128655592,681
118563,206650,241622,-2.75174599,-1.9034903783000001,9.3128655592,682
118765,206658,241695,-2.75174599,-1.9034903783000001,9.3128655592,683
118787,206653,241652,-2.75174599,-1.9034903783000001,9.3128655592,684
118069,206547,241583,-2.75174599,-1.9034903783000001,9.3128655592,685
116778,206458,241532,-2.75174599,-1.9034903783000001,9.3128655592,686
115735,206339,241455,-2.75174599,-1.9034903783000001,9.3128655592,687
115240,206345,241415,-2.75174599,-1.9034903783000001,9.3128655592,688
115058,206297,241464,-2.75174599,-1.9034903783000001,9.3128655592,689
115074,206280,241444,-2.75174599,-1.9034903783000001,9.3128655592,690
115238,206323,241473,-2.75174599,-1.9034903783000001,9.3128655592,691
115521,206334,241464,-2.75174599,-1.9034903783000001,9.3128655592,692
115793,206329,241480,-2.75174599,-1.9034903783000001,9.3128655592,693
115974,206388,241539,-2.75174599,-1.9034903783000001,9.3128655592,694
116057,206353,241495,-2.75174599,-1.9034903783000001,9.3128655592,695
116164,206377,241548,-2.75174599,-1.9034903783000001,9.3128655592,696
116312,206366,241508,-2.75174599,-1.9034903783000001,9.3128655592,697
116474,206411,241517,-2.75174599,-1.9034903783000001,9.3128655592,698
116716,206408,241582,-2.75174599,-1.9034903783000001,9.3128655592,699
116992,206417,241580,-2.75174599,-1.9034903783000001,9.3128655592,700
117255,206446,241598,-2.75174599,-1.9034903783000001,9.3128655592,701
117542,206476,241602,-2.75174599,-1.9034903783000001,9.3128655592,702
119169,206676,241795,-2.7086751831999996,-2.0075781614,9.3224368496,703
118846,206605,241759,-2.7086751831999996,-2.0075781614,9.3224368496,704
117678,206483,241643,-2.7086751831999996,-2.0075781614,9.3224368496,705
116426,206366,241596,-2.7086751831999996,-2.0075781614,9.3224368496,706
115679,206316,241605,-2.7086751831999996,-2.0075781614,9.3224368496,707
115441,206344,241555,-2.7086751831999996,-2.0075781614,9.3224368496,708
115409,206301,241562,-2.7086751831999996,-2.0075781614,9.3224368496,709
115524,206331,241538,-2.7086751831999996,-2.0075781614,9.3224368496,710
115791,206309,241566,-2.7086751831999996,-2.0075781614,9.3224368496,711
116108,206379,241614,-2.7086751831999996,-2.0075781614,9.3224368496,712
116305,206354,241621,-2.7086751831999996,-2.0075781614,9.3224368496,713
116399,206411,241607,-2.7086751831999996,-2.0075781614,9.3224368496,714
116436,206417,241616,-2.7086751831999996,-2.0075781614,9.3224368496,715
116536,206398,241627,-2.7086751831999996,-2.0075781614,9.3224368496,716
116685,206426,241662,-2.7086751831999996,-2.0075781614,9.3224368496,717
116880,206441,241662,-2.7086751831999996,-2.0075781614,9.3224368496,718
117087,206457,241670,-2.7086751831999996,-2.0075781614,9.3224368496,719
117348,206504,241684,-2.7086751831999996,-2.0075781614,9.3224368496,720
117592,206492,241716,-2.7086751831999996,-2.0075781614,9.3224368496,721
117861,206553,241683,-2.7086751831999996,-2.0075781614,9.3224368496,722
118095,206555,241707,-2.7086751831999996,-2.0075781614,9.3224368496,723
118370,206594,241743,-2.7086751831999996,-2.0075781614,9.3224368496,724
118599,206586,241741,-2.7086751831999996,-2.0075781614,9.3224368496,725
118820,206608,241780,-2.7086751831999996,-2.0075781614,9.3224368496,726
119082,206662,241787,-2.7086751831999996,-2.0075781614,9.3224368496,727
119315,206688,241761,-2.7086751831999996,-2.0075781614,9.3224368496,728
119533,206716,241820,-2.7086751831999996,-2.0075781614,9.3224368496,729
119424,206680,241770,-2.7086751831999996,-2.0075781614,9.3224368496,730
118590,206604,241676,-2.7086751831999996,-2.0075781614,9.3224368496,731
117374,206489,241606,-2.7086751831999996,-2.0075781614,9.3224368496,732
116665,206411,241634,-2.7086751831999996,-2.0075781614,9.3224368496,733
116369,206417,241570,-2.7086751831999996,-2.0075781614,9.3224368496,734
116393,206386,241550,-2.7086751831999996,-2.0075781614,9.3224368496,735
116535,206391,241584,-2.7086751831999996,-2.0075781614,9.3224368496,736
116854,206458,241631,-2.7086751831999996,-2.0075781614,9.3224368496,737
117193,206441,241670,-2.7086751831999996,-2.0075781614,9.3224368496,738
117424,206453,241658,-2.7086751831999996,-2.0075781614,9.3224368496,739
117549,206497,241649,-2.7086751831999996,-2.0075781614,9.3224368496,740
117584,206506,241669,-2.7086751831999996,-2.0075781614,9.3224368496,741
117663,206501,241656,-2.7086751831999996,-2.0075781614,9.3224368496,742
117820,206520,241655,-2.7086751831999996,-2.0075781614,9.3224368496,743
118003,206513,241687,-2.7086751831999996,-2.0075781614,9.3224368496,744
119226,206643,241701,-2.6799613119999997,-1.9178473139,9.3834538259,745
119334,206640,241713,-2.6799613119999997,-1.9178473139,9.3834538259,746
119503,206690,241711,-2.6799613119999997,-1.9178473139,9.3834538259,747
119659,206664,241723,-2.6799613119999997,-1.9178473139,9.3834538259,748
119861,206687,241718,-2.6799613119999997,-1.9178473139,9.3834538259,749
120024,206695,241736,-2.6799613119999997,-1.9178473139,9.3834538259,750
120183,206711,241752,-2.6799613119999997,-1.9178473139,9.3834538259,751
120324,206739,241751,-2.6799613119999997,-1.9178473139,9.3834538259,752
120474,206739,241761,-2.6799613119999997,-1.9178473139,9.3834538259,753
120625,206788,241752,-2.6799613119999997,-1.9178473139,9.3834538259,754
120726,206781,241776,-2.6799613119999997,-1.9178473139,9.3834538259,755
120304,206747,241762,-2.6799613119999997,-1.9178473139,9.3834538259,756
119283,206609,241689,-2.6799613119999997,-1.9178473139,9.3834538259,757
118229,206555,241645,-2.6799613119999997,-1.9178473139,9.3834538259,758
117646,206507,241606,-2.6799613119999997,-1.9178473139,9.3834538259,759
117433,206534,241581,-2.6799613119999997,-1.9178473139,9.3834538259,760
117444,206478,241579,-2.6799613119999997,-1.9178473139,9.3834538259,761
117583,206553,241612,-2.6799613119999997,-1.9178473139,9.3834538259,762
117878,206543,241585,-2.6799613119999997,-1.9178473139,9.3834538259,763
118103,206546,241656,-2.6799613119999997,-1.9178473139,9.3834538259,764
118165,206583,241615,-2.6799613119999997,-1.9178473139,9.3834538259,765
118138,206530,241631,-2.6799613119999997,-1.9178473139,9.3834538259,766
118121,206571,241635,-2.6799613119999997,-1.9178473139,9.3834538259,767
118227,206585,241624,-2.6799613119999997,-1.9178473139,9.3834538259,768
118334,206583,241657,-2.6799613119999997,-1.9178473139,9.3834538259,769
118531,206610,241685,-2.6799613119999997,-1.9178473139,9.3834538259,770
118731,206657,241629,-2.6799613119999997,-1.9178473139,9.3834538259,771
118930,206671,241680,-2.6799613119999997,-1.9178473139,9.3834538259,772
119125,206653,241705,-2.6799613119999997,-1.9178473139,9.3834538259,773
119337,206683,241738,-2.6799613119999997,-1.9178473139,9.3834538259,774
119544,206696,241739,-2.6799613119999997,-1.9178473139,9.3834538259,775
119744,206747,241742,-2.6799613119999997,-1.9178473139,9.3834538259,776
119948,206780,241769,-2.6799613119999997,-1.9178473139,9.3834538259,777
120096,206764,241754,-2.6799613119999997,-1.9178473139,9.3834538259,778
119740,206746,241728,-2.6799613119999997,-1.9178473139,9.3834538259,779
118600,206577,241676,-2.6799613119999997,-1.9178473139,9.3834538259,780
117256,206477,241633,-2.6799613119999997,-1.9178473139,9.3834538259,781
116395,206360,241525,-2.6799613119999997,-1.9178473139,9.3834538259,782
115999,206373,241540,-2.6799613119999997,-1.9178473139,9.3834538259,783
115808,206335,241501,-2.6799613119999997,-1.9178473139,9.3834538259,784
115836,206337,241559,-2.6799613119999997,-1.9178473139,9.3834538259,785
116016,206397,241552,-2.6799613119999997,-1.9178473139,9.3834538259,786
119241,206552,241702,-2.7361926431000003,-2.0039889275,9.1992064857,787
118275,206415,241658,-2.7361926431000003,-2.0039889275,9.1992064857,788
117734,206414,241646,-2.7361926431000003,-2.0039889275,9.1992064857,789
117610,206401,241605,-2.7361926431000003,-2.0039889275,9.1992064857,790
117721,206374,241633,-2.7361926431000003,-2.0039889275,9.1992064857,791
117986,206447,241606,-2.7361926431000003,-2.0039889275,9.1992064857,792
118286,206450,241600,-2.7361926431000003,-2.0039889275,9.1992064857,793
118523,206487,241624,-2.7361926431000003,-2.0039889275,9.1992064857,794
118445,206476,241649,-2.7361926431000003,-2.0039889275,9.1992064857,795
118343,206452,241636,-2.7361926431000003,-2.0039889275,9.1992064857,796
118289,206409,241664,-2.7361926431000003,-2.0039889275,9.1992064857,797
118315,206500,241625,-2.7361926431000003,-2.0039889275,9.1992064857,798
118425,206471,241666,-2.7361926431000003,-2.0039889275,9.1992064857,799
118605,206508,241684,-2.7361926431000003,-2.0039889275,9.1992064857,800
118785,206541,241653,-2.7361926431000003,-2.0039889275,9.1992064857,801
118954,206570,241693,-2.7361926431000003,-2.0039889275,9.1992064857,802
119154,206558,241752,-2.7361926431000003,-2.0039889275,9.1992064857,803
119337,206577,241720,-2.7361926431000003,-2.0039889275,9.1992064857,804
119502,206598,241723,-2.7361926431000003,-2.0039889275,9.1992064857,805
119681,206604,241738,-2.7361926431000003,-2.0039889275,9.1992064857,806
119856,206638,241746,-2.7361926431000003,-2.0039889275,9.1992064857,807
119909,206648,241756,-2.7361926431000003,-2.0039889275,9.1992064857,808
119315,206545,241669,-2.7361926431000003,-2.0039889275,9.1992064857,809
118029,206403,241685,-2.7361926431000003,-2.0039889275,9.1992064857,810
116880,206290,241549,-2.7361926431000003,-2.0039889275,9.1992064857,811
116211,206276,241517,-2.7361926431000003,-2.0039889275,9.1992064857,812
115942,206252,241520,-2.7361926431000003,-2.0039889275,9.1992064857,813
115862,206238,241524,-2.7361926431000003,-2.0039889275,9.1992064857,814
115912,206251,241536,-2.7361926431000003,-2.0039889275,9.1992064857,815
116139,206266,241516,-2.7361926431000003,-2.0039889275,9.1992064857,816
116325,206277,241579,-2.7361926431000003,-2.0039889275,9.1992064857,817
116449,206297,241548,-2.7361926431000003,-2.0039889275,9.1992064857,818
116473,206291,241577,-2.7361926431000003,-2.0039889275,9.1992064857,819
116490,206330,241576,-2.7361926431000003,-2.0039889275,9.1992064857,820
116565,206292,241566,-2.7361926431000003,-2.0039889275,9.1992064857,821
116723,206304,241569,-2.7361926431000003,-2.0039889275,9.1992064857,822
116899,206336,241600,-2.7361926431000003,-2.0039889275,9.1992064857,823
117116,206362,241601,-2.7361926431000003,-2.0039889275,9.1992064857,824
117344,206431,241665,-2.7361926431000003,-2.0039889275,9.1992064857,825
117583,206406,241679,-2.7361926431000003,-2.0039889275,9.1992064857,826
117788,206449,241648,-2.7361926431000003,-2.0039889275,9.1992064857,827
118033,206458,241662,-2.7361926431000003,-2.0039889275,9.1992064857,828
119184,206644,241803,-2.6596223199,-1.8269200550999998,9.371489712899999,829
119458,206718,241768,-2.6596223199,-1.8269200550999998,9.371489712899999,830
119716,206714,241793,-2.6596223199,-1.8269200550999998,9.371489712899999,831
119974,206748,241831,-2.6596223199,-1.8269200550999998,9.371489712899999,832
120221,206753,241915,-2.6596223199,-1.8269200550999998,9.371489712899999,833
120493,206796,241858,-2.6596223199,-1.8269200550999998,9.371489712899999,834
120701,206854,241873,-2.6596223199,-1.8269200550999998,9.371489712899999,835
120938,206871,241894,-2.6596223199,-1.8269200550999998,9.371489712899999,836
121073,206830,241893,-2.6596223199,-1.8269200550999998,9.371489712899999,837
120697,206797,241872,-2.6596223199,-1.8269200550999998,9.371489712899999,838
119763,206683,241839,-2.6596223199,-1.8269200550999998,9.371489712899999,839
118864,206636,241733,-2.6596223199,-1.8269200550999998,9.371489712899999,840
118496,206596,241747,-2.6596223199,-1.8269200550999998,9.371489712899999,841
118475,206610,241700,-2.6596223199,-1.8269200550999998,9.371489712899999,842
118646,206617,241767,-2.6596223199,-1.8269200550999998,9.371489712899999,843
118981,206691,241729,-2.6596223199,-1.8269200550999998,9.371489712899999,844
119356,206719,241773,-2.6596223199,-1.8269200550999998,9.371489712899999,845
119551,206705,241820,-2.6596223199,-1.8269200550999998,9.371489712899999,846
119607,206705,241802,-2.6596223199,-1.8269200550999998,9.371489712899999,847
119558,206678,241802,-2.6596223199,-1.8269200550999998,9.371489712899999,848
119550,206682,241787,-2.6596223199,-1.8269200550999998,9.371489712899999,849
119634,206714,241789,-2.6596223199,-1.8269200550999998,9.371489712899999,850
119777,206732,241801,-2.6596223199,-1.8269200550999998,9.371489712899999,851
119969,206760,241806,-2.6596223199,-1.8269200550999998,9.371489712899999,852
120180,206757,241844,-2.6596223199,-1.8269200550999998,9.371489712899999,853
120412,206794,241815,-2.6596223199,-1.8269200550999998,9.371489712899999,854
120630,206817,241835,-2.6596223199,-1.8269200550999998,9.371489712899999,855
120848,206794,241822,-2.6596223199,-1.8269200550999998,9.371489712899999,856
121010,206827,241885,-2.6596223199,-1.8269200550999998,9.371489712899999,857
121195,206882,241827,-2.6596223199,-1.8269200550999998,9.371489712899999,858
121325,206853,241878,-2.6596223199,-1.8269200550999998,9.371489712899999,859
121416,206843,241850,-2.6596223199,-1.8269200550999998,9.371489712899999,860
121414,206902,241820,-2.6596223199,-1.8269200550999998,9.371489712899999,861
120853,206806,241865,-2.6596223199,-1.8269200550999998,9.371489712899999,862
119741,206707,241742,-2.6596223199,-1.8269200550999998,9.371489712899999,863
118766,206662,241712,-2.6596223199,-1.8269200550999998,9.371489712899999,864
118267,206571,241702,-2.6596223199,-1.8269200550999998,9.371489712899999,865
118107,206609,241707,-2.6596223199,-1.8269200550999998,9.371489712899999,866
118139,206593,241691,-2.6596223199,-1.8269200550999998,9.371489712899999,867
118355,206621,241704,-2.6596223199,-1.8269200550999998,9.371489712899999,868
118596,206694,241741,-2.6596223199,-1.8269200550999998,9.371489712899999,869
118759,206674,241727,-2.6596223199,-1.8269200550999998,9.371489712899999,870
118096,206572,241766,-2.6584259086,-1.8197415872999998,9.3355973739,871
118319,206640,241755,-2.6584259086,-1.8197415872999998,9.3355973739,872
118515,206630,241789,-2.6584259086,-1.8197415872999998,9.3355973739,873
118772,206640,241782,-2.6584259086,-1.8197415872999998,9.3355973739,874
118961,206724,241773,-2.6584259086,-1.8197415872999998,9.3355973739,875
118740,206650,241774,-2.6584259086,-1.8197415872999998,9.3355973739,876
117751,206529,241662,-2.6584259086,-1.8197415872999998,9.3355973739,877
116554,206460,241620,-2.6584259086,-1.8197415872999998,9.3355973739,878
115864,206385,241608,-2.6584259086,-1.8197415872999998,9.3355973739,879
115647,206385,241581,-2.6584259086,-1.8197415872999998,9.3355973739,880
115690,206335,241546,-2.6584259086,-1.8197415872999998,9.3355973739,881
115856,206365,241591,-2.6584259086,-1.8197415872999998,9.3355973739,882
116184,206412,241569,-2.6584259086,-1.8197415872999998,9.3355973739,883
116492,206434,241600,-2.6584259086,-1.8197415872999998,9.3355973739,884
116707,206442,241586,-2.6584259086,-1.8197415872999998,9.3355973739,885
116794,206439,241570,-2.6584259086,-1.8197415872999998,9.3355973739,886
116814,206449,241639,-2.6584259086,-1.8197415872999998,9.3355973739,887
116895,206452,241608,-2.6584259086,-1.8197415872999998,9.3355973739,888
117076,206506,241630,-2.6584259086,-1.8197415872999998,9.3355973739,889
117293,206496,241579,-2.6584259086,-1.8197415872999998,9.3355973739,890
117529,206555,241678,-2.6584259086,-1.8197415872999998,9.3355973739,891
117761,206537,241678,-2.6584259086,-1.8197415872999998,9.3355973739,892
118054,206551,241663,-2.6584259086,-1.8197415872999998,9.3355973739,893
118334,206586,241746,-2.6584259086,-1.8197415872999998,9.3355973739,894
118632,206622,241706,-2.6584259086,-1.8197415872999998,9.3355973739,895
118903,206669,241732,-2.6584259086,-1.8197415872999998,9.3355973739,896
119176,206682,241740,-2.6584259086,-1.8197415872999998,9.3355973739,897
119425,206725,241727,-2.6584259086,-1.8197415872999998,9.3355973739,898
119669,206721,241773,-2.6584259086,-1.8197415872999998,9.3355973739,899
119841,206765,241796,-2.6584259086,-1.8197415872999998,9.3355973739,900
119480,206702,241778,-2.6584259086,-1.8197415872999998,9.3355973739,901
118573,206576,241723,-2.6584259086,-1.8197415872999998,9.3355973739,902
117774,206498,241614,-2.6584259086,-1.8197415872999998,9.3355973739,903
117416,206495,241630,-2.6584259086,-1.8197415872999998,9.3355973739,904
117426,206501,241639,-2.6584259086,-1.8197415872999998,9.3355973739,905
117654,206528,241707,-2.6584259086,-1.8197415872999998,9.3355973739,906
118025,206569,241698,-2.6584259086,-1.8197415872999998,9.3355973739,907
118408,206588,241662,-2.6584259086,-1.8197415872999998,9.3355973739,908
118634,206598,241731,-2.6584259086,-1.8197415872999998,9.3355973739,909
118657,206628,241681,-2.6584259086,-1.8197415872999998,9.3355973739,910
118602,206628,241691,-2.6584259086,-1.8197415872999998,9.3355973739,911
118616,206628,241664,-2.6584259086,-1.8197415872999998,9.3355973739,912
119564,206642,241750,-2.596212521,-1.938186306,9.379864592,913
118498,206553,241601,-2.596212521,-1.938186306,9.379864592,914
117206,206467,241572,-2.596212521,-1.938186306,9.379864592,915
116330,206364,241530,-2.596212521,-1.938186306,9.379864592,916
115938,206348,241495,-2.596212521,-1.938186306,9.379864592,917
115746,206351,241463,-2.596212521,-1.938186306,9.379864592,918
115719,206330,241486,-2.596212521,-1.938186306,9.379864592,919
115874,206321,241535,-2.596212521,-1.938186306,9.379864592,920
116075,206347,241543,-2.596212521,-1.938186306,9.379864592,921
116279,206407,241510,-2.596212521,-1.938186306,9.379864592,922
116315,206365,241584,-2.596212521,-1.938186306,9.379864592,923
116342,206361,241578,-2.596212521,-1.938186306,9.379864592,924
116374,206395,241556,-2.596212521,-1.938186306,9.379864592,925
116506,206388,241595,-2.596212521,-1.938186306,9.379864592,926
116688,206402,241611,-2.596212521,-1.938186306,9.379864592,927
116908,206404,241609,-2.596212521,-1.938186306,9.379864592,928
117128,206395,241622,-2.596212521,-1.938186306,9.379864592,929
117390,206473,241599,-2.596212521,-1.938186306,9.379864592,930
117636,206507,241693,-2.596212521,-1.938186306,9.379864592,931
117876,206511,241657,-2.596212521,-1.938186306,9.379864592,932
118099,206529,241653,-2.596212521,-1.938186306,9.379864592,933
118290,206567,241683,-2.596212521,-1.938186306,9.379864592,934
118507,206568,241686,-2.596212521,-1.938186306,9.379864592,935
118702,206603,241680,-2.596212521,-1.938186306,9.379864592,936
118884,206612,241731,-2.596212521,-1.938186306,9.379864592,937
118997,206600,241696,-2.596212521,-1.938186306,9.379864592,938
118474,206543,241667,-2.596212521,-1.938186306,9.379864592,939
117236,206432,241625,-2.596212521,-1.938186306,9.379864592,940
116052,206321,241535,-2.596212521,-1.938186306,9.379864592,941
115429,206302,241514,-2.596212521,-1.938186306,9.379864592,942
115179,206253,241473,-2.596212521,-1.938186306,9.379864592,943
115128,206270,241502,-2.596212521,-1.938186306,9.379864592,944
115227,206244,241510,-2.596212521,-1.938186306,9.379864592,945
115480,206309,241515,-2.596212521,-1.938186306,9.379864592,946
115725,206313,241504,-2.596212521,-1.938186306,9.379864592,947
115881,206365,241546,-2.596212521,-1.938186306,9.379864592,948
115871,206281,241523,-2.596212521,-1.938186306,9.379864592,949
115902,206296,241537,-2.596212521,-1.938186306,9.379864592,950
115978,206340,241584,-2.596212521,-1.938186306,9.379864592,951
116122,206360,241550,-2.596212521,-1.938186306,9.379864592,952
116266,206342,241562,-2.596212521,-1.938186306,9.379864592,953
116478,206393,241598,-2.596212521,-1.938186306,9.379864592,954
114686,206251,241481,-2.7541388126,-1.9692929998,9.330811728699999,955
114763,206260,241479,-2.7541388126,-1.9692929998,9.330811728699999,956
114998,206290,241482,-2.7541388126,-1.9692929998,9.330811728699999,957
115325,206358,241492,-2.7541388126,-1.9692929998,9.330811728699999,958
115569,206348,241527,-2.7541388126,-1.9692929998,9.330811728699999,959
115617,206337,241575,-2.7541388126,-1.9692929998,9.330811728699999,960
115580,206337,241529,-2.7541388126,-1.9692929998,9.330811728699999,961
115637,206341,241552,-2.7541388126,-1.9692929998,9.330811728699999,962
115740,206359,241488,-2.7541388126,-1.9692929998,9.330811728699999,963
115922,206367,241579,-2.7541388126,-1.9692929998,9.330811728699999,964
116132,206396,241531,-2.7541388126,-1.9692929998,9.330811728699999,965
116373,206404,241562,-2.7541388126,-1.9692929998,9.330811728699999,966
116635,206452,241598,-2.7541388126,-1.9692929998,9.330811728699999,967
116898,206462,241623,-2.7541388126,-1.9692929998,9.330811728699999,968
117179,206482,241630,-2.7541388126,-1.9692929998,9.330811728699999,969
117432,206548,241662,-2.7541388126,-1.9692929998,9.330811728699999,970
117692,206537,241681,-2.7541388126,-1.9692929998,9.330811728699999,971
117921,206586,241659,-2.7541388126,-1.9692929998,9.330811728699999,972
118154,206604,241624,-2.7541388126,-1.9692929998,9.330811728699999,973
118356,206624,241715,-2.7541388126,-1.9692929998,9.330811728699999,974
118589,206596,241689,-2.7541388126,-1.9692929998,9.330811728699999,975
118531,206619,241685,-2.7541388126,-1.9692929998,9.330811728699999,976
117806,206577,241620,-2.7541388126,-1.9692929998,9.330811728699999,977
116749,206414,241553,-2.7541388126,-1.9692929998,9.330811728699999,978
116062,206383,241579,-2.7541388126,-1.9692929998,9.330811728699999,979
115850,206369,241518,-2.7541388126,-1.9692929998,9.330811728699999,980
115897,206376,241576,-2.7541388126,-1.9692929998,9.330811728699999,981
116189,206425,241562,-2.7541388126,-1.9692929998,9.330811728699999,982
116557,206474,241556,-2.7541388126,-1.9692929998,9.330811728699999,983
116857,206483,241567,-2.7541388126,-1.9692929998,9.330811728699999,984
117012,206487,241523,-2.7541388126,-1.9692929998,9.330811728699999,985
116949,206483,241594,-2.7541388126,-1.9692929998,9.330811728699999,986
116943,206491,241601,-2.7541388126,-1.9692929998,9.330811728699999,987
116974,206497,241582,-2.7541388126,-1.9692929998,9.330811728699999,988
117125,206504,241564,-2.7541388126,-1.9692929998,9.330811728699999,989
117323,206513,241608,-2.7541388126,-1.9692929998,9.330811728699999,990
117510,206536,241606,-2.7541388126,-1.9692929998,9.330811728699999,991
117736,206522,241613,-2.7541388126,-1.9692929998,9.330811728699999,992
117917,206600,241601,-2.7541388126,-1.9692929998,9.330811728699999,993
118118,206593,241635,-2.7541388126,-1.9692929998,9.330811728699999,994
118268,206602,241633,-2.7541388126,-1.9692929998,9.330811728699999,995
118428,206642,241666,-2.7541388126,-1.9692929998,9.330811728699999,996
116501,206490,241623,-2.7553352239,-1.8987047331,9.3224368496,997
116630,206489,241692,-2.7553352239,-1.8987047331,9.3224368496,998
116676,206518,241667,-2.7553352239,-1.8987047331,9.3224368496,999
116766,206556,241695,-2.7553352239,-1.8987047331,9.3224368496,1000
116980,206549,241693,-2.7553352239,-1.8987047331,9.3224368496,1001
117226,206612,241719,-2.7553352239,-1.8987047331,9.3224368496,1002
117472,206604,241682,-2.7553352239,-1.8987047331,9.3224368496,1003
117783,206604,241736,-2.7553352239,-1.8987047331,9.3224368496,1004
118117,206651,241793,-2.7553352239,-1.8987047331,9.3224368496,1005
118404,206677,241800,-2.7553352239,-1.8987047331,9.3224368496,1006
118684,206716,241819,-2.7553352239,-1.8987047331,9.3224368496,1007
118961,206726,241812,-2.7553352239,-1.8987047331,9.3224368496,1008
119253,206777,241812,-2.7553352239,-1.8987047331,9.3224368496,1009
119516,206812,241831,-2.7553352239,-1.8987047331,9.3224368496,1010
119799,206850,241846,-2.7553352239,-1.8987047331,9.3224368496,1011
120053,206869,241865,-2.7553352239,-1.8987047331,9.3224368496,1012
120283,206904,241902,-2.7553352239,-1.8987047331,9.3224368496,1013
120034,206862,241857,-2.7553352239,-1.8987047331,9.3224368496,1014
119191,206765,241797,-2.7553352239,-1.8987047331,9.3224368496,1015
118290,206705,241749,-2.6536402634000003,-2.0147566292,9.3248296722,1016
117874,206677,241724,-2.6536402634000003,-2.0147566292,9.3248296722,1017
117799,206683,241767,-2.6536402634000003,-2.0147566292,9.3248296722,1018
117942,206680,241740,-2.6536402634000003,-2.0147566292,9.3248296722,1019
118245,206747,241744,-2.6536402634000003,-2.0147566292,9.3248296722,1020
118608,206765,241814,-2.6536402634000003,-2.0147566292,9.3248296722,1021
118927,206797,241816,-2.6536402634000003,-2.0147566292,9.3248296722,1022
119094,206829,241813,-2.6536402634000003,-2.0147566292,9.3248296722,1023
119138,206828,241762,-2.6536402634000003,-2.0147566292,9.3248296722,1024
119241,206847,241826,-2.6536402634000003,-2.0147566292,9.3248296722,1025
119358,206848,241849,-2.6536402634000003,-2.0147566292,9.3248296722,1026
119547,206843,241820,-2.6536402634000003,-2.0147566292,9.3248296722,1027
119801,206924,241849,-2.6536402634000003,-2.0147566292,9.3248296722,1028
120089,206912,241874,-2.6536402634000003,-2.0147566292,9.3248296722,1029
120328,206981,241846,-2.6536402634000003,-2.0147566292,9.3248296722,1030
120649,207000,241892,-2.6536402634000003,-2.0147566292,9.3248296722,1031
120935,206994,241898,-2.6536402634000003,-2.0147566292,9.3248296722,1032
121218,207055,241929,-2.6536402634000003,-2.0147566292,9.3248296722,1033
121519,207069,241963,-2.6536402634000003,-2.0147566292,9.3248296722,1034
121803,207081,241996,-2.6536402634000003,-2.0147566292,9.3248296722,1035
122060,207130,241982,-2.6536402634000003,-2.0147566292,9.3248296722,1036
122311,207155,241982,-2.6536402634000003,-2.0147566292,9.3248296722,1037
122331,207139,241968,-2.6536402634000003,-2.0147566292,9.3248296722,1038
121826,207081,241939,-2.6536402634000003,-2.0147566292,9.3248296722,1039
121119,207010,241875,-2.6536402634000003,-2.0147566292,9.3248296722,1040
120716,207017,241868,-2.6536402634000003,-2.0147566292,9.3248296722,1041
120643,207011,241866,-2.6536402634000003,-2.0147566292,9.3248296722,1042
120732,206984,241909,-2.6536402634000003,-2.0147566292,9.3248296722,1043
120933,207055,241844,-2.6536402634000003,-2.0147566292,9.3248296722,1044
121257,207050,241859,-2.6536402634000003,-2.0147566292,9.3248296722,1045
121498,207104,241866,-2.6536402634000003,-2.0147566292,9.3248296722,1046
121582,207077,241866,-2.6536402634000003,-2.0147566292,9.3248296722,1047
121622,207079,241901,-2.6536402634000003,-2.0147566292,9.3248296722,1048
121626,207118,241916,-2.6536402634000003,-2.0147566292,9.3248296722,1049
121727,207143,241881,-2.6536402634000003,-2.0147566292,9.3248296722,1050
121866,207123,241904,-2.6536402634000003,-2.0147566292,9.3248296722,1051
122063,207178,241886,-2.6536402634000003,-2.0147566292,9.3248296722,1052
122260,207202,241934,-2.6536402634000003,-2.0147566292,9.3248296722,1053
122488,207180,241949,-2.7110680058,-1.842473402,9.3068835027,1054
122662,207236,241987,-2.7110680058,-1.842473402,9.3068835027,1055
122894,207199,241950,-2.7110680058,-1.842473402,9.3068835027,1056
123065,207240,241997,-2.7110680058,-1.842473402,9.3068835027,1057
123286,207270,241995,-2.7110680058,-1.842473402,9.3068835027,1058
123477,207314,241978,-2.7110680058,-1.842473402,9.3068835027,1059
123668,207282,241988,-2.7110680058,-1.842473402,9.3068835027,1060
123610,207316,241969,-2.7110680058,-1.842473402,9.3068835027,1061
123021,207227,241952,-2.7110680058,-1.842473402,9.3068835027,1062
122143,207176,241921,-2.7110680058,-1.842473402,9.3068835027,1063
121507,207139,241903,-2.7110680058,-1.842473402,9.3068835027,1064
121177,207116,241857,-2.7110680058,-1.842473402,9.3068835027,1065
121017,207146,241825,-2.7110680058,-1.842473402,9.3068835027,1066
120986,207145,241862,-2.7110680058,-1.842473402,9.3068835027,1067
121047,207118,241826,-2.7110680058,-1.842473402,9.3068835027,1068
121198,207169,241864,-2.7110680058,-1.842473402,9.3068835027,1069
121349,207166,241838,-2.7110680058,-1.842473402,9.3068835027,1070
121412,207174,241860,-2.7110680058,-1.842473402,9.3068835027,1071
121412,207198,241842,-2.7110680058,-1.842473402,9.3068835027,1072
121500,207195,241885,-2.7110680058,-1.842473402,9.3068835027,1073
121598,207142,241841,-2.7110680058,-1.842473402,9.3068835027,1074
121710,207219,241907,-2.7110680058,-1.842473402,9.3068835027,1075
121890,207193,241906,-2.7110680058,-1.842473402,9.3068835027,1076
122060,207261,241896,-2.7110680058,-1.842473402,9.3068835027,1077
122267,207234,241938,-2.7110680058,-1.842473402,9.3068835027,1078
122467,207258,241930,-2.7110680058,-1.842473402,9.3068835027,1079
122650,207286,241936,-2.7110680058,-1.842473402,9.3068835027,1080
122877,207310,241986,-2.7110680058,-1.842473402,9.3068835027,1081
123061,207343,241966,-2.7110680058,-1.842473402,9.3068835027,1082
123236,207346,241960,-2.7110680058,-1.842473402,9.3068835027,1083
123446,207375,241953,-2.7110680058,-1.842473402,9.3068835027,1084
123637,207430,241975,-2.7110680058,-1.842473402,9.3068835027,1085
123736,207397,241978,-2.7110680058,-1.842473402,9.3068835027,1086
123462,207359,241954,-2.7110680058,-1.842473402,9.3068835027,1087
122668,207239,241899,-2.7110680058,-1.842473402,9.3068835027,1088
121880,207235,241876,-2.7110680058,-1.842473402,9.3068835027,1089
121406,207169,241821,-2.7110680058,-1.842473402,9.3068835027,1090
121150,207194,241840,-2.7110680058,-1.842473402,9.3068835027,1091
121051,207164,241821,-2.7110680058,-1.842473402,9.3068835027,1092
121063,207204,241870,-2.7110680058,-1.842473402,9.3068835027,1093
121194,207194,241830,-2.7110680058,-1.842473402,9.3068835027,1094
121356,207202,241832,-2.7110680058,-1.842473402,9.3068835027,1095
117949,206884,241619,-2.548356069,-2.0075781614,9.2386880586,1096
118013,206904,241603,-2.548356069,-2.0075781614,9.2386880586,1097
118196,206941,241696,-2.548356069,-2.0075781614,9.2386880586,1098
118318,206907,241659,-2.548356069,-2.0075781614,9.2386880586,1099
118341,206944,241692,-2.548356069,-2.0075781614,9.2386880586,1100
118293,206919,241714,-2.548356069,-2.0075781614,9.2386880586,1101
118356,206900,241685,-2.548356069,-2.0075781614,9.2386880586,1102
118421,206935,241656,-2.548356069,-2.0075781614,9.2386880586,1103
118550,206936,241705,-2.548356069,-2.0075781614,9.2386880586,1104
118729,206932,241692,-2.548356069,-2.0075781614,9.2386880586,1105
118934,206987,241675,-2.548356069,-2.0075781614,9.2386880586,1106
119134,207040,241756,-2.548356069,-2.0075781614,9.2386880586,1107
119342,207009,241753,-2.548356069,-2.0075781614,9.2386880586,1108
119569,207005,241772,-2.548356069,-2.0075781614,9.2386880586,1109
119808,207080,241776,-2.548356069,-2.0075781614,9.2386880586,1110
119975,207054,241789,-2.548356069,-2.0075781614,9.2386880586,1111
120156,207043,241763,-2.548356069,-2.0075781614,9.2386880586,1112
120324,207129,241837,-2.548356069,-2.0075781614,9.2386880586,1113
120514,207133,241833,-2.548356069,-2.0075781614,9.2386880586,1114
120682,207162,241833,-2.548356069,-2.0075781614,9.2386880586,1115
120582,207141,241797,-2.548356069,-2.0075781614,9.2386880586,1116
119751,207046,241762,-2.548356069,-2.0075781614,9.2386880586,1117
118522,206888,241706,-2.548356069,-2.0075781614,9.2386880586,1118
117653,206891,241642,-2.548356069,-2.0075781614,9.2386880586,1119
117219,206773,241633,-2.548356069,-2.0075781614,9.2386880586,1120
117094,206753,241614,-2.548356069,-2.0075781614,9.2386880586,1121
117076,206761,241590,-2.548356069,-2.0075781614,9.2386880586,1122
117192,206818,241620,-2.548356069,-2.0075781614,9.2386880586,1123
117419,206801,241659,-2.548356069,-2.0075781614,9.2386880586,1124
117643,206843,241634,-2.548356069,-2.0075781614,9.2386880586,1125
117721,206811,241663,-2.548356069,-2.0075781614,9.2386880586,1126
117730,206840,241694,-2.548356069,-2.0075781614,9.2386880586,1127
117816,206790,241645,-2.548356069,-2.0075781614,9.2386880586,1128
117898,206845,241649,-2.548356069,-2.0075781614,9.2386880586,1129
118053,206822,241663,-2.548356069,-2.0075781614,9.2386880586,1130
118235,206845,241651,-2.548356069,-2.0075781614,9.2386880586,1131
118461,206905,241712,-2.548356069,-2.0075781614,9.2386880586,1132
118691,206935,241724,-2.548356069,-2.0075781614,9.2386880586,1133
118916,206950,241754,-2.548356069,-2.0075781614,9.2386880586,1134
119177,206960,241762,-2.548356069,-2.0075781614,9.2386880586,1135
119398,206965,241766,-2.548356069,-2.0075781614,9.2386880586,1136
119636,206983,241737,-2.548356069,-2.0075781614,9.2386880586,1137
118326,206881,241594,-2.7672993369,-1.8221344098999999,9.309276325299999,1138
118536,206844,241634,-2.7672993369,-1.8221344098999999,9.309276325299999,1139
118656,206862,241602,-2.7672993369,-1.8221344098999999,9.309276325299999,1140
118626,206840,241624,-2.7672993369,-1.8221344098999999,9.309276325299999,1141
118537,206840,241598,-2.7672993369,-1.8221344098999999,9.309276325299999,1142
118511,206837,241640,-2.7672993369,-1.8221344098999999,9.309276325299999,1143
118583,206872,241598,-2.7672993369,-1.8221344098999999,9.309276325299999,1144
118678,206880,241601,-2.7672993369,-1.8221344098999999,9.309276325299999,1145
118839,206892,241670,-2.7672993369,-1.8221344098999999,9.309276325299999,1146
119001,206926,241668,-2.7672993369,-1.8221344098999999,9.309276325299999,1147
119165,206984,241651,-2.7672993369,-1.8221344098999999,9.309276325299999,1148
119350,206940,241663,-2.7672993369,-1.8221344098999999,9.309276325299999,1149
119532,206967,241651,-2.7672993369,-1.8221344098999999,9.309276325299999,1150
119703,206930,241722,-2.7672993369,-1.8221344098999999,9.309276325299999,1151
119905,206981,241699,-2.7672993369,-1.8221344098999999,9.309276325299999,1152
120113,207008,241695,-2.7672993369,-1.8221344098999999,9.309276325299999,1153
120131,206969,241732,-2.7672993369,-1.8221344098999999,9.309276325299999,1154
119502,206920,241662,-2.7672993369,-1.8221344098999999,9.309276325299999,1155
118220,206829,241603,-2.7672993369,-1.8221344098999999,9.309276325299999,1156
117068,206713,241537,-2.7672993369,-1.8221344098999999,9.309276325299999,1157
116445,206651,241488,-2.7672993369,-1.8221344098999999,9.309276325299999,1158
116154,206611,241483,-2.7672993369,-1.8221344098999999,9.309276325299999,1159
116055,206618,241480,-2.7672993369,-1.8221344098999999,9.309276325299999,1160
116113,206623,241517,-2.7672993369,-1.8221344098999999,9.309276325299999,1161
116328,206660,241490,-2.7672993369,-1.8221344098999999,9.309276325299999,1162
116551,206669,241492,-2.7672993369,-1.8221344098999999,9.309276325299999,1163
116677,206689,241522,-2.7672993369,-1.8221344098999999,9.309276325299999,1164
116664,206667,241508,-2.7672993369,-1.8221344098999999,9.309276325299999,1165
116686,206646,241559,-2.7672993369,-1.8221344098999999,9.309276325299999,1166
116763,206663,241534,-2.7672993369,-1.8221344098999999,9.309276325299999,1167
116898,206697,241551,-2.7672993369,-1.8221344098999999,9.309276325299999,1168
117078,206717,241611,-2.7672993369,-1.8221344098999999,9.309276325299999,1169
117312,206705,241574,-2.7672993369,-1.8221344098999999,9.309276325299999,1170
117555,206763,241596,-2.7672993369,-1.8221344098999999,9.309276325299999,1171
117787,206783,241626,-2.7672993369,-1.8221344098999999,9.309276325299999,1172
118033,206799,241628,-2.7672993369,-1.8221344098999999,9.309276325299999,1173
118272,206805,241671,-2.7672993369,-1.8221344098999999,9.309276325299999,1174
118486,206861,241679,-2.7672993369,-1.8221344098999999,9.309276325299999,1175
118725,206856,241689,-2.7672993369,-1.8221344098999999,9.309276325299999,1176
118951,206886,241667,-2.7672993369,-1.8221344098999999,9.309276325299999,1177
118961,206925,241714,-2.7672993369,-1.8221344098999999,9.309276325299999,1178
118229,206795,241652,-2.7672993369,-1.8221344098999999,9.309276325299999,1179
116502,206580,241661,-2.596212521,-1.9728822337,9.3583291886,1180
116737,206580,241658,-2.596212521,-1.9728822337,9.3583291886,1181
116995,206624,241668,-2.596212521,-1.9728822337,9.3583291886,1182
117238,206625,241668,-2.596212521,-1.9728822337,9.3583291886,1183
117471,206682,241667,-2.596212521,-1.9728822337,9.3583291886,1184
117698,206652,241665,-2.596212521,-1.9728822337,9.3583291886,1185
117935,206710,241744,-2.596212521,-1.9728822337,9.3583291886,1186
118129,206701,241714,-2.596212521,-1.9728822337,9.3583291886,1187
118367,206739,241773,-2.596212521,-1.9728822337,9.3583291886,1188
118568,206762,241786,-2.596212521,-1.9728822337,9.3583291886,1189
118785,206771,241785,-2.596212521,-1.9728822337,9.3583291886,1190
118643,206778,241746,-2.596212521,-1.9728822337,9.3583291886,1191
117691,206662,241703,-2.596212521,-1.9728822337,9.3583291886,1192
116509,206585,241618,-2.596212521,-1.9728822337,9.3583291886,1193
115747,206466,241618,-2.596212521,-1.9728822337,9.3583291886,1194
115507,206463,241572,-2.596212521,-1.9728822337,9.3583291886,1195
115521,206446,241544,-2.596212521,-1.9728822337,9.3583291886,1196
115666,206463,241555,-2.596212521,-1.9728822337,9.3583291886,1197
115947,206489,241594,-2.596212521,-1.9728822337,9.3583291886,1198
116270,206521,241597,-2.596212521,-1.9728822337,9.3583291886,1199
116463,206590,241614,-2.596212521,-1.9728822337,9.3583291886,1200
116531,206568,241616,-2.596212521,-1.9728822337,9.3583291886,1201
116561,206536,241658,-2.596212521,-1.9728822337,9.3583291886,1202
116655,206570,241623,-2.596212521,-1.9728822337,9.3583291886,1203
116813,206613,241644,-2.596212521,-1.9728822337,9.3583291886,1204
117009,206601,241629,-2.596212521,-1.9728822337,9.3583291886,1205
117249,206629,241674,-2.596212521,-1.9728822337,9.3583291886,1206
117492,206671,241661,-2.596212521,-1.9728822337,9.3583291886,1207
117777,206662,241693,-2.596212521,-1.9728822337,9.3583291886,1208
118042,206706,241733,-2.596212521,-1.9728822337,9.3583291886,1209
118324,206725,241726,-2.596212521,-1.9728822337,9.3583291886,1210
118583,206748,241743,-2.596212521,-1.9728822337,9.3583291886,1211
118823,206801,241778,-2.596212521,-1.9728822337,9.3583291886,1212
119091,206774,241767,-2.596212521,-1.9728822337,9.3583291886,1213
119310,206839,241812,-2.596212521,-1.9728822337,9.3583291886,1214
119514,206820,241843,-2.596212521,-1.9728822337,9.3583291886,1215
119731,206860,241831,-2.596212521,-1.9728822337,9.3583291886,1216
119694,206811,241786,-2.596212521,-1.9728822337,9.3583291886,1217
118988,206774,241726,-2.596212521,-1.9728822337,9.3583291886,1218
118026,206675,241731,-2.596212521,-1.9728822337,9.3583291886,1219
117404,206681,241683,-2.596212521,-1.9728822337,9.3583291886,1220
117215,206610,241642,-2.596212521,-1.9728822337,9.3583291886,1221
119797,206885,241719,-2.6871397798,-1.9788642901999998,9.443274390900001,1222
119942,206901,241783,-2.6871397798,-1.9788642901999998,9.443274390900001,1223
120063,206897,241816,-2.6871397798,-1.9788642901999998,9.443274390900001,1224
119908,206898,241769,-2.6871397798,-1.9788642901999998,9.443274390900001,1225
119052,206812,241733,-2.6871397798,-1.9788642901999998,9.443274390900001,1226
117940,206719,241597,-2.6871397798,-1.9788642901999998,9.443274390900001,1227
117184,206682,241629,-2.6871397798,-1.9788642901999998,9.443274390900001,1228
116886,206628,241619,-2.6871397798,-1.9788642901999998,9.443274390900001,1229
116824,206639,241582,-2.6871397798,-1.9788642901999998,9.443274390900001,1230
116941,206602,241625,-2.6871397798,-1.9788642901999998,9.443274390900001,1231
117202,206655,241576,-2.6871397798,-1.9788642901999998,9.443274390900001,1232
117466,206656,241655,-2.6871397798,-1.9788642901999998,9.443274390900001,1233
117598,206713,241625,-2.6871397798,-1.9788642901999998,9.443274390900001,1234
117586,206665,241642,-2.6871397798,-1.9788642901999998,9.443274390900001,1235
117561,206688,241624,-2.6871397798,-1.9788642901999998,9.443274390900001,1236
117650,206748,241621,-2.6871397798,-1.9788642901999998,9.443274390900001,1237
117777,206726,241656,-2.6871397798,-1.9788642901999998,9.443274390900001,1238
117961,206708,241654,-2.6871397798,-1.9788642901999998,9.443274390900001,1239
118169,206745,241687,-2.6871397798,-1.9788642901999998,9.443274390900001,1240
118347,206743,241685,-2.7840490951,-1.9573288867999998,9.3810610033,1241
118570,206809,241702,-2.7840490951,-1.9573288867999998,9.3810610033,1242
118795,206806,241718,-2.7840490951,-1.9573288867999998,9.3810610033,1243
118977,206852,241722,-2.7170500623000002,-1.7647066674999998,9.2458665264,1244
119187,206865,241741,-2.7206392962,-1.8891334427000002,9.260223461999999,1245
119375,206888,241752,-2.667997199,-1.9082760235,9.236295236,1246
119608,206954,241782,-2.703889538,-1.9118652574,9.332008140000001,1247
119770,206899,241751,-2.6141586905,-1.9298114269,9.3894358824,1248
119715,206866,241797,-2.8175486115,-1.8556339263000001,9.308079914,1249
118820,206793,241688,-2.8283163132,-1.9094724347999998,9.2937229784,1250
117596,206693,241626,-2.7302105866,-1.9334006607999998,9.3236332609,1251
116592,206610,241577,-2.7314069979,-1.8221344098999999,9.2674019298,1252
116085,206542,241523,-2.7326034091999998,-1.938186306,9.2913301558,1253
115910,206556,241569,-2.7134608283999997,-1.9022939669999999,9.2793660428,1254
115880,206574,241510,-2.6787649007,-1.9645073545999998,9.4169533423,1255
116011,206558,241564,-2.6787649007,-1.9645073545999998,9.4169533423,1256
116235,206613,241581,-2.6787649007,-1.9645073545999998,9.4169533423,1257
116497,206589,241595,-2.6787649007,-1.9645073545999998,9.4169533423,1258
116615,206595,241650,-2.6787649007,-1.9645073545999998,9.4169533423,1259
116663,206593,241647,-2.6787649007,-1.9645073545999998,9.4169533423,1260
116693,206598,241640,-2.6787649007,-1.9645073545999998,9.4169533423,1261
116833,206657,241623,-2.6787649007,-1.9645073545999998,9.4169533423,1262
116989,206642,241597,-2.6787649007,-1.9645073545999998,9.4169533423,1263
117191,206663,241695,-2.6787649007,-1.9645073545999998,9.4169533423,1264
117425,206668,241686,-2.6787649007,-1.9645073545999998,9.4169533423,1265
117705,206740,241667,-2.6787649007,-1.9645073545999998,9.4169533423,1266
117950,206759,241690,-2.6787649007,-1.9645073545999998,9.4169533423,1267
118208,206753,241772,-2.6787649007,-1.9645073545999998,9.4169533423,1268
118463,206811,241768,-2.6787649007,-1.9645073545999998,9.4169533423,1269
118687,206825,241746,-2.6787649007,-1.9645073545999998,9.4169533423,1270
118901,206827,241822,-2.6787649007,-1.9645073545999998,9.4169533423,1271
119084,206871,241798,-2.6787649007,-1.9645073545999998,9.4169533423,1272
119312,206899,241775,-2.6787649007,-1.9645073545999998,9.4169533423,1273
119514,206912,241794,-2.6787649007,-1.9645073545999998,9.4169533423,1274
119453,206899,241792,-2.6787649007,-1.9645073545999998,9.4169533423,1275
118633,206789,241762,-2.6787649007,-1.9645073545999998,9.4169533423,1276
117366,206653,241695,-2.6787649007,-1.9645073545999998,9.4169533423,1277
116415,206594,241619,-2.6787649007,-1.9645073545999998,9.4169533423,1278
115994,206547,241617,-2.6309084487,-1.9417755399,9.3571327773,1279
115884,206591,241627,-2.6309084487,-1.9417755399,9.3571327773,1280
115938,206606,241644,-2.6309084487,-1.9417755399,9.3571327773,1281
116130,206610,241640,-2.6309084487,-1.9417755399,9.3571327773,1282
116402,206653,241611,-2.6309084487,-1.9417755399,9.3571327773,1283
116650,206644,241678,-2.823530668,-1.9692929998,9.3056870914,1284
116751,206641,241684,-2.6943182475999996,-1.8759729184,9.2985086236,1285
116754,206592,241627,-2.6739792555000004,-1.962114532,9.273383986299999,1286
116816,206616,241693,-2.6991038927999997,-1.8783657409999999,9.3344009626,1287
116932,206625,241682,-2.7493531674,-1.8281164664,9.353543543399999,1288
117092,206671,241709,-2.6967110702,-1.8544375149999999,9.4695954395,1289
117337,206664,241740,-2.7062823606,-1.9537396529,9.355936366,1290
117546,206707,241703,-2.6967110702,-1.9561324755,9.332008140000001,1291
117807,206758,241734,-2.6261228035000004,-1.9118652574,9.3655076564,1292
118097,206709,241681,-2.7314069979,-1.8771693297,9.2925265671,1293
118348,206727,241771,-2.6775684894,-1.8963119105000001,9.2458665264,1294
118633,206816,241777,-2.8055844984999996,-1.9788642901999998,9.2458665264,1295
118859,206860,241770,-2.9108686929000003,-2.1834506225,9.4265246327,1296
119093,206833,241781,-2.7062823606,-1.9537396529,9.345168664300001,1297
119252,206850,241765,-2.608176634,-1.8987047331,9.3379901965,1298
119482,206918,241818,-2.6775684894,-2.0231315083,9.272187575,1299
119699,206944,241830,-2.6775684894,-2.0231315083,9.272187575,1300
119892,206934,241826,-2.6775684894,-2.0231315083,9.272187575,1301
119684,206916,241818,-2.6775684894,-2.0231315083,9.272187575,1302
118722,206803,241750,-2.6775684894,-2.0231315083,9.272187575,1303
117571,206690,241712,-2.6775684894,-2.0231315083,9.272187575,1304
116898,206673,241704,-2.6775684894,-2.0231315083,9.272187575,1305
116676,206637,241664,-2.6775684894,-2.0231315083,9.272187575,1306
116722,206683,241660,-2.6775684894,-2.0231315083,9.272187575,1307
116923,206703,241661,-2.6775684894,-2.0231315083,9.272187575,1308
117257,206750,241677,-2.6775684894,-2.0231315083,9.272187575,1309
117553,206767,241711,-2.6775684894,-2.0231315083,9.272187575,1310
117673,206757,241680,-2.6775684894,-2.0231315083,9.272187575,1311
117664,206756,241725,-2.6775684894,-2.0231315083,9.272187575,1312
117606,206754,241696,-2.6775684894,-2.0231315083,9.272187575,1313
117656,206750,241683,-2.6775684894,-2.0231315083,9.272187575,1314
117742,206822,241726,-2.6775684894,-2.0231315083,9.272187575,1315
117926,206784,241750,-2.6775684894,-2.0231315083,9.272187575,1316
118330,206836,241755,-2.7134608283999997,-2.0027925162,9.345168664300001,1317
118581,206856,241728,-2.7134608283999997,-2.0027925162,9.345168664300001,1318
118830,206882,241779,-2.7134608283999997,-2.0027925162,9.345168664300001,1319
119077,206933,241775,-2.6368905052,-1.9549360641999998,9.343972252999999,1320
119290,206956,241815,-2.5998017549,-1.8245272325,9.284151688,1321
119522,206981,241825,-2.5998017549,-1.8245272325,9.284151688,1322
119730,206997,241765,-2.5998017549,-1.8245272325,9.284151688,1323
119932,206981,241824,-2.5998017549,-1.8245272325,9.284151688,1324
120051,206985,241808,-2.5998017549,-1.8245272325,9.284151688,1325
119633,206961,241791,-2.5998017549,-1.8245272325,9.284151688,1326
118606,206815,241738,-2.5998017549,-1.8245272325,9.284151688,1327
117718,206794,241637,-2.5998017549,-1.8245272325,9.284151688,1328
117253,206738,241622,-2.5998017549,-1.8245272325,9.284151688,1329
117169,206750,241628,-2.5998017549,-1.8245272325,9.284151688,1330
117306,206747,241588,-2.5998017549,-1.8245272325,9.284151688,1331
117576,206761,241657,-2.5998017549,-1.8245272325,9.284151688,1332
117858,206798,241662,-2.5998017549,-1.8245272325,9.284151688,1333
117964,206797,241659,-2.5998017549,-1.8245272325,9.284151688,1334
117916,206776,241669,-2.5998017549,-1.8245272325,9.284151688,1335
117803,206777,241614,-2.5998017549,-1.8245272325,9.284151688,1336
117775,206782,241664,-2.5998017549,-1.8245272325,9.284151688,1337
117829,206818,241642,-2.5998017549,-1.8245272325,9.284151688,1338
117980,206821,241672,-2.5998017549,-1.8245272325,9.284151688,1339
118141,206847,241652,-2.5998017549,-1.8245272325,9.284151688,1340
118326,206859,241659,-2.5998017549,-1.8245272325,9.284151688,1341
118513,206870,241688,-2.5998017549,-1.8245272325,9.284151688,1342
118699,206894,241708,-2.5998017549,-1.8245272325,9.284151688,1343
118865,206917,241663,-2.5998017549,-1.8245272325,9.284151688,1344
119034,206932,241738,-2.5998017549,-1.8245272325,9.284151688,1345
119249,206961,241725,-2.5998017549,-1.8245272325,9.284151688,1346
119430,206962,241763,-2.5998017549,-1.8245272325,9.284151688,1347
119598,207012,241760,-2.5998017549,-1.8245272325,9.284151688,1348
119355,206932,241700,-2.5998017549,-1.8245272325,9.284151688,1349
118315,206828,241631,-2.5998017549,-1.8245272325,9.284151688,1350
117016,206733,241592,-2.5998017549,-1.8245272325,9.284151688,1351
116204,206651,241561,-2.5998017549,-1.8245272325,9.284151688,1352
115833,206617,241534,-2.5998017549,-1.8245272325,9.284151688,1353
115688,206582,241488,-2.5998017549,-1.8245272325,9.284151688,1354
115770,206637,241529,-2.5998017549,-1.8245272325,9.284151688,1355
115895,206651,241544,-2.5998017549,-1.8245272325,9.284151688,1356
116176,206673,241545,-2.5998017549,-1.8245272325,9.284151688,1357
116362,206649,241546,-2.5998017549,-1.8245272325,9.284151688,1358
116440,206695,241559,-2.5998017549,-1.8245272325,9.284151688,1359
116448,206657,241554,-2.5998017549,-1.8245272325,9.284151688,1360
116531,206672,241612,-2.5998017549,-1.8245272325,9.284151688,1361
116665,206689,241562,-2.5998017549,-1.8245272325,9.284151688,1362
118183,206792,241729,-2.715853651,-1.890329854,9.2697947524,1363
118485,206815,241702,-2.715853651,-1.890329854,9.2697947524,1364
118689,206836,241721,-2.715853651,-1.890329854,9.2697947524,1365
118944,206860,241722,-2.715853651,-1.890329854,9.2697947524,1366
119158,206893,241737,-2.715853651,-1.890329854,9.2697947524,1367
119367,206912,241734,-2.715853651,-1.890329854,9.2697947524,1368
119516,206881,241766,-2.715853651,-1.890329854,9.2697947524,1369
119136,206801,241686,-2.715853651,-1.890329854,9.2697947524,1370
118065,206717,241636,-2.715853651,-1.890329854,9.2697947524,1371
117002,206646,241613,-2.715853651,-1.890329854,9.2697947524,1372
116447,206576,241598,-2.715853651,-1.890329854,9.2697947524,1373
116268,206576,241599,-2.715853651,-1.890329854,9.2697947524,1374
116312,206582,241567,-2.715853651,-1.890329854,9.2697947524,1375
116495,206591,241558,-2.715853651,-1.890329854,9.2697947524,1376
116762,206584,241618,-2.715853651,-1.890329854,9.2697947524,1377
117068,206608,241589,-2.715853651,-1.890329854,9.2697947524,1378
117266,206599,241585,-2.715853651,-1.890329854,9.2697947524,1379
117381,206622,241614,-2.715853651,-1.890329854,9.2697947524,1380
117455,206676,241619,-2.715853651,-1.890329854,9.2697947524,1381
117604,206658,241651,-2.715853651,-1.890329854,9.2697947524,1382
117759,206671,241629,-2.715853651,-1.890329854,9.2697947524,1383
117972,206665,241644,-2.715853651,-1.890329854,9.2697947524,1384
118222,206708,241673,-2.715853651,-1.890329854,9.2697947524,1385
118476,206735,241678,-2.715853651,-1.890329854,9.2697947524,1386
118759,206753,241695,-2.715853651,-1.890329854,9.2697947524,1387
119016,206787,241688,-2.715853651,-1.890329854,9.2697947524,1388
119289,206848,241708,-2.715853651,-1.890329854,9.2697947524,1389
119565,206881,241754,-2.715853651,-1.890329854,9.2697947524,1390
119817,206878,241759,-2.715853651,-1.890329854,9.2697947524,1391
120070,206912,241786,-2.715853651,-1.890329854,9.2697947524,1392
120312,206924,241763,-2.715853651,-1.890329854,9.2697947524,1393
120523,206899,241778,-2.715853651,-1.890329854,9.2697947524,1394
120648,206926,241818,-2.715853651,-1.890329854,9.2697947524,1395
120174,206858,241721,-2.715853651,-1.890329854,9.2697947524,1396
119179,206764,241729,-2.715853651,-1.890329854,9.2697947524,1397
118407,206722,241678,-2.715853651,-1.890329854,9.2697947524,1398
118101,206664,241615,-2.715853651,-1.890329854,9.2697947524,1399
118059,206702,241621,-2.715853651,-1.890329854,9.2697947524,1400
118228,206772,241606,-2.715853651,-1.890329854,9.2697947524,1401
118517,206777,241673,-2.715853651,-1.890329854,9.2697947524,1402
118869,206743,241685,-2.715853651,-1.890329854,9.2697947524,1403
119031,206781,241664,-2.715853651,-1.890329854,9.2697947524,1404
116676,206531,241507,-2.6309084487,-2.0530417908,9.3009014462,1405
116497,206508,241483,-2.6309084487,-2.0530417908,9.3009014462,1406
116494,206536,241519,-2.6309084487,-2.0530417908,9.3009014462,1407
116641,206569,241496,-2.6309084487,-2.0530417908,9.3009014462,1408
116840,206543,241532,-2.6309084487,-2.0530417908,9.3009014462,1409
116943,206545,241496,-2.6309084487,-2.0530417908,9.3009014462,1410
116943,206577,241512,-2.6309084487,-2.0530417908,9.3009014462,1411
116931,206550,241502,-2.6309084487,-2.0530417908,9.3009014462,1412
117006,206559,241511,-2.6309084487,-2.0530417908,9.3009014462,1413
117113,206608,241517,-2.6309084487,-2.0530417908,9.3009014462,1414
117283,206573,241561,-2.6309084487,-2.0530417908,9.3009014462,1415
117449,206625,241564,-2.6309084487,-2.0530417908,9.3009014462,1416
117650,206649,241615,-2.6309084487,-2.0530417908,9.3009014462,1417
117893,206675,241575,-2.6309084487,-2.0530417908,9.3009014462,1418
118109,206726,241624,-2.6309084487,-2.0530417908,9.3009014462,1419
118332,206739,241690,-2.6309084487,-2.0530417908,9.3009014462,1420
118523,206744,241615,-2.6309084487,-2.0530417908,9.3009014462,1421
118659,206791,241698,-2.6309084487,-2.0530417908,9.3009014462,1422
118871,206805,241682,-2.6309084487,-2.0530417908,9.3009014462,1423
119023,206810,241720,-2.6309084487,-2.0530417908,9.3009014462,1424
118864,206719,241705,-2.6309084487,-2.0530417908,9.3009014462,1425
117854,206643,241592,-2.6309084487,-2.0530417908,9.3009014462,1426
116508,206515,241524,-2.6309084487,-2.0530417908,9.3009014462,1427
115609,206411,241492,-2.6309084487,-2.0530417908,9.3009014462,1428
115125,206384,241416,-2.6309084487,-2.0530417908,9.3009014462,1429
114903,206334,241444,-2.6309084487,-2.0530417908,9.3009014462,1430
114855,206384,241430,-2.6309084487,-2.0530417908,9.3009014462,1431
114993,206373,241487,-2.6309084487,-2.0530417908,9.3009014462,1432
115225,206408,241472,-2.6309084487,-2.0530417908,9.3009014462,1433
115444,206425,241504,-2.6309084487,-2.0530417908,9.3009014462,1434
115506,206403,241490,-2.6309084487,-2.0530417908,9.3009014462,1435
115507,206450,241525,-2.6309084487,-2.0530417908,9.3009014462,1436
115523,206427,241514,-2.6309084487,-2.0530417908,9.3009014462,1437
115633,206430,241496,-2.6309084487,-2.0530417908,9.3009014462,1438
115761,206445,241518,-2.6309084487,-2.0530417908,9.3009014462,1439
115971,206459,241539,-2.6309084487,-2.0530417908,9.3009014462,1440
116170,206479,241583,-2.6309084487,-2.0530417908,9.3009014462,1441
116396,206469,241550,-2.6309084487,-2.0530417908,9.3009014462,1442
116620,206520,241606,-2.6309084487,-2.0530417908,9.3009014462,1443
116819,206578,241592,-2.6309084487,-2.0530417908,9.3009014462,1444
117024,206599,241631,-2.6309084487,-2.0530417908,9.3009014462,1445
117252,206583,241672,-2.6309084487,-2.0530417908,9.3009014462,1446
117029,206608,241564,-2.6871397798,-1.9740786449999999,9.3702933016,1447
117248,206630,241585,-2.6871397798,-1.9740786449999999,9.3702933016,1448
117479,206648,241570,-2.6871397798,-1.9740786449999999,9.3702933016,1449
117680,206694,241598,-2.6871397798,-1.9740786449999999,9.3702933016,1450
117915,206731,241619,-2.6871397798,-1.9740786449999999,9.3702933016,1451
118158,206723,241638,-2.6871397798,-1.9740786449999999,9.3702933016,1452
118380,206693,241647,-2.6871397798,-1.9740786449999999,9.3702933016,1453
118593,206729,241652,-2.6871397798,-1.9740786449999999,9.3702933016,1454
118763,206799,241653,-2.6871397798,-1.9740786449999999,9.3702933016,1455
118967,206784,241695,-2.6871397798,-1.9740786449999999,9.3702933016,1456
119108,206825,241686,-2.6871397798,-1.9740786449999999,9.3702933016,1457
118779,206767,241684,-2.6871397798,-1.9740786449999999,9.3702933016,1458
117599,206667,241595,-2.6871397798,-1.9740786449999999,9.3702933016,1459
116333,206504,241489,-2.6871397798,-1.9740786449999999,9.3702933016,1460
115583,206467,241434,-2.6871397798,-1.9740786449999999,9.3702933016,1461
115247,206437,241472,-2.6871397798,-1.9740786449999999,9.3702933016,1462
115181,206396,241431,-2.6871397798,-1.9740786449999999,9.3702933016,1463
115252,206399,241480,-2.6871397798,-1.9740786449999999,9.3702933016,1464
115460,206421,241468,-2.6871397798,-1.9740786449999999,9.3702933016,1465
115753,206458,241476,-2.6871397798,-1.9740786449999999,9.3702933016,1466
115979,206434,241545,-2.6871397798,-1.9740786449999999,9.3702933016,1467
116104,206517,241530,-2.6871397798,-1.9740786449999999,9.3702933016,1468
116150,206514,241519,-2.6871397798,-1.9740786449999999,9.3702933016,1469
116256,206503,241508,-2.6871397798,-1.9740786449999999,9.3702933016,1470
116405,206444,241528,-2.6871397798,-1.9740786449999999,9.3702933016,1471
116621,206512,241548,-2.6871397798,-1.9740786449999999,9.3702933016,1472
116900,206557,241550,-2.6871397798,-1.9740786449999999,9.3702933016,1473
117152,206559,241595,-2.6871397798,-1.9740786449999999,9.3702933016,1474
117422,206584,241594,-2.6871397798,-1.9740786449999999,9.3702933016,1475
117695,206624,241635,-2.6871397798,-1.9740786449999999,9.3702933016,1476
117969,206650,241622,-2.6871397798,-1.9740786449999999,9.3702933016,1477
118231,206652,241636,-2.6871397798,-1.9740786449999999,9.3702933016,1478
118464,206713,241740,-2.6871397798,-1.9740786449999999,9.3702933016,1479
118696,206733,241719,-2.6871397798,-1.9740786449999999,9.3702933016,1480
118919,206732,241696,-2.6871397798,-1.9740786449999999,9.3702933016,1481
119139,206766,241701,-2.6871397798,-1.9740786449999999,9.3702933016,1482
119328,206781,241716,-2.6871397798,-1.9740786449999999,9.3702933016,1483
119293,206795,241769,-2.6871397798,-1.9740786449999999,9.3702933016,1484
118450,206662,241679,-2.6871397798,-1.9740786449999999,9.3702933016,1485
117177,206556,241575,-2.6871397798,-1.9740786449999999,9.3702933016,1486
116266,206474,241587,-2.6871397798,-1.9740786449999999,9.3702933016,1487
115860,206431,241556,-2.6871397798,-1.9740786449999999,9.3702933016,1488
116023,206447,241533,-2.6452653843,-1.8699908619,9.4002035841,1489
116316,206459,241571,-2.6452653843,-1.8699908619,9.4002035841,1490
116590,206479,241568,-2.6452653843,-1.8699908619,9.4002035841,1491
116730,206545,241568,-2.6452653843,-1.8699908619,9.4002035841,1492
116785,206533,241548,-2.6452653843,-1.8699908619,9.4002035841,1493
116884,206524,241593,-2.6452653843,-1.8699908619,9.4002035841,1494
116992,206534,241607,-2.6452653843,-1.8699908619,9.4002035841,1495
117197,206565,241654,-2.6452653843,-1.8699908619,9.4002035841,1496
117423,206568,241599,-2.6452653843,-1.8699908619,9.4002035841,1497
117659,206597,241686,-2.6452653843,-1.8699908619,9.4002035841,1498
117923,206641,241681,-2.6452653843,-1.8699908619,9.4002035841,1499
118202,206682,241648,-2.6452653843,-1.8699908619,9.4002035841,1500
118460,206672,241746,-2.6452653843,-1.8699908619,9.4002035841,1501
118706,206728,241755,-2.6452653843,-1.8699908619,9.4002035841,1502
118955,206746,241750,-2.6452653843,-1.8699908619,9.4002035841,1503
119180,206772,241723,-2.6452653843,-1.8699908619,9.4002035841,1504
119418,206768,241747,-2.6452653843,-1.8699908619,9.4002035841,1505
119605,206759,241786,-2.6452653843,-1.8699908619,9.4002035841,1506
119828,206809,241820,-2.6452653843,-1.8699908619,9.4002035841,1507
120005,206826,241808,-2.6452653843,-1.8699908619,9.4002035841,1508
119843,206798,241780,-2.6452653843,-1.8699908619,9.4002035841,1509
118843,206691,241685,-2.6452653843,-1.8699908619,9.4002035841,1510
117702,206598,241653,-2.6452653843,-1.8699908619,9.4002035841,1511
116999,206526,241614,-2.6452653843,-1.8699908619,9.4002035841,1512
116739,206502,241575,-2.6452653843,-1.8699908619,9.4002035841,1513
116766,206514,241616,-2.6452653843,-1.8699908619,9.4002035841,1514
116916,206522,241599,-2.6452653843,-1.8699908619,9.4002035841,1515
117194,206570,241672,-2.6452653843,-1.8699908619,9.4002035841,1516
117544,206572,241642,-2.6452653843,-1.8699908619,9.4002035841,1517
117752,206631,241647,-2.6452653843,-1.8699908619,9.4002035841,1518
