green,red,IR,acc_x,acc_y,acc_z,sample_index
125948,223470,289683,4.6743789491,3.9625142255999997,7.5086773188,1
126081,223508,289731,4.5798624564,3.9996029759000002,7.6941210703,2
126222,223484,289716,4.5320060043999995,4.0522450731,7.6893354250999995,3
126397,223570,289723,4.5559342304,3.8536407972999998,7.4811598589,4
126543,223562,289708,4.5930229807,4.0247276132000005,7.6366933279,5
126706,223600,289753,4.7030928203,3.9110685397,7.53739119,6
126776,223572,289740,4.5403808835,3.9708891047,7.5756763516,7
126546,223492,289689,4.5188454800999995,3.9996029759000002,7.432106995600001,8
126055,223416,289606,4.5798624564,3.9110685397,7.5469624804,9
125759,223364,289611,4.6277189084,3.9385859996,7.4847490928,10
125647,223363,289620,4.618147618,3.8919259589,7.4943203832,11
125606,223381,289653,4.4231325760999995,3.9385859996,7.4428746973,12
125661,223342,289655,4.7270210463,3.876372612,7.6079794567,13
125740,223364,289654,4.7593241513999995,3.9912280968,7.561319416,14
125920,223467,289690,4.5750768112,4.06779842,7.5409804239,15
126113,223420,289682,4.6935215299,4.0115670889,7.6139615132000005,16
126243,223442,289624,4.6265224971,3.9146577735999997,7.6175507471,17
126297,223471,289683,4.4997028993,4.0055850324,7.4991060284,18
126432,223452,289707,4.6851466508,3.9672998708,7.5242306657,19
126526,223450,289727,4.7210389898,4.0426737827,7.5744799403,20
126712,223500,289717,4.5320060043999995,3.9385859996,7.5134629639999995,21
126815,223525,289718,4.4793639072,3.9146577735999997,7.4763742137,22
126978,223508,289705,4.492524431500001,3.9852460403000003,7.5984081663000005,23
127141,223543,289742,4.5798624564,3.9672998708,7.561319416,24
127270,223548,289715,4.5236311253,3.9290147091999996,7.5038916736,25
127457,223600,289757,4.4458643908,3.9421752335,7.6079794567,26
127624,223654,289778,4.5750768112,4.0103706776,7.542176835199999,27
127717,223643,289764,4.6085763276,4.0342989036,7.4847490928,28
127835,223646,289774,4.560719875599999,4.0055850324,7.6701928443,29
128010,223640,289778,4.4949172541,4.0809589443,7.4847490928,30
128160,223640,289779,4.54636294,3.9864424516000003,7.5385876013,31
128149,223614,289749,4.6408794327,3.9433716447999996,7.4763742137,32
127861,223542,289668,4.589433746799999,3.8811582571999996,7.5744799403,33
127491,223508,289620,4.6277189084,3.9852460403000003,7.5517481256,34
127300,223468,289654,4.594219392,4.1659041466,7.6283184488,35
127199,223482,289634,4.5990050372,4.0761732991,7.6271220375,36
127183,223458,289658,4.5523449965,3.9146577735999997,7.6043902228,37
127204,223487,289636,4.570291166,3.9397824109,7.561319416,38
127312,223524,289636,4.4889351976,4.1336010414999995,7.5601230047,39
127452,223494,289729,4.589433746799999,3.8967116041,7.6271220375,40
127616,223547,289739,4.5690947547,3.8344982165,7.5326055448,41
127610,223545,289665,4.6887358847,3.9625142255999997,7.5469624804,42
127687,223553,289719,4.589433746799999,3.9098721283999995,7.53739119,43
127804,223551,289716,4.527220359199999,3.8727833781,7.4560352216,44
127862,223546,289709,4.6085763276,3.8249269261,7.585247642000001,45
128000,223604,289693,4.637290198800001,3.9625142255999997,7.4799634476,46
128119,223623,289689,4.7461636271,4.0331024923,7.4847490928,47
128243,223670,289752,4.5128634236,3.9948173307,7.6043902228,48
128373,223633,289727,4.5990050372,4.0666020087,7.53739119,49
128505,223634,289765,4.6947179412,3.8632120877,7.5517481256,50
128597,223645,289763,4.560719875599999,4.001995798499999,7.53739119,51
128740,223679,289762,4.5750768112,4.0103706776,7.5086773188,52
128842,223706,289841,4.560719875599999,3.9194434188,7.4799634476,53
128962,223697,289776,4.4949172541,3.996013742,7.6319076827,54
129068,223710,289782,4.6337009649,3.9589249917,7.5230342544,55
129204,223752,289804,4.6887358847,4.1001015251,7.6079794567,56
129266,223733,289810,4.5738803999,4.0103706776,7.5792655855,57
129101,223688,289714,4.5367916496,3.8715869668,7.5326055448,58
128673,223579,289668,4.5750768112,4.0773697104,7.5038916736,59
128333,223547,289657,4.4997028993,3.8967116041,7.5804619967999995,60
128093,223517,289643,4.6743789491,4.0331024923,7.4991060284,61
128019,223535,289661,4.6468614892,4.043870194,7.5230342544,62
127902,223535,289645,4.4602213264,3.9385859996,7.5936225210999995,63
127947,223565,289654,4.594219392,3.9732819273,7.555337359499999,64
127993,223539,289629,4.6121655615,4.0055850324,7.6366933279,65
128074,223581,289671,4.6468614892,4.0522450731,7.5086773188,66
128115,223582,289643,4.527220359199999,3.9397824109,7.5182486092000005,67
128145,223586,289738,4.5750768112,4.1096728155,7.4715885685,68
128135,223599,289694,4.5990050372,4.0103706776,7.5948189324,69
128167,223615,289655,4.4362931003999995,4.0091742663,7.5469624804,70
128237,223585,289703,4.6085763276,3.996013742,7.5601230047,71
128282,223655,289710,4.618147618,4.0151563228,7.4273213504,72
128369,223643,289701,4.5212383027000005,4.0725840652,7.5182486092000005,73
128398,223639,289699,4.6313081423,3.9852460403000003,7.5996045776,74
128487,223669,289666,4.5511485852,3.8297125713,7.633104094,75
128581,223677,289715,4.6504507231,3.9996029759000002,7.6079794567,76
128642,223649,289729,4.5834516903,4.043870194,7.6079794567,77
128725,223681,289737,4.5415772948,4.0486558392,7.5314091335,78
128785,223719,289761,4.5798624564,3.924229064,7.4763742137,79
128880,223698,289743,4.6839502395,4.0953158799,7.4763742137,80
128957,223732,289716,4.6037906824000006,3.9529429352,7.447660342499999,81
128854,223694,289731,4.5750768112,3.9349967657,7.6414789731,82
128444,223607,289589,4.637290198800001,3.9625142255999997,7.5804619967999995,83
127911,223551,289585,4.618147618,3.9864424516000003,7.5756763516,84
127551,223521,289610,4.4853459636999995,4.043870194,7.5517481256,85
127332,223513,289579,4.3621155998,3.9672998708,7.4524459877,86
127174,223501,289540,4.5308095931,3.9194434188,7.457231632899999,87
127107,223533,289539,4.6456650779,3.9565321691,7.428517761699999,88
127130,223491,289564,4.498506487999999,3.996013742,7.5517481256,89
127199,223587,289598,4.6073799163,4.0821553556,7.5804619967999995,90
127202,223556,289605,4.5750768112,4.0247276132000005,7.5278198996,91
127203,223520,289574,4.6169512067000005,4.0067814437,7.6139615132000005,92
127162,223572,289600,4.5559342304,3.8715869668,7.561319416,93
127172,223575,289614,4.594219392,4.139583098,7.5649086499,94
127182,223587,289605,4.6983071751,3.9996029759000002,7.6031938115,95
127225,223627,289644,4.570291166,4.1060835816,7.4931239719,96
127277,223641,289641,4.6983071751,4.0809589443,7.4943203832,97
127359,223639,289645,4.4602213264,3.9708891047,7.5744799403,98
127459,223628,289668,4.6636112473999995,3.9206398301,7.570890706399999,99
127516,223680,289631,4.5415772948,4.0905302347,7.5134629639999995,100
127581,223684,289671,4.594219392,4.0773697104,7.584051230699999,101
127665,223684,289679,4.450650036,4.0295132584,7.5816584081,102
127730,223670,289645,4.6648076587,3.9996029759000002,7.447660342499999,103
127821,223691,289704,4.6396830214,3.9948173307,7.4368926408,104
127839,223692,289696,4.618147618,4.0378881375,7.4991060284,105
127535,223587,289556,4.6863430621,3.9481572899999997,7.5326055448,106
126946,223558,289554,4.547559351299999,4.1419759206,7.556533770800001,107
126378,223475,289552,4.4662033829,3.9433716447999996,7.5996045776,108
126060,223432,289480,4.5834516903,4.1240297511,7.542176835199999,109
125841,223460,289486,4.5176490688,4.0857445895,7.561319416,110
125659,223474,289461,4.6648076587,4.0486558392,7.4751778024,111
125642,223410,289505,4.4721854394000005,3.9996029759000002,7.5661050612,112
125682,223477,289534,4.6408794327,3.9529429352,7.4560352216,113
125730,223482,289590,4.5080777784,4.0630127748,7.428517761699999,114
125694,223488,289570,4.4757746733,4.0630127748,7.5517481256,115
125693,223480,289542,4.4937208428,3.9278182979,7.6091758679999995,116
125679,223459,289552,4.6049870937,4.0151563228,7.570890706399999,117
125699,223525,289567,4.5750768112,3.9864424516000003,7.5804619967999995,118
125749,223506,289568,4.6552363683,4.0713876539,7.6701928443,119
125812,223528,289575,4.5511485852,3.9338003543999998,7.542176835199999,120
125853,223539,289627,4.465006971599999,3.8715869668,7.5230342544,121
125975,223526,289609,4.5332024157,4.0522450731,7.5696942951,122
126040,223573,289584,4.6396830214,3.8679977328999997,7.53739119,123
126152,223588,289591,4.4697926167999995,3.8727833781,7.542176835199999,124
126261,223588,289649,4.5332024157,3.876372612,7.4847490928,125
126357,223589,289662,4.6707897152,4.043870194,7.53739119,126
126452,223616,289648,4.6707897152,4.019941968,7.5182486092000005,127
126548,223649,289644,4.6037906824000006,4.0043886211,7.6319076827,128
126489,223600,289597,4.642075844,3.9672998708,7.555337359499999,129
126018,223505,289551,4.7688954418,3.9290147091999996,7.4668029232999995,130
125270,223412,289494,4.5236311253,4.0534414844,7.6043902228,131
124806,223379,289444,4.5044885445,3.9062828945,7.5756763516,132
124518,223353,289476,4.6923251185999995,4.1144584607,7.5182486092000005,133
124317,223335,289468,4.5738803999,3.8907295476,7.5756763516,134
124246,223360,289514,4.6265224971,3.9014972492999997,7.4093751809,135
124276,223354,289545,4.5655055207999995,4.0522450731,7.5134629639999995,136
124403,223413,289569,4.570291166,4.0007993872,7.5134629639999995,137
124509,223401,289531,4.4997028993,3.9194434188,7.5361947787,138
124563,223397,289558,4.4841495524,4.0570307183,7.6414789731,139
124576,223403,289481,4.5750768112,4.0857445895,7.6175507471,140
124611,223417,289561,4.570291166,3.9768711611999996,7.5278198996,141
124702,223408,289559,4.5990050372,3.996013742,7.4835526815,142
124773,223458,289620,4.4518464473,3.8488551521,7.5696942951,143
124911,223468,289603,4.5367916496,4.1575292675,7.5278198996,144
125007,223464,289649,4.6073799163,3.9098721283999995,7.6989067155,145
125136,223514,289640,4.6121655615,3.924229064,7.4560352216,146
125271,223510,289674,4.637290198800001,4.0618163635,7.5888368759,147
125406,223522,289665,4.5846481016,3.9397824109,7.622336392299999,148
125475,223535,289654,4.6217368519,4.0474594279,7.5696942951,149
125659,223543,289672,4.6456650779,3.9110685397,7.4847490928,150
125759,223594,289717,4.5367916496,3.9768711611999996,7.5134629639999995,151
125873,223568,289708,4.6935215299,3.9014972492999997,7.5984081663000005,152
125980,223640,289737,4.6791645943,3.9003008379999997,7.5134629639999995,153
126087,223565,289692,4.6217368519,3.9577285803999995,7.5314091335,154
126236,223591,289689,4.5176490688,4.0761732991,7.5134629639999995,155
126334,223646,289733,4.7210389898,3.9421752335,7.6175507471,156
126460,223632,289766,4.618147618,4.0151563228,7.5804619967999995,157
126608,223646,289725,4.5750768112,4.0845481781999995,7.4847490928,158
126681,223610,289725,4.4135612857,4.0522450731,7.4991060284,159
126565,223599,289710,4.5786660451,4.0666020087,7.4763742137,160
125998,223515,289615,4.5415772948,3.9912280968,7.4847490928,161
125365,223455,289501,4.5367916496,4.0761732991,7.6175507471,162
124949,223365,289524,4.6803610056,3.9110685397,7.5134629639999995,163
124725,223397,289554,4.5511485852,4.151547211,7.6319076827,164
124721,223399,289508,4.522434714,3.8871403137,7.5469624804,165
124698,223396,289583,4.7318066915,4.0091742663,7.5182486092000005,166
124805,223428,289521,4.6360937875,3.9098721283999995,7.5326055448,167
124959,223430,289600,4.6791645943,3.9206398301,7.585247642000001,168
125096,223418,289598,4.7042892316,3.9385859996,7.5601230047,169
125170,223436,289628,4.6229332632,4.1001015251,7.622336392299999,170
125192,223453,289637,4.527220359199999,3.9912280968,7.5505517143,171
125235,223474,289582,4.5786660451,3.8859439023999998,7.584051230699999,172
125333,223489,289655,4.498506487999999,3.9338003543999998,7.5182486092000005,173
125431,223516,289666,4.5595234643,4.0007993872,7.5696942951,174
125560,223497,289640,4.5786660451,3.9290147091999996,7.5661050612,175
125684,223511,289645,4.6265224971,3.876372612,7.6031938115,176
125768,223548,289667,4.6121655615,4.0283168471,7.5888368759,177
125918,223551,289637,4.527220359199999,4.001995798499999,7.5134629639999995,178
126021,223566,289741,4.4327038665,4.0103706776,7.5038916736,179
126152,223605,289743,4.5320060043999995,4.0390845488,7.5278198996,180
126287,223597,289744,4.6648076587,4.0534414844,7.5601230047,181
126388,223617,289763,4.5559342304,4.1096728155,7.555337359499999,182
126477,223582,289769,4.3944187049,3.8907295476,7.5696942951,183
126578,223587,289762,4.6169512067000005,3.9900316855,7.6941210703,184
126673,223619,289758,4.7126641107,4.0283168471,7.5409804239,185
126731,223628,289733,4.5511485852,3.9577285803999995,7.5038916736,186
126491,223600,289709,4.5415772948,4.1527436223,7.5661050612,187
125945,223467,289569,4.5798624564,4.0486558392,7.4703921572,188
125416,223431,289540,4.5846481016,4.0103706776,7.4177500599999995,189
125129,223358,289522,4.6983071751,4.0426737827,7.555337359499999,190
125076,223379,289513,4.5667019321,3.9756747499,7.5278198996,191
125054,223358,289576,4.570291166,4.0187455567,7.4715885685,192
125103,223417,289592,4.6552363683,3.9672998708,7.570890706399999,193
125196,223421,289625,4.4889351976,4.0666020087,7.6749784895,194
125378,223441,289609,4.6037906824000006,4.0486558392,7.4703921572,195
125457,223458,289612,4.5655055207999995,3.9804603951,7.5984081663000005,196
125493,223434,289653,4.6600220135,4.0163527341,7.6366933279,197
125515,223449,289636,4.6217368519,4.0630127748,7.446463931199999,198
125615,223465,289642,4.6552363683,3.8871403137,7.5182486092000005,199
125704,223458,289645,4.6552363683,3.8871403137,7.5182486092000005,200
125816,223491,289650,4.6552363683,3.8871403137,7.5182486092000005,201
125951,223501,289739,4.6552363683,3.8871403137,7.5182486092000005,202
126082,223545,289652,4.6552363683,3.8871403137,7.5182486092000005,203
126212,223584,289714,4.6552363683,3.8871403137,7.5182486092000005,204
126324,223562,289724,4.6552363683,3.8871403137,7.5182486092000005,205
126454,223543,289727,4.6552363683,3.8871403137,7.5182486092000005,206
126588,223590,289788,4.6552363683,3.8871403137,7.5182486092000005,207
126659,223570,289735,4.6552363683,3.8871403137,7.5182486092000005,208
126423,223496,289694,4.6552363683,3.8871403137,7.5182486092000005,209
125866,223427,289585,4.6552363683,3.8871403137,7.5182486092000005,210
125354,223363,289574,4.6552363683,3.8871403137,7.5182486092000005,211
125122,223340,289598,4.6552363683,3.8871403137,7.5182486092000005,212
124987,223331,289579,4.6552363683,3.8871403137,7.5182486092000005,213
124928,223347,289552,4.6552363683,3.8871403137,7.5182486092000005,214
124973,223350,289593,4.6552363683,3.8871403137,7.5182486092000005,215
125133,223381,289619,4.6552363683,3.8871403137,7.5182486092000005,216
125268,223404,289626,4.6552363683,3.8871403137,7.5182486092000005,217
125339,223400,289615,4.6552363683,3.8871403137,7.5182486092000005,218
125362,223380,289607,4.6552363683,3.8871403137,7.5182486092000005,219
125404,223388,289659,4.6552363683,3.8871403137,7.5182486092000005,220
125461,223449,289656,4.6552363683,3.8871403137,7.5182486092000005,221
125592,223450,289700,4.6552363683,3.8871403137,7.5182486092000005,222
125689,223433,289629,4.6552363683,3.8871403137,7.5182486092000005,223
125791,223454,289689,4.6552363683,3.8871403137,7.5182486092000005,224
125915,223458,289674,4.6552363683,3.8871403137,7.5182486092000005,225
126013,223491,289691,4.6552363683,3.8871403137,7.5182486092000005,226
126125,223509,289740,4.6552363683,3.8871403137,7.5182486092000005,227
126267,223518,289767,4.6552363683,3.8871403137,7.5182486092000005,228
126395,223537,289757,4.6552363683,3.8871403137,7.5182486092000005,229
126490,223532,289756,4.6552363683,3.8871403137,7.5182486092000005,230
126371,223472,289669,4.6552363683,3.8871403137,7.5182486092000005,231
125823,223409,289601,4.6552363683,3.8871403137,7.5182486092000005,232
125232,223333,289538,4.6552363683,3.8871403137,7.5182486092000005,233
124838,223254,289556,4.6552363683,3.8871403137,7.5182486092000005,234
124670,223240,289533,4.6552363683,3.8871403137,7.5182486092000005,235
124549,223296,289571,4.6552363683,3.8871403137,7.5182486092000005,236
124532,223284,289570,4.6552363683,3.8871403137,7.5182486092000005,237
124620,223283,289611,4.6552363683,3.8871403137,7.5182486092000005,238
124775,223318,289546,4.6552363683,3.8871403137,7.5182486092000005,239
124900,223361,289595,4.6552363683,3.8871403137,7.5182486092000005,240
124989,223308,289631,4.6037906824000006,4.0522450731,7.5517481256,241
125091,223421,289631,4.6037906824000006,4.0522450731,7.5517481256,242
125185,223383,289616,4.6037906824000006,4.0522450731,7.5517481256,243
125335,223394,289672,4.6037906824000006,4.0522450731,7.5517481256,244
125441,223438,289694,4.6037906824000006,4.0522450731,7.5517481256,245
125533,223430,289753,4.6037906824000006,4.0522450731,7.5517481256,246
125648,223467,289730,4.6037906824000006,4.0522450731,7.5517481256,247
125780,223462,289775,4.6037906824000006,4.0522450731,7.5517481256,248
125916,223510,289768,4.6037906824000006,4.0522450731,7.5517481256,249
125996,223476,289722,4.6037906824000006,4.0522450731,7.5517481256,250
126073,223477,289747,4.6037906824000006,4.0522450731,7.5517481256,251
125858,223419,289680,4.6037906824000006,4.0522450731,7.5517481256,252
125241,223328,289634,4.6037906824000006,4.0522450731,7.5517481256,253
124684,223258,289527,4.6037906824000006,4.0522450731,7.5517481256,254
124332,223208,289559,4.6037906824000006,4.0522450731,7.5517481256,255
124126,223175,289556,4.6037906824000006,4.0522450731,7.5517481256,256
124056,223198,289512,4.6037906824000006,4.0522450731,7.5517481256,257
124046,223201,289561,4.6037906824000006,4.0522450731,7.5517481256,258
124143,223219,289605,4.6037906824000006,4.0522450731,7.5517481256,259
124302,223271,289588,4.5044885445,3.9768711611999996,7.5744799403,260
124365,223285,289671,4.5044885445,3.9768711611999996,7.5744799403,261
124405,223254,289592,4.5044885445,3.9768711611999996,7.5744799403,262
124455,223286,289629,4.5044885445,3.9768711611999996,7.5744799403,263
124473,223314,289611,4.5044885445,3.9768711611999996,7.5744799403,264
124582,223311,289663,4.5044885445,3.9768711611999996,7.5744799403,265
124695,223287,289674,4.5044885445,3.9768711611999996,7.5744799403,266
124800,223343,289684,4.5044885445,3.9768711611999996,7.5744799403,267
124893,223368,289694,4.5044885445,3.9768711611999996,7.5744799403,268
124988,223371,289707,4.5044885445,3.9768711611999996,7.5744799403,269
125105,223408,289777,4.5044885445,3.9768711611999996,7.5744799403,270
125198,223376,289768,4.5044885445,3.9768711611999996,7.5744799403,271
125318,223388,289749,4.5044885445,3.9768711611999996,7.5744799403,272
125435,223467,289776,4.5044885445,3.9768711611999996,7.5744799403,273
125537,223444,289751,4.5044885445,3.9768711611999996,7.5744799403,274
125387,223386,289741,4.5044885445,3.9768711611999996,7.5744799403,275
124814,223292,289614,4.5044885445,3.9768711611999996,7.5744799403,276
124181,223215,289579,4.5044885445,3.9768711611999996,7.5744799403,277
123846,223198,289592,4.5044885445,3.9768711611999996,7.5744799403,278
123708,223128,289581,4.4422751569,3.8428730956,7.556533770800001,279
123602,223140,289547,4.4422751569,3.8428730956,7.556533770800001,280
123630,223203,289580,4.4422751569,3.8428730956,7.556533770800001,281
123741,223219,289624,4.4422751569,3.8428730956,7.556533770800001,282
123910,223228,289612,4.4422751569,3.8428730956,7.556533770800001,283
124008,223217,289642,4.4422751569,3.8428730956,7.556533770800001,284
123994,223204,289672,4.4422751569,3.8428730956,7.556533770800001,285
124028,223249,289673,4.4422751569,3.8428730956,7.556533770800001,286
124074,223244,289654,4.4422751569,3.8428730956,7.556533770800001,287
124107,223253,289681,4.4422751569,3.8428730956,7.556533770800001,288
124225,223284,289651,4.4422751569,3.8428730956,7.556533770800001,289
124324,223265,289678,4.4422751569,3.8428730956,7.556533770800001,290
124423,223282,289643,4.4422751569,3.8428730956,7.556533770800001,291
124542,223301,289687,4.4422751569,3.8428730956,7.556533770800001,292
124615,223305,289718,4.4422751569,3.8428730956,7.556533770800001,293
124715,223348,289686,4.4422751569,3.8428730956,7.556533770800001,294
124849,223338,289759,4.4422751569,3.8428730956,7.556533770800001,295
124934,223356,289725,4.4422751569,3.8428730956,7.556533770800001,296
124848,223300,289660,4.4422751569,3.8428730956,7.556533770800001,297
124303,223192,289660,4.4422751569,3.8428730956,7.556533770800001,298
123672,223129,289581,4.4422751569,3.8428730956,7.556533770800001,299
123279,223094,289563,4.4422751569,3.8428730956,7.556533770800001,300
123076,223064,289574,4.4422751569,3.8428730956,7.556533770800001,301
122962,223062,289513,4.4422751569,3.8428730956,7.556533770800001,302
122970,223038,289564,4.4422751569,3.8428730956,7.556533770800001,303
123075,223107,289565,4.4422751569,3.8428730956,7.556533770800001,304
123280,223118,289592,4.4422751569,3.8428730956,7.556533770800001,305
123405,223107,289609,4.4422751569,3.8428730956,7.556533770800001,306
123437,223143,289613,4.4422751569,3.8428730956,7.556533770800001,307
123489,223136,289657,4.4422751569,3.8428730956,7.556533770800001,308
123535,223135,289606,4.4422751569,3.8428730956,7.556533770800001,309
123679,223214,289679,4.4422751569,3.8428730956,7.556533770800001,310
123757,223177,289705,4.4422751569,3.8428730956,7.556533770800001,311
123903,223201,289636,4.4422751569,3.8428730956,7.556533770800001,312
124048,223190,289720,4.4422751569,3.8428730956,7.556533770800001,313
124204,223288,289682,4.4422751569,3.8428730956,7.556533770800001,314
124309,223288,289700,4.4422751569,3.8428730956,7.556533770800001,315
124484,223292,289698,4.4422751569,3.8428730956,7.556533770800001,316
124592,223310,289720,4.4422751569,3.8428730956,7.556533770800001,317
124714,223317,289776,4.4422751569,3.8428730956,7.556533770800001,318
124837,223313,289770,4.4422751569,3.8428730956,7.556533770800001,319
124943,223365,289699,4.4422751569,3.8428730956,7.556533770800001,320
125656,223447,289741,4.5643091095,4.0151563228,7.6271220375,321
125781,223456,289794,4.5643091095,4.0151563228,7.6271220375,322
125878,223414,289851,4.5643091095,4.0151563228,7.6271220375,323
125603,223355,289741,4.5643091095,4.0151563228,7.6271220375,324
124965,223216,289614,4.5643091095,4.0151563228,7.6271220375,325
124444,223180,289632,4.5643091095,4.0151563228,7.6271220375,326
124195,223149,289570,4.5643091095,4.0151563228,7.6271220375,327
124096,223128,289541,4.5643091095,4.0151563228,7.6271220375,328
124039,223114,289625,4.5643091095,4.0151563228,7.6271220375,329
124111,223152,289582,4.5643091095,4.0151563228,7.6271220375,330
124245,223192,289613,4.5643091095,4.0151563228,7.6271220375,331
124393,223171,289660,4.5643091095,4.0151563228,7.6271220375,332
124506,223208,289625,4.5643091095,4.0151563228,7.6271220375,333
124519,223229,289712,4.5643091095,4.0151563228,7.6271220375,334
124528,223254,289597,4.5643091095,4.0151563228,7.6271220375,335
124608,223225,289706,4.5643091095,4.0151563228,7.6271220375,336
124738,223256,289642,4.5643091095,4.0151563228,7.6271220375,337
124811,223241,289642,4.5643091095,4.0151563228,7.6271220375,338
124945,223266,289709,4.5643091095,4.0151563228,7.6271220375,339
125088,223297,289695,4.5643091095,4.0151563228,7.6271220375,340
125204,223330,289753,4.5643091095,4.0151563228,7.6271220375,341
125339,223327,289712,4.5643091095,4.0151563228,7.6271220375,342
125435,223320,289709,4.5643091095,4.0151563228,7.6271220375,343
125564,223344,289714,4.5643091095,4.0151563228,7.6271220375,344
125676,223384,289687,4.5643091095,4.0151563228,7.6271220375,345
125813,223383,289688,4.5643091095,4.0151563228,7.6271220375,346
125911,223400,289728,4.5643091095,4.0151563228,7.6271220375,347
126038,223416,289725,4.5643091095,4.0151563228,7.6271220375,348
126029,223388,289679,4.5643091095,4.0151563228,7.6271220375,349
125661,223288,289655,4.5643091095,4.0151563228,7.6271220375,350
125107,223212,289569,4.5643091095,4.0151563228,7.6271220375,351
124739,223174,289549,4.5643091095,4.0151563228,7.6271220375,352
124605,223174,289530,4.5643091095,4.0151563228,7.6271220375,353
124563,223165,289533,4.5643091095,4.0151563228,7.6271220375,354
124577,223172,289589,4.5643091095,4.0151563228,7.6271220375,355
124694,223180,289591,4.5643091095,4.0151563228,7.6271220375,356
124878,223250,289618,4.5643091095,4.0151563228,7.6271220375,357
124960,223224,289635,4.5643091095,4.0151563228,7.6271220375,358
125009,223198,289592,4.5643091095,4.0151563228,7.6271220375,359
125026,223239,289577,4.5643091095,4.0151563228,7.6271220375,360
125057,223236,289658,4.5643091095,4.0151563228,7.6271220375,361
125138,223288,289613,4.5643091095,4.0151563228,7.6271220375,362
124089,223086,289526,4.4841495524,4.0331024923,7.526623488299999,363
124028,223070,289556,4.4841495524,4.0331024923,7.526623488299999,364
124172,223137,289537,4.4841495524,4.0331024923,7.526623488299999,365
124279,223160,289561,4.4841495524,4.0331024923,7.526623488299999,366
124382,223137,289535,4.4841495524,4.0331024923,7.526623488299999,367
124397,223167,289611,4.4841495524,4.0331024923,7.526623488299999,368
124399,223129,289570,4.4841495524,4.0331024923,7.526623488299999,369
124462,223182,289565,4.4841495524,4.0331024923,7.526623488299999,370
124531,223193,289608,4.4841495524,4.0331024923,7.526623488299999,371
124652,223194,289627,4.4841495524,4.0331024923,7.526623488299999,372
124740,223227,289626,4.4841495524,4.0331024923,7.526623488299999,373
124842,223234,289623,4.4841495524,4.0331024923,7.526623488299999,374
124937,223270,289627,4.4841495524,4.0331024923,7.526623488299999,375
125018,223241,289661,4.4841495524,4.0331024923,7.526623488299999,376
125124,223237,289658,4.4841495524,4.0331024923,7.526623488299999,377
125237,223291,289721,4.4841495524,4.0331024923,7.526623488299999,378
125324,223277,289688,4.4841495524,4.0331024923,7.526623488299999,379
125395,223266,289679,4.4841495524,4.0331024923,7.526623488299999,380
124976,223208,289547,4.4841495524,4.0331024923,7.526623488299999,381
124372,223089,289513,4.4841495524,4.0331024923,7.526623488299999,382
123872,223049,289503,4.4841495524,4.0331024923,7.526623488299999,383
123631,222995,289464,4.4841495524,4.0331024923,7.526623488299999,384
123495,222985,289472,4.4841495524,4.0331024923,7.526623488299999,385
123430,223013,289451,4.4841495524,4.0331024923,7.526623488299999,386
123495,223004,289483,4.4841495524,4.0331024923,7.526623488299999,387
123614,223077,289501,4.4841495524,4.0331024923,7.526623488299999,388
123768,223060,289567,4.4841495524,4.0331024923,7.526623488299999,389
123839,223068,289498,4.4841495524,4.0331024923,7.526623488299999,390
123870,223109,289521,4.4841495524,4.0331024923,7.526623488299999,391
123923,223086,289527,4.4841495524,4.0331024923,7.526623488299999,392
123990,223114,289523,4.4841495524,4.0331024923,7.526623488299999,393
124101,223160,289613,4.4841495524,4.0331024923,7.526623488299999,394
124214,223182,289611,4.4841495524,4.0331024923,7.526623488299999,395
124353,223148,289636,4.4841495524,4.0331024923,7.526623488299999,396
124480,223179,289620,4.4841495524,4.0331024923,7.526623488299999,397
124597,223239,289622,4.4841495524,4.0331024923,7.526623488299999,398
124721,223266,289629,4.4841495524,4.0331024923,7.526623488299999,399
124847,223243,289671,4.4841495524,4.0331024923,7.526623488299999,400
124991,223222,289675,4.5128634236,3.9948173307,7.5326055448,401
125088,223245,289683,4.5128634236,3.9948173307,7.5326055448,402
125229,223292,289643,4.5128634236,3.9948173307,7.5326055448,403
125333,223296,289655,4.5128634236,3.9948173307,7.5326055448,404
125450,223330,289728,4.5128634236,3.9948173307,7.5326055448,405
125562,223335,289726,4.5128634236,3.9948173307,7.5326055448,406
125653,223345,289743,4.5128634236,3.9948173307,7.5326055448,407
125470,223261,289676,4.5128634236,3.9948173307,7.5326055448,408
124878,223149,289568,4.5128634236,3.9948173307,7.5326055448,409
124241,223094,289533,4.5128634236,3.9948173307,7.5326055448,410
123860,223063,289531,4.5128634236,3.9948173307,7.5326055448,411
123661,223051,289518,4.5128634236,3.9948173307,7.5326055448,412
123560,223051,289501,4.5128634236,3.9948173307,7.5326055448,413
123499,223044,289506,4.5128634236,3.9948173307,7.5326055448,414
123597,223050,289480,4.5128634236,3.9948173307,7.5326055448,415
123739,223083,289557,4.5128634236,3.9948173307,7.5326055448,416
123833,223051,289524,4.5128634236,3.9948173307,7.5326055448,417
123892,223122,289556,4.5128634236,3.9948173307,7.5326055448,418
123904,223068,289531,4.5128634236,3.9948173307,7.5326055448,419
123968,223109,289591,4.5128634236,3.9948173307,7.5326055448,420
124068,223136,289613,4.5128634236,3.9948173307,7.5326055448,421
124178,223118,289626,4.5128634236,3.9948173307,7.5326055448,422
124296,223133,289617,4.5128634236,3.9948173307,7.5326055448,423
124421,223185,289614,4.5128634236,3.9948173307,7.5326055448,424
124519,223187,289599,4.5128634236,3.9948173307,7.5326055448,425
124674,223188,289670,4.5128634236,3.9948173307,7.5326055448,426
124785,223217,289645,4.5128634236,3.9948173307,7.5326055448,427
124913,223260,289679,4.5128634236,3.9948173307,7.5326055448,428
125026,223257,289642,4.5128634236,3.9948173307,7.5326055448,429
125146,223262,289671,4.5128634236,3.9948173307,7.5326055448,430
125251,223277,289678,4.5128634236,3.9948173307,7.5326055448,431
125382,223354,289720,4.5128634236,3.9948173307,7.5326055448,432
125490,223314,289705,4.5128634236,3.9948173307,7.5326055448,433
125594,223313,289706,4.5128634236,3.9948173307,7.5326055448,434
125677,223325,289673,4.5128634236,3.9948173307,7.5326055448,435
125846,223339,289753,4.5128634236,3.9948173307,7.5326055448,436
125908,223350,289698,4.5128634236,3.9948173307,7.5326055448,437
125636,223278,289671,4.5128634236,3.9948173307,7.5326055448,438
125034,223184,289547,4.5128634236,3.9948173307,7.5326055448,439
124377,223133,289551,4.5128634236,3.9948173307,7.5326055448,440
123994,223063,289567,4.5128634236,3.9948173307,7.5326055448,441
123806,223051,289531,4.5128634236,3.9948173307,7.5326055448,442
123686,223086,289600,4.5846481016,3.9864424516000003,7.4751778024,443
123684,223090,289570,4.5846481016,3.9864424516000003,7.4751778024,444
123706,223096,289663,4.5846481016,3.9864424516000003,7.4751778024,445
123805,223090,289593,4.5846481016,3.9864424516000003,7.4751778024,446
123843,223127,289612,4.5846481016,3.9864424516000003,7.4751778024,447
123915,223130,289600,4.5846481016,3.9864424516000003,7.4751778024,448
124031,223143,289610,4.5846481016,3.9864424516000003,7.4751778024,449
124161,223159,289593,4.5846481016,3.9864424516000003,7.4751778024,450
124266,223134,289635,4.5846481016,3.9864424516000003,7.4751778024,451
124331,223194,289624,4.5846481016,3.9864424516000003,7.4751778024,452
124457,223183,289651,4.5846481016,3.9864424516000003,7.4751778024,453
124577,223242,289649,4.5846481016,3.9864424516000003,7.4751778024,454
124460,223184,289643,4.5846481016,3.9864424516000003,7.4751778024,455
123902,223052,289540,4.5846481016,3.9864424516000003,7.4751778024,456
123204,222959,289484,4.5846481016,3.9864424516000003,7.4751778024,457
122755,222945,289403,4.5846481016,3.9864424516000003,7.4751778024,458
122531,222871,289422,4.5846481016,3.9864424516000003,7.4751778024,459
122429,222909,289447,4.5846481016,3.9864424516000003,7.4751778024,460
122402,222895,289476,4.5846481016,3.9864424516000003,7.4751778024,461
122499,222909,289499,4.5846481016,3.9864424516000003,7.4751778024,462
122664,222964,289533,4.5846481016,3.9864424516000003,7.4751778024,463
122829,222973,289504,4.5846481016,3.9864424516000003,7.4751778024,464
122873,222935,289563,4.5846481016,3.9864424516000003,7.4751778024,465
122911,223011,289517,4.5846481016,3.9864424516000003,7.4751778024,466
123006,223011,289575,4.5846481016,3.9864424516000003,7.4751778024,467
123098,223008,289533,4.5846481016,3.9864424516000003,7.4751778024,468
123211,223014,289538,4.5846481016,3.9864424516000003,7.4751778024,469
123357,223024,289540,4.5846481016,3.9864424516000003,7.4751778024,470
123507,223056,289596,4.5846481016,3.9864424516000003,7.4751778024,471
123661,223090,289607,4.5846481016,3.9864424516000003,7.4751778024,472
123798,223125,289621,4.5846481016,3.9864424516000003,7.4751778024,473
123927,223120,289630,4.5846481016,3.9864424516000003,7.4751778024,474
124057,223165,289620,4.5846481016,3.9864424516000003,7.4751778024,475
124181,223163,289626,4.5846481016,3.9864424516000003,7.4751778024,476
124335,223176,289707,4.5846481016,3.9864424516000003,7.4751778024,477
124431,223180,289696,4.5846481016,3.9864424516000003,7.4751778024,478
124226,223122,289612,4.5846481016,3.9864424516000003,7.4751778024,479
123555,222965,289521,4.5846481016,3.9864424516000003,7.4751778024,480
122871,222917,289444,4.5846481016,3.9864424516000003,7.4751778024,481
122467,222874,289509,4.5415772948,3.9014972492999997,7.542176835199999,482
122281,222862,289463,4.5415772948,3.9014972492999997,7.542176835199999,483
122184,222858,289452,4.5415772948,3.9014972492999997,7.542176835199999,484
122184,222841,289476,4.5415772948,3.9014972492999997,7.542176835199999,485
122260,222884,289519,4.5415772948,3.9014972492999997,7.542176835199999,486
122495,222894,289532,4.5415772948,3.9014972492999997,7.542176835199999,487
122572,222935,289540,4.5415772948,3.9014972492999997,7.542176835199999,488
122643,222912,289511,4.5415772948,3.9014972492999997,7.542176835199999,489
122690,222928,289532,4.5415772948,3.9014972492999997,7.542176835199999,490
122809,222928,289556,4.5415772948,3.9014972492999997,7.542176835199999,491
122905,222961,289576,4.5415772948,3.9014972492999997,7.542176835199999,492
123035,222997,289624,4.5415772948,3.9014972492999997,7.542176835199999,493
123163,222985,289587,4.5415772948,3.9014972492999997,7.542176835199999,494
123300,223045,289621,4.5415772948,3.9014972492999997,7.542176835199999,495
123448,223041,289618,4.5415772948,3.9014972492999997,7.542176835199999,496
123595,223092,289633,4.5415772948,3.9014972492999997,7.542176835199999,497
123729,223088,289665,4.5415772948,3.9014972492999997,7.542176835199999,498
123862,223125,289647,4.5415772948,3.9014972492999997,7.542176835199999,499
124016,223145,289759,4.5415772948,3.9014972492999997,7.542176835199999,500
124146,223154,289635,4.5415772948,3.9014972492999997,7.542176835199999,501
124283,223148,289724,4.5415772948,3.9014972492999997,7.542176835199999,502
124165,223112,289646,4.5415772948,3.9014972492999997,7.542176835199999,503
123602,222938,289563,4.5415772948,3.9014972492999997,7.542176835199999,504
122930,222919,289493,4.5415772948,3.9014972492999997,7.542176835199999,505
122510,222851,289488,4.5415772948,3.9014972492999997,7.542176835199999,506
122292,222848,289486,4.5415772948,3.9014972492999997,7.542176835199999,507
122217,222844,289531,4.5415772948,3.9014972492999997,7.542176835199999,508
122187,222835,289476,4.5415772948,3.9014972492999997,7.542176835199999,509
122324,222859,289527,4.5415772948,3.9014972492999997,7.542176835199999,510
122510,222855,289527,4.5415772948,3.9014972492999997,7.542176835199999,511
122641,222912,289579,4.5415772948,3.9014972492999997,7.542176835199999,512
122702,222907,289504,4.5415772948,3.9014972492999997,7.542176835199999,513
122729,222960,289574,4.5415772948,3.9014972492999997,7.542176835199999,514
122768,222937,289529,4.5415772948,3.9014972492999997,7.542176835199999,515
122856,222909,289616,4.5415772948,3.9014972492999997,7.542176835199999,516
122967,222916,289601,4.5415772948,3.9014972492999997,7.542176835199999,517
123101,222963,289602,4.5415772948,3.9014972492999997,7.542176835199999,518
123230,222985,289612,4.5415772948,3.9014972492999997,7.542176835199999,519
123352,222963,289623,4.5415772948,3.9014972492999997,7.542176835199999,520
123498,223017,289640,4.5415772948,3.9014972492999997,7.542176835199999,521
123618,223022,289641,4.5415772948,3.9014972492999997,7.542176835199999,522
123763,223055,289705,4.5415772948,3.9014972492999997,7.542176835199999,523
122671,222779,289602,4.5367916496,3.8392838617,7.5134629639999995,524
122797,222793,289635,4.5367916496,3.8392838617,7.5134629639999995,525
122947,222833,289620,4.5367916496,3.8392838617,7.5134629639999995,526
123063,222813,289631,4.5367916496,3.8392838617,7.5134629639999995,527
123193,222867,289672,4.5367916496,3.8392838617,7.5134629639999995,528
123391,222913,289729,4.5367916496,3.8392838617,7.5134629639999995,529
123519,222911,289646,4.5367916496,3.8392838617,7.5134629639999995,530
123651,222928,289641,4.5367916496,3.8392838617,7.5134629639999995,531
123790,222965,289701,4.5367916496,3.8392838617,7.5134629639999995,532
123935,223000,289710,4.5367916496,3.8392838617,7.5134629639999995,533
124079,222970,289679,4.5367916496,3.8392838617,7.5134629639999995,534
124208,222991,289758,4.5367916496,3.8392838617,7.5134629639999995,535
124382,222991,289716,4.5367916496,3.8392838617,7.5134629639999995,536
124350,222976,289727,4.5367916496,3.8392838617,7.5134629639999995,537
123891,222866,289626,4.5367916496,3.8392838617,7.5134629639999995,538
123152,222765,289516,4.5367916496,3.8392838617,7.5134629639999995,539
122622,222685,289513,4.5367916496,3.8392838617,7.5134629639999995,540
122373,222694,289496,4.5367916496,3.8392838617,7.5134629639999995,541
122250,222694,289503,4.5367916496,3.8392838617,7.5134629639999995,542
122209,222700,289510,4.5367916496,3.8392838617,7.5134629639999995,543
122318,222732,289516,4.5367916496,3.8392838617,7.5134629639999995,544
122513,222737,289540,4.5367916496,3.8392838617,7.5134629639999995,545
122667,222756,289553,4.5367916496,3.8392838617,7.5134629639999995,546
122763,222798,289569,4.5367916496,3.8392838617,7.5134629639999995,547
122790,222762,289546,4.5367916496,3.8392838617,7.5134629639999995,548
122839,222780,289542,4.5367916496,3.8392838617,7.5134629639999995,549
122904,222811,289581,4.5367916496,3.8392838617,7.5134629639999995,550
122991,222850,289677,4.5367916496,3.8392838617,7.5134629639999995,551
123122,222880,289618,4.5367916496,3.8392838617,7.5134629639999995,552
123243,222867,289603,4.5367916496,3.8392838617,7.5134629639999995,553
123379,222910,289667,4.5367916496,3.8392838617,7.5134629639999995,554
123504,222911,289708,4.5367916496,3.8392838617,7.5134629639999995,555
123606,222910,289655,4.5367916496,3.8392838617,7.5134629639999995,556
123703,222972,289661,4.5367916496,3.8392838617,7.5134629639999995,557
123841,222956,289732,4.5367916496,3.8392838617,7.5134629639999995,558
123985,222997,289680,4.5367916496,3.8392838617,7.5134629639999995,559
123964,222911,289708,4.5367916496,3.8392838617,7.5134629639999995,560
123515,222801,289594,4.5367916496,3.8392838617,7.5134629639999995,561
122813,222717,289502,4.5367916496,3.8392838617,7.5134629639999995,562
122343,222713,289504,4.5367916496,3.8392838617,7.5134629639999995,563
122133,222666,289482,4.5367916496,3.8392838617,7.5134629639999995,564
122040,222656,289498,4.5367916496,3.8392838617,7.5134629639999995,565
123057,222858,289606,4.7365923367,3.9445680561,7.53739119,566
123260,222876,289619,4.7365923367,3.9445680561,7.53739119,567
123401,222840,289621,4.7365923367,3.9445680561,7.53739119,568
123571,222897,289640,4.7365923367,3.9445680561,7.53739119,569
123744,222908,289641,4.7365923367,3.9445680561,7.53739119,570
123916,222940,289658,4.7365923367,3.9445680561,7.53739119,571
124058,222973,289710,4.7365923367,3.9445680561,7.53739119,572
124265,222955,289713,4.7365923367,3.9445680561,7.53739119,573
124389,222994,289691,4.7365923367,3.9445680561,7.53739119,574
124517,222974,289758,4.7365923367,3.9445680561,7.53739119,575
124278,222927,289608,4.7365923367,3.9445680561,7.53739119,576
123710,222844,289598,4.7365923367,3.9445680561,7.53739119,577
123209,222742,289531,4.7365923367,3.9445680561,7.53739119,578
122912,222755,289549,4.7365923367,3.9445680561,7.53739119,579
122832,222725,289494,4.7365923367,3.9445680561,7.53739119,580
122822,222757,289537,4.7365923367,3.9445680561,7.53739119,581
122891,222743,289516,4.7365923367,3.9445680561,7.53739119,582
123110,222764,289558,4.7365923367,3.9445680561,7.53739119,583
123272,222824,289553,4.7365923367,3.9445680561,7.53739119,584
123396,222832,289586,4.7365923367,3.9445680561,7.53739119,585
123494,222827,289536,4.7365923367,3.9445680561,7.53739119,586
123565,222842,289599,4.7365923367,3.9445680561,7.53739119,587
123648,222882,289557,4.7365923367,3.9445680561,7.53739119,588
123783,222892,289581,4.7365923367,3.9445680561,7.53739119,589
123922,222885,289642,4.7365923367,3.9445680561,7.53739119,590
124081,222931,289640,4.7365923367,3.9445680561,7.53739119,591
124221,222885,289620,4.7365923367,3.9445680561,7.53739119,592
124353,222941,289684,4.7365923367,3.9445680561,7.53739119,593
124508,222950,289678,4.7365923367,3.9445680561,7.53739119,594
124649,222999,289697,4.7365923367,3.9445680561,7.53739119,595
124793,223008,289719,4.7365923367,3.9445680561,7.53739119,596
124903,223023,289714,4.7365923367,3.9445680561,7.53739119,597
125078,223016,289739,4.7365923367,3.9445680561,7.53739119,598
125161,223056,289676,4.7365923367,3.9445680561,7.53739119,599
124973,222940,289633,4.7365923367,3.9445680561,7.53739119,600
124477,222857,289542,4.7365923367,3.9445680561,7.53739119,601
123939,222775,289511,4.7365923367,3.9445680561,7.53739119,602
123631,222770,289510,4.7365923367,3.9445680561,7.53739119,603
123465,222775,289513,4.7365923367,3.9445680561,7.53739119,604
123427,222777,289601,4.7365923367,3.9445680561,7.53739119,605
123479,222789,289549,4.7365923367,3.9445680561,7.53739119,606
123663,222879,289704,4.7365923367,3.9445680561,7.53739119,607
123117,222713,289403,4.6468614892,3.8572300312,7.5086773188,608
122959,222727,289390,4.6468614892,3.8572300312,7.5086773188,609
122868,222697,289412,4.6468614892,3.8572300312,7.5086773188,610
122892,222733,289458,4.6468614892,3.8572300312,7.5086773188,611
123020,222783,289496,4.6468614892,3.8572300312,7.5086773188,612
123168,222816,289459,4.6468614892,3.8572300312,7.5086773188,613
123240,222798,289472,4.6468614892,3.8572300312,7.5086773188,614
123272,222780,289491,4.6468614892,3.8572300312,7.5086773188,615
123312,222790,289509,4.6468614892,3.8572300312,7.5086773188,616
123342,222840,289548,4.6468614892,3.8572300312,7.5086773188,617
123445,222874,289528,4.6468614892,3.8572300312,7.5086773188,618
123534,222834,289565,4.6468614892,3.8572300312,7.5086773188,619
123628,222863,289577,4.6468614892,3.8572300312,7.5086773188,620
123741,222881,289550,4.6468614892,3.8572300312,7.5086773188,621
123839,222889,289560,4.6468614892,3.8572300312,7.5086773188,622
123939,222939,289608,4.6468614892,3.8572300312,7.5086773188,623
124100,222956,289605,4.6468614892,3.8572300312,7.5086773188,624
124154,222965,289589,4.6468614892,3.8572300312,7.5086773188,625
124279,222963,289661,4.6468614892,3.8572300312,7.5086773188,626
124398,222969,289650,4.6468614892,3.8572300312,7.5086773188,627
124485,222982,289636,4.6468614892,3.8572300312,7.5086773188,628
124608,222938,289639,4.6468614892,3.8572300312,7.5086773188,629
124461,222909,289603,4.6468614892,3.8572300312,7.5086773188,630
123865,222802,289487,4.6468614892,3.8572300312,7.5086773188,631
123270,222763,289458,4.6468614892,3.8572300312,7.5086773188,632
122900,222719,289405,4.6468614892,3.8572300312,7.5086773188,633
122741,222711,289392,4.6468614892,3.8572300312,7.5086773188,634
122675,222737,289486,4.6468614892,3.8572300312,7.5086773188,635
122738,222706,289459,4.6468614892,3.8572300312,7.5086773188,636
122854,222769,289508,4.6468614892,3.8572300312,7.5086773188,637
123021,222795,289504,4.6468614892,3.8572300312,7.5086773188,638
123113,222787,289547,4.6468614892,3.8572300312,7.5086773188,639
123134,222832,289529,4.6468614892,3.8572300312,7.5086773188,640
123177,222808,289560,4.6468614892,3.8572300312,7.5086773188,641
123221,222826,289505,4.6468614892,3.8572300312,7.5086773188,642
123335,222815,289576,4.6468614892,3.8572300312,7.5086773188,643
123423,222869,289537,4.6468614892,3.8572300312,7.5086773188,644
123528,222875,289547,4.6468614892,3.8572300312,7.5086773188,645
123628,222871,289566,4.6468614892,3.8572300312,7.5086773188,646
123738,222934,289604,4.6468614892,3.8572300312,7.5086773188,647
123870,222933,289582,4.6468614892,3.8572300312,7.5086773188,648
123995,222975,289652,4.6468614892,3.8572300312,7.5086773188,649
123380,222917,289565,4.5499521739,3.9672998708,7.5230342544,650
123532,222903,289590,4.5499521739,3.9672998708,7.5230342544,651
123624,222923,289626,4.5499521739,3.9672998708,7.5230342544,652
123714,222957,289612,4.5499521739,3.9672998708,7.5230342544,653
123843,222942,289594,4.5499521739,3.9672998708,7.5230342544,654
123950,222982,289577,4.5499521739,3.9672998708,7.5230342544,655
124081,223013,289655,4.5499521739,3.9672998708,7.5230342544,656
123952,222931,289579,4.5499521739,3.9672998708,7.5230342544,657
123302,222808,289519,4.5499521739,3.9672998708,7.5230342544,658
122690,222739,289444,4.5499521739,3.9672998708,7.5230342544,659
122271,222738,289419,4.5499521739,3.9672998708,7.5230342544,660
122085,222687,289372,4.5499521739,3.9672998708,7.5230342544,661
122012,222680,289388,4.5499521739,3.9672998708,7.5230342544,662
122069,222693,289413,4.5499521739,3.9672998708,7.5230342544,663
122212,222724,289454,4.5499521739,3.9672998708,7.5230342544,664
122435,222739,289431,4.5499521739,3.9672998708,7.5230342544,665
122556,222764,289481,4.5499521739,3.9672998708,7.5230342544,666
122661,222792,289469,4.5499521739,3.9672998708,7.5230342544,667
122710,222820,289472,4.5499521739,3.9672998708,7.5230342544,668
122825,222846,289556,4.5499521739,3.9672998708,7.5230342544,669
122952,222832,289512,4.5499521739,3.9672998708,7.5230342544,670
123118,222850,289528,4.5499521739,3.9672998708,7.5230342544,671
123277,222862,289549,4.5499521739,3.9672998708,7.5230342544,672
123397,222931,289618,4.5499521739,3.9672998708,7.5230342544,673
123568,222905,289582,4.5499521739,3.9672998708,7.5230342544,674
123726,222908,289543,4.5499521739,3.9672998708,7.5230342544,675
123879,222953,289567,4.5499521739,3.9672998708,7.5230342544,676
124017,222984,289598,4.5499521739,3.9672998708,7.5230342544,677
124176,223025,289624,4.5499521739,3.9672998708,7.5230342544,678
124307,223007,289689,4.5499521739,3.9672998708,7.5230342544,679
124234,222964,289590,4.5499521739,3.9672998708,7.5230342544,680
123643,222828,289492,4.5499521739,3.9672998708,7.5230342544,681
122952,222762,289466,4.5499521739,3.9672998708,7.5230342544,682
122543,222715,289413,4.5499521739,3.9672998708,7.5230342544,683
122311,222664,289445,4.5499521739,3.9672998708,7.5230342544,684
122228,222668,289440,4.5499521739,3.9672998708,7.5230342544,685
122205,222706,289432,4.5499521739,3.9672998708,7.5230342544,686
122350,222716,289463,4.5499521739,3.9672998708,7.5230342544,687
122537,222763,289543,4.5499521739,3.9672998708,7.5230342544,688
122724,222764,289446,4.5499521739,3.9672998708,7.5230342544,689
122790,222784,289490,4.5499521739,3.9672998708,7.5230342544,690
122853,222796,289520,4.5499521739,3.9672998708,7.5230342544,691
122508,222693,289585,4.6695933039,4.0941194686,7.4847490928,692
122651,222704,289594,4.6695933039,4.0941194686,7.4847490928,693
122773,222726,289600,4.6695933039,4.0941194686,7.4847490928,694
122935,222794,289645,4.6695933039,4.0941194686,7.4847490928,695
123111,222728,289617,4.6695933039,4.0941194686,7.4847490928,696
123258,222834,289655,4.6695933039,4.0941194686,7.4847490928,697
123417,222840,289712,4.6695933039,4.0941194686,7.4847490928,698
123541,222829,289686,4.6695933039,4.0941194686,7.4847490928,699
123707,222865,289685,4.6695933039,4.0941194686,7.4847490928,700
123836,222888,289702,4.6695933039,4.0941194686,7.4847490928,701
123963,222910,289712,4.6695933039,4.0941194686,7.4847490928,702
123960,222873,289682,4.6695933039,4.0941194686,7.4847490928,703
123417,222755,289552,4.6695933039,4.0941194686,7.4847490928,704
122788,222646,289545,4.6695933039,4.0941194686,7.4847490928,705
122384,222566,289527,4.6695933039,4.0941194686,7.4847490928,706
122202,222575,289498,4.6695933039,4.0941194686,7.4847490928,707
122085,222524,289493,4.6695933039,4.0941194686,7.4847490928,708
122086,222571,289531,4.6695933039,4.0941194686,7.4847490928,709
122212,222597,289560,4.6695933039,4.0941194686,7.4847490928,710
122408,222622,289506,4.6360937875,4.0618163635,7.5996045776,711
122546,222635,289580,4.6360937875,4.0618163635,7.5996045776,712
122613,222680,289590,4.6360937875,4.0618163635,7.5996045776,713
122678,222696,289600,4.6360937875,4.0618163635,7.5996045776,714
122752,222717,289607,4.6360937875,4.0618163635,7.5996045776,715
122855,222704,289576,4.6360937875,4.0618163635,7.5996045776,716
123005,222728,289636,4.6360937875,4.0618163635,7.5996045776,717
123114,222714,289638,4.6360937875,4.0618163635,7.5996045776,718
123256,222741,289666,4.6360937875,4.0618163635,7.5996045776,719
123402,222793,289728,4.6360937875,4.0618163635,7.5996045776,720
123537,222831,289709,4.6360937875,4.0618163635,7.5996045776,721
123675,222830,289692,4.6360937875,4.0618163635,7.5996045776,722
123785,222855,289674,4.6360937875,4.0618163635,7.5996045776,723
123923,222855,289729,4.6360937875,4.0618163635,7.5996045776,724
124064,222845,289754,4.6360937875,4.0618163635,7.5996045776,725
124051,222864,289684,4.6360937875,4.0618163635,7.5996045776,726
123604,222752,289672,4.6360937875,4.0618163635,7.5996045776,727
122959,222666,289541,4.6360937875,4.0618163635,7.5996045776,728
122522,222600,289538,4.6360937875,4.0618163635,7.5996045776,729
122314,222555,289544,4.6360937875,4.0618163635,7.5996045776,730
122212,222568,289523,4.6360937875,4.0618163635,7.5996045776,731
122208,222570,289536,4.6360937875,4.0618163635,7.5996045776,732
122328,222596,289554,4.6360937875,4.0618163635,7.5996045776,733
122504,222652,289576,4.6360937875,4.0618163635,7.5996045776,734
122640,222667,289602,4.6360937875,4.0618163635,7.5996045776,735
122676,222645,289573,4.6360937875,4.0618163635,7.5996045776,736
122686,222696,289583,4.6360937875,4.0618163635,7.5996045776,737
122764,222745,289567,4.6360937875,4.0618163635,7.5996045776,738
122879,222748,289606,4.6360937875,4.0618163635,7.5996045776,739
123014,222716,289612,4.6360937875,4.0618163635,7.5996045776,740
123124,222760,289592,4.6360937875,4.0618163635,7.5996045776,741
123240,222767,289645,4.6360937875,4.0618163635,7.5996045776,742
123349,222730,289646,4.6360937875,4.0618163635,7.5996045776,743
123481,222759,289715,4.6360937875,4.0618163635,7.5996045776,744
123587,222806,289624,4.6360937875,4.0618163635,7.5996045776,745
123719,222826,289724,4.6360937875,4.0618163635,7.5996045776,746
123820,222826,289701,4.6360937875,4.0618163635,7.5996045776,747
123924,222828,289715,4.6360937875,4.0618163635,7.5996045776,748
123797,222766,289614,4.6360937875,4.0618163635,7.5996045776,749
123184,222639,289523,4.6360937875,4.0618163635,7.5996045776,750
122569,222576,289502,4.6360937875,4.0618163635,7.5996045776,751
122180,222523,289463,4.6360937875,4.0618163635,7.5996045776,752
124769,222900,289761,4.7090748768,4.0378881375,7.489534738000001,753
124891,222891,289731,4.7090748768,4.0378881375,7.489534738000001,754
125027,222940,289749,4.7090748768,4.0378881375,7.489534738000001,755
125061,222928,289797,4.7090748768,4.0378881375,7.489534738000001,756
124834,222844,289625,4.7090748768,4.0378881375,7.489534738000001,757
124191,222728,289582,4.7090748768,4.0378881375,7.489534738000001,758
123639,222682,289549,4.7090748768,4.0378881375,7.489534738000001,759
123314,222627,289519,4.7090748768,4.0378881375,7.489534738000001,760
123195,222630,289539,4.7090748768,4.0378881375,7.489534738000001,761
123188,222616,289525,4.7090748768,4.0378881375,7.489534738000001,762
123240,222625,289558,4.7090748768,4.0378881375,7.489534738000001,763
123378,222695,289536,4.7090748768,4.0378881375,7.489534738000001,764
123582,222676,289558,4.7090748768,4.0378881375,7.489534738000001,765
123655,222716,289629,4.7090748768,4.0378881375,7.489534738000001,766
123682,222720,289607,4.7090748768,4.0378881375,7.489534738000001,767
123723,222676,289643,4.527220359199999,4.0151563228,7.5888368759,768
123809,222733,289612,4.527220359199999,4.0151563228,7.5888368759,769
123857,222743,289629,4.527220359199999,4.0151563228,7.5888368759,770
123991,222784,289640,4.527220359199999,4.0151563228,7.5888368759,771
124130,222805,289658,4.5738803999,4.1192441059,7.5792655855,772
124232,222847,289622,4.5738803999,4.1192441059,7.5792655855,773
124321,222818,289647,4.5738803999,4.1192441059,7.5792655855,774
124449,222843,289656,4.5738803999,4.1192441059,7.5792655855,775
124597,222823,289636,4.5738803999,4.1192441059,7.5792655855,776
124707,222894,289706,4.5738803999,4.1192441059,7.5792655855,777
124822,222902,289715,4.5738803999,4.1192441059,7.5792655855,778
124919,222890,289687,4.5738803999,4.1192441059,7.5792655855,779
124792,222839,289654,4.5738803999,4.1192441059,7.5792655855,780
124187,222771,289577,4.5738803999,4.1192441059,7.5792655855,781
123601,222625,289476,4.5738803999,4.1192441059,7.5792655855,782
123270,222594,289451,4.5738803999,4.1192441059,7.5792655855,783
123056,222560,289483,4.5738803999,4.1192441059,7.5792655855,784
122983,222571,289488,4.5738803999,4.1192441059,7.5792655855,785
123012,222568,289488,4.5738803999,4.1192441059,7.5792655855,786
123136,222640,289534,4.5738803999,4.1192441059,7.5792655855,787
123329,222642,289532,4.5738803999,4.1192441059,7.5792655855,788
123456,222657,289526,4.5738803999,4.1192441059,7.5792655855,789
123495,222659,289565,4.5738803999,4.1192441059,7.5792655855,790
123552,222655,289553,4.6037906824000006,3.9720855159999995,7.5230342544,791
123649,222698,289611,4.6037906824000006,3.9720855159999995,7.5230342544,792
123768,222717,289574,4.6037906824000006,3.9720855159999995,7.5230342544,793
123916,222750,289568,4.6037906824000006,3.9720855159999995,7.5230342544,794
124023,222746,289632,4.6037906824000006,3.9720855159999995,7.5230342544,795
124170,222764,289623,4.6037906824000006,3.9720855159999995,7.5230342544,796
124285,222781,289676,4.6037906824000006,3.9720855159999995,7.5230342544,797
124425,222856,289656,4.6037906824000006,3.9720855159999995,7.5230342544,798
124564,222848,289652,4.6037906824000006,3.9720855159999995,7.5230342544,799
124711,222872,289663,4.6037906824000006,3.9720855159999995,7.5230342544,800
124900,222815,289636,4.6037906824000006,3.9720855159999995,7.5230342544,801
124984,222857,289698,4.6037906824000006,3.9720855159999995,7.5230342544,802
124782,222814,289655,4.6037906824000006,3.9720855159999995,7.5230342544,803
124183,222694,289499,4.6037906824000006,3.9720855159999995,7.5230342544,804
123591,222623,289462,4.6037906824000006,3.9720855159999995,7.5230342544,805
123203,222585,289378,4.6037906824000006,3.9720855159999995,7.5230342544,806
123017,222560,289437,4.6037906824000006,3.9720855159999995,7.5230342544,807
122903,222579,289459,4.6037906824000006,3.9720855159999995,7.5230342544,808
122885,222571,289399,4.6037906824000006,3.9720855159999995,7.5230342544,809
123029,222577,289502,4.6037906824000006,3.9720855159999995,7.5230342544,810
123227,222601,289441,4.6037906824000006,3.9720855159999995,7.5230342544,811
123368,222647,289557,4.6037906824000006,3.9720855159999995,7.5230342544,812
123416,222643,289532,4.6037906824000006,3.9720855159999995,7.5230342544,813
123504,222643,289547,4.6037906824000006,3.9720855159999995,7.5230342544,814
123602,222676,289574,4.6037906824000006,3.9720855159999995,7.5230342544,815
123689,222719,289610,4.6037906824000006,3.9720855159999995,7.5230342544,816
123823,222753,289519,4.6037906824000006,3.9720855159999995,7.5230342544,817
123952,222738,289624,4.6037906824000006,3.9720855159999995,7.5230342544,818
124094,222735,289649,4.6037906824000006,3.9720855159999995,7.5230342544,819
124244,222822,289646,4.6037906824000006,3.9720855159999995,7.5230342544,820
124385,222829,289621,4.6037906824000006,3.9720855159999995,7.5230342544,821
124521,222815,289691,4.6037906824000006,3.9720855159999995,7.5230342544,822
124675,222832,289725,4.6037906824000006,3.9720855159999995,7.5230342544,823
124785,222920,289664,4.6037906824000006,3.9720855159999995,7.5230342544,824
124918,222864,289637,4.6037906824000006,3.9720855159999995,7.5230342544,825
125076,222894,289655,4.6037906824000006,3.9720855159999995,7.5230342544,826
125195,222929,289709,4.6037906824000006,3.9720855159999995,7.5230342544,827
125376,222941,289711,4.6037906824000006,3.9720855159999995,7.5230342544,828
125441,222974,289729,4.6037906824000006,3.9720855159999995,7.5230342544,829
125600,223013,289727,4.6037906824000006,3.9720855159999995,7.5230342544,830
125714,223001,289739,4.6037906824000006,3.9720855159999995,7.5230342544,831
125847,222973,289719,4.6037906824000006,3.9720855159999995,7.5230342544,832
125311,222931,289629,4.6552363683,3.8380874503999998,7.555337359499999,833
125436,222932,289575,4.6552363683,3.8380874503999998,7.555337359499999,834
125387,222876,289581,4.6552363683,3.8380874503999998,7.555337359499999,835
124883,222735,289537,4.6552363683,3.8380874503999998,7.555337359499999,836
124261,222650,289380,4.6552363683,3.8380874503999998,7.555337359499999,837
123846,222604,289413,4.6552363683,3.8380874503999998,7.555337359499999,838
123578,222612,289417,4.6552363683,3.8380874503999998,7.555337359499999,839
123453,222580,289394,4.6552363683,3.8380874503999998,7.555337359499999,840
123479,222610,289415,4.6552363683,3.8380874503999998,7.555337359499999,841
123560,222636,289376,4.6552363683,3.8380874503999998,7.555337359499999,842
123737,222641,289444,4.6552363683,3.8380874503999998,7.555337359499999,843
123872,222688,289435,4.6552363683,3.8380874503999998,7.555337359499999,844
123919,222664,289422,4.6552363683,3.8380874503999998,7.555337359499999,845
123973,222688,289456,4.6552363683,3.8380874503999998,7.555337359499999,846
124026,222703,289456,4.6552363683,3.8380874503999998,7.555337359499999,847
124117,222676,289478,4.5523449965,3.9912280968,7.5792655855,848
124250,222746,289506,4.5523449965,3.9912280968,7.5792655855,849
124349,222766,289526,4.5523449965,3.9912280968,7.5792655855,850
124475,222760,289531,4.5523449965,3.9912280968,7.5792655855,851
124627,222780,289554,4.6468614892,4.0390845488,7.633104094,852
124767,222844,289542,4.6169512067000005,3.9613178143,7.4847490928,853
124890,222857,289556,4.589433746799999,3.9577285803999995,7.4943203832,854
125031,222879,289534,4.6695933039,3.8201412809,7.5984081663000005,855
125149,222891,289624,4.5355952383,3.9385859996,7.5326055448,856
125318,222863,289621,4.5750768112,4.0295132584,7.5314091335,857
125435,222899,289620,4.5798624564,4.0893338234,7.5469624804,858
125396,222854,289560,4.5367916496,3.9338003543999998,7.465606512,859
124995,222733,289483,4.522434714,3.9768711611999996,7.4560352216,860
124340,222642,289408,4.7461636271,4.0007993872,7.5661050612,861
123837,222604,289364,4.5846481016,3.9003008379999997,7.4799634476,862
123551,222567,289353,4.6133619728,4.001995798499999,7.446463931199999,863
123410,222567,289317,4.6887358847,4.0055850324,7.5804619967999995,864
123333,222556,289391,4.6887358847,3.9529429352,7.5182486092000005,865
123387,222562,289376,4.5786660451,4.0761732991,7.4811598589,866
123503,222626,289381,4.6695933039,4.0570307183,7.5948189324,867
123640,222641,289417,4.5332024157,4.0570307183,7.5134629639999995,868
123799,222635,289444,4.6695933039,3.9003008379999997,7.5756763516,869
123816,222652,289450,4.5846481016,3.9433716447999996,7.505088084900001,870
123892,222668,289470,4.6085763276,3.9050864832,7.5326055448,871
123959,222676,289475,4.5367916496,3.9816568063999997,7.5230342544,872
124022,222695,289495,4.7162533446,3.9062828945,7.6558359087,873
124135,222764,289451,4.560719875599999,4.0007993872,7.457231632899999,874
124300,222768,289463,4.5846481016,3.8201412809,7.5469624804,875
124423,222795,289567,4.642075844,4.06779842,7.4524459877,876
124567,222794,289497,4.4697926167999995,4.0187455567,7.556533770800001,877
124675,222793,289490,4.589433746799999,3.9661034595,7.4943203832,878
124793,222821,289545,4.7653062079,3.9625142255999997,7.4620172781,879
124954,222829,289580,4.7270210463,3.8560336199000003,7.4847490928,880
125083,222822,289591,4.4997028993,4.0007993872,7.4333034069,881
125231,222888,289572,4.6073799163,3.9290147091999996,7.6319076827,882
125070,222810,289531,4.5379880609,3.9756747499,7.5182486092000005,883
124542,222671,289451,4.7653062079,3.9625142255999997,7.5326055448,884
123887,222629,289418,4.5810588676999995,4.1192441059,7.5804619967999995,885
123421,222508,289349,4.6600220135,4.0845481781999995,7.53739119,886
123195,222515,289342,4.4841495524,4.0235312019,7.5649086499,887
123058,222533,289343,4.5990050372,3.8668013215999997,7.5517481256,888
123065,222565,289329,4.6085763276,3.9050864832,7.460820866800001,889
123117,222556,289375,4.4709890281,3.8141592244,7.4560352216,890
123335,222597,289398,4.6516471344,3.9529429352,7.7072815945999995,891
123469,222630,289433,4.6456650779,3.9003008379999997,7.6175507471,892
123535,222622,289453,4.6456650779,3.9003008379999997,7.6175507471,893
123571,222633,289451,4.6456650779,3.9003008379999997,7.6175507471,894
123646,222629,289501,4.6456650779,3.9003008379999997,7.6175507471,895
123754,222677,289504,4.6456650779,3.9003008379999997,7.6175507471,896
123851,222707,289475,4.6456650779,3.9003008379999997,7.6175507471,897
123988,222710,289535,4.6456650779,3.9003008379999997,7.6175507471,898
124115,222724,289512,4.6456650779,3.9003008379999997,7.6175507471,899
124261,222749,289564,4.6456650779,3.9003008379999997,7.6175507471,900
124352,222769,289569,4.6456650779,3.9003008379999997,7.6175507471,901
124496,222807,289564,4.6456650779,3.9003008379999997,7.6175507471,902
124617,222827,289619,4.6456650779,3.9003008379999997,7.6175507471,903
124763,222830,289606,4.6456650779,3.9003008379999997,7.6175507471,904
124874,222830,289571,4.6456650779,3.9003008379999997,7.6175507471,905
124973,222864,289650,4.6456650779,3.9003008379999997,7.6175507471,906
125081,222870,289589,4.6456650779,3.9003008379999997,7.6175507471,907
125183,222883,289629,4.6456650779,3.9003008379999997,7.6175507471,908
125284,222909,289657,4.6456650779,3.9003008379999997,7.6175507471,909
125399,222897,289628,4.6456650779,3.9003008379999997,7.6175507471,910
125496,222961,289589,4.6456650779,3.9003008379999997,7.6175507471,911
125324,222888,289623,4.6456650779,3.9003008379999997,7.6175507471,912
124758,222714,289484,4.6456650779,3.9003008379999997,7.6175507471,913
124078,222647,289423,4.6456650779,3.9003008379999997,7.6175507471,914
123623,222578,289380,4.6456650779,3.9003008379999997,7.6175507471,915
123354,222607,289382,4.6456650779,3.9003008379999997,7.6175507471,916
123247,222570,289362,4.6456650779,3.9003008379999997,7.6175507471,917
123219,222567,289374,4.6456650779,3.9003008379999997,7.6175507471,918
123331,222597,289453,4.6456650779,3.9003008379999997,7.6175507471,919
123470,222624,289445,4.6456650779,3.9003008379999997,7.6175507471,920
123576,222676,289450,4.6456650779,3.9003008379999997,7.6175507471,921
123612,222639,289443,4.6456650779,3.9003008379999997,7.6175507471,922
123591,222631,289457,4.6456650779,3.9003008379999997,7.6175507471,923
123649,222661,289458,4.6456650779,3.9003008379999997,7.6175507471,924
123688,222695,289483,4.6456650779,3.9003008379999997,7.6175507471,925
123777,222705,289477,4.6456650779,3.9003008379999997,7.6175507471,926
123875,222752,289463,4.6456650779,3.9003008379999997,7.6175507471,927
123977,222725,289494,4.6456650779,3.9003008379999997,7.6175507471,928
124054,222793,289575,4.6456650779,3.9003008379999997,7.6175507471,929
124157,222797,289568,4.6456650779,3.9003008379999997,7.6175507471,930
124305,222794,289530,4.6456650779,3.9003008379999997,7.6175507471,931
124374,222753,289555,4.6456650779,3.9003008379999997,7.6175507471,932
124469,222825,289585,4.6456650779,3.9003008379999997,7.6175507471,933
122515,222517,289428,4.5655055207999995,3.8572300312,7.5134629639999995,934
122591,222551,289375,4.5655055207999995,3.8572300312,7.5134629639999995,935
122730,222567,289355,4.5655055207999995,3.8572300312,7.5134629639999995,936
122880,222614,289433,4.5655055207999995,3.8572300312,7.5134629639999995,937
122966,222574,289404,4.5655055207999995,3.8572300312,7.5134629639999995,938
122987,222621,289414,4.5655055207999995,3.8572300312,7.5134629639999995,939
123044,222641,289497,4.5655055207999995,3.8572300312,7.5134629639999995,940
123124,222638,289475,4.5655055207999995,3.8572300312,7.5134629639999995,941
123236,222665,289440,4.5655055207999995,3.8572300312,7.5134629639999995,942
123360,222661,289457,4.5655055207999995,3.8572300312,7.5134629639999995,943
123485,222681,289509,4.5655055207999995,3.8572300312,7.5134629639999995,944
123599,222726,289503,4.5655055207999995,3.8572300312,7.5134629639999995,945
123745,222712,289525,4.5655055207999995,3.8572300312,7.5134629639999995,946
123881,222769,289505,4.5655055207999995,3.8572300312,7.5134629639999995,947
124002,222784,289516,4.5655055207999995,3.8572300312,7.5134629639999995,948
124158,222811,289595,4.5655055207999995,3.8572300312,7.5134629639999995,949
124281,222834,289610,4.5655055207999995,3.8572300312,7.5134629639999995,950
124414,222839,289588,4.5655055207999995,3.8572300312,7.5134629639999995,951
124509,222858,289662,4.5655055207999995,3.8572300312,7.5134629639999995,952
124374,222775,289538,4.5690947547,3.8428730956,7.6043902228,953
123709,222679,289441,4.5690947547,3.8428730956,7.6043902228,954
122974,222556,289354,4.5690947547,3.8428730956,7.6043902228,955
122547,222500,289370,4.5690947547,3.8428730956,7.6043902228,956
122266,222482,289320,4.5690947547,3.8428730956,7.6043902228,957
122118,222436,289353,4.5690947547,3.8428730956,7.6043902228,958
122102,222479,289382,4.5690947547,3.8428730956,7.6043902228,959
122187,222506,289431,4.5690947547,3.8428730956,7.6043902228,960
122401,222537,289384,4.5690947547,3.8428730956,7.6043902228,961
122535,222548,289432,4.5690947547,3.8428730956,7.6043902228,962
122613,222569,289472,4.5690947547,3.8428730956,7.6043902228,963
122666,222609,289469,4.5690947547,3.8428730956,7.6043902228,964
122758,222573,289491,4.5690947547,3.8428730956,7.6043902228,965
122862,222626,289498,4.5690947547,3.8428730956,7.6043902228,966
122976,222645,289516,4.5690947547,3.8428730956,7.6043902228,967
123110,222685,289525,4.5690947547,3.8428730956,7.6043902228,968
123275,222697,289492,4.5690947547,3.8428730956,7.6043902228,969
123406,222691,289549,4.5690947547,3.8428730956,7.6043902228,970
123528,222690,289586,4.5690947547,3.8428730956,7.6043902228,971
123701,222748,289629,4.5690947547,3.8428730956,7.6043902228,972
123820,222776,289610,4.5690947547,3.8428730956,7.6043902228,973
123964,222776,289597,4.5690947547,3.8428730956,7.6043902228,974
124113,222785,289652,4.5690947547,3.8428730956,7.6043902228,975
124247,222820,289598,4.5690947547,3.8428730956,7.6043902228,976
124364,222829,289642,4.5690947547,3.8428730956,7.6043902228,977
124499,222849,289646,4.5690947547,3.8428730956,7.6043902228,978
124615,222849,289643,4.5690947547,3.8428730956,7.6043902228,979
124431,222793,289620,4.5690947547,3.8428730956,7.6043902228,980
123743,222665,289518,4.5690947547,3.8428730956,7.6043902228,981
123089,222568,289413,4.5690947547,3.8428730956,7.6043902228,982
122652,222510,289412,4.5690947547,3.8428730956,7.6043902228,983
122430,222548,289409,4.5690947547,3.8428730956,7.6043902228,984
122344,222476,289401,4.5690947547,3.8428730956,7.6043902228,985
122342,222523,289463,4.5690947547,3.8428730956,7.6043902228,986
122487,222539,289432,4.5690947547,3.8428730956,7.6043902228,987
122664,222595,289471,4.5690947547,3.8428730956,7.6043902228,988
122860,222632,289479,4.5690947547,3.8428730956,7.6043902228,989
122900,222622,289490,4.5690947547,3.8428730956,7.6043902228,990
122966,222618,289493,4.5690947547,3.8428730956,7.6043902228,991
123063,222652,289537,4.5690947547,3.8428730956,7.6043902228,992
123168,222661,289560,4.5690947547,3.8428730956,7.6043902228,993
123288,222695,289597,4.5690947547,3.8428730956,7.6043902228,994
122592,222523,289530,4.6085763276,4.0426737827,7.637889739199999,995
122686,222550,289612,4.6085763276,4.0426737827,7.637889739199999,996
122829,222580,289545,4.6085763276,4.0426737827,7.637889739199999,997
122946,222586,289562,4.6085763276,4.0426737827,7.637889739199999,998
123077,222634,289576,4.6085763276,4.0426737827,7.637889739199999,999
123252,222666,289630,4.6085763276,4.0426737827,7.637889739199999,1000
123389,222702,289617,4.6085763276,4.0426737827,7.637889739199999,1001
123559,222703,289631,4.6085763276,4.0426737827,7.637889739199999,1002
123664,222720,289668,4.6085763276,4.0426737827,7.637889739199999,1003
123843,222740,289653,4.6085763276,4.0426737827,7.637889739199999,1004
123970,222751,289679,4.6085763276,4.0426737827,7.637889739199999,1005
124147,222858,289712,4.6085763276,4.0426737827,7.637889739199999,1006
124241,222827,289691,4.6085763276,4.0426737827,7.637889739199999,1007
124152,222743,289678,4.6085763276,4.0426737827,7.637889739199999,1008
123534,222596,289562,4.6085763276,4.0426737827,7.637889739199999,1009
122790,222516,289525,4.6085763276,4.0426737827,7.637889739199999,1010
122307,222452,289445,4.6085763276,4.0426737827,7.637889739199999,1011
122070,222444,289447,4.6085763276,4.0426737827,7.637889739199999,1012
121944,222428,289417,4.6085763276,4.0426737827,7.637889739199999,1013
121947,222411,289451,4.6085763276,4.0426737827,7.637889739199999,1014
122023,222472,289495,4.6085763276,4.0426737827,7.637889739199999,1015
122278,222471,289520,4.6085763276,4.0426737827,7.637889739199999,1016
122440,222547,289587,4.6085763276,4.0426737827,7.637889739199999,1017
122515,222537,289542,4.6085763276,4.0426737827,7.637889739199999,1018
122565,222568,289543,4.6085763276,4.0426737827,7.637889739199999,1019
122664,222558,289581,4.6085763276,4.0426737827,7.637889739199999,1020
122779,222562,289602,4.6085763276,4.0426737827,7.637889739199999,1021
122905,222610,289651,4.6085763276,4.0426737827,7.637889739199999,1022
123016,222624,289590,4.6085763276,4.0426737827,7.637889739199999,1023
123134,222629,289652,4.6085763276,4.0426737827,7.637889739199999,1024
123288,222657,289663,4.6085763276,4.0426737827,7.637889739199999,1025
123435,222669,289660,4.6085763276,4.0426737827,7.637889739199999,1026
123593,222718,289649,4.6085763276,4.0426737827,7.637889739199999,1027
123695,222730,289693,4.6085763276,4.0426737827,7.637889739199999,1028
123800,222754,289659,4.6085763276,4.0426737827,7.637889739199999,1029
123949,222765,289678,4.6085763276,4.0426737827,7.637889739199999,1030
124034,222787,289742,4.6085763276,4.0426737827,7.637889739199999,1031
124192,222835,289710,4.6085763276,4.0426737827,7.637889739199999,1032
124271,222808,289687,4.6085763276,4.0426737827,7.637889739199999,1033
124152,222733,289687,4.6085763276,4.0426737827,7.637889739199999,1034
123535,222605,289606,4.6085763276,4.0426737827,7.637889739199999,1035
122837,222503,289519,4.6085763276,4.0426737827,7.637889739199999,1036
125690,222685,289443,4.6660040700000005,3.8727833781,7.4931239719,1037
125397,222702,289440,4.6660040700000005,3.8727833781,7.4931239719,1038
125270,222696,289452,4.6660040700000005,3.8727833781,7.4931239719,1039
125221,222677,289437,4.6660040700000005,3.8727833781,7.4931239719,1040
125284,222713,289515,4.6660040700000005,3.8727833781,7.4931239719,1041
125382,222766,289559,4.6660040700000005,3.8727833781,7.4931239719,1042
125484,222774,289530,4.6660040700000005,3.8727833781,7.4931239719,1043
125519,222753,289588,4.6660040700000005,3.8727833781,7.4931239719,1044
125492,222769,289529,4.6660040700000005,3.8727833781,7.4931239719,1045
125515,222794,289579,4.6660040700000005,3.8727833781,7.4931239719,1046
125575,222757,289555,4.6660040700000005,3.8727833781,7.4931239719,1047
125639,222785,289560,4.6660040700000005,3.8727833781,7.4931239719,1048
125697,222831,289604,4.6660040700000005,3.8727833781,7.4931239719,1049
125820,222855,289586,4.6660040700000005,3.8727833781,7.4931239719,1050
125874,222893,289590,4.6660040700000005,3.8727833781,7.4931239719,1051
125970,222875,289633,4.6660040700000005,3.8727833781,7.4931239719,1052
126072,222895,289638,4.6660040700000005,3.8727833781,7.4931239719,1053
126183,222927,289602,4.6660040700000005,3.8727833781,7.4931239719,1054
126273,222929,289630,4.6660040700000005,3.8727833781,7.4931239719,1055
126347,222900,289631,4.6660040700000005,3.8727833781,7.4931239719,1056
126156,222869,289555,4.6660040700000005,3.8727833781,7.4931239719,1057
125573,222743,289514,4.6660040700000005,3.8727833781,7.4931239719,1058
124982,222664,289421,4.6660040700000005,3.8727833781,7.4931239719,1059
124574,222630,289417,4.6660040700000005,3.8727833781,7.4931239719,1060
124370,222600,289388,4.6660040700000005,3.8727833781,7.4931239719,1061
124245,222648,289445,4.6660040700000005,3.8727833781,7.4931239719,1062
124250,222646,289431,4.6660040700000005,3.8727833781,7.4931239719,1063
124360,222663,289510,4.6660040700000005,3.8727833781,7.4931239719,1064
124506,222715,289516,4.6660040700000005,3.8727833781,7.4931239719,1065
124594,222722,289447,4.6660040700000005,3.8727833781,7.4931239719,1066
124632,222721,289524,4.6660040700000005,3.8727833781,7.4931239719,1067
124652,222741,289520,4.6660040700000005,3.8727833781,7.4931239719,1068
124688,222825,289523,4.6660040700000005,3.8727833781,7.4931239719,1069
124794,222763,289521,4.6660040700000005,3.8727833781,7.4931239719,1070
124902,222782,289526,4.6660040700000005,3.8727833781,7.4931239719,1071
125010,222794,289595,4.6660040700000005,3.8727833781,7.4931239719,1072
125136,222856,289555,4.6660040700000005,3.8727833781,7.4931239719,1073
125219,222883,289599,4.6660040700000005,3.8727833781,7.4931239719,1074
125373,222874,289637,4.6660040700000005,3.8727833781,7.4931239719,1075
125490,222869,289621,4.6660040700000005,3.8727833781,7.4931239719,1076
125606,222934,289592,4.6660040700000005,3.8727833781,7.4931239719,1077
125722,222919,289651,4.6660040700000005,3.8727833781,7.4931239719,1078
123154,222758,289608,4.5655055207999995,3.9003008379999997,7.4715885685,1079
123179,222775,289640,4.5655055207999995,3.9003008379999997,7.4715885685,1080
123249,222807,289597,4.5655055207999995,3.9003008379999997,7.4715885685,1081
123343,222809,289644,4.5655055207999995,3.9003008379999997,7.4715885685,1082
123438,222783,289611,4.5655055207999995,3.9003008379999997,7.4715885685,1083
123581,222831,289669,4.5655055207999995,3.9003008379999997,7.4715885685,1084
123681,222850,289670,4.5655055207999995,3.9003008379999997,7.4715885685,1085
123807,222868,289657,4.5655055207999995,3.9003008379999997,7.4715885685,1086
123927,222873,289653,4.5655055207999995,3.9003008379999997,7.4715885685,1087
124000,222925,289674,4.5655055207999995,3.9003008379999997,7.4715885685,1088
124145,222927,289643,4.5655055207999995,3.9003008379999997,7.4715885685,1089
124277,222899,289707,4.5655055207999995,3.9003008379999997,7.4715885685,1090
124116,222883,289643,4.5655055207999995,3.9003008379999997,7.4715885685,1091
123488,222765,289595,4.5655055207999995,3.9003008379999997,7.4715885685,1092
122907,222678,289470,4.5655055207999995,3.9003008379999997,7.4715885685,1093
122521,222623,289525,4.5655055207999995,3.9003008379999997,7.4715885685,1094
122366,222632,289489,4.5655055207999995,3.9003008379999997,7.4715885685,1095
122306,222622,289472,4.5655055207999995,3.9003008379999997,7.4715885685,1096
122350,222662,289447,4.5655055207999995,3.9003008379999997,7.4715885685,1097
122501,222688,289505,4.5655055207999995,3.9003008379999997,7.4715885685,1098
122703,222687,289500,4.5655055207999995,3.9003008379999997,7.4715885685,1099
122820,222751,289576,4.5655055207999995,3.9003008379999997,7.4715885685,1100
122908,222716,289572,4.5655055207999995,3.9003008379999997,7.4715885685,1101
122981,222737,289557,4.5655055207999995,3.9003008379999997,7.4715885685,1102
123089,222772,289550,4.5655055207999995,3.9003008379999997,7.4715885685,1103
123195,222803,289580,4.5655055207999995,3.9003008379999997,7.4715885685,1104
123340,222810,289628,4.5655055207999995,3.9003008379999997,7.4715885685,1105
123458,222833,289608,4.5655055207999995,3.9003008379999997,7.4715885685,1106
123618,222834,289665,4.5655055207999995,3.9003008379999997,7.4715885685,1107
123776,222856,289639,4.5655055207999995,3.9003008379999997,7.4715885685,1108
123913,222889,289613,4.5655055207999995,3.9003008379999997,7.4715885685,1109
124083,222899,289703,4.5655055207999995,3.9003008379999997,7.4715885685,1110
124206,222934,289658,4.5655055207999995,3.9003008379999997,7.4715885685,1111
124358,222957,289720,4.5655055207999995,3.9003008379999997,7.4715885685,1112
124487,222987,289696,4.5655055207999995,3.9003008379999997,7.4715885685,1113
124622,222963,289745,4.5655055207999995,3.9003008379999997,7.4715885685,1114
124553,222943,289672,4.5655055207999995,3.9003008379999997,7.4715885685,1115
123984,222847,289559,4.5655055207999995,3.9003008379999997,7.4715885685,1116
123314,222702,289476,4.5655055207999995,3.9003008379999997,7.4715885685,1117
122861,222689,289512,4.5655055207999995,3.9003008379999997,7.4715885685,1118
122640,222647,289473,4.5655055207999995,3.9003008379999997,7.4715885685,1119
122525,222666,289491,4.5655055207999995,3.9003008379999997,7.4715885685,1120
123590,222757,289578,4.642075844,3.9768711611999996,7.622336392299999,1121
122871,222647,289555,4.642075844,3.9768711611999996,7.622336392299999,1122
122304,222633,289437,4.642075844,3.9768711611999996,7.622336392299999,1123
121978,222526,289485,4.642075844,3.9768711611999996,7.622336392299999,1124
121798,222500,289454,4.642075844,3.9768711611999996,7.622336392299999,1125
121685,222464,289455,4.642075844,3.9768711611999996,7.622336392299999,1126
121758,222498,289490,4.642075844,3.9768711611999996,7.622336392299999,1127
121934,222547,289547,4.642075844,3.9768711611999996,7.622336392299999,1128
122102,222550,289527,4.642075844,3.9768711611999996,7.622336392299999,1129
122260,222585,289525,4.642075844,3.9768711611999996,7.622336392299999,1130
122333,222583,289473,4.642075844,3.9768711611999996,7.622336392299999,1131
122343,222644,289538,4.642075844,3.9768711611999996,7.622336392299999,1132
122480,222634,289583,4.642075844,3.9768711611999996,7.622336392299999,1133
122596,222651,289626,4.642075844,3.9768711611999996,7.622336392299999,1134
122755,222680,289587,4.642075844,3.9768711611999996,7.622336392299999,1135
122887,222679,289603,4.642075844,3.9768711611999996,7.622336392299999,1136
123029,222722,289630,4.642075844,3.9768711611999996,7.622336392299999,1137
123157,222724,289644,4.642075844,3.9768711611999996,7.622336392299999,1138
123294,222737,289655,4.642075844,3.9768711611999996,7.622336392299999,1139
123432,222790,289701,4.642075844,3.9768711611999996,7.622336392299999,1140
123619,222851,289681,4.642075844,3.9768711611999996,7.622336392299999,1141
123758,222795,289685,4.7210389898,4.001995798499999,7.5278198996,1142
123626,222778,289579,4.7210389898,4.001995798499999,7.5278198996,1143
123022,222635,289512,4.7210389898,4.001995798499999,7.5278198996,1144
122376,222522,289506,4.7210389898,4.001995798499999,7.5278198996,1145
122004,222456,289406,4.6552363683,3.8105699905,7.5601230047,1146
121794,222440,289411,4.6552363683,3.8105699905,7.5601230047,1147
121696,222463,289404,4.6552363683,3.8105699905,7.5601230047,1148
121727,222435,289462,4.6552363683,3.8105699905,7.5601230047,1149
121866,222494,289484,4.6552363683,3.8105699905,7.5601230047,1150
122062,222545,289514,4.6552363683,3.8105699905,7.5601230047,1151
122188,222558,289556,4.6552363683,3.8105699905,7.5601230047,1152
122234,222529,289497,4.6552363683,3.8105699905,7.5601230047,1153
122296,222593,289569,4.6552363683,3.8105699905,7.5601230047,1154
122368,222539,289535,4.6552363683,3.8105699905,7.5601230047,1155
122487,222607,289558,4.6552363683,3.8105699905,7.5601230047,1156
122595,222606,289583,4.6552363683,3.8105699905,7.5601230047,1157
122704,222643,289577,4.6552363683,3.8105699905,7.5601230047,1158
122867,222649,289590,4.6552363683,3.8105699905,7.5601230047,1159
122978,222682,289627,4.6552363683,3.8105699905,7.5601230047,1160
123107,222696,289636,4.6552363683,3.8105699905,7.5601230047,1161
123219,222730,289651,4.6552363683,3.8105699905,7.5601230047,1162
123373,222720,289669,4.6552363683,3.8105699905,7.5601230047,1163
123463,222724,289619,4.6552363683,3.8105699905,7.5601230047,1164
123147,222639,289566,4.6552363683,3.8105699905,7.5601230047,1165
122522,222515,289511,4.6552363683,3.8105699905,7.5601230047,1166
121988,222421,289458,4.6552363683,3.8105699905,7.5601230047,1167
121695,222402,289450,4.6552363683,3.8105699905,7.5601230047,1168
121534,222391,289432,4.6552363683,3.8105699905,7.5601230047,1169
121504,222359,289435,4.6552363683,3.8105699905,7.5601230047,1170
121596,222420,289496,4.6552363683,3.8105699905,7.5601230047,1171
121786,222450,289490,4.6552363683,3.8105699905,7.5601230047,1172
121949,222497,289466,4.6552363683,3.8105699905,7.5601230047,1173
122065,222490,289542,4.6552363683,3.8105699905,7.5601230047,1174
122084,222513,289522,4.6552363683,3.8105699905,7.5601230047,1175
122159,222493,289485,4.6552363683,3.8105699905,7.5601230047,1176
122232,222546,289505,4.6552363683,3.8105699905,7.5601230047,1177
122367,222571,289493,4.6552363683,3.8105699905,7.5601230047,1178
122476,222516,289521,4.6552363683,3.8105699905,7.5601230047,1179
122620,222615,289577,4.6552363683,3.8105699905,7.5601230047,1180
122730,222604,289601,4.6552363683,3.8105699905,7.5601230047,1181
122885,222586,289602,4.6552363683,3.8105699905,7.5601230047,1182
122987,222599,289614,4.6552363683,3.8105699905,7.5601230047,1183
123129,222669,289627,4.6552363683,3.8105699905,7.5601230047,1184
123198,222657,289611,4.6552363683,3.8105699905,7.5601230047,1185
122842,222564,289491,4.6552363683,3.8105699905,7.5601230047,1186
122176,222434,289432,4.6552363683,3.8105699905,7.5601230047,1187
123596,222601,289617,4.6731825378,3.924229064,7.4847490928,1188
123740,222675,289682,4.6731825378,3.924229064,7.4847490928,1189
123893,222687,289653,4.6731825378,3.924229064,7.4847490928,1190
123910,222659,289669,4.6731825378,3.924229064,7.4847490928,1191
123539,222588,289579,4.6731825378,3.924229064,7.4847490928,1192
122869,222445,289463,4.6731825378,3.924229064,7.4847490928,1193
122368,222401,289428,4.6731825378,3.924229064,7.4847490928,1194
122106,222392,289402,4.6731825378,3.924229064,7.4847490928,1195
121953,222386,289452,4.6731825378,3.924229064,7.4847490928,1196
121950,222350,289395,4.6731825378,3.924229064,7.4847490928,1197
122073,222430,289383,4.6731825378,3.924229064,7.4847490928,1198
122210,222431,289415,4.6731825378,3.924229064,7.4847490928,1199
122408,222466,289462,4.6731825378,3.924229064,7.4847490928,1200
122487,222483,289515,4.6731825378,3.924229064,7.4847490928,1201
122556,222475,289486,4.6731825378,3.924229064,7.4847490928,1202
122649,222523,289521,4.4889351976,3.9338003543999998,7.5230342544,1203
122706,222492,289507,4.4889351976,3.9338003543999998,7.5230342544,1204
122830,222540,289566,4.4889351976,3.9338003543999998,7.5230342544,1205
122965,222513,289559,4.4889351976,3.9338003543999998,7.5230342544,1206
123108,222558,289580,4.4949172541,3.8620156764,7.4943203832,1207
123205,222583,289573,4.4949172541,3.8620156764,7.4943203832,1208
123325,222612,289548,4.5954158033,4.0151563228,7.5326055448,1209
123436,222594,289576,4.5080777784,4.0235312019,7.5984081663000005,1210
123575,222680,289587,4.5559342304,3.9050864832,7.489534738000001,1211
123726,222635,289648,4.5559342304,3.9050864832,7.489534738000001,1212
123864,222659,289607,4.5559342304,3.9050864832,7.489534738000001,1213
123931,222674,289611,4.5559342304,3.9050864832,7.489534738000001,1214
123622,222581,289546,4.5559342304,3.9050864832,7.489534738000001,1215
122996,222457,289499,4.5559342304,3.9050864832,7.489534738000001,1216
122524,222400,289435,4.5559342304,3.9050864832,7.489534738000001,1217
122261,222372,289408,4.5559342304,3.9050864832,7.489534738000001,1218
122159,222344,289351,4.5559342304,3.9050864832,7.489534738000001,1219
122154,222370,289373,4.5559342304,3.9050864832,7.489534738000001,1220
122244,222411,289431,4.5559342304,3.9050864832,7.489534738000001,1221
122411,222433,289484,4.5559342304,3.9050864832,7.489534738000001,1222
122557,222468,289497,4.5559342304,3.9050864832,7.489534738000001,1223
122634,222485,289510,4.5559342304,3.9050864832,7.489534738000001,1224
122683,222495,289527,4.5559342304,3.9050864832,7.489534738000001,1225
122736,222533,289519,4.5559342304,3.9050864832,7.489534738000001,1226
122805,222528,289530,4.5559342304,3.9050864832,7.489534738000001,1227
122879,222484,289605,4.5559342304,3.9050864832,7.489534738000001,1228
123009,222553,289507,4.5559342304,3.9050864832,7.489534738000001,1229
123137,222564,289587,4.5559342304,3.9050864832,7.489534738000001,1230
123254,222575,289553,4.5559342304,3.9050864832,7.489534738000001,1231
123366,222602,289563,4.5559342304,3.9050864832,7.489534738000001,1232
123504,222651,289607,4.5559342304,3.9050864832,7.489534738000001,1233
123634,222595,289603,4.5559342304,3.9050864832,7.489534738000001,1234
123751,222614,289610,4.5559342304,3.9050864832,7.489534738000001,1235
123894,222661,289610,4.5559342304,3.9050864832,7.489534738000001,1236
124011,222653,289639,4.5559342304,3.9050864832,7.489534738000001,1237
123930,222656,289595,4.5559342304,3.9050864832,7.489534738000001,1238
123387,222517,289478,4.5559342304,3.9050864832,7.489534738000001,1239
122734,222410,289406,4.5559342304,3.9050864832,7.489534738000001,1240
122329,222391,289410,4.5559342304,3.9050864832,7.489534738000001,1241
122113,222387,289411,4.5559342304,3.9050864832,7.489534738000001,1242
121993,222372,289319,4.5559342304,3.9050864832,7.489534738000001,1243
122028,222397,289389,4.5559342304,3.9050864832,7.489534738000001,1244
122156,222414,289431,4.5559342304,3.9050864832,7.489534738000001,1245
122378,222444,289442,4.5559342304,3.9050864832,7.489534738000001,1246
122469,222459,289448,4.5559342304,3.9050864832,7.489534738000001,1247
122564,222463,289452,4.5559342304,3.9050864832,7.489534738000001,1248
122633,222460,289459,4.5559342304,3.9050864832,7.489534738000001,1249
122701,222507,289492,4.5559342304,3.9050864832,7.489534738000001,1250
122828,222515,289484,4.5559342304,3.9050864832,7.489534738000001,1251
122958,222520,289532,4.5559342304,3.9050864832,7.489534738000001,1252
123491,222448,289371,4.6085763276,3.9816568063999997,7.53739119,1253
123477,222442,289380,4.6085763276,3.9816568063999997,7.53739119,1254
123513,222466,289404,4.6085763276,3.9816568063999997,7.53739119,1255
123632,222539,289389,4.6085763276,3.9816568063999997,7.53739119,1256
123825,222510,289419,4.6085763276,3.9816568063999997,7.53739119,1257
123961,222553,289405,4.6085763276,3.9816568063999997,7.53739119,1258
124016,222529,289446,4.6085763276,3.9816568063999997,7.53739119,1259
124095,222569,289434,4.6085763276,3.9816568063999997,7.53739119,1260
124159,222562,289440,4.6085763276,3.9816568063999997,7.53739119,1261
124281,222601,289482,4.6085763276,3.9816568063999997,7.53739119,1262
124405,222608,289501,4.6085763276,3.9816568063999997,7.53739119,1263
124514,222615,289486,4.6085763276,3.9816568063999997,7.53739119,1264
124644,222633,289485,4.6085763276,3.9816568063999997,7.53739119,1265
124790,222691,289499,4.6085763276,3.9816568063999997,7.53739119,1266
124912,222674,289504,4.6085763276,3.9816568063999997,7.53739119,1267
125080,222728,289499,4.6085763276,3.9816568063999997,7.53739119,1268
125216,222722,289594,4.6085763276,3.9816568063999997,7.53739119,1269
125376,222723,289559,4.6085763276,3.9816568063999997,7.53739119,1270
125470,222760,289575,4.6085763276,3.9816568063999997,7.53739119,1271
125150,222620,289471,4.6085763276,3.9816568063999997,7.53739119,1272
124617,222525,289413,4.5427737061,4.0007993872,7.3854469549,1273
124077,222444,289341,4.5427737061,4.0007993872,7.3854469549,1274
123750,222468,289295,4.5427737061,4.0007993872,7.3854469549,1275
123588,222434,289360,4.6169512067000005,4.0187455567,7.5996045776,1276
123522,222424,289340,4.594219392,3.9996029759000002,7.6426753844,1277
123549,222453,289372,4.594219392,3.9996029759000002,7.6426753844,1278
123684,222525,289405,4.594219392,3.9996029759000002,7.6426753844,1279
123832,222534,289404,4.594219392,3.9996029759000002,7.6426753844,1280
123944,222532,289443,4.594219392,3.9996029759000002,7.6426753844,1281
124013,222558,289426,4.594219392,3.9996029759000002,7.6426753844,1282
124063,222588,289491,4.594219392,3.9996029759000002,7.6426753844,1283
124145,222593,289470,4.594219392,3.9996029759000002,7.6426753844,1284
124241,222619,289529,4.594219392,3.9996029759000002,7.6426753844,1285
124339,222632,289482,4.594219392,3.9996029759000002,7.6426753844,1286
124477,222662,289544,4.594219392,3.9996029759000002,7.6426753844,1287
124588,222691,289534,4.594219392,3.9996029759000002,7.6426753844,1288
124695,222695,289579,4.594219392,3.9996029759000002,7.6426753844,1289
124818,222689,289604,4.594219392,3.9996029759000002,7.6426753844,1290
124964,222741,289631,4.594219392,3.9996029759000002,7.6426753844,1291
125091,222732,289576,4.594219392,3.9996029759000002,7.6426753844,1292
125195,222792,289578,4.594219392,3.9996029759000002,7.6426753844,1293
125319,222794,289634,4.594219392,3.9996029759000002,7.6426753844,1294
125432,222816,289640,4.594219392,3.9996029759000002,7.6426753844,1295
125424,222780,289602,4.594219392,3.9996029759000002,7.6426753844,1296
125034,222695,289456,4.594219392,3.9996029759000002,7.6426753844,1297
124303,222560,289437,4.594219392,3.9996029759000002,7.6426753844,1298
123741,222503,289349,4.594219392,3.9996029759000002,7.6426753844,1299
123407,222501,289417,4.594219392,3.9996029759000002,7.6426753844,1300
123241,222502,289416,4.594219392,3.9996029759000002,7.6426753844,1301
123169,222442,289350,4.594219392,3.9996029759000002,7.6426753844,1302
123200,222513,289378,4.594219392,3.9996029759000002,7.6426753844,1303
123359,222535,289454,4.594219392,3.9996029759000002,7.6426753844,1304
123499,222577,289513,4.594219392,3.9996029759000002,7.6426753844,1305
123558,222607,289443,4.594219392,3.9996029759000002,7.6426753844,1306
123552,222579,289495,4.594219392,3.9996029759000002,7.6426753844,1307
123596,222598,289496,4.594219392,3.9996029759000002,7.6426753844,1308
123685,222611,289480,4.594219392,3.9996029759000002,7.6426753844,1309
123740,222603,289486,4.594219392,3.9996029759000002,7.6426753844,1310
123856,222684,289544,4.594219392,3.9996029759000002,7.6426753844,1311
123981,222691,289559,4.594219392,3.9996029759000002,7.6426753844,1312
124067,222685,289549,4.594219392,3.9996029759000002,7.6426753844,1313
124176,222681,289540,4.594219392,3.9996029759000002,7.6426753844,1314
124272,222733,289529,4.594219392,3.9996029759000002,7.6426753844,1315
124372,222742,289538,4.594219392,3.9996029759000002,7.6426753844,1316
124488,222777,289596,4.594219392,3.9996029759000002,7.6426753844,1317
124605,222810,289637,4.594219392,3.9996029759000002,7.6426753844,1318
123567,222678,289590,4.4087756405,4.0366917262,7.6319076827,1319
123711,222723,289583,4.4087756405,4.0366917262,7.6319076827,1320
123850,222741,289576,4.4087756405,4.0366917262,7.6319076827,1321
123941,222692,289541,4.4087756405,4.0366917262,7.6319076827,1322
123594,222632,289519,4.4087756405,4.0366917262,7.6319076827,1323
122864,222485,289414,4.4087756405,4.0366917262,7.6319076827,1324
122262,222415,289372,4.4087756405,4.0366917262,7.6319076827,1325
121923,222405,289385,4.4087756405,4.0366917262,7.6319076827,1326
121728,222404,289342,4.4087756405,4.0366917262,7.6319076827,1327
121693,222373,289356,4.4087756405,4.0366917262,7.6319076827,1328
121699,222413,289334,4.4087756405,4.0366917262,7.6319076827,1329
121876,222443,289398,4.4087756405,4.0366917262,7.6319076827,1330
122045,222436,289421,4.4087756405,4.0366917262,7.6319076827,1331
122205,222489,289439,4.4087756405,4.0366917262,7.6319076827,1332
122250,222529,289454,4.4087756405,4.0366917262,7.6319076827,1333
122329,222507,289392,4.4087756405,4.0366917262,7.6319076827,1334
122426,222524,289453,4.4087756405,4.0366917262,7.6319076827,1335
122540,222532,289504,4.4087756405,4.0366917262,7.6319076827,1336
122689,222539,289488,4.4087756405,4.0366917262,7.6319076827,1337
122789,222607,289532,4.4087756405,4.0366917262,7.6319076827,1338
122963,222608,289484,4.4087756405,4.0366917262,7.6319076827,1339
123102,222628,289577,4.4087756405,4.0366917262,7.6319076827,1340
123236,222650,289599,4.4087756405,4.0366917262,7.6319076827,1341
123365,222666,289520,4.4087756405,4.0366917262,7.6319076827,1342
123514,222693,289539,4.4087756405,4.0366917262,7.6319076827,1343
123645,222730,289584,4.4087756405,4.0366917262,7.6319076827,1344
123780,222718,289621,4.4087756405,4.0366917262,7.6319076827,1345
123887,222715,289604,4.4087756405,4.0366917262,7.6319076827,1346
123552,222638,289571,4.4087756405,4.0366917262,7.6319076827,1347
122850,222473,289402,4.4087756405,4.0366917262,7.6319076827,1348
122271,222438,289411,4.4087756405,4.0366917262,7.6319076827,1349
121972,222420,289359,4.4087756405,4.0366917262,7.6319076827,1350
121805,222419,289378,4.4087756405,4.0366917262,7.6319076827,1351
121748,222409,289394,4.4087756405,4.0366917262,7.6319076827,1352
121830,222418,289435,4.4087756405,4.0366917262,7.6319076827,1353
122005,222459,289460,4.4087756405,4.0366917262,7.6319076827,1354
122202,222490,289409,4.4087756405,4.0366917262,7.6319076827,1355
122326,222482,289445,4.4087756405,4.0366917262,7.6319076827,1356
122369,222493,289578,4.4087756405,4.0366917262,7.6319076827,1357
122491,222527,289490,4.4087756405,4.0366917262,7.6319076827,1358
122526,222525,289499,4.4087756405,4.0366917262,7.6319076827,1359
122681,222592,289462,4.4087756405,4.0366917262,7.6319076827,1360
122350,222618,289506,4.6600220135,3.9050864832,7.5661050612,1361
122384,222604,289564,4.6600220135,3.9050864832,7.5661050612,1362
122462,222612,289575,4.6600220135,3.9050864832,7.5661050612,1363
122546,222600,289541,4.6600220135,3.9050864832,7.5661050612,1364
122647,222647,289600,4.6600220135,3.9050864832,7.5661050612,1365
122781,222661,289692,4.6600220135,3.9050864832,7.5661050612,1366
122926,222693,289662,4.6600220135,3.9050864832,7.5661050612,1367
123057,222681,289649,4.6600220135,3.9050864832,7.5661050612,1368
123164,222741,289677,4.6600220135,3.9050864832,7.5661050612,1369
123313,222769,289655,4.6600220135,3.9050864832,7.5661050612,1370
123432,222753,289661,4.6600220135,3.9050864832,7.5661050612,1371
123578,222795,289636,4.6600220135,3.9050864832,7.5661050612,1372
123713,222811,289672,4.6600220135,3.9050864832,7.5661050612,1373
123687,222765,289611,4.6600220135,3.9050864832,7.5661050612,1374
123155,222659,289557,4.6600220135,3.9050864832,7.5661050612,1375
122440,222520,289526,4.6600220135,3.9050864832,7.5661050612,1376
121998,222517,289485,4.6600220135,3.9050864832,7.5661050612,1377
121782,222467,289479,4.6600220135,3.9050864832,7.5661050612,1378
121728,222522,289495,4.6600220135,3.9050864832,7.5661050612,1379
121733,222464,289551,4.6600220135,3.9050864832,7.5661050612,1380
121884,222527,289549,4.5559342304,3.8536407972999998,7.5792655855,1381
122122,222540,289553,4.5559342304,3.8536407972999998,7.5792655855,1382
122234,222556,289533,4.5559342304,3.8536407972999998,7.5792655855,1383
122278,222553,289560,4.5559342304,3.8536407972999998,7.5792655855,1384
122349,222575,289595,4.474578262,3.9338003543999998,7.6654071991,1385
122398,222524,289595,4.6456650779,4.0570307183,7.5134629639999995,1386
122511,222597,289543,4.642075844,3.9852460403000003,7.4763742137,1387
122595,222616,289612,4.642075844,3.9852460403000003,7.4763742137,1388
122739,222640,289594,4.642075844,3.9852460403000003,7.4763742137,1389
122870,222629,289626,4.642075844,3.9852460403000003,7.4763742137,1390
122983,222684,289631,4.642075844,3.9852460403000003,7.4763742137,1391
123129,222717,289671,4.642075844,3.9852460403000003,7.4763742137,1392
123254,222740,289642,4.642075844,3.9852460403000003,7.4763742137,1393
123397,222730,289668,4.642075844,3.9852460403000003,7.4763742137,1394
123329,222700,289622,4.642075844,3.9852460403000003,7.4763742137,1395
122776,222582,289542,4.642075844,3.9852460403000003,7.4763742137,1396
122104,222449,289444,4.642075844,3.9852460403000003,7.4763742137,1397
121661,222439,289493,4.642075844,3.9852460403000003,7.4763742137,1398
121466,222400,289419,4.7234318124,4.0043886211,7.5661050612,1399
121371,222404,289503,4.7234318124,4.0043886211,7.5661050612,1400
121415,222455,289498,4.7234318124,4.0043886211,7.5661050612,1401
121573,222457,289467,4.6564327796,3.9481572899999997,7.5194450205,1402
121791,222489,289558,4.6935215299,3.9684962821,7.5505517143,1403
121887,222506,289483,4.6612184248,3.8668013215999997,7.5218378431,1404
121958,222506,289519,4.6564327796,3.9146577735999997,7.5792655855,1405
121999,222510,289517,4.6743789491,3.9816568063999997,7.4715885685,1406
122045,222495,289535,4.6564327796,3.9338003543999998,7.570890706399999,1407
122168,222544,289597,4.6791645943,4.043870194,7.6175507471,1408
122220,222529,289583,4.6755753604,4.0103706776,7.6283184488,1409
122348,222607,289577,4.4793639072,4.0857445895,7.6462646183,1410
122578,222600,289671,4.450650036,3.9050864832,7.5661050612,1411
122658,222613,289601,4.637290198800001,3.9481572899999997,7.6845497799,1412
122834,222640,289657,4.6133619728,3.9996029759000002,7.5230342544,1413
122947,222670,289634,4.6803610056,3.8703905555,7.5038916736,1414
123177,222706,289675,4.5619162869,4.1575292675,7.5888368759,1415
123222,222693,289675,4.5320060043999995,3.8476587407999996,7.4081787696,1416
123082,222624,289599,4.5619162869,3.9708891047,7.556533770800001,1417
122382,222500,289485,4.5990050372,3.8967116041,7.5577301821,1418
121805,222400,289460,4.6947179412,3.8859439023999998,7.622336392299999,1419
121433,222362,289445,4.6707897152,3.8572300312,7.542176835199999,1420
121237,222365,289433,4.6707897152,3.8572300312,7.542176835199999,1421
121198,222324,289393,4.6707897152,3.8572300312,7.542176835199999,1422
121176,222338,289449,4.6707897152,3.8572300312,7.542176835199999,1423
121326,222355,289511,4.6707897152,3.8572300312,7.542176835199999,1424
121542,222426,289492,4.6707897152,3.8572300312,7.542176835199999,1425
121672,222438,289538,4.6707897152,3.8572300312,7.542176835199999,1426
121762,222467,289536,4.6707897152,3.8572300312,7.542176835199999,1427
121818,222484,289532,4.6707897152,3.8572300312,7.542176835199999,1428
121936,222500,289577,4.6707897152,3.8572300312,7.542176835199999,1429
122051,222507,289565,4.6707897152,3.8572300312,7.542176835199999,1430
122196,222534,289568,4.6707897152,3.8572300312,7.542176835199999,1431
122338,222535,289635,4.6707897152,3.8572300312,7.542176835199999,1432
122498,222579,289629,4.6707897152,3.8572300312,7.542176835199999,1433
122648,222609,289663,4.6707897152,3.8572300312,7.542176835199999,1434
122799,222588,289660,4.6707897152,3.8572300312,7.542176835199999,1435
122946,222659,289699,4.6707897152,3.8572300312,7.542176835199999,1436
123081,222683,289679,4.6707897152,3.8572300312,7.542176835199999,1437
123215,222689,289707,4.6707897152,3.8572300312,7.542176835199999,1438
123381,222680,289738,4.6707897152,3.8572300312,7.542176835199999,1439
123279,222629,289705,4.6707897152,3.8572300312,7.542176835199999,1440
122694,222541,289524,4.6707897152,3.8572300312,7.542176835199999,1441
122016,222437,289506,4.6707897152,3.8572300312,7.542176835199999,1442
121589,222358,289456,4.6707897152,3.8572300312,7.542176835199999,1443
121370,222372,289468,4.6707897152,3.8572300312,7.542176835199999,1444
121268,222322,289476,4.6707897152,3.8572300312,7.542176835199999,1445
121284,222367,289465,4.6707897152,3.8572300312,7.542176835199999,1446
121390,222434,289529,4.6707897152,3.8572300312,7.542176835199999,1447
121635,222413,289568,4.6707897152,3.8572300312,7.542176835199999,1448
121768,222465,289575,4.6707897152,3.8572300312,7.542176835199999,1449
121867,222479,289580,4.6707897152,3.8572300312,7.542176835199999,1450
121905,222429,289593,4.6707897152,3.8572300312,7.542176835199999,1451
121982,222514,289610,4.6707897152,3.8572300312,7.542176835199999,1452
122087,222505,289655,4.6707897152,3.8572300312,7.542176835199999,1453
122223,222518,289587,4.6707897152,3.8572300312,7.542176835199999,1454
122373,222569,289635,4.6707897152,3.8572300312,7.542176835199999,1455
122489,222590,289666,4.6707897152,3.8572300312,7.542176835199999,1456
122625,222593,289660,4.6707897152,3.8572300312,7.542176835199999,1457
122768,222608,289661,4.6707897152,3.8572300312,7.542176835199999,1458
122891,222627,289704,4.6707897152,3.8572300312,7.542176835199999,1459
123002,222646,289699,4.6707897152,3.8572300312,7.542176835199999,1460
123140,222634,289774,4.6707897152,3.8572300312,7.542176835199999,1461
121002,222360,289486,4.5930229807,3.9720855159999995,7.6366933279,1462
120937,222293,289464,4.5930229807,3.9720855159999995,7.6366933279,1463
120921,222304,289464,4.5930229807,3.9720855159999995,7.6366933279,1464
121103,222353,289535,4.5930229807,3.9720855159999995,7.6366933279,1465
121325,222391,289545,4.5930229807,3.9720855159999995,7.6366933279,1466
121473,222428,289572,4.5930229807,3.9720855159999995,7.6366933279,1467
121560,222400,289526,4.5930229807,3.9720855159999995,7.6366933279,1468
121627,222446,289609,4.5930229807,3.9720855159999995,7.6366933279,1469
121746,222441,289623,4.5930229807,3.9720855159999995,7.6366933279,1470
121875,222468,289611,4.5930229807,3.9720855159999995,7.6366933279,1471
122004,222477,289696,4.5930229807,3.9720855159999995,7.6366933279,1472
122157,222531,289643,4.5930229807,3.9720855159999995,7.6366933279,1473
122314,222550,289670,4.5930229807,3.9720855159999995,7.6366933279,1474
122518,222588,289678,4.5930229807,3.9720855159999995,7.6366933279,1475
122648,222583,289672,4.5930229807,3.9720855159999995,7.6366933279,1476
122809,222605,289741,4.5930229807,3.9720855159999995,7.6366933279,1477
122932,222637,289698,4.5930229807,3.9720855159999995,7.6366933279,1478
123091,222670,289749,4.5930229807,3.9720855159999995,7.6366933279,1479
123234,222631,289731,4.5930229807,3.9720855159999995,7.6366933279,1480
123274,222629,289690,4.5930229807,3.9720855159999995,7.6366933279,1481
122839,222492,289605,4.5930229807,3.9720855159999995,7.6366933279,1482
122101,222385,289600,4.5930229807,3.9720855159999995,7.6366933279,1483
121560,222354,289493,4.5930229807,3.9720855159999995,7.6366933279,1484
121276,222294,289496,4.5930229807,3.9720855159999995,7.6366933279,1485
121135,222327,289526,4.5930229807,3.9720855159999995,7.6366933279,1486
121135,222301,289500,4.5930229807,3.9720855159999995,7.6366933279,1487
121195,222315,289498,4.5930229807,3.9720855159999995,7.6366933279,1488
121405,222336,289555,4.5930229807,3.9720855159999995,7.6366933279,1489
121590,222368,289566,4.5930229807,3.9720855159999995,7.6366933279,1490
121717,222459,289583,4.5930229807,3.9720855159999995,7.6366933279,1491
121802,222428,289561,4.5930229807,3.9720855159999995,7.6366933279,1492
121877,222427,289616,4.5930229807,3.9720855159999995,7.6366933279,1493
122003,222413,289583,4.5930229807,3.9720855159999995,7.6366933279,1494
122148,222479,289625,4.5930229807,3.9720855159999995,7.6366933279,1495
122319,222528,289645,4.5930229807,3.9720855159999995,7.6366933279,1496
122457,222534,289621,4.5930229807,3.9720855159999995,7.6366933279,1497
122623,222585,289748,4.5930229807,3.9720855159999995,7.6366933279,1498
122791,222570,289742,4.5930229807,3.9720855159999995,7.6366933279,1499
122949,222588,289764,4.5930229807,3.9720855159999995,7.6366933279,1500
123107,222632,289757,4.5930229807,3.9720855159999995,7.6366933279,1501
123258,222662,289733,4.5930229807,3.9720855159999995,7.6366933279,1502
123404,222643,289794,4.5930229807,3.9720855159999995,7.6366933279,1503
125690,222800,289732,4.5990050372,3.8632120877,7.485945504099999,1504
125358,222715,289617,4.5990050372,3.8632120877,7.485945504099999,1505
124942,222654,289594,4.5990050372,3.8632120877,7.485945504099999,1506
124743,222605,289591,4.5990050372,3.8632120877,7.485945504099999,1507
124711,222638,289623,4.5990050372,3.8632120877,7.485945504099999,1508
124703,222620,289619,4.5990050372,3.8632120877,7.485945504099999,1509
124838,222647,289612,4.5990050372,3.8632120877,7.485945504099999,1510
125014,222681,289621,4.5990050372,3.8632120877,7.485945504099999,1511
125189,222735,289654,4.5990050372,3.8632120877,7.485945504099999,1512
125390,222715,289689,4.5990050372,3.8632120877,7.485945504099999,1513
125490,222751,289651,4.5990050372,3.8632120877,7.485945504099999,1514
125595,222744,289675,4.5990050372,3.8632120877,7.485945504099999,1515
125722,222753,289666,4.5990050372,3.8632120877,7.485945504099999,1516
125860,222758,289720,4.5990050372,3.8632120877,7.485945504099999,1517
126016,222782,289687,4.5990050372,3.8632120877,7.485945504099999,1518
126168,222832,289708,4.5990050372,3.8632120877,7.485945504099999,1519
126332,222852,289708,4.5990050372,3.8632120877,7.485945504099999,1520
126474,222877,289727,4.5990050372,3.8632120877,7.485945504099999,1521
126599,222863,289729,4.5990050372,3.8632120877,7.485945504099999,1522
126781,222897,289729,4.5990050372,3.8632120877,7.485945504099999,1523
126891,222891,289748,4.5990050372,3.8632120877,7.485945504099999,1524
127071,222896,289728,4.5990050372,3.8632120877,7.485945504099999,1525
127222,222931,289788,4.5990050372,3.8632120877,7.485945504099999,1526
127155,222880,289694,4.5990050372,3.8632120877,7.485945504099999,1527
126855,222813,289608,4.5990050372,3.8632120877,7.485945504099999,1528
126547,222730,289567,4.5990050372,3.8632120877,7.485945504099999,1529
126417,222716,289556,4.5990050372,3.8632120877,7.485945504099999,1530
126347,222739,289618,4.5990050372,3.8632120877,7.485945504099999,1531
126384,222709,289627,4.5990050372,3.8632120877,7.485945504099999,1532
126456,222749,289605,4.5990050372,3.8632120877,7.485945504099999,1533
126608,222800,289618,4.5990050372,3.8632120877,7.485945504099999,1534
126781,222825,289644,4.5990050372,3.8632120877,7.485945504099999,1535
126870,222812,289671,4.5990050372,3.8632120877,7.485945504099999,1536
126951,222796,289653,4.5990050372,3.8632120877,7.485945504099999,1537
127016,222808,289601,4.5990050372,3.8632120877,7.485945504099999,1538
127133,222829,289689,4.5990050372,3.8632120877,7.485945504099999,1539
127245,222886,289657,4.5990050372,3.8632120877,7.485945504099999,1540
