green,red,IR,acc_x,acc_y,acc_z,sample_index
81378,199679,247569,-3.9972101532999997,0.9798608547,8.7625163612,1
81226,199537,247602,-3.8955151927999996,1.0707881135,8.7996051115,2
81211,199652,247546,-4.0534414844,1.1413763801999999,8.8008015228,3
81366,199686,247596,-4.0055850324,1.0420742423,8.757730716,4
81577,199683,247607,-4.0103706776,1.0193424276,8.7254276109,5
81765,199705,247640,-3.9493537012999997,1.052841944,8.8008015228,6
81865,199637,247590,-3.9014972492999997,0.9523433948,8.829515394,7
82001,199723,247611,-4.0953158799,0.8817551281,8.8390866844,8
82141,199837,247616,-3.9912280968,0.9858429111999999,8.7732840629,9
82312,199785,247649,-3.9649070482,0.9762716208,8.9479601127,10
82522,199783,247685,-3.9206398301,1.1138589203,8.7349989013,11
82735,199863,247712,-3.9589249917,0.9487541609,8.8008015228,12
82966,200026,247746,-3.9780675724999996,1.0576275892,8.8486579748,13
83207,199993,247783,-4.0211383793,1.0911271056,8.9347995884,14
83470,200046,247811,-3.8524443859999997,0.9511469834999999,8.7565343047,15
83733,200071,247797,-3.9481572899999997,1.1198409768,8.97308475,16
83924,200197,247913,-4.0055850324,1.004985492,8.7302132561,17
84172,200191,247970,-4.2053857195,1.0755737587,8.85344362,18
84292,200251,247935,-3.8488551521,0.9906285563999999,8.7720876516,19
83963,200179,247831,-3.8871403137,1.0193424276,8.943174467499999,20
83253,200021,247746,-4.0474594279,1.0755737587,8.7768732968,21
82560,199897,247619,-3.9577285803999995,1.028913718,8.8438723296,22
82121,199805,247604,-3.8333018051999996,1.0815558152,8.819944103600001,23
81873,199691,247532,-3.9732819273,1.0959127508,8.8486579748,24
81790,199673,247473,-3.9720855159999995,1.1904292435000001,8.8247297488,25
81863,199732,247564,-3.8440695069,1.0384850084,8.828318982699999,26
82084,199789,247547,-3.9003008379999997,1.1760723079,8.8378902731,27
82264,199779,247580,-3.9469608787,1.1904292435000001,8.7625163612,28
82390,199826,247572,-3.9397824109,1.1006983959999999,8.8917287816,29
82516,199851,247615,-3.8907295476,1.0432706536,8.9288175319,30
82622,199852,247640,-3.9098721283999995,1.1569297271,8.829515394,31
82814,199891,247587,-3.9194434188,1.1054840412,8.7912302324,32
83015,199921,247611,-3.9385859996,1.1006983959999999,8.8426759183,33
83207,199992,247711,-3.8811582571999996,1.0683952909,8.8390866844,34
83456,200031,247665,-3.9672998708,1.1222337994,8.8163548697,35
83741,200077,247719,-3.9816568063999997,1.1186445655,8.8103728132,36
83988,200143,247708,-3.9206398301,1.1473584366999998,8.9336031771,37
84284,200205,247815,-3.8536407972999998,1.1533404932,8.876175434699999,38
84536,200260,247867,-3.8560336199000003,1.1952148887,8.7960158776,39
84781,200341,247882,-4.043870194,1.1533404932,9.1011007591,40
85038,200427,247931,-3.8943187815,1.1054840412,8.6524465216,41
85310,200541,247924,-4.0103706776,1.1138589203,8.829515394,42
85477,200492,248014,-3.7902309983999998,1.1186445655,8.9288175319,43
85218,200454,247854,-3.9206398301,1.2574282763000002,8.8917287816,44
84557,200277,247822,-3.9158541848999997,1.1437692028,8.819944103600001,45
83887,200169,247704,-3.8584264425,0.909272588,8.8390866844,46
83451,200074,247631,-3.9852460403000003,0.9954142015999999,8.7625163612,47
83209,200003,247601,-3.8105699905,1.2000005339,8.8486579748,48
83091,200059,247633,-3.8919259589,1.004985492,8.8307118053,49
83171,200109,247621,-4.1431723319,1.0755737587,8.819944103600001,50
83312,200143,247640,-3.9110685397,0.9631110964999999,8.8378902731,51
83535,200134,247687,-3.8189448695999997,0.9966106129000001,8.8103728132,52
83655,200192,247634,-3.8440695069,1.1425727915,8.9001036607,53
83784,200169,247649,-3.876372612,1.07677017,8.709874264,54
83917,200245,247674,-3.9672998708,1.1904292435000001,8.8378902731,55
84080,200236,247751,-4.0187455567,0.9858429111999999,8.9048893059,56
84267,200333,247724,-3.9720855159999995,1.1389835576,8.8247297488,57
84535,200348,247779,-3.8488551521,0.933200814,8.8103728132,58
84764,200422,247787,-4.0007993872,1.0755737587,8.885746725099999,59
85011,200503,247823,-4.1288153963,1.0097711372,8.8678005556,60
85274,200542,247867,-3.9397824109,0.9714859755999999,8.7385881352,61
85565,200624,247868,-3.9864424516000003,0.8961120637,8.8821574912,62
85818,200682,247911,-3.8452659182,0.9140582332,8.8522472087,63
86081,200751,247980,-3.8775690233,1.0372885971,8.85344362,64
86389,200837,248028,-3.9457644674,1.052841944,8.828318982699999,65
86629,200889,248094,-3.8440695069,0.9056833541,8.7673020064,66
86923,200938,248128,-4.0295132584,1.1318050897999998,8.7720876516,67
87168,200975,248180,-4.0067814437,1.0097711372,8.939585233599999,68
87121,200960,248073,-3.9780675724999996,0.8243273857,8.806783579300001,69
86663,200792,247934,-4.0055850324,1.0229316615,8.7625163612,70
86004,200591,247854,-4.0103706776,0.9523433948,8.7625163612,71
85438,200567,247767,-4.1479579771,0.9942177902999999,8.8474615635,72
85047,200512,247740,-3.9158541848999997,0.7956135145,8.9192462415,73
84836,200459,247687,-3.8572300312,0.933200814,8.819944103600001,74
84750,200462,247689,-3.8727833781,0.9188438784,8.8343010392,75
84839,200501,247644,-3.9194434188,0.9320044027,8.829515394,76
84955,200500,247702,-4.0354953148999995,0.9906285563999999,8.9048893059,77
85097,200500,247706,-3.9254254753,0.95712904,8.8008015228,78
85212,200547,247651,-4.1060835816,0.9176474671,8.8522472087,79
85322,200523,247698,-3.9684962821,1.0707881135,8.7385881352,80
85443,200545,247753,-3.9684962821,0.9906285563999999,8.819944103600001,81
85589,200598,247727,-3.8919259589,0.8626125473,8.8713897895,82
85769,200646,247742,-3.8584264425,0.981057266,8.8151584584,83
85979,200707,247766,-3.9158541848999997,1.0037890807,8.8343010392,84
86221,200707,247839,-3.9972101532999997,0.8386843212999999,8.7637127725,85
86459,200767,247825,-3.9397824109,0.9248259349,8.7960158776,86
86700,200864,247883,-4.0151563228,1.0181460163,8.757730716,87
86918,200878,247935,-4.0666020087,0.9236295236,8.8582292652,88
87167,200938,247869,-4.0630127748,1.0181460163,8.8139620471,89
87443,200993,247997,-3.9194434188,1.0085747259,8.7637127725,90
87666,201046,248038,-4.0163527341,0.885344362,8.9336031771,91
87903,201118,248042,-3.9158541848999997,0.9224331123,8.6679998685,92
88174,201171,248113,-4.0486558392,1.0707881135,8.9204426528,93
88386,201236,248084,-3.8823546685,0.9367900479,8.5675013193,94
88639,201312,248193,-3.9924245080999996,1.1330015010999999,8.8809610799,95
88785,201320,248149,-3.9302111204999997,0.9475577495999999,8.8343010392,96
88738,201259,248106,-3.9672998708,0.9846464999,8.819944103600001,97
88209,201009,247996,-4.1336010414999995,1.0516455327,8.8247297488,98
87486,201015,247908,-4.019941968,0.9762716208,8.8570328539,99
86858,200929,247814,-3.996013742,0.885344362,8.749355836900001,100
86408,200879,247786,-3.9206398301,0.9750752094999999,8.85344362,101
86127,200830,247726,-3.8153556357,0.8817551281,8.7625163612,102
85983,200765,247722,-4.2053857195,0.9236295236,8.7960158776,103
85969,200731,247724,-3.9445680561,0.9667003303999999,8.7912302324,104
86034,200779,247723,-3.9074793058,0.861416136,8.7948194663,105
86086,200810,247674,-3.9589249917,0.9906285563999999,8.7385881352,106
86132,200804,247705,-3.9493537012999997,0.9248259349,8.828318982699999,107
86146,200799,247711,-4.043870194,1.1042876299,8.8426759183,108
86208,200765,247716,-4.0534414844,0.8578269021,8.833104627900001,109
86264,200807,247761,-3.9158541848999997,0.8099704500999999,8.8103728132,110
86383,200875,247742,-3.912264951,1.0516455327,8.7912302324,111
86534,200892,247787,-4.019941968,0.9523433948,8.7768732968,112
86679,200919,247817,-4.0043886211,0.981057266,8.818747692299999,113
86860,200998,247790,-4.0534414844,1.0145567824000001,8.8151584584,114
87055,201029,247847,-4.0809589443,0.9954142015999999,8.739784546500001,115
87242,201074,247907,-4.0390845488,1.028913718,8.720641965699999,116
87411,201105,247950,-4.0761732991,1.028913718,8.9240318867,117
87613,201174,247978,-3.9912280968,0.9379864592,8.8522472087,118
87793,201248,248018,-3.9684962821,1.0947163395,8.8343010392,119
87969,201200,248014,-3.9924245080999996,1.1294122672,8.805587167999999,120
88150,201367,248120,-3.9637106368999997,0.9140582332,8.7146599092,121
88345,201372,248107,-3.9397824109,1.0815558152,8.9144605963,122
88482,201440,248131,-3.8249269261,1.0193424276,8.7469630143,123
88645,201454,248145,-3.960121403,0.8709874264,8.8343010392,124
88806,201504,248129,-4.0283168471,1.0001998468,8.7433737804,125
88624,201450,248124,-3.9541393465,1.0995019847,8.8953180155,126
87964,201331,248026,-3.8919259589,0.9762716208,8.8522472087,127
86985,201127,247869,-3.8727833781,0.95712904,8.7625163612,128
86156,201029,247785,-4.019941968,1.0935199281999999,8.7912302324,129
85542,200948,247762,-4.0965122912,0.9822536772999999,8.8953180155,130
85105,200949,247718,-3.9062828945,1.0947163395,8.805587167999999,131
84843,200904,247684,-4.0582271296000005,0.8243273857,8.8678005556,132
84784,200856,247672,-3.9541393465,1.0384850084,8.7158563205,133
84797,200895,247676,-3.9541393465,1.0384850084,8.7158563205,134
84791,200880,247680,-3.9541393465,1.0384850084,8.7158563205,135
84741,200886,247718,-3.9541393465,1.0384850084,8.7158563205,136
84678,200869,247632,-3.9541393465,1.0384850084,8.7158563205,137
84654,200874,247651,-3.9541393465,1.0384850084,8.7158563205,138
84680,200910,247660,-3.9541393465,1.0384850084,8.7158563205,139
84726,200924,247664,-3.9541393465,1.0384850084,8.7158563205,140
84846,200944,247731,-3.9541393465,1.0384850084,8.7158563205,141
84949,200942,247683,-3.9541393465,1.0384850084,8.7158563205,142
85111,201019,247739,-3.9541393465,1.0384850084,8.7158563205,143
85272,201016,247769,-3.9541393465,1.0384850084,8.7158563205,144
85442,201099,247790,-3.9541393465,1.0384850084,8.7158563205,145
85642,201113,247783,-3.9541393465,1.0384850084,8.7158563205,146
85821,201183,247884,-3.9541393465,1.0384850084,8.7158563205,147
85965,201213,247879,-3.9541393465,1.0384850084,8.7158563205,148
86125,201222,247902,-3.9541393465,1.0384850084,8.7158563205,149
86257,201267,247937,-3.9541393465,1.0384850084,8.7158563205,150
86378,201326,247955,-3.9541393465,1.0384850084,8.7158563205,151
86569,201376,247955,-3.9541393465,1.0384850084,8.7158563205,152
86619,201375,247959,-3.9541393465,1.0384850084,8.7158563205,153
86302,201270,247892,-3.9541393465,1.0384850084,8.7158563205,154
85458,201081,247737,-3.9541393465,1.0384850084,8.7158563205,155
84530,200934,247673,-3.9541393465,1.0384850084,8.7158563205,156
83833,200845,247602,-3.9541393465,1.0384850084,8.7158563205,157
83340,200768,247558,-3.9541393465,1.0384850084,8.7158563205,158
83078,200724,247519,-3.9541393465,1.0384850084,8.7158563205,159
82968,200709,247502,-3.9541393465,1.0384850084,8.7158563205,160
83023,200722,247502,-3.9541393465,1.0384850084,8.7158563205,161
83118,200693,247576,-3.9541393465,1.0384850084,8.7158563205,162
83204,200725,247546,-3.9541393465,1.0384850084,8.7158563205,163
83219,200743,247525,-3.9541393465,1.0384850084,8.7158563205,164
83234,200714,247541,-3.9541393465,1.0384850084,8.7158563205,165
83291,200705,247532,-3.9541393465,1.0384850084,8.7158563205,166
83403,200716,247594,-3.9565321691,0.9475577495999999,8.8438723296,167
83505,200749,247615,-3.9565321691,0.9475577495999999,8.8438723296,168
83686,200844,247600,-3.9565321691,0.9475577495999999,8.8438723296,169
83884,200820,247696,-3.9565321691,0.9475577495999999,8.8438723296,170
84093,200890,247672,-3.9565321691,0.9475577495999999,8.8438723296,171
84287,200931,247723,-3.9565321691,0.9475577495999999,8.8438723296,172
84491,200986,247736,-3.9565321691,0.9475577495999999,8.8438723296,173
84729,201038,247745,-3.9565321691,0.9475577495999999,8.8438723296,174
84956,201088,247832,-3.9565321691,0.9475577495999999,8.8438723296,175
85152,201122,247872,-3.9565321691,0.9475577495999999,8.8438723296,176
85387,201241,247871,-3.9565321691,0.9475577495999999,8.8438723296,177
85556,201215,247923,-3.9565321691,0.9475577495999999,8.8438723296,178
85544,201176,247924,-3.9565321691,0.9475577495999999,8.8438723296,179
84981,201034,247777,-3.9565321691,0.9475577495999999,8.8438723296,180
84053,200847,247656,-3.9565321691,0.9475577495999999,8.8438723296,181
83265,200682,247541,-3.9565321691,0.9475577495999999,8.8438723296,182
82717,200592,247493,-3.9565321691,0.9475577495999999,8.8438723296,183
82396,200547,247420,-3.9565321691,0.9475577495999999,8.8438723296,184
82273,200486,247443,-3.9565321691,0.9475577495999999,8.8438723296,185
82279,200488,247434,-3.9565321691,0.9475577495999999,8.8438723296,186
82396,200512,247458,-3.9565321691,0.9475577495999999,8.8438723296,187
82565,200528,247501,-3.9565321691,0.9475577495999999,8.8438723296,188
82681,200507,247446,-3.9565321691,0.9475577495999999,8.8438723296,189
82774,200489,247496,-3.9565321691,0.9475577495999999,8.8438723296,190
82867,200521,247487,-3.9565321691,0.9475577495999999,8.8438723296,191
82994,200580,247491,-3.9565321691,0.9475577495999999,8.8438723296,192
83164,200573,247542,-3.9565321691,0.9475577495999999,8.8438723296,193
83327,200611,247528,-3.9565321691,0.9475577495999999,8.8438723296,194
83537,200638,247538,-3.9565321691,0.9475577495999999,8.8438723296,195
83757,200704,247623,-3.9565321691,0.9475577495999999,8.8438723296,196
83989,200747,247660,-3.9565321691,0.9475577495999999,8.8438723296,197
84227,200772,247678,-3.9565321691,0.9475577495999999,8.8438723296,198
84466,200852,247776,-3.9565321691,0.9475577495999999,8.8438723296,199
84713,200907,247763,-3.9565321691,0.9475577495999999,8.8438723296,200
84956,200957,247823,-3.9565321691,0.9475577495999999,8.8438723296,201
85199,201004,247812,-3.9565321691,0.9475577495999999,8.8438723296,202
85450,201060,247861,-3.9565321691,0.9475577495999999,8.8438723296,203
85574,201069,247902,-3.9565321691,0.9475577495999999,8.8438723296,204
85307,201000,247787,-3.9565321691,0.9475577495999999,8.8438723296,205
84561,200812,247672,-3.9565321691,0.9475577495999999,8.8438723296,206
83736,200591,247599,-3.9565321691,0.9475577495999999,8.8438723296,207
83133,200508,247429,-3.9565321691,0.9475577495999999,8.8438723296,208
85471,200595,247729,-3.9864424516000003,1.1222337994,8.8953180155,209
85563,200618,247791,-3.9864424516000003,1.1222337994,8.8953180155,210
85311,200523,247689,-3.9864424516000003,1.1222337994,8.8953180155,211
84509,200337,247575,-3.9864424516000003,1.1222337994,8.8953180155,212
83643,200166,247484,-3.9864424516000003,1.1222337994,8.8953180155,213
83000,200029,247414,-3.9864424516000003,1.1222337994,8.8953180155,214
82618,199951,247347,-3.9864424516000003,1.1222337994,8.8953180155,215
82405,199883,247288,-3.9864424516000003,1.1222337994,8.8953180155,216
82352,199862,247308,-3.9864424516000003,1.1222337994,8.8953180155,217
82447,199852,247275,-3.9864424516000003,1.1222337994,8.8953180155,218
82578,199892,247300,-3.9864424516000003,1.1222337994,8.8953180155,219
82730,199901,247289,-3.9864424516000003,1.1222337994,8.8953180155,220
82793,199920,247307,-3.9864424516000003,1.1222337994,8.8953180155,221
82874,199940,247341,-3.9864424516000003,1.1222337994,8.8953180155,222
82969,199917,247320,-3.9864424516000003,1.1222337994,8.8953180155,223
83127,199985,247311,-3.9864424516000003,1.1222337994,8.8953180155,224
83315,200038,247390,-3.9864424516000003,1.1222337994,8.8953180155,225
83520,200083,247427,-3.9864424516000003,1.1222337994,8.8953180155,226
83729,200105,247470,-3.9864424516000003,1.1222337994,8.8953180155,227
83964,200141,247553,-3.9864424516000003,1.1222337994,8.8953180155,228
84212,200230,247562,-4.0390845488,0.9427721043999999,8.9156570076,229
84443,200248,247590,-4.0390845488,0.9427721043999999,8.9156570076,230
84705,200343,247615,-4.0390845488,0.9427721043999999,8.9156570076,231
84937,200403,247699,-4.0390845488,0.9427721043999999,8.9156570076,232
85195,200467,247745,-3.9768711611999996,1.0624132344,8.9288175319,233
85433,200558,247787,-3.9768711611999996,1.0624132344,8.9288175319,234
85671,200585,247851,-3.9768711611999996,1.0624132344,8.9288175319,235
85885,200624,247852,-3.9768711611999996,1.0624132344,8.9288175319,236
86139,200685,247885,-3.9768711611999996,1.0624132344,8.9288175319,237
86313,200748,247888,-3.9768711611999996,1.0624132344,8.9288175319,238
86180,200672,247859,-3.9768711611999996,1.0624132344,8.9288175319,239
85543,200483,247814,-3.9768711611999996,1.0624132344,8.9288175319,240
84669,200326,247673,-3.9768711611999996,1.0624132344,8.9288175319,241
83969,200228,247557,-3.9768711611999996,1.0624132344,8.9288175319,242
83551,200133,247533,-3.9768711611999996,1.0624132344,8.9288175319,243
83331,200108,247495,-3.9768711611999996,1.0624132344,8.9288175319,244
83264,200082,247469,-3.9768711611999996,1.0624132344,8.9288175319,245
83360,200060,247519,-3.9768711611999996,1.0624132344,8.9288175319,246
83521,200087,247533,-3.9768711611999996,1.0624132344,8.9288175319,247
83611,200092,247559,-3.9768711611999996,1.0624132344,8.9288175319,248
83666,200096,247522,-3.9768711611999996,1.0624132344,8.9288175319,249
83714,200102,247492,-3.9768711611999996,1.0624132344,8.9288175319,250
83760,200118,247501,-3.9768711611999996,1.0624132344,8.9288175319,251
83889,200139,247612,-3.9768711611999996,1.0624132344,8.9288175319,252
84018,200159,247590,-3.9768711611999996,1.0624132344,8.9288175319,253
84179,200214,247621,-3.9768711611999996,1.0624132344,8.9288175319,254
84366,200230,247649,-3.9768711611999996,1.0624132344,8.9288175319,255
84546,200299,247639,-3.9768711611999996,1.0624132344,8.9288175319,256
84728,200331,247726,-3.9768711611999996,1.0624132344,8.9288175319,257
84920,200401,247738,-3.9768711611999996,1.0624132344,8.9288175319,258
85104,200384,247735,-3.9768711611999996,1.0624132344,8.9288175319,259
85312,200513,247839,-3.9290147091999996,1.0899306943,8.8917287816,260
85498,200560,247817,-3.9290147091999996,1.0899306943,8.8917287816,261
85649,200581,247875,-3.9290147091999996,1.0899306943,8.8917287816,262
85855,200618,247885,-3.9290147091999996,1.0899306943,8.8917287816,263
86017,200714,247943,-3.9290147091999996,1.0899306943,8.8917287816,264
86044,200661,247926,-3.9529429352,0.8913264185,8.805587167999999,265
85618,200537,247830,-3.9529429352,0.8913264185,8.805587167999999,266
84712,200340,247733,-3.9529429352,0.8913264185,8.805587167999999,267
83828,200202,247621,-3.9529429352,0.8913264185,8.805587167999999,268
83137,200073,247548,-3.9529429352,0.8913264185,8.805587167999999,269
82707,199973,247494,-3.9529429352,0.8913264185,8.805587167999999,270
82451,199914,247445,-3.9529429352,0.8913264185,8.805587167999999,271
82424,199892,247424,-3.9529429352,0.8913264185,8.805587167999999,272
82479,199898,247434,-3.9529429352,0.8913264185,8.805587167999999,273
82611,199918,247458,-3.9529429352,0.8913264185,8.805587167999999,274
82652,199922,247475,-3.9529429352,0.8913264185,8.805587167999999,275
82702,199889,247454,-3.9529429352,0.8913264185,8.805587167999999,276
82743,199894,247467,-3.9529429352,0.8913264185,8.805587167999999,277
82802,199913,247503,-3.9529429352,0.8913264185,8.805587167999999,278
82926,199932,247466,-3.9385859996,0.9858429111999999,8.6333039408,279
83071,199998,247479,-3.9385859996,0.9858429111999999,8.6333039408,280
83230,200028,247507,-3.9385859996,0.9858429111999999,8.6333039408,281
83422,200098,247605,-3.9385859996,0.9858429111999999,8.6333039408,282
83633,200114,247576,-3.9385859996,0.9858429111999999,8.6333039408,283
83834,200179,247622,-3.9385859996,0.9858429111999999,8.6333039408,284
84019,200234,247676,-3.9385859996,0.9858429111999999,8.6333039408,285
84269,200291,247703,-3.9385859996,0.9858429111999999,8.6333039408,286
84481,200293,247706,-3.9385859996,0.9858429111999999,8.6333039408,287
84695,200388,247814,-3.9385859996,0.9858429111999999,8.6333039408,288
84900,200437,247833,-3.9385859996,0.9858429111999999,8.6333039408,289
85108,200513,247891,-3.9385859996,0.9858429111999999,8.6333039408,290
85152,200494,247925,-3.9385859996,0.9858429111999999,8.6333039408,291
84733,200396,247764,-3.9385859996,0.9858429111999999,8.6333039408,292
83848,200178,247638,-3.9385859996,0.9858429111999999,8.6333039408,293
82927,199984,247549,-3.9385859996,0.9858429111999999,8.6333039408,294
82262,199854,247419,-3.9385859996,0.9858429111999999,8.6333039408,295
81837,199778,247438,-3.9385859996,0.9858429111999999,8.6333039408,296
81610,199728,247389,-3.9385859996,0.9858429111999999,8.6333039408,297
81546,199641,247341,-3.9385859996,0.9858429111999999,8.6333039408,298
81607,199685,247387,-3.9385859996,0.9858429111999999,8.6333039408,299
81748,199672,247381,-3.9385859996,0.9858429111999999,8.6333039408,300
81849,199720,247398,-3.9385859996,0.9858429111999999,8.6333039408,301
81920,199730,247405,-3.9385859996,0.9858429111999999,8.6333039408,302
81980,199702,247405,-3.9385859996,0.9858429111999999,8.6333039408,303
82087,199732,247407,-3.9385859996,0.9858429111999999,8.6333039408,304
82198,199770,247385,-3.9385859996,0.9858429111999999,8.6333039408,305
82365,199768,247435,-3.9385859996,0.9858429111999999,8.6333039408,306
82554,199857,247523,-3.9385859996,0.9858429111999999,8.6333039408,307
82756,199880,247502,-3.9385859996,0.9858429111999999,8.6333039408,308
82990,199923,247582,-3.9385859996,0.9858429111999999,8.6333039408,309
83219,200007,247651,-3.9385859996,0.9858429111999999,8.6333039408,310
83472,200036,247698,-3.9385859996,0.9858429111999999,8.6333039408,311
83692,200108,247696,-3.9385859996,0.9858429111999999,8.6333039408,312
83933,200120,247794,-3.9385859996,0.9858429111999999,8.6333039408,313
84165,200239,247812,-3.9385859996,0.9858429111999999,8.6333039408,314
84386,200257,247822,-3.9385859996,0.9858429111999999,8.6333039408,315
84613,200342,247838,-3.9385859996,0.9858429111999999,8.6333039408,316
84831,200417,247878,-3.9385859996,0.9858429111999999,8.6333039408,317
85026,200413,247975,-3.9385859996,0.9858429111999999,8.6333039408,318
84882,200379,247867,-3.9385859996,0.9858429111999999,8.6333039408,319
84167,200218,247756,-3.9385859996,0.9858429111999999,8.6333039408,320
84942,200321,247926,-4.0007993872,0.9559326287,8.8630149104,321
85158,200382,247917,-4.0007993872,0.9559326287,8.8630149104,322
85346,200448,247951,-4.0007993872,0.9559326287,8.8630149104,323
85541,200461,248084,-4.0007993872,0.9559326287,8.8630149104,324
85666,200482,247999,-4.0007993872,0.9559326287,8.8630149104,325
85386,200387,247949,-4.0007993872,0.9559326287,8.8630149104,326
84604,200175,247855,-4.0007993872,0.9559326287,8.8630149104,327
83676,199988,247710,-4.0007993872,0.9559326287,8.8630149104,328
82942,199847,247629,-4.0007993872,0.9559326287,8.8630149104,329
82490,199820,247584,-4.0007993872,0.9559326287,8.8630149104,330
82261,199718,247537,-4.0007993872,0.9559326287,8.8630149104,331
82194,199747,247568,-4.0007993872,0.9559326287,8.8630149104,332
82274,199735,247510,-4.0007993872,0.9559326287,8.8630149104,333
82429,199735,247616,-4.0007993872,0.9559326287,8.8630149104,334
82557,199762,247607,-4.0007993872,0.9559326287,8.8630149104,335
82615,199812,247600,-4.0007993872,0.9559326287,8.8630149104,336
82659,199754,247613,-4.0007993872,0.9559326287,8.8630149104,337
82720,199792,247597,-4.0007993872,0.9559326287,8.8630149104,338
82839,199814,247581,-4.0007993872,0.9559326287,8.8630149104,339
82971,199821,247636,-4.0007993872,0.9559326287,8.8630149104,340
83156,199890,247609,-4.0007993872,0.9559326287,8.8630149104,341
83344,199926,247697,-4.0007993872,0.9559326287,8.8630149104,342
83551,199981,247731,-4.0007993872,0.9559326287,8.8630149104,343
83761,199992,247764,-4.0007993872,0.9559326287,8.8630149104,344
83996,200066,247800,-4.0007993872,0.9559326287,8.8630149104,345
84217,200146,247821,-4.0007993872,0.9559326287,8.8630149104,346
84419,200223,247901,-4.0007993872,0.9559326287,8.8630149104,347
84657,200221,247913,-4.0007993872,0.9559326287,8.8630149104,348
84872,200299,247958,-4.0007993872,0.9559326287,8.8630149104,349
85094,200359,247964,-4.0007993872,0.9559326287,8.8630149104,350
85259,200382,248010,-4.0007993872,0.9559326287,8.8630149104,351
85183,200335,247958,-4.0007993872,0.9559326287,8.8630149104,352
84524,200176,247835,-4.0007993872,0.9559326287,8.8630149104,353
83514,199955,247700,-4.0007993872,0.9559326287,8.8630149104,354
82620,199768,247669,-4.0007993872,0.9559326287,8.8630149104,355
82010,199652,247520,-4.0007993872,0.9559326287,8.8630149104,356
81648,199591,247545,-4.0007993872,0.9559326287,8.8630149104,357
81464,199538,247456,-4.0007993872,0.9559326287,8.8630149104,358
81481,199518,247478,-4.0007993872,0.9559326287,8.8630149104,359
81615,199532,247507,-4.0007993872,0.9559326287,8.8630149104,360
81752,199584,247533,-4.0007993872,0.9559326287,8.8630149104,361
81874,199549,247506,-4.0007993872,0.9559326287,8.8630149104,362
81819,199474,247607,-3.9062828945,0.9906285563999999,8.805587167999999,363
81619,199444,247596,-3.9062828945,0.9906285563999999,8.805587167999999,364
81625,199451,247577,-3.9062828945,0.9906285563999999,8.805587167999999,365
81739,199454,247560,-3.9062828945,0.9906285563999999,8.805587167999999,366
81946,199528,247627,-3.9062828945,0.9906285563999999,8.805587167999999,367
82071,199492,247614,-3.9062828945,0.9906285563999999,8.805587167999999,368
82173,199537,247616,-3.9062828945,0.9906285563999999,8.805587167999999,369
82284,199580,247651,-3.9062828945,0.9906285563999999,8.805587167999999,370
82398,199562,247665,-3.9062828945,0.9906285563999999,8.805587167999999,371
82542,199601,247651,-3.9062828945,0.9906285563999999,8.805587167999999,372
82724,199648,247657,-3.9062828945,0.9906285563999999,8.805587167999999,373
82945,199695,247721,-3.9062828945,0.9906285563999999,8.805587167999999,374
83143,199751,247763,-3.9062828945,0.9906285563999999,8.805587167999999,375
83403,199805,247761,-3.9062828945,0.9906285563999999,8.805587167999999,376
83639,199864,247832,-3.9062828945,0.9906285563999999,8.805587167999999,377
83880,199886,247836,-3.9062828945,0.9906285563999999,8.805587167999999,378
84136,199960,247884,-3.9062828945,0.9906285563999999,8.805587167999999,379
84366,200025,247976,-3.9062828945,0.9906285563999999,8.805587167999999,380
84620,200047,247968,-3.9062828945,0.9906285563999999,8.805587167999999,381
84901,200154,248051,-3.9062828945,0.9906285563999999,8.805587167999999,382
85108,200198,248065,-3.9062828945,0.9906285563999999,8.805587167999999,383
85359,200314,248057,-3.9062828945,0.9906285563999999,8.805587167999999,384
85545,200277,248143,-3.9062828945,0.9906285563999999,8.805587167999999,385
85406,200212,248084,-3.9062828945,0.9906285563999999,8.805587167999999,386
84711,200032,247910,-3.9062828945,0.9906285563999999,8.805587167999999,387
83772,199829,247847,-3.9062828945,0.9906285563999999,8.805587167999999,388
83024,199724,247781,-3.9062828945,0.9906285563999999,8.805587167999999,389
82622,199630,247698,-3.9062828945,0.9906285563999999,8.805587167999999,390
82441,199605,247717,-3.9062828945,0.9906285563999999,8.805587167999999,391
82419,199607,247692,-3.9062828945,0.9906285563999999,8.805587167999999,392
82566,199643,247720,-3.9062828945,0.9906285563999999,8.805587167999999,393
82739,199665,247756,-3.9062828945,0.9906285563999999,8.805587167999999,394
82883,199671,247745,-3.9062828945,0.9906285563999999,8.805587167999999,395
82968,199688,247690,-3.9062828945,0.9906285563999999,8.805587167999999,396
83020,199712,247749,-3.9062828945,0.9906285563999999,8.805587167999999,397
83080,199731,247775,-3.9062828945,0.9906285563999999,8.805587167999999,398
83197,199730,247804,-3.9062828945,0.9906285563999999,8.805587167999999,399
83347,199758,247765,-3.9062828945,0.9906285563999999,8.805587167999999,400
83519,199796,247796,-3.9290147091999996,0.8626125473,8.8151584584,401
83689,199842,247798,-3.9290147091999996,0.8626125473,8.8151584584,402
83868,199885,247854,-3.9290147091999996,0.8626125473,8.8151584584,403
84074,199914,247858,-3.9290147091999996,0.8626125473,8.8151584584,404
84267,200004,247964,-3.9290147091999996,0.8626125473,8.8151584584,405
84483,200008,247912,-3.9290147091999996,0.8626125473,8.8151584584,406
84655,200045,247964,-3.9290147091999996,0.8626125473,8.8151584584,407
84822,200095,248024,-3.9290147091999996,0.8626125473,8.8151584584,408
85013,200157,247996,-3.9290147091999996,0.8626125473,8.8151584584,409
85210,200244,248049,-3.9290147091999996,0.8626125473,8.8151584584,410
85363,200218,248056,-3.9290147091999996,0.8626125473,8.8151584584,411
85197,200129,248046,-3.9290147091999996,0.8626125473,8.8151584584,412
84456,200006,247892,-3.9290147091999996,0.8626125473,8.8151584584,413
83489,199780,247721,-3.9290147091999996,0.8626125473,8.8151584584,414
82676,199644,247724,-3.9290147091999996,0.8626125473,8.8151584584,415
82193,199550,247632,-3.9290147091999996,0.8626125473,8.8151584584,416
81951,199503,247662,-3.9290147091999996,0.8626125473,8.8151584584,417
81863,199481,247621,-3.9290147091999996,0.8626125473,8.8151584584,418
81900,199481,247627,-3.9290147091999996,0.8626125473,8.8151584584,419
82045,199527,247643,-3.9290147091999996,0.8626125473,8.8151584584,420
82161,199546,247644,-3.9290147091999996,0.8626125473,8.8151584584,421
82240,199536,247681,-3.9290147091999996,0.8626125473,8.8151584584,422
82281,199553,247612,-3.9290147091999996,0.8626125473,8.8151584584,423
82357,199567,247637,-3.9290147091999996,0.8626125473,8.8151584584,424
82444,199588,247679,-3.9290147091999996,0.8626125473,8.8151584584,425
82582,199615,247661,-3.9290147091999996,0.8626125473,8.8151584584,426
82750,199642,247664,-3.9290147091999996,0.8626125473,8.8151584584,427
82941,199728,247733,-3.9290147091999996,0.8626125473,8.8151584584,428
83134,199725,247834,-3.9290147091999996,0.8626125473,8.8151584584,429
83360,199829,247785,-3.9290147091999996,0.8626125473,8.8151584584,430
83585,199854,247855,-3.9290147091999996,0.8626125473,8.8151584584,431
83798,199898,247850,-3.9290147091999996,0.8626125473,8.8151584584,432
84022,199959,247905,-3.9290147091999996,0.8626125473,8.8151584584,433
84204,200020,247915,-3.9290147091999996,0.8626125473,8.8151584584,434
84448,200079,247984,-3.9290147091999996,0.8626125473,8.8151584584,435
84655,200112,248100,-3.9290147091999996,0.8626125473,8.8151584584,436
84732,200151,247988,-3.9290147091999996,0.8626125473,8.8151584584,437
84329,200029,247946,-3.9290147091999996,0.8626125473,8.8151584584,438
83392,199802,247809,-3.9290147091999996,0.8626125473,8.8151584584,439
82460,199630,247681,-3.9290147091999996,0.8626125473,8.8151584584,440
81787,199527,247596,-3.9290147091999996,0.8626125473,8.8151584584,441
81395,199421,247534,-3.9290147091999996,0.8626125473,8.8151584584,442
82211,199511,247673,-4.1336010414999995,1.0372885971,8.819944103600001,443
82423,199574,247665,-4.1336010414999995,1.0372885971,8.819944103600001,444
82621,199613,247730,-4.1336010414999995,1.0372885971,8.819944103600001,445
82822,199696,247770,-4.1336010414999995,1.0372885971,8.819944103600001,446
83066,199707,247836,-4.1336010414999995,1.0372885971,8.819944103600001,447
83299,199753,247789,-4.1336010414999995,1.0372885971,8.819944103600001,448
83501,199824,247865,-4.1336010414999995,1.0372885971,8.819944103600001,449
83738,199889,247839,-4.1336010414999995,1.0372885971,8.819944103600001,450
83954,199942,247901,-4.1336010414999995,1.0372885971,8.819944103600001,451
83906,199926,247909,-4.1336010414999995,1.0372885971,8.819944103600001,452
83358,199725,247835,-4.1336010414999995,1.0372885971,8.819944103600001,453
82448,199560,247707,-4.1336010414999995,1.0372885971,8.819944103600001,454
81705,199409,247568,-4.1336010414999995,1.0372885971,8.819944103600001,455
81250,199298,247526,-4.1336010414999995,1.0372885971,8.819944103600001,456
81034,199240,247526,-4.1336010414999995,1.0372885971,8.819944103600001,457
80980,199222,247468,-4.1336010414999995,1.0372885971,8.819944103600001,458
81060,199272,247541,-4.1336010414999995,1.0372885971,8.819944103600001,459
81259,199258,247481,-4.1336010414999995,1.0372885971,8.819944103600001,460
81411,199275,247509,-4.1336010414999995,1.0372885971,8.819944103600001,461
81491,199330,247541,-4.1336010414999995,1.0372885971,8.819944103600001,462
81576,199284,247514,-4.1336010414999995,1.0372885971,8.819944103600001,463
81640,199295,247584,-4.1336010414999995,1.0372885971,8.819944103600001,464
81776,199354,247604,-4.1336010414999995,1.0372885971,8.819944103600001,465
81909,199413,247596,-4.1336010414999995,1.0372885971,8.819944103600001,466
82129,199431,247634,-4.1336010414999995,1.0372885971,8.819944103600001,467
82298,199488,247675,-4.1336010414999995,1.0372885971,8.819944103600001,468
82515,199542,247722,-4.1336010414999995,1.0372885971,8.819944103600001,469
82718,199558,247745,-4.1336010414999995,1.0372885971,8.819944103600001,470
82931,199650,247761,-4.1336010414999995,1.0372885971,8.819944103600001,471
83136,199663,247847,-4.1336010414999995,1.0372885971,8.819944103600001,472
83328,199768,247815,-4.1336010414999995,1.0372885971,8.819944103600001,473
83522,199853,247888,-4.1336010414999995,1.0372885971,8.819944103600001,474
83695,199859,247862,-4.1336010414999995,1.0372885971,8.819944103600001,475
83545,199784,247807,-4.1336010414999995,1.0372885971,8.819944103600001,476
82798,199582,247745,-4.1336010414999995,1.0372885971,8.819944103600001,477
81852,199394,247659,-4.1336010414999995,1.0372885971,8.819944103600001,478
81117,199292,247516,-4.1336010414999995,1.0372885971,8.819944103600001,479
80642,199193,247474,-4.1336010414999995,1.0372885971,8.819944103600001,480
80419,199139,247412,-4.1336010414999995,1.0372885971,8.819944103600001,481
80317,199098,247397,-4.1336010414999995,1.0372885971,8.819944103600001,482
80385,199131,247422,-4.1336010414999995,1.0372885971,8.819944103600001,483
80571,199144,247428,-4.1336010414999995,1.0372885971,8.819944103600001,484
83038,199758,247848,-3.8811582571999996,0.9523433948,8.7290168448,485
82135,199541,247679,-3.8811582571999996,0.9523433948,8.7290168448,486
81197,199323,247578,-3.8811582571999996,0.9523433948,8.7290168448,487
80575,199224,247487,-3.8811582571999996,0.9523433948,8.7290168448,488
80181,199154,247416,-3.8811582571999996,0.9523433948,8.7290168448,489
80013,199137,247436,-3.8811582571999996,0.9523433948,8.7290168448,490
80015,199082,247412,-3.8811582571999996,0.9523433948,8.7290168448,491
80143,199123,247452,-3.8811582571999996,0.9523433948,8.7290168448,492
80349,199154,247436,-3.8811582571999996,0.9523433948,8.7290168448,493
80541,199189,247467,-3.8811582571999996,0.9523433948,8.7290168448,494
80655,199215,247489,-3.8811582571999996,0.9523433948,8.7290168448,495
80773,199241,247519,-3.8811582571999996,0.9523433948,8.7290168448,496
80892,199285,247560,-3.8811582571999996,0.9523433948,8.7290168448,497
81063,199326,247541,-3.8811582571999996,0.9523433948,8.7290168448,498
81255,199376,247573,-3.8811582571999996,0.9523433948,8.7290168448,499
81467,199407,247604,-3.8811582571999996,0.9523433948,8.7290168448,500
81698,199488,247652,-3.8811582571999996,0.9523433948,8.7290168448,501
81970,199525,247703,-3.8811582571999996,0.9523433948,8.7290168448,502
82216,199592,247727,-3.8811582571999996,0.9523433948,8.7290168448,503
82469,199691,247776,-3.8811582571999996,0.9523433948,8.7290168448,504
82721,199722,247789,-3.8811582571999996,0.9523433948,8.7290168448,505
82970,199816,247826,-3.8811582571999996,0.9523433948,8.7290168448,506
83228,199856,247890,-3.8811582571999996,0.9523433948,8.7290168448,507
83464,199940,247937,-3.8811582571999996,0.9523433948,8.7290168448,508
83705,200006,248014,-3.8811582571999996,0.9523433948,8.7290168448,509
83756,200008,248002,-3.8811582571999996,0.9523433948,8.7290168448,510
83315,199832,247917,-3.8811582571999996,0.9523433948,8.7290168448,511
82369,199645,247751,-3.8811582571999996,0.9523433948,8.7290168448,512
81533,199486,247651,-3.8811582571999996,0.9523433948,8.7290168448,513
80973,199415,247599,-3.8811582571999996,0.9523433948,8.7290168448,514
80724,199310,247521,-3.8811582571999996,0.9523433948,8.7290168448,515
80624,199309,247518,-3.8811582571999996,0.9523433948,8.7290168448,516
80683,199305,247557,-3.8811582571999996,0.9523433948,8.7290168448,517
80882,199360,247563,-3.8811582571999996,0.9523433948,8.7290168448,518
81091,199376,247652,-3.8811582571999996,0.9523433948,8.7290168448,519
81228,199384,247587,-3.8811582571999996,0.9523433948,8.7290168448,520
81336,199401,247603,-3.8811582571999996,0.9523433948,8.7290168448,521
81446,199453,247641,-3.8811582571999996,0.9523433948,8.7290168448,522
81576,199490,247656,-3.8811582571999996,0.9523433948,8.7290168448,523
81739,199514,247712,-3.8811582571999996,0.9523433948,8.7290168448,524
81911,199580,247731,-3.8811582571999996,0.9523433948,8.7290168448,525
82133,199611,247713,-3.8811582571999996,0.9523433948,8.7290168448,526
83055,199838,247875,-3.8105699905,0.9954142015999999,8.7828553533,527
83294,199930,247928,-3.8105699905,0.9954142015999999,8.7828553533,528
83518,199937,247968,-3.8105699905,0.9954142015999999,8.7828553533,529
83760,199997,247973,-3.8105699905,0.9954142015999999,8.7828553533,530
83946,200069,247972,-3.8105699905,0.9954142015999999,8.7828553533,531
83810,200008,247973,-3.8105699905,0.9954142015999999,8.7828553533,532
83110,199798,247792,-3.8105699905,0.9954142015999999,8.7828553533,533
82143,199601,247719,-3.8105699905,0.9954142015999999,8.7828553533,534
81431,199468,247697,-3.8105699905,0.9954142015999999,8.7828553533,535
80997,199389,247611,-3.8105699905,0.9954142015999999,8.7828553533,536
80794,199334,247541,-3.8105699905,0.9954142015999999,8.7828553533,537
80762,199349,247521,-3.8105699905,0.9954142015999999,8.7828553533,538
80899,199363,247574,-3.8105699905,0.9954142015999999,8.7828553533,539
81095,199433,247565,-3.8105699905,0.9954142015999999,8.7828553533,540
81276,199462,247606,-3.8105699905,0.9954142015999999,8.7828553533,541
81369,199472,247619,-3.8105699905,0.9954142015999999,8.7828553533,542
81450,199495,247621,-3.8105699905,0.9954142015999999,8.7828553533,543
81547,199516,247643,-3.8105699905,0.9954142015999999,8.7828553533,544
81670,199543,247675,-3.8105699905,0.9954142015999999,8.7828553533,545
81815,199575,247659,-3.9290147091999996,0.8338986760999999,8.8713897895,546
82001,199629,247738,-3.9290147091999996,0.8338986760999999,8.8713897895,547
82197,199681,247735,-3.9290147091999996,0.8338986760999999,8.8713897895,548
82411,199730,247774,-3.9290147091999996,0.8338986760999999,8.8713897895,549
82630,199804,247828,-3.9290147091999996,0.8338986760999999,8.8713897895,550
82858,199860,247873,-3.9290147091999996,0.8338986760999999,8.8713897895,551
83072,199899,247893,-3.9290147091999996,0.8338986760999999,8.8713897895,552
83314,200013,247952,-3.9290147091999996,0.8338986760999999,8.8713897895,553
83527,200033,247973,-3.9290147091999996,0.8338986760999999,8.8713897895,554
83764,200110,248005,-3.9290147091999996,0.8338986760999999,8.8713897895,555
83892,200093,248041,-3.9290147091999996,0.8338986760999999,8.8713897895,556
83534,200032,247913,-3.9290147091999996,0.8338986760999999,8.8713897895,557
82608,199768,247797,-3.9290147091999996,0.8338986760999999,8.8713897895,558
81599,199586,247690,-3.9290147091999996,0.8338986760999999,8.8713897895,559
80890,199466,247601,-3.9290147091999996,0.8338986760999999,8.8713897895,560
80491,199343,247573,-3.9290147091999996,0.8338986760999999,8.8713897895,561
80289,199318,247528,-3.9290147091999996,0.8338986760999999,8.8713897895,562
80266,199338,247554,-3.9290147091999996,0.8338986760999999,8.8713897895,563
80396,199369,247546,-3.9290147091999996,0.8338986760999999,8.8713897895,564
80615,199433,247578,-3.9290147091999996,0.8338986760999999,8.8713897895,565
80787,199436,247573,-3.9290147091999996,0.8338986760999999,8.8713897895,566
80879,199457,247570,-3.9290147091999996,0.8338986760999999,8.8713897895,567
80973,199443,247625,-3.9290147091999996,0.8338986760999999,8.8713897895,568
81086,199535,247635,-3.9290147091999996,0.8338986760999999,8.8713897895,569
81241,199546,247702,-3.9290147091999996,0.8338986760999999,8.8713897895,570
81408,199554,247665,-3.9290147091999996,0.8338986760999999,8.8713897895,571
81626,199639,247716,-3.9290147091999996,0.8338986760999999,8.8713897895,572
81847,199673,247727,-3.9290147091999996,0.8338986760999999,8.8713897895,573
82078,199759,247745,-3.9290147091999996,0.8338986760999999,8.8713897895,574
82327,199818,247765,-3.9290147091999996,0.8338986760999999,8.8713897895,575
82560,199853,247855,-3.9290147091999996,0.8338986760999999,8.8713897895,576
82786,199926,247882,-3.9290147091999996,0.8338986760999999,8.8713897895,577
83042,199987,247891,-3.9290147091999996,0.8338986760999999,8.8713897895,578
83281,200079,247953,-3.9290147091999996,0.8338986760999999,8.8713897895,579
83491,200107,248013,-3.9290147091999996,0.8338986760999999,8.8713897895,580
83717,200190,248021,-3.9290147091999996,0.8338986760999999,8.8713897895,581
83902,200214,248074,-3.9290147091999996,0.8338986760999999,8.8713897895,582
83706,200134,248004,-3.9290147091999996,0.8338986760999999,8.8713897895,583
82875,199934,247837,-3.9290147091999996,0.8338986760999999,8.8713897895,584
81819,199725,247737,-4.0618163635,0.9475577495999999,8.9575314031,585
81086,199544,247614,-4.0618163635,0.9475577495999999,8.9575314031,586
80608,199427,247604,-4.0618163635,0.9475577495999999,8.9575314031,587
80383,199397,247555,-4.0618163635,0.9475577495999999,8.9575314031,588
80334,199354,247570,-4.0618163635,0.9475577495999999,8.9575314031,589
80420,199398,247530,-4.0618163635,0.9475577495999999,8.9575314031,590
80634,199504,247594,-4.0618163635,0.9475577495999999,8.9575314031,591
80875,199471,247611,-4.0618163635,0.9475577495999999,8.9575314031,592
81010,199482,247593,-4.0618163635,0.9475577495999999,8.9575314031,593
81132,199502,247599,-4.0618163635,0.9475577495999999,8.9575314031,594
81291,199534,247605,-4.0618163635,0.9475577495999999,8.9575314031,595
81439,199573,247644,-4.0618163635,0.9475577495999999,8.9575314031,596
81638,199621,247656,-4.0618163635,0.9475577495999999,8.9575314031,597
81834,199650,247699,-4.0618163635,0.9475577495999999,8.9575314031,598
82046,199722,247739,-4.0618163635,0.9475577495999999,8.9575314031,599
82312,199808,247726,-4.0618163635,0.9475577495999999,8.9575314031,600
82568,199872,247818,-4.0618163635,0.9475577495999999,8.9575314031,601
82819,199898,247847,-4.0618163635,0.9475577495999999,8.9575314031,602
83081,199966,247895,-4.0618163635,0.9475577495999999,8.9575314031,603
83326,200037,247988,-4.0618163635,0.9475577495999999,8.9575314031,604
83595,200109,247971,-4.0618163635,0.9475577495999999,8.9575314031,605
83838,200190,247983,-4.0618163635,0.9475577495999999,8.9575314031,606
84087,200219,248024,-4.0618163635,0.9475577495999999,8.9575314031,607
84328,200261,248080,-4.0618163635,0.9475577495999999,8.9575314031,608
84564,200304,248114,-4.0618163635,0.9475577495999999,8.9575314031,609
84750,200377,248159,-4.0618163635,0.9475577495999999,8.9575314031,610
84512,200243,248086,-4.0618163635,0.9475577495999999,8.9575314031,611
83695,200070,247979,-4.0618163635,0.9475577495999999,8.9575314031,612
82702,199874,247795,-4.0618163635,0.9475577495999999,8.9575314031,613
81966,199708,247661,-4.0618163635,0.9475577495999999,8.9575314031,614
81554,199599,247647,-4.0618163635,0.9475577495999999,8.9575314031,615
81352,199576,247616,-4.0618163635,0.9475577495999999,8.9575314031,616
81342,199609,247634,-4.0618163635,0.9475577495999999,8.9575314031,617
81501,199599,247605,-4.0618163635,0.9475577495999999,8.9575314031,618
81710,199650,247675,-4.0618163635,0.9475577495999999,8.9575314031,619
81920,199699,247662,-4.0618163635,0.9475577495999999,8.9575314031,620
82060,199746,247633,-4.0618163635,0.9475577495999999,8.9575314031,621
82173,199705,247667,-4.0618163635,0.9475577495999999,8.9575314031,622
82324,199756,247691,-4.0618163635,0.9475577495999999,8.9575314031,623
82473,199809,247730,-4.0618163635,0.9475577495999999,8.9575314031,624
82639,199819,247718,-4.0618163635,0.9475577495999999,8.9575314031,625
82871,199900,247757,-4.0618163635,0.9475577495999999,8.9575314031,626
85246,200439,248116,-3.7974094662,0.933200814,8.7972122889,627
85481,200517,248180,-3.7974094662,0.933200814,8.7972122889,628
85707,200561,248187,-3.7974094662,0.933200814,8.7972122889,629
85746,200541,248155,-3.7974094662,0.933200814,8.7972122889,630
85229,200361,248098,-3.7974094662,0.933200814,8.7972122889,631
84252,200139,247917,-3.7974094662,0.933200814,8.7972122889,632
83349,200007,247828,-3.7974094662,0.933200814,8.7972122889,633
82768,199899,247756,-3.7974094662,0.933200814,8.7972122889,634
82457,199826,247761,-3.7974094662,0.933200814,8.7972122889,635
82333,199844,247704,-3.7974094662,0.933200814,8.7972122889,636
82422,199803,247780,-3.7974094662,0.933200814,8.7972122889,637
82576,199862,247711,-3.7974094662,0.933200814,8.7972122889,638
82743,199892,247737,-3.7974094662,0.933200814,8.7972122889,639
82849,199912,247777,-3.7974094662,0.933200814,8.7972122889,640
82944,199891,247726,-3.7974094662,0.933200814,8.7972122889,641
82948,199893,247765,-3.7974094662,0.933200814,8.7972122889,642
83067,199951,247724,-3.7974094662,0.933200814,8.7972122889,643
83161,199963,247785,-3.7974094662,0.933200814,8.7972122889,644
83338,199983,247806,-3.7974094662,0.933200814,8.7972122889,645
83480,200018,247840,-3.7974094662,0.933200814,8.7972122889,646
83660,200119,247854,-3.7974094662,0.933200814,8.7972122889,647
83869,200104,247889,-3.7974094662,0.933200814,8.7972122889,648
84035,200199,247947,-3.7974094662,0.933200814,8.7972122889,649
84234,200242,247942,-3.7974094662,0.933200814,8.7972122889,650
84416,200278,248004,-3.7974094662,0.933200814,8.7972122889,651
84628,200317,248013,-3.7974094662,0.933200814,8.7972122889,652
84828,200346,248033,-3.7974094662,0.933200814,8.7972122889,653
85016,200376,248035,-3.7974094662,0.933200814,8.7972122889,654
85204,200507,248083,-3.7974094662,0.933200814,8.7972122889,655
85296,200485,248087,-3.7974094662,0.933200814,8.7972122889,656
84963,200370,248025,-3.7974094662,0.933200814,8.7972122889,657
84015,200160,247870,-3.7974094662,0.933200814,8.7972122889,658
82893,199909,247736,-3.7974094662,0.933200814,8.7972122889,659
82049,199780,247660,-3.7974094662,0.933200814,8.7972122889,660
81483,199680,247563,-3.7974094662,0.933200814,8.7972122889,661
81194,199598,247588,-3.7974094662,0.933200814,8.7972122889,662
81091,199564,247506,-3.7974094662,0.933200814,8.7972122889,663
81159,199583,247524,-3.7974094662,0.933200814,8.7972122889,664
81330,199625,247520,-3.7974094662,0.933200814,8.7972122889,665
81458,199638,247530,-3.7974094662,0.933200814,8.7972122889,666
81524,199585,247509,-3.7974094662,0.933200814,8.7972122889,667
81597,199652,247528,-3.7974094662,0.933200814,8.7972122889,668
82117,199776,247614,-4.0103706776,1.0516455327,8.8426759183,669
82341,199808,247644,-4.0103706776,1.0516455327,8.8426759183,670
82571,199865,247660,-4.0103706776,1.0516455327,8.8426759183,671
82815,199912,247700,-4.0103706776,1.0516455327,8.8426759183,672
83071,199957,247732,-4.0103706776,1.0516455327,8.8426759183,673
83335,200022,247814,-4.0103706776,1.0516455327,8.8426759183,674
83551,200075,247828,-4.0103706776,1.0516455327,8.8426759183,675
83834,200158,247895,-4.0103706776,1.0516455327,8.8426759183,676
84083,200217,247924,-4.0103706776,1.0516455327,8.8426759183,677
84322,200241,247908,-4.0103706776,1.0516455327,8.8426759183,678
84546,200344,247992,-4.0103706776,1.0516455327,8.8426759183,679
84793,200415,248007,-4.0103706776,1.0516455327,8.8426759183,680
84860,200360,247994,-4.0103706776,1.0516455327,8.8426759183,681
84352,200239,247901,-4.0103706776,1.0516455327,8.8426759183,682
83323,200036,247773,-4.0103706776,1.0516455327,8.8426759183,683
82260,199807,247655,-4.0103706776,1.0516455327,8.8426759183,684
81564,199671,247573,-4.0103706776,1.0516455327,8.8426759183,685
81151,199599,247488,-4.0103706776,1.0516455327,8.8426759183,686
80974,199538,247479,-4.0103706776,1.0516455327,8.8426759183,687
80955,199519,247480,-4.0103706776,1.0516455327,8.8426759183,688
81137,199542,247452,-4.0103706776,1.0516455327,8.8426759183,689
81324,199641,247474,-4.0103706776,1.0516455327,8.8426759183,690
81518,199606,247562,-4.0103706776,1.0516455327,8.8426759183,691
81605,199612,247518,-4.0103706776,1.0516455327,8.8426759183,692
81747,199653,247554,-4.0103706776,1.0516455327,8.8426759183,693
81856,199680,247530,-4.0103706776,1.0516455327,8.8426759183,694
82020,199727,247593,-4.0103706776,1.0516455327,8.8426759183,695
82176,199752,247618,-4.0103706776,1.0516455327,8.8426759183,696
82395,199797,247674,-4.0103706776,1.0516455327,8.8426759183,697
82624,199814,247628,-4.0103706776,1.0516455327,8.8426759183,698
82862,199902,247707,-4.0103706776,1.0516455327,8.8426759183,699
83110,199988,247771,-4.0103706776,1.0516455327,8.8426759183,700
83359,200080,247850,-4.0103706776,1.0516455327,8.8426759183,701
83627,200132,247816,-4.0103706776,1.0516455327,8.8426759183,702
83909,200140,247895,-4.0103706776,1.0516455327,8.8426759183,703
84158,200234,247972,-4.0103706776,1.0516455327,8.8426759183,704
84389,200255,247957,-4.0103706776,1.0516455327,8.8426759183,705
84663,200327,247983,-4.0103706776,1.0516455327,8.8426759183,706
84878,200404,248046,-4.0103706776,1.0516455327,8.8426759183,707
84785,200315,248002,-4.0103706776,1.0516455327,8.8426759183,708
84053,200155,247910,-4.0103706776,1.0516455327,8.8426759183,709
83014,199981,247748,-4.0103706776,1.0516455327,8.8426759183,710
82256,199734,247610,-3.9816568063999997,0.9487541609,8.8390866844,711
82390,199727,247670,-3.9816568063999997,0.9487541609,8.8390866844,712
82550,199742,247659,-3.9816568063999997,0.9487541609,8.8390866844,713
82737,199786,247662,-3.9816568063999997,0.9487541609,8.8390866844,714
82952,199862,247731,-3.9816568063999997,0.9487541609,8.8390866844,715
83158,199892,247740,-3.9816568063999997,0.9487541609,8.8390866844,716
83394,199956,247803,-3.9816568063999997,0.9487541609,8.8390866844,717
83621,200066,247785,-3.9816568063999997,0.9487541609,8.8390866844,718
83859,200029,247864,-3.9816568063999997,0.9487541609,8.8390866844,719
84100,200124,247878,-3.9816568063999997,0.9487541609,8.8390866844,720
84334,200159,247958,-3.9816568063999997,0.9487541609,8.8390866844,721
84570,200219,247938,-3.9816568063999997,0.9487541609,8.8390866844,722
84776,200284,247999,-3.9816568063999997,0.9487541609,8.8390866844,723
84718,200219,247900,-3.9816568063999997,0.9487541609,8.8390866844,724
84049,200045,247835,-3.9816568063999997,0.9487541609,8.8390866844,725
83022,199821,247676,-3.9816568063999997,0.9487541609,8.8390866844,726
82165,199658,247576,-3.9816568063999997,0.9487541609,8.8390866844,727
81631,199557,247517,-3.9816568063999997,0.9487541609,8.8390866844,728
81345,199462,247469,-3.9816568063999997,0.9487541609,8.8390866844,729
81277,199473,247496,-3.9816568063999997,0.9487541609,8.8390866844,730
81331,199450,247484,-3.9816568063999997,0.9487541609,8.8390866844,731
81539,199467,247543,-3.9816568063999997,0.9487541609,8.8390866844,732
81721,199484,247479,-3.9816568063999997,0.9487541609,8.8390866844,733
81802,199547,247483,-3.9816568063999997,0.9487541609,8.8390866844,734
81894,199506,247493,-3.9816568063999997,0.9487541609,8.8390866844,735
81936,199519,247569,-3.9816568063999997,0.9487541609,8.8390866844,736
82035,199521,247533,-3.9816568063999997,0.9487541609,8.8390866844,737
82161,199558,247535,-3.9816568063999997,0.9487541609,8.8390866844,738
82341,199577,247600,-3.9816568063999997,0.9487541609,8.8390866844,739
82513,199627,247606,-3.9816568063999997,0.9487541609,8.8390866844,740
82707,199719,247690,-3.9816568063999997,0.9487541609,8.8390866844,741
82907,199731,247664,-3.9816568063999997,0.9487541609,8.8390866844,742
83121,199751,247664,-3.9816568063999997,0.9487541609,8.8390866844,743
83319,199815,247777,-3.9816568063999997,0.9487541609,8.8390866844,744
83535,199850,247751,-3.9816568063999997,0.9487541609,8.8390866844,745
83752,199925,247813,-3.9816568063999997,0.9487541609,8.8390866844,746
83945,199955,247849,-3.9816568063999997,0.9487541609,8.8390866844,747
83841,199915,247728,-3.9816568063999997,0.9487541609,8.8390866844,748
83121,199723,247679,-3.9816568063999997,0.9487541609,8.8390866844,749
82038,199469,247480,-3.9816568063999997,0.9487541609,8.8390866844,750
81131,199309,247410,-3.9816568063999997,0.9487541609,8.8390866844,751
80539,199140,247294,-3.9816568063999997,0.9487541609,8.8390866844,752
78779,198683,247084,-3.9517465239000003,0.8685946038000001,8.9144605963,753
78586,198574,247008,-3.9517465239000003,0.8685946038000001,8.9144605963,754
78588,198590,247032,-3.9517465239000003,0.8685946038000001,8.9144605963,755
78759,198612,247067,-3.9517465239000003,0.8685946038000001,8.9144605963,756
78946,198632,247097,-3.9517465239000003,0.8685946038000001,8.9144605963,757
79072,198660,247065,-3.9517465239000003,0.8685946038000001,8.9144605963,758
79185,198680,247059,-3.9517465239000003,0.8685946038000001,8.9144605963,759
79264,198671,247118,-3.9517465239000003,0.8685946038000001,8.9144605963,760
79390,198726,247110,-3.9517465239000003,0.8685946038000001,8.9144605963,761
79543,198745,247180,-3.9517465239000003,0.8685946038000001,8.9144605963,762
79700,198801,247188,-3.9517465239000003,0.8685946038000001,8.9144605963,763
79913,198849,247211,-3.9517465239000003,0.8685946038000001,8.9144605963,764
80126,198871,247217,-3.9517465239000003,0.8685946038000001,8.9144605963,765
80350,198956,247311,-3.9517465239000003,0.8685946038000001,8.9144605963,766
80614,198968,247315,-3.9517465239000003,0.8685946038000001,8.9144605963,767
80840,199072,247409,-3.9517465239000003,0.8685946038000001,8.9144605963,768
81074,199079,247448,-3.9517465239000003,0.8685946038000001,8.9144605963,769
81293,199160,247461,-3.9517465239000003,0.8685946038000001,8.9144605963,770
81546,199231,247485,-3.9517465239000003,0.8685946038000001,8.9144605963,771
81664,199276,247529,-3.9517465239000003,0.8685946038000001,8.9144605963,772
81328,199154,247459,-3.9517465239000003,0.8685946038000001,8.9144605963,773
80387,198926,247272,-3.9517465239000003,0.8685946038000001,8.9144605963,774
79410,198709,247126,-3.9517465239000003,0.8685946038000001,8.9144605963,775
78729,198511,247070,-3.9517465239000003,0.8685946038000001,8.9144605963,776
78363,198428,246985,-3.9517465239000003,0.8685946038000001,8.9144605963,777
78194,198337,246953,-3.9517465239000003,0.8685946038000001,8.9144605963,778
78234,198379,246979,-3.9517465239000003,0.8685946038000001,8.9144605963,779
78394,198357,246988,-3.9517465239000003,0.8685946038000001,8.9144605963,780
78657,198401,246962,-3.9517465239000003,0.8685946038000001,8.9144605963,781
78831,198447,247028,-3.9517465239000003,0.8685946038000001,8.9144605963,782
78952,198419,247008,-3.9517465239000003,0.8685946038000001,8.9144605963,783
79099,198447,247022,-3.9517465239000003,0.8685946038000001,8.9144605963,784
79237,198488,247049,-3.9517465239000003,0.8685946038000001,8.9144605963,785
79432,198496,247058,-3.9517465239000003,0.8685946038000001,8.9144605963,786
79619,198572,247117,-3.9517465239000003,0.8685946038000001,8.9144605963,787
79841,198641,247180,-3.9517465239000003,0.8685946038000001,8.9144605963,788
80106,198677,247209,-3.9517465239000003,0.8685946038000001,8.9144605963,789
80344,198741,247257,-3.9517465239000003,0.8685946038000001,8.9144605963,790
80618,198834,247256,-3.9517465239000003,0.8685946038000001,8.9144605963,791
80868,198873,247336,-3.9517465239000003,0.8685946038000001,8.9144605963,792
81116,198957,247399,-3.9517465239000003,0.8685946038000001,8.9144605963,793
81391,198985,247376,-3.9517465239000003,0.8685946038000001,8.9144605963,794
80724,198619,247219,-3.8859439023999998,0.9044869428,8.829515394,795
80935,198662,247257,-3.8859439023999998,0.9044869428,8.829515394,796
81137,198719,247342,-3.8859439023999998,0.9044869428,8.829515394,797
81376,198828,247326,-3.8859439023999998,0.9044869428,8.829515394,798
81620,198883,247336,-3.8859439023999998,0.9044869428,8.829515394,799
81833,198899,247457,-3.8859439023999998,0.9044869428,8.829515394,800
82080,198986,247457,-3.8859439023999998,0.9044869428,8.829515394,801
82298,199057,247483,-3.8859439023999998,0.9044869428,8.829515394,802
82506,199065,247539,-3.8859439023999998,0.9044869428,8.829515394,803
82734,199196,247595,-3.8859439023999998,0.9044869428,8.829515394,804
82915,199198,247600,-3.8859439023999998,0.9044869428,8.829515394,805
82780,199147,247561,-3.8859439023999998,0.9044869428,8.829515394,806
81978,198905,247433,-3.8859439023999998,0.9044869428,8.829515394,807
80915,198685,247272,-3.8859439023999998,0.9044869428,8.829515394,808
80089,198542,247161,-3.8859439023999998,0.9044869428,8.829515394,809
79593,198401,247120,-3.8859439023999998,0.9044869428,8.829515394,810
79304,198362,247071,-3.8859439023999998,0.9044869428,8.829515394,811
79246,198358,247054,-3.8859439023999998,0.9044869428,8.829515394,812
79345,198346,247068,-3.8859439023999998,0.9044869428,8.829515394,813
79512,198399,247129,-3.8859439023999998,0.9044869428,8.829515394,814
79695,198446,247106,-3.8859439023999998,0.9044869428,8.829515394,815
79800,198435,247129,-3.8859439023999998,0.9044869428,8.829515394,816
79887,198437,247164,-3.8859439023999998,0.9044869428,8.829515394,817
80002,198487,247174,-3.8859439023999998,0.9044869428,8.829515394,818
80160,198507,247182,-3.8859439023999998,0.9044869428,8.829515394,819
80313,198576,247210,-3.8859439023999998,0.9044869428,8.829515394,820
80522,198621,247202,-3.8859439023999998,0.9044869428,8.829515394,821
80756,198724,247292,-3.8859439023999998,0.9044869428,8.829515394,822
80994,198794,247337,-3.8859439023999998,0.9044869428,8.829515394,823
81238,198813,247368,-3.8859439023999998,0.9044869428,8.829515394,824
81510,198927,247413,-3.8859439023999998,0.9044869428,8.829515394,825
81746,198968,247493,-3.8859439023999998,0.9044869428,8.829515394,826
81988,199039,247512,-3.8859439023999998,0.9044869428,8.829515394,827
82224,199068,247529,-3.8859439023999998,0.9044869428,8.829515394,828
82480,199173,247597,-3.8859439023999998,0.9044869428,8.829515394,829
82719,199243,247618,-3.8859439023999998,0.9044869428,8.829515394,830
82955,199316,247695,-3.8859439023999998,0.9044869428,8.829515394,831
83118,199327,247709,-3.8859439023999998,0.9044869428,8.829515394,832
82875,199236,247660,-3.8859439023999998,0.9044869428,8.829515394,833
81965,199038,247481,-3.8859439023999998,0.9044869428,8.829515394,834
80907,198821,247422,-3.8859439023999998,0.9044869428,8.829515394,835
80138,198652,247249,-3.8859439023999998,0.9044869428,8.829515394,836
82935,199384,247794,-4.1024943476999995,0.8673981925,8.7768732968,837
83199,199492,247816,-4.1024943476999995,0.8673981925,8.7768732968,838
83448,199548,247864,-4.1024943476999995,0.8673981925,8.7768732968,839
83702,199617,247885,-4.1024943476999995,0.8673981925,8.7768732968,840
83924,199607,247944,-4.1024943476999995,0.8673981925,8.7768732968,841
84148,199737,248013,-4.1024943476999995,0.8673981925,8.7768732968,842
84363,199788,247989,-4.1024943476999995,0.8673981925,8.7768732968,843
84156,199714,247929,-4.1024943476999995,0.8673981925,8.7768732968,844
83271,199480,247873,-4.1024943476999995,0.8673981925,8.7768732968,845
82209,199282,247704,-4.1024943476999995,0.8673981925,8.7768732968,846
81365,199110,247627,-4.1024943476999995,0.8673981925,8.7768732968,847
80824,199031,247501,-4.1024943476999995,0.8673981925,8.7768732968,848
80548,198949,247472,-4.1024943476999995,0.8673981925,8.7768732968,849
80450,198877,247479,-4.1024943476999995,0.8673981925,8.7768732968,850
80532,198898,247465,-4.1024943476999995,0.8673981925,8.7768732968,851
80740,198915,247495,-4.1024943476999995,0.8673981925,8.7768732968,852
80952,198976,247511,-4.1024943476999995,0.8673981925,8.7768732968,853
81078,198965,247539,-4.1024943476999995,0.8673981925,8.7768732968,854
81197,198995,247529,-4.1024943476999995,0.8673981925,8.7768732968,855
81320,199043,247562,-4.1024943476999995,0.8673981925,8.7768732968,856
81477,199063,247613,-4.1024943476999995,0.8673981925,8.7768732968,857
81650,199138,247632,-4.1024943476999995,0.8673981925,8.7768732968,858
81865,199146,247591,-4.1024943476999995,0.8673981925,8.7768732968,859
82078,199248,247720,-4.1024943476999995,0.8673981925,8.7768732968,860
82336,199280,247709,-4.1024943476999995,0.8673981925,8.7768732968,861
82572,199338,247773,-4.1024943476999995,0.8673981925,8.7768732968,862
82857,199416,247758,-4.1024943476999995,0.8673981925,8.7768732968,863
83110,199447,247842,-4.1024943476999995,0.8673981925,8.7768732968,864
83381,199513,247885,-4.1024943476999995,0.8673981925,8.7768732968,865
83618,199593,247885,-4.1024943476999995,0.8673981925,8.7768732968,866
83886,199691,247964,-4.1024943476999995,0.8673981925,8.7768732968,867
84124,199741,247997,-4.1024943476999995,0.8673981925,8.7768732968,868
84382,199791,248050,-4.1024943476999995,0.8673981925,8.7768732968,869
84585,199864,248090,-4.1024943476999995,0.8673981925,8.7768732968,870
84557,199834,248025,-4.1024943476999995,0.8673981925,8.7768732968,871
83892,199643,247952,-4.1024943476999995,0.8673981925,8.7768732968,872
82810,199409,247828,-4.1024943476999995,0.8673981925,8.7768732968,873
81941,199259,247716,-4.1024943476999995,0.8673981925,8.7768732968,874
81360,199158,247661,-4.1024943476999995,0.8673981925,8.7768732968,875
81051,199072,247616,-4.1024943476999995,0.8673981925,8.7768732968,876
80947,199054,247612,-4.1024943476999995,0.8673981925,8.7768732968,877
81019,199049,247585,-4.1024943476999995,0.8673981925,8.7768732968,878
82787,199449,247777,-3.9254254753,0.8530412569000001,8.943174467499999,879
83028,199472,247845,-3.9254254753,0.8530412569000001,8.943174467499999,880
83285,199556,247848,-3.9254254753,0.8530412569000001,8.943174467499999,881
83540,199598,247880,-3.9254254753,0.8530412569000001,8.943174467499999,882
83803,199666,247962,-3.9254254753,0.8530412569000001,8.943174467499999,883
84070,199772,248028,-3.9254254753,0.8530412569000001,8.943174467499999,884
84328,199773,248022,-3.9254254753,0.8530412569000001,8.943174467499999,885
84602,199901,248096,-3.9254254753,0.8530412569000001,8.943174467499999,886
84865,199916,248134,-3.9254254753,0.8530412569000001,8.943174467499999,887
85123,200019,248158,-3.9254254753,0.8530412569000001,8.943174467499999,888
85261,200074,248234,-3.9254254753,0.8530412569000001,8.943174467499999,889
84910,199921,248128,-3.9254254753,0.8530412569000001,8.943174467499999,890
83987,199722,247968,-3.9254254753,0.8530412569000001,8.943174467499999,891
83054,199542,247865,-3.9254254753,0.8530412569000001,8.943174467499999,892
82371,199435,247820,-3.9254254753,0.8530412569000001,8.943174467499999,893
82000,199350,247707,-3.9254254753,0.8530412569000001,8.943174467499999,894
81860,199297,247706,-3.9254254753,0.8530412569000001,8.943174467499999,895
81851,199242,247717,-3.9254254753,0.8530412569000001,8.943174467499999,896
82040,199272,247697,-3.9254254753,0.8530412569000001,8.943174467499999,897
82248,199335,247766,-3.9254254753,0.8530412569000001,8.943174467499999,898
82378,199328,247786,-3.9254254753,0.8530412569000001,8.943174467499999,899
82509,199348,247777,-3.9254254753,0.8530412569000001,8.943174467499999,900
82581,199395,247750,-3.9254254753,0.8530412569000001,8.943174467499999,901
82725,199410,247758,-3.9254254753,0.8530412569000001,8.943174467499999,902
82863,199433,247831,-3.9254254753,0.8530412569000001,8.943174467499999,903
83052,199472,247842,-3.9254254753,0.8530412569000001,8.943174467499999,904
83248,199506,247937,-3.9254254753,0.8530412569000001,8.943174467499999,905
83448,199606,247866,-3.9254254753,0.8530412569000001,8.943174467499999,906
83693,199640,247954,-3.9254254753,0.8530412569000001,8.943174467499999,907
83933,199731,247978,-3.9254254753,0.8530412569000001,8.943174467499999,908
84171,199735,247993,-3.9254254753,0.8530412569000001,8.943174467499999,909
84403,199806,248022,-3.9254254753,0.8530412569000001,8.943174467499999,910
84646,199830,248118,-3.9254254753,0.8530412569000001,8.943174467499999,911
84900,199929,248110,-3.9254254753,0.8530412569000001,8.943174467499999,912
85112,199960,248152,-3.9254254753,0.8530412569000001,8.943174467499999,913
85370,200035,248197,-3.9254254753,0.8530412569000001,8.943174467499999,914
85581,200065,248179,-3.9254254753,0.8530412569000001,8.943174467499999,915
85654,200059,248193,-3.9254254753,0.8530412569000001,8.943174467499999,916
85129,199959,248118,-3.9254254753,0.8530412569000001,8.943174467499999,917
84144,199751,247990,-3.9254254753,0.8530412569000001,8.943174467499999,918
83221,199579,247906,-3.9254254753,0.8530412569000001,8.943174467499999,919
82582,199452,247821,-3.9254254753,0.8530412569000001,8.943174467499999,920
85151,199980,248176,-4.0630127748,1.07677017,9.0017986212,921
85255,200015,248166,-4.0630127748,1.07677017,9.0017986212,922
84836,199885,248102,-4.0630127748,1.07677017,9.0017986212,923
83825,199667,248016,-4.0630127748,1.07677017,9.0017986212,924
82794,199460,247837,-4.0630127748,1.07677017,9.0017986212,925
82076,199276,247789,-4.0630127748,1.07677017,9.0017986212,926
81652,199191,247713,-4.0630127748,1.07677017,9.0017986212,927
81441,199132,247681,-4.0630127748,1.07677017,9.0017986212,928
81424,199127,247640,-4.0630127748,1.07677017,9.0017986212,929
81552,199119,247657,-4.0630127748,1.07677017,9.0017986212,930
81753,199194,247685,-4.0630127748,1.07677017,9.0017986212,931
81935,199190,247687,-4.0630127748,1.07677017,9.0017986212,932
82064,199201,247722,-4.0630127748,1.07677017,9.0017986212,933
82166,199248,247746,-4.0630127748,1.07677017,9.0017986212,934
82285,199232,247733,-4.0630127748,1.07677017,9.0017986212,935
82446,199269,247738,-4.0630127748,1.07677017,9.0017986212,936
82622,199291,247761,-4.0630127748,1.07677017,9.0017986212,937
82818,199371,247811,-4.0630127748,1.07677017,9.0017986212,938
83055,199428,247835,-4.0630127748,1.07677017,9.0017986212,939
83294,199496,247898,-4.0630127748,1.07677017,9.0017986212,940
83536,199527,247907,-4.0630127748,1.07677017,9.0017986212,941
83788,199568,247956,-4.0630127748,1.07677017,9.0017986212,942
84048,199657,247971,-4.0630127748,1.07677017,9.0017986212,943
84321,199728,248017,-4.0630127748,1.07677017,9.0017986212,944
84587,199781,248039,-4.0630127748,1.07677017,9.0017986212,945
84846,199869,248075,-4.0630127748,1.07677017,9.0017986212,946
85089,199948,248129,-4.0630127748,1.07677017,9.0017986212,947
85354,199992,248160,-4.0630127748,1.07677017,9.0017986212,948
85563,200050,248189,-4.0630127748,1.07677017,9.0017986212,949
85448,199963,248160,-4.0630127748,1.07677017,9.0017986212,950
84699,199766,248058,-4.0630127748,1.07677017,9.0017986212,951
83669,199527,247902,-4.0630127748,1.07677017,9.0017986212,952
82819,199369,247825,-4.0630127748,1.07677017,9.0017986212,953
82322,199266,247721,-4.0630127748,1.07677017,9.0017986212,954
82045,199225,247697,-4.0630127748,1.07677017,9.0017986212,955
81980,199206,247700,-4.0630127748,1.07677017,9.0017986212,956
82078,199208,247751,-4.0630127748,1.07677017,9.0017986212,957
82292,199196,247698,-4.0630127748,1.07677017,9.0017986212,958
82458,199260,247713,-4.0630127748,1.07677017,9.0017986212,959
82614,199248,247752,-4.0630127748,1.07677017,9.0017986212,960
82695,199267,247768,-4.0630127748,1.07677017,9.0017986212,961
82828,199358,247804,-4.0630127748,1.07677017,9.0017986212,962
84968,199867,248081,-3.9912280968,0.9140582332,8.8390866844,963
85219,199921,248178,-3.9912280968,0.9140582332,8.8390866844,964
85478,199979,248164,-3.9912280968,0.9140582332,8.8390866844,965
85707,200034,248213,-3.9912280968,0.9140582332,8.8390866844,966
85651,200008,248173,-3.9912280968,0.9140582332,8.8390866844,967
85036,199803,248064,-3.9912280968,0.9140582332,8.8390866844,968
84021,199616,247960,-3.9912280968,0.9140582332,8.8390866844,969
83199,199464,247879,-3.9912280968,0.9140582332,8.8390866844,970
82660,199308,247774,-3.9912280968,0.9140582332,8.8390866844,971
82387,199295,247761,-3.9912280968,0.9140582332,8.8390866844,972
82286,199262,247725,-3.9912280968,0.9140582332,8.8390866844,973
82354,199251,247680,-3.9912280968,0.9140582332,8.8390866844,974
82541,199257,247741,-3.9912280968,0.9140582332,8.8390866844,975
82695,199285,247719,-3.9912280968,0.9140582332,8.8390866844,976
82818,199355,247740,-3.9912280968,0.9140582332,8.8390866844,977
82889,199328,247688,-3.9912280968,0.9140582332,8.8390866844,978
82941,199325,247810,-3.9912280968,0.9140582332,8.8390866844,979
83064,199376,247771,-3.9912280968,0.9140582332,8.8390866844,980
83192,199422,247785,-3.9912280968,0.9140582332,8.8390866844,981
83341,199437,247822,-3.9912280968,0.9140582332,8.8390866844,982
83520,199466,247915,-3.9912280968,0.9140582332,8.8390866844,983
83707,199538,247928,-3.9912280968,0.9140582332,8.8390866844,984
83926,199554,247875,-3.9912280968,0.9140582332,8.8390866844,985
84139,199624,247967,-3.9912280968,0.9140582332,8.8390866844,986
84361,199674,248014,-3.9912280968,0.9140582332,8.8390866844,987
84577,199727,248035,-3.9912280968,0.9140582332,8.8390866844,988
84793,199820,248041,-3.9912280968,0.9140582332,8.8390866844,989
85014,199861,248074,-3.9912280968,0.9140582332,8.8390866844,990
85014,199816,248120,-3.9912280968,0.9140582332,8.8390866844,991
84451,199624,247986,-3.9912280968,0.9140582332,8.8390866844,992
83439,199426,247845,-3.9912280968,0.9140582332,8.8390866844,993
82455,199218,247714,-3.9912280968,0.9140582332,8.8390866844,994
81837,199115,247612,-3.9912280968,0.9140582332,8.8390866844,995
81490,199064,247598,-3.9912280968,0.9140582332,8.8390866844,996
81344,198982,247602,-3.9912280968,0.9140582332,8.8390866844,997
81369,198954,247565,-3.9912280968,0.9140582332,8.8390866844,998
81483,198979,247544,-3.9912280968,0.9140582332,8.8390866844,999
81643,199001,247616,-3.9912280968,0.9140582332,8.8390866844,1000
81687,199028,247553,-3.9912280968,0.9140582332,8.8390866844,1001
81693,198998,247567,-3.9912280968,0.9140582332,8.8390866844,1002
81714,199026,247591,-3.9912280968,0.9140582332,8.8390866844,1003
81766,199062,247589,-3.9912280968,0.9140582332,8.8390866844,1004
82285,199121,247678,-4.0151563228,0.8709874264,8.8390866844,1005
82430,199224,247702,-4.0151563228,0.8709874264,8.8390866844,1006
82616,199237,247696,-4.0151563228,0.8709874264,8.8390866844,1007
82780,199290,247764,-4.0151563228,0.8709874264,8.8390866844,1008
82965,199325,247754,-4.0151563228,0.8709874264,8.8390866844,1009
83148,199404,247808,-4.0151563228,0.8709874264,8.8390866844,1010
83140,199390,247768,-4.0151563228,0.8709874264,8.8390866844,1011
82504,199217,247711,-4.0151563228,0.8709874264,8.8390866844,1012
81416,198958,247536,-4.0151563228,0.8709874264,8.8390866844,1013
80435,198753,247406,-4.0151563228,0.8709874264,8.8390866844,1014
79768,198549,247349,-4.0151563228,0.8709874264,8.8390866844,1015
79401,198486,247272,-4.0151563228,0.8709874264,8.8390866844,1016
79198,198397,247245,-4.0151563228,0.8709874264,8.8390866844,1017
79185,198392,247196,-4.0151563228,0.8709874264,8.8390866844,1018
79335,198408,247194,-4.0151563228,0.8709874264,8.8390866844,1019
79491,198406,247217,-4.0151563228,0.8709874264,8.8390866844,1020
79558,198406,247208,-4.0151563228,0.8709874264,8.8390866844,1021
79630,198376,247274,-4.0151563228,0.8709874264,8.8390866844,1022
79677,198403,247254,-4.0151563228,0.8709874264,8.8390866844,1023
79760,198411,247265,-4.0151563228,0.8709874264,8.8390866844,1024
79899,198444,247291,-4.0151563228,0.8709874264,8.8390866844,1025
80046,198491,247319,-4.0151563228,0.8709874264,8.8390866844,1026
80253,198535,247352,-4.0151563228,0.8709874264,8.8390866844,1027
80431,198595,247318,-4.0151563228,0.8709874264,8.8390866844,1028
80656,198646,247399,-4.0151563228,0.8709874264,8.8390866844,1029
80878,198697,247397,-4.0151563228,0.8709874264,8.8390866844,1030
81086,198746,247505,-4.0151563228,0.8709874264,8.8390866844,1031
81283,198823,247521,-4.0151563228,0.8709874264,8.8390866844,1032
81525,198851,247553,-4.0151563228,0.8709874264,8.8390866844,1033
81622,198880,247555,-4.0151563228,0.8709874264,8.8390866844,1034
81202,198730,247441,-4.0151563228,0.8709874264,8.8390866844,1035
80186,198501,247293,-4.0151563228,0.8709874264,8.8390866844,1036
79199,198286,247171,-4.0151563228,0.8709874264,8.8390866844,1037
78514,198066,247050,-4.0151563228,0.8709874264,8.8390866844,1038
78101,197949,246997,-4.0151563228,0.8709874264,8.8390866844,1039
77905,197838,246964,-4.0151563228,0.8709874264,8.8390866844,1040
77928,197824,247000,-4.0151563228,0.8709874264,8.8390866844,1041
78061,197836,246928,-4.0151563228,0.8709874264,8.8390866844,1042
78267,197851,246948,-4.0151563228,0.8709874264,8.8390866844,1043
78435,197861,246966,-4.0151563228,0.8709874264,8.8390866844,1044
78530,197878,246994,-4.0151563228,0.8709874264,8.8390866844,1045
78635,197896,246971,-4.0151563228,0.8709874264,8.8390866844,1046
80783,198408,247379,-3.8715869668,1.0001998468,8.8486579748,1047
81016,198495,247374,-3.8715869668,1.0001998468,8.8486579748,1048
81076,198474,247345,-3.8715869668,1.0001998468,8.8486579748,1049
80537,198346,247269,-3.8715869668,1.0001998468,8.8486579748,1050
79495,198040,247095,-3.8715869668,1.0001998468,8.8486579748,1051
78632,197883,246949,-3.8715869668,1.0001998468,8.8486579748,1052
78130,197714,246899,-3.8715869668,1.0001998468,8.8486579748,1053
77863,197611,246801,-3.8715869668,1.0001998468,8.8486579748,1054
77811,197525,246815,-3.8715869668,1.0001998468,8.8486579748,1055
77921,197554,246840,-3.8715869668,1.0001998468,8.8486579748,1056
78165,197595,246829,-3.8715869668,1.0001998468,8.8486579748,1057
78393,197639,246881,-3.8715869668,1.0001998468,8.8486579748,1058
78585,197646,246868,-3.8715869668,1.0001998468,8.8486579748,1059
78735,197677,246873,-3.8715869668,1.0001998468,8.8486579748,1060
78872,197703,246928,-3.8715869668,1.0001998468,8.8486579748,1061
79063,197758,246910,-3.8715869668,1.0001998468,8.8486579748,1062
79260,197791,246970,-3.8715869668,1.0001998468,8.8486579748,1063
79480,197825,246909,-3.8715869668,1.0001998468,8.8486579748,1064
79728,197910,247055,-3.8715869668,1.0001998468,8.8486579748,1065
79996,197970,247049,-3.8715869668,1.0001998468,8.8486579748,1066
80239,198022,247137,-3.8715869668,1.0001998468,8.8486579748,1067
80518,198126,247129,-3.8715869668,1.0001998468,8.8486579748,1068
80779,198185,247237,-3.8715869668,1.0001998468,8.8486579748,1069
81015,198230,247241,-3.8715869668,1.0001998468,8.8486579748,1070
81272,198313,247272,-3.8715869668,1.0001998468,8.8486579748,1071
81537,198380,247348,-3.8715869668,1.0001998468,8.8486579748,1072
81689,198414,247353,-3.8715869668,1.0001998468,8.8486579748,1073
81301,198291,247256,-3.8715869668,1.0001998468,8.8486579748,1074
80383,198038,247094,-3.8715869668,1.0001998468,8.8486579748,1075
79546,197867,246995,-3.8715869668,1.0001998468,8.8486579748,1076
79027,197709,246951,-3.8715869668,1.0001998468,8.8486579748,1077
78793,197673,246876,-3.8715869668,1.0001998468,8.8486579748,1078
78720,197612,246870,-3.8715869668,1.0001998468,8.8486579748,1079
78854,197627,246826,-3.8715869668,1.0001998468,8.8486579748,1080
79114,197641,246895,-3.8715869668,1.0001998468,8.8486579748,1081
79332,197706,246905,-3.8715869668,1.0001998468,8.8486579748,1082
79505,197728,246876,-3.8715869668,1.0001998468,8.8486579748,1083
79641,197737,246931,-3.8715869668,1.0001998468,8.8486579748,1084
79771,197791,246965,-3.8715869668,1.0001998468,8.8486579748,1085
79932,197843,246966,-3.8715869668,1.0001998468,8.8486579748,1086
80144,197880,247043,-3.8715869668,1.0001998468,8.8486579748,1087
80348,197887,246999,-3.8715869668,1.0001998468,8.8486579748,1088
81319,198197,247188,-3.9912280968,0.9379864592,8.7062850301,1089
81580,198251,247266,-3.9912280968,0.9379864592,8.7062850301,1090
81811,198304,247306,-3.9912280968,0.9379864592,8.7062850301,1091
82033,198377,247343,-3.9912280968,0.9379864592,8.7062850301,1092
82248,198456,247378,-3.9912280968,0.9379864592,8.7062850301,1093
82465,198507,247413,-3.9912280968,0.9379864592,8.7062850301,1094
82500,198493,247422,-3.9912280968,0.9379864592,8.7062850301,1095
81888,198280,247255,-3.9912280968,0.9379864592,8.7062850301,1096
80871,198067,247097,-3.9912280968,0.9379864592,8.7062850301,1097
80041,197847,246984,-3.9672998708,0.9607182739,8.752945070800001,1098
79515,197791,246967,-3.7722848289,0.8709874264,8.8151584584,1099
79224,197689,246917,-4.043870194,1.0372885971,8.8390866844,1100
79100,197615,246859,-3.8632120877,1.0480562988,8.9144605963,1101
79197,197643,246844,-3.8632120877,1.0480562988,8.9144605963,1102
79395,197674,246915,-3.8632120877,1.0480562988,8.9144605963,1103
79609,197690,246959,-3.8632120877,1.0480562988,8.9144605963,1104
79750,197739,246936,-3.8632120877,1.0480562988,8.9144605963,1105
79857,197756,246962,-3.8632120877,1.0480562988,8.9144605963,1106
79962,197799,246995,-3.8632120877,1.0480562988,8.9144605963,1107
80122,197808,246961,-3.8632120877,1.0480562988,8.9144605963,1108
80305,197883,247010,-3.8632120877,1.0480562988,8.9144605963,1109
80527,197952,247065,-3.8632120877,1.0480562988,8.9144605963,1110
80746,198032,247093,-3.8632120877,1.0480562988,8.9144605963,1111
80999,198078,247113,-3.8632120877,1.0480562988,8.9144605963,1112
81244,198130,247192,-3.8632120877,1.0480562988,8.9144605963,1113
81472,198209,247240,-3.8632120877,1.0480562988,8.9144605963,1114
81693,198270,247262,-3.9445680561,0.9990034355,8.9467637014,1115
81936,198350,247320,-3.9445680561,0.9990034355,8.9467637014,1116
82184,198444,247314,-3.9445680561,0.9990034355,8.9467637014,1117
82396,198454,247375,-3.9445680561,0.9990034355,8.9467637014,1118
82626,198550,247438,-3.9445680561,0.9990034355,8.9467637014,1119
82829,198602,247515,-3.9445680561,0.9990034355,8.9467637014,1120
83056,198657,247519,-3.9445680561,0.9990034355,8.9467637014,1121
83225,198753,247590,-3.9445680561,0.9990034355,8.9467637014,1122
82965,198624,247427,-3.9445680561,0.9990034355,8.9467637014,1123
82028,198429,247324,-3.9445680561,0.9990034355,8.9467637014,1124
80898,198162,247153,-3.9445680561,0.9990034355,8.9467637014,1125
80058,197999,247137,-3.9445680561,0.9990034355,8.9467637014,1126
79517,197877,247048,-3.9445680561,0.9990034355,8.9467637014,1127
79235,197819,246961,-3.9912280968,0.8566304908000001,8.8582292652,1128
79169,197791,246982,-3.9912280968,0.8566304908000001,8.8582292652,1129
79280,197791,246945,-3.9912280968,0.8566304908000001,8.8582292652,1130
79464,197827,246937,-3.9912280968,0.8566304908000001,8.8582292652,1131
79637,197868,246978,-3.9912280968,0.8566304908000001,8.8582292652,1132
79751,197887,246996,-3.9912280968,0.8566304908000001,8.8582292652,1133
79842,197889,247022,-3.9912280968,0.8566304908000001,8.8582292652,1134
79949,197935,247057,-3.9912280968,0.8566304908000001,8.8582292652,1135
80107,197990,247065,-3.9912280968,0.8566304908000001,8.8582292652,1136
80286,198000,247064,-3.9912280968,0.8566304908000001,8.8582292652,1137
80500,198100,247208,-3.9912280968,0.8566304908000001,8.8582292652,1138
80721,198132,247180,-3.9912280968,0.8566304908000001,8.8582292652,1139
80959,198236,247200,-3.9912280968,0.8566304908000001,8.8582292652,1140
81192,198269,247262,-3.8679977328999997,0.9140582332,8.85344362,1141
81435,198348,247331,-3.8679977328999997,0.9140582332,8.85344362,1142
81686,198416,247346,-3.8679977328999997,0.9140582332,8.85344362,1143
81929,198477,247420,-3.8679977328999997,0.9140582332,8.85344362,1144
82183,198566,247473,-3.8679977328999997,0.9140582332,8.85344362,1145
82408,198642,247448,-3.8679977328999997,0.9140582332,8.85344362,1146
82671,198665,247519,-3.8679977328999997,0.9140582332,8.85344362,1147
82896,198750,247533,-3.8679977328999997,0.9140582332,8.85344362,1148
83138,198857,247541,-3.8679977328999997,0.9140582332,8.85344362,1149
83368,198902,247642,-3.8679977328999997,0.9140582332,8.85344362,1150
83595,198971,247683,-3.8679977328999997,0.9140582332,8.85344362,1151
83797,199029,247727,-3.8679977328999997,0.9140582332,8.85344362,1152
83829,198988,247696,-3.8967116041,1.0372885971,8.819944103600001,1153
83192,198832,247601,-3.8967116041,1.0372885971,8.819944103600001,1154
82027,198576,247491,-3.8967116041,1.0372885971,8.819944103600001,1155
81060,198371,247292,-3.8967116041,1.0372885971,8.819944103600001,1156
80392,198236,247268,-3.8967116041,1.0372885971,8.819944103600001,1157
80010,198179,247209,-3.8967116041,1.0372885971,8.819944103600001,1158
79826,198173,247133,-3.8967116041,1.0372885971,8.819944103600001,1159
79865,198088,247125,-3.8967116041,1.0372885971,8.819944103600001,1160
80033,198171,247152,-3.8967116041,1.0372885971,8.819944103600001,1161
80221,198183,247193,-3.8967116041,1.0372885971,8.819944103600001,1162
80374,198230,247139,-3.8967116041,1.0372885971,8.819944103600001,1163
80483,198184,247214,-3.8967116041,1.0372885971,8.819944103600001,1164
80555,198256,247238,-3.8967116041,1.0372885971,8.819944103600001,1165
80720,198277,247213,-3.8967116041,1.0372885971,8.819944103600001,1166
80861,198313,247271,-3.8967116041,1.0372885971,8.819944103600001,1167
81047,198358,247292,-3.8967116041,1.0372885971,8.819944103600001,1168
81250,198419,247361,-3.8967116041,1.0372885971,8.819944103600001,1169
81494,198524,247390,-3.8967116041,1.0372885971,8.819944103600001,1170
81747,198526,247405,-3.8967116041,1.0372885971,8.819944103600001,1171
81987,198633,247446,-3.8967116041,1.0372885971,8.819944103600001,1172
82243,198699,247480,-3.8967116041,1.0372885971,8.819944103600001,1173
82491,198767,247490,-3.8967116041,1.0372885971,8.819944103600001,1174
82729,198833,247598,-3.8967116041,1.0372885971,8.819944103600001,1175
82969,198897,247658,-3.8967116041,1.0372885971,8.819944103600001,1176
83200,198990,247688,-3.8967116041,1.0372885971,8.819944103600001,1177
83450,199027,247656,-3.8967116041,1.0372885971,8.819944103600001,1178
83687,199108,247775,-3.8967116041,1.0372885971,8.819944103600001,1179
83923,199164,247761,-3.8967116041,1.0372885971,8.819944103600001,1180
84176,199219,247835,-3.8967116041,1.0372885971,8.819944103600001,1181
84341,199296,247893,-3.8967116041,1.0372885971,8.819944103600001,1182
84069,199174,247758,-3.8967116041,1.0372885971,8.819944103600001,1183
83172,198939,247656,-3.8967116041,1.0372885971,8.819944103600001,1184
82114,198752,247533,-3.8488551521,0.8518448456000001,8.8821574912,1185
81362,198645,247464,-3.8488551521,0.8518448456000001,8.8821574912,1186
80909,198535,247386,-3.8488551521,0.8518448456000001,8.8821574912,1187
80709,198457,247364,-3.8488551521,0.8518448456000001,8.8821574912,1188
80703,198460,247350,-3.8488551521,0.8518448456000001,8.8821574912,1189
80841,198517,247336,-3.8488551521,0.8518448456000001,8.8821574912,1190
81054,198516,247369,-3.8488551521,0.8518448456000001,8.8821574912,1191
81265,198572,247392,-3.8488551521,0.8518448456000001,8.8821574912,1192
81370,198531,247435,-3.8488551521,0.8518448456000001,8.8821574912,1193
81461,198597,247394,-3.8488551521,0.8518448456000001,8.8821574912,1194
81609,198623,247409,-3.8488551521,0.8518448456000001,8.8821574912,1195
81741,198685,247466,-3.8488551521,0.8518448456000001,8.8821574912,1196
81955,198747,247464,-3.8488551521,0.8518448456000001,8.8821574912,1197
82168,198775,247486,-3.8488551521,0.8518448456000001,8.8821574912,1198
82398,198817,247542,-3.8488551521,0.8518448456000001,8.8821574912,1199
82637,198906,247578,-3.8488551521,0.8518448456000001,8.8821574912,1200
82879,198941,247630,-3.8488551521,0.8518448456000001,8.8821574912,1201
83130,199012,247693,-3.8488551521,0.8518448456000001,8.8821574912,1202
83374,199105,247714,-3.8488551521,0.8518448456000001,8.8821574912,1203
83632,199160,247701,-3.8488551521,0.8518448456000001,8.8821574912,1204
83880,199255,247787,-3.8488551521,0.8518448456000001,8.8821574912,1205
84116,199300,247833,-3.8488551521,0.8518448456000001,8.8821574912,1206
84365,199355,247915,-3.8488551521,0.8518448456000001,8.8821574912,1207
84614,199418,247899,-3.8488551521,0.8518448456000001,8.8821574912,1208
84815,199510,247964,-3.8488551521,0.8518448456000001,8.8821574912,1209
85035,199547,248001,-3.8488551521,0.8518448456000001,8.8821574912,1210
85174,199542,248032,-3.8488551521,0.8518448456000001,8.8821574912,1211
84794,199425,247860,-3.8488551521,0.8518448456000001,8.8821574912,1212
83848,199232,247778,-3.8488551521,0.8518448456000001,8.8821574912,1213
82889,199040,247687,-3.8488551521,0.8518448456000001,8.8821574912,1214
82224,198945,247608,-3.8488551521,0.8518448456000001,8.8821574912,1215
81875,198850,247535,-3.8488551521,0.8518448456000001,8.8821574912,1216
81716,198818,247552,-3.8488551521,0.8518448456000001,8.8821574912,1217
81762,198862,247549,-3.8488551521,0.8518448456000001,8.8821574912,1218
81924,198896,247570,-3.8488551521,0.8518448456000001,8.8821574912,1219
82107,198871,247561,-3.8488551521,0.8518448456000001,8.8821574912,1220
82221,198945,247618,-3.8488551521,0.8518448456000001,8.8821574912,1221
82254,198938,247608,-3.8488551521,0.8518448456000001,8.8821574912,1222
82274,198929,247582,-3.8488551521,0.8518448456000001,8.8821574912,1223
82361,198936,247646,-3.8488551521,0.8518448456000001,8.8821574912,1224
82454,198979,247646,-3.8488551521,0.8518448456000001,8.8821574912,1225
82614,199051,247633,-3.8488551521,0.8518448456000001,8.8821574912,1226
84914,199596,248034,-3.9338003543999998,0.8949156524,8.7852481759,1227
84884,199615,248036,-3.9338003543999998,0.8949156524,8.7852481759,1228
84172,199393,247888,-3.9338003543999998,0.8949156524,8.7852481759,1229
83045,199170,247718,-3.9338003543999998,0.8949156524,8.7852481759,1230
81990,198976,247600,-3.9338003543999998,0.8949156524,8.7852481759,1231
81290,198900,247546,-3.9338003543999998,0.8949156524,8.7852481759,1232
80875,198700,247455,-3.9338003543999998,0.8949156524,8.7852481759,1233
80677,198664,247422,-3.9338003543999998,0.8949156524,8.7852481759,1234
80653,198637,247369,-3.9338003543999998,0.8949156524,8.7852481759,1235
80771,198630,247405,-3.9338003543999998,0.8949156524,8.7852481759,1236
80975,198669,247387,-3.9338003543999998,0.8949156524,8.7852481759,1237
81086,198687,247439,-3.9338003543999998,0.8949156524,8.7852481759,1238
81179,198715,247425,-3.9338003543999998,0.8949156524,8.7852481759,1239
81262,198743,247393,-3.9338003543999998,0.8949156524,8.7852481759,1240
81383,198745,247527,-3.9338003543999998,0.8949156524,8.7852481759,1241
81531,198824,247509,-3.9338003543999998,0.8949156524,8.7852481759,1242
81696,198836,247484,-3.9338003543999998,0.8949156524,8.7852481759,1243
81932,198870,247528,-3.9338003543999998,0.8949156524,8.7852481759,1244
82132,198941,247552,-3.9338003543999998,0.8949156524,8.7852481759,1245
82388,198999,247595,-3.9338003543999998,0.8949156524,8.7852481759,1246
82642,199041,247620,-3.9338003543999998,0.8949156524,8.7852481759,1247
82885,199137,247753,-3.9338003543999998,0.8949156524,8.7852481759,1248
83158,199195,247738,-3.9338003543999998,0.8949156524,8.7852481759,1249
83401,199292,247775,-3.9338003543999998,0.8949156524,8.7852481759,1250
83681,199367,247837,-3.9338003543999998,0.8949156524,8.7852481759,1251
83893,199418,247827,-3.9338003543999998,0.8949156524,8.7852481759,1252
84144,199485,247935,-3.9338003543999998,0.8949156524,8.7852481759,1253
84401,199546,247973,-3.9338003543999998,0.8949156524,8.7852481759,1254
84478,199530,247915,-3.9338003543999998,0.8949156524,8.7852481759,1255
83922,199369,247843,-3.9338003543999998,0.8949156524,8.7852481759,1256
82813,199163,247718,-3.9338003543999998,0.8949156524,8.7852481759,1257
81772,198917,247558,-3.9338003543999998,0.8949156524,8.7852481759,1258
81075,198786,247518,-3.9338003543999998,0.8949156524,8.7852481759,1259
80693,198715,247466,-3.9338003543999998,0.8949156524,8.7852481759,1260
80531,198664,247439,-3.9338003543999998,0.8949156524,8.7852481759,1261
80558,198652,247386,-3.9338003543999998,0.8949156524,8.7852481759,1262
80757,198641,247432,-3.9338003543999998,0.8949156524,8.7852481759,1263
80977,198747,247419,-3.9338003543999998,0.8949156524,8.7852481759,1264
81188,198733,247431,-3.9338003543999998,0.8949156524,8.7852481759,1265
81310,198748,247468,-3.9338003543999998,0.8949156524,8.7852481759,1266
81451,198788,247504,-3.9338003543999998,0.8949156524,8.7852481759,1267
81584,198853,247556,-3.9338003543999998,0.8949156524,8.7852481759,1268
82422,199022,247643,-3.876372612,1.0325029519,8.8522472087,1269
82689,199192,247644,-3.876372612,1.0325029519,8.8522472087,1270
82959,199147,247702,-3.876372612,1.0325029519,8.8522472087,1271
83243,199231,247787,-3.876372612,1.0325029519,8.8522472087,1272
83512,199300,247748,-3.876372612,1.0325029519,8.8522472087,1273
83773,199390,247866,-3.876372612,1.0325029519,8.8522472087,1274
84043,199425,247905,-3.876372612,1.0325029519,8.8522472087,1275
84322,199523,247920,-3.876372612,1.0325029519,8.8522472087,1276
84557,199526,247988,-3.876372612,1.0325029519,8.8522472087,1277
84320,199459,247938,-3.876372612,1.0325029519,8.8522472087,1278
83465,199289,247750,-3.876372612,1.0325029519,8.8522472087,1279
82439,199027,247622,-3.876372612,1.0325029519,8.8522472087,1280
81699,198884,247579,-3.876372612,1.0325029519,8.8522472087,1281
81275,198760,247450,-3.876372612,1.0325029519,8.8522472087,1282
81108,198749,247436,-3.876372612,1.0325029519,8.8522472087,1283
81088,198766,247456,-3.876372612,1.0325029519,8.8522472087,1284
81282,198753,247467,-3.876372612,1.0325029519,8.8522472087,1285
81538,198823,247462,-3.876372612,1.0325029519,8.8522472087,1286
81748,198830,247513,-3.876372612,1.0325029519,8.8522472087,1287
81912,198858,247520,-3.876372612,1.0325029519,8.8522472087,1288
82031,198863,247486,-3.876372612,1.0325029519,8.8522472087,1289
82161,198904,247574,-3.876372612,1.0325029519,8.8522472087,1290
82351,198951,247566,-3.876372612,1.0325029519,8.8522472087,1291
82528,198995,247592,-3.876372612,1.0325029519,8.8522472087,1292
82738,199051,247614,-3.876372612,1.0325029519,8.8522472087,1293
82975,199098,247700,-3.876372612,1.0325029519,8.8522472087,1294
83241,199140,247737,-3.876372612,1.0325029519,8.8522472087,1295
83491,199224,247754,-3.876372612,1.0325029519,8.8522472087,1296
83744,199265,247809,-3.876372612,1.0325029519,8.8522472087,1297
83995,199343,247837,-3.876372612,1.0325029519,8.8522472087,1298
84261,199423,247817,-3.876372612,1.0325029519,8.8522472087,1299
84518,199450,247896,-3.876372612,1.0325029519,8.8522472087,1300
84775,199542,247935,-3.876372612,1.0325029519,8.8522472087,1301
84918,199558,247965,-3.876372612,1.0325029519,8.8522472087,1302
84532,199396,247839,-3.876372612,1.0325029519,8.8522472087,1303
83546,199224,247720,-3.876372612,1.0325029519,8.8522472087,1304
82584,198999,247588,-3.876372612,1.0325029519,8.8522472087,1305
81966,198864,247532,-3.876372612,1.0325029519,8.8522472087,1306
81634,198792,247463,-3.876372612,1.0325029519,8.8522472087,1307
81530,198721,247456,-3.876372612,1.0325029519,8.8522472087,1308
81582,198763,247475,-3.876372612,1.0325029519,8.8522472087,1309
81806,198796,247485,-3.876372612,1.0325029519,8.8522472087,1310
82978,199048,247597,-3.9816568063999997,1.0995019847,8.9048893059,1311
83210,199133,247674,-3.9816568063999997,1.0995019847,8.9048893059,1312
83425,199190,247725,-3.9816568063999997,1.0995019847,8.9048893059,1313
83587,199203,247750,-3.9816568063999997,1.0995019847,8.9048893059,1314
83348,199104,247649,-3.9816568063999997,1.0995019847,8.9048893059,1315
82396,198883,247500,-3.9816568063999997,1.0995019847,8.9048893059,1316
81281,198589,247364,-3.9816568063999997,1.0995019847,8.9048893059,1317
80502,198442,247257,-3.9816568063999997,1.0995019847,8.9048893059,1318
80017,198330,247202,-3.9816568063999997,1.0995019847,8.9048893059,1319
79776,198256,247142,-3.9816568063999997,1.0995019847,8.9048893059,1320
79720,198219,247101,-3.9816568063999997,1.0995019847,8.9048893059,1321
79862,198239,247111,-3.9816568063999997,1.0995019847,8.9048893059,1322
80099,198291,247144,-3.9816568063999997,1.0995019847,8.9048893059,1323
80289,198311,247168,-4.0151563228,0.8901300072,8.781658942,1324
80402,198311,247178,-4.0151563228,0.8901300072,8.781658942,1325
80505,198345,247165,-4.0151563228,0.8901300072,8.781658942,1326
80623,198380,247186,-4.0151563228,0.8901300072,8.781658942,1327
80759,198430,247254,-4.0151563228,0.8901300072,8.781658942,1328
80950,198481,247231,-4.0151563228,0.8901300072,8.781658942,1329
81166,198533,247300,-3.8548372086000002,0.8757730716000001,8.7948194663,1330
81389,198601,247329,-3.8919259589,0.7082754896000001,8.8247297488,1331
81585,198617,247357,-4.0390845488,0.9296115801,8.7720876516,1332
81833,198689,247382,-3.996013742,0.8805587168,8.8043907567,1333
82079,198766,247458,-3.9206398301,0.9284151688,8.6249290617,1334
82302,198863,247485,-4.0055850324,1.208375413,8.9575314031,1335
82552,198873,247549,-4.1048871703,0.8949156524,8.8666041443,1336
82809,198963,247528,-4.06779842,0.8721838377000001,8.8917287816,1337
82912,198936,247584,-4.0115670889,1.0336993632,8.85344362,1338
82432,198838,247471,-3.9756747499,1.1377871463,8.8103728132,1339
81409,198571,247340,-4.0809589443,0.9702895642999999,8.85344362,1340
80434,198335,247203,-3.9338003543999998,0.9008977089,8.9336031771,1341
79827,198216,247112,-4.0390845488,0.9559326287,8.8678005556,1342
79486,198188,247081,-4.0450666053,0.8949156524,8.85344362,1343
79334,198098,247035,-3.8536407972999998,0.909272588,8.7996051115,1344
79453,198087,247065,-3.9254254753,1.0336993632,8.8582292652,1345
79640,198144,247090,-3.8189448695999997,0.9140582332,8.872586200799999,1346
79863,198174,247088,-3.8380874503999998,1.0755737587,8.7720876516,1347
80011,198194,247040,-3.9397824109,1.0576275892,8.829515394,1348
80141,198206,247097,-3.9972101532999997,1.0229316615,8.73380249,1349
80257,198175,247158,-4.115654872,0.9343972253,8.7912302324,1350
80393,198230,247186,-4.019941968,1.0384850084,8.8390866844,1351
80536,198318,247189,-4.0761732991,0.9667003303999999,8.819944103600001,1352
80749,198345,247227,-3.7914274097,1.0755737587,8.7768732968,1353
80941,198421,247225,-3.8536407972999998,1.0432706536,8.709874264,1354
81172,198449,247248,-3.8859439023999998,1.0564311779,8.752945070800001,1355
81430,198511,247286,-4.0402809601,0.9284151688,8.9336031771,1356
81718,198568,247352,-3.8524443859999997,1.0001998468,8.8139620471,1357
81898,198657,247402,-3.996013742,1.004985492,9.0053878551,1358
82163,198723,247393,-3.8524443859999997,0.9798608547,8.685946038,1359
82414,198797,247498,-3.8679977328999997,0.9104689993,8.8630149104,1360
82440,198757,247493,-3.9146577735999997,0.9762716208,8.8630149104,1361
81798,198558,247365,-3.9816568063999997,0.9439685157,8.805587167999999,1362
80725,198336,247183,-3.7878381758,0.9667003303999999,8.805587167999999,1363
79869,198154,247042,-4.0534414844,0.9702895642999999,8.8666041443,1364
79434,198042,246970,-3.7818561193,0.9619146851999999,8.805587167999999,1365
79178,198050,246940,-3.8668013215999997,1.0911271056,8.8151584584,1366
79183,197990,246943,-4.0378881375,1.0671988796,8.7673020064,1367
79360,197886,246965,-4.0043886211,0.95712904,8.944370878800001,1368
79618,198036,247016,-3.8476587407999996,0.9619146851999999,8.819944103600001,1369
79805,198090,247013,-3.7962130549,1.0480562988,8.8869431364,1370
79957,198083,247040,-3.8859439023999998,1.0863414604,8.829515394,1371
80031,198104,247032,-3.9098721283999995,1.0480562988,8.7960158776,1372
80156,198146,247010,-3.9146577735999997,1.0325029519,8.9479601127,1373
80303,198176,247067,-3.8249269261,1.0660024683,8.8151584584,1374
80465,198242,247083,-3.9732819273,1.1102696864,8.8630149104,1375
80695,198299,247159,-3.780659708,0.9714859755999999,8.7996051115,1376
80918,198324,247194,-3.8668013215999997,1.004985492,8.8390866844,1377
81128,198382,247180,-3.8488551521,1.028913718,8.829515394,1378
81386,198425,247208,-3.9541393465,0.9236295236,8.859425676499999,1379
81614,198494,247280,-3.9230326527000003,1.0109675485,8.752945070800001,1380
81792,198587,247349,-3.8009987001,0.9954142015999999,8.8008015228,1381
82057,198631,247388,-3.8955151927999996,0.7226324252,8.781658942,1382
82239,198738,247396,-3.8715869668,1.0097711372,8.7960158776,1383
81994,198627,247351,-3.9397824109,1.1282158559,8.7960158776,1384
81058,198387,247163,-3.8668013215999997,1.1341979124,8.9001036607,1385
79997,198126,246987,-4.0139599115,0.9523433948,8.8103728132,1386
79243,197936,246927,-3.9003008379999997,1.0564311779,8.8486579748,1387
78857,197895,246853,-3.9481572899999997,1.0229316615,8.9060857172,1388
78661,197811,246833,-3.6981073283,0.9667003303999999,8.7912302324,1389
78705,197779,246808,-3.9254254753,1.1569297271,8.7864445872,1390
78898,197862,246855,-3.9158541848999997,0.9511469834999999,8.739784546500001,1391
79154,197897,246862,-3.7782668854000003,0.7956135145,8.8582292652,1392
79342,197914,246871,-3.9206398301,1.1282158559,8.8821574912,1393
79474,197946,246944,-3.8907295476,0.981057266,8.8666041443,1394
79600,197968,246922,-3.9003008379999997,0.7609175868,8.6727855137,1395
79768,197976,246975,-3.9098721283999995,0.9140582332,8.9383888223,1396
79964,198066,247057,-3.7914274097,0.8805587168,8.7625163612,1397
80151,198108,247014,-4.0342989036,0.8709874264,8.9192462415,1398
80393,198202,247081,-3.996013742,1.0516455327,8.8570328539,1399
80640,198243,247120,-3.864408499,0.9272187574999999,8.8809610799,1400
80961,198307,247151,-4.0103706776,0.861416136,8.8426759183,1401
81174,198350,247176,-4.0630127748,0.7956135145,8.7684984177,1402
81379,198457,247242,-3.9625142255999997,1.0097711372,8.8809610799,1403
81621,198526,247284,-4.0055850324,0.981057266,8.8965144268,1404
81872,198589,247363,-4.0905302347,0.6999006105000001,8.7804625307,1405
82082,198656,247335,-3.8823546685,0.9415756931,8.8869431364,1406
81880,198526,247313,-3.8811582571999996,0.9140582332,8.829515394,1407
80946,198315,247172,-4.0582271296000005,0.8997012976000001,8.7996051115,1408
79846,198068,246979,-3.8021951114,0.9511469834999999,8.8378902731,1409
79067,197895,246946,-4.0103706776,0.9188438784,8.681160392799999,1410
78642,197767,246802,-3.8572300312,0.9140582332,8.885746725099999,1411
78441,197706,246799,-3.9098721283999995,0.9463613382999999,8.7912302324,1412
78430,197707,246772,-3.9014972492999997,0.9607182739,8.7708912403,1413
78610,197737,246769,-3.9349967657,0.8518448456000001,8.818747692299999,1414
78879,197763,246790,-3.9146577735999997,0.8805587168,8.818747692299999,1415
79101,197842,246848,-4.0534414844,0.8913264185,8.8343010392,1416
79259,197853,246855,-4.0474594279,0.933200814,8.7720876516,1417
79383,197888,246890,-4.0342989036,0.9523433948,8.7445701917,1418
79537,197949,246896,-3.8967116041,0.8997012976000001,8.7756768855,1419
79713,197944,246905,-3.9481572899999997,0.8566304908000001,8.8869431364,1420
79950,198016,246917,-3.9433716447999996,0.9044869428,8.7960158776,1421
80186,198104,246982,-3.9972101532999997,0.8566304908000001,8.7637127725,1422
80509,198180,247073,-3.9589249917,0.7992027483999999,8.7864445872,1423
80732,198253,247150,-3.9864424516000003,0.909272588,8.6967137397,1424
81006,198294,247170,-4.0342989036,0.9140582332,8.9539421692,1425
81260,198370,247221,-3.9672998708,0.8327022648,8.7804625307,1426
81525,198435,247224,-3.9876388629,0.9906285563999999,8.8402830957,1427
81764,198526,247278,-3.9146577735999997,0.8422735552,8.9575314031,1428
82041,198582,247297,-4.0486558392,0.9798608547,8.8630149104,1429
82013,198532,247312,-3.7866417645,0.9619146851999999,8.7254276109,1430
81261,198363,247160,-4.019941968,1.0229316615,8.8426759183,1431
80172,198128,247018,-4.0067814437,0.9391828704999999,8.8247297488,1432
79388,197947,246856,-3.9589249917,0.8219345630999999,8.7673020064,1433
78980,197861,246896,-3.9672998708,0.8087740388,8.8378902731,1434
78783,197773,246840,-3.9625142255999997,1.0660024683,8.8343010392,1435
78797,197761,246805,-4.0761732991,1.0145567824000001,8.8247297488,1436
79002,197758,246819,-3.9589249917,0.9906285563999999,8.7541414821,1437
79297,197881,246898,-3.9254254753,0.7860422241,8.829515394,1438
79508,197893,246826,-3.9206398301,1.0707881135,8.901300072,1439
79678,197933,246853,-3.9003008379999997,1.0181460163,8.8151584584,1440
79793,197954,246880,-3.9852460403000003,0.9224331123,8.876175434699999,1441
79948,198028,246955,-3.9194434188,0.8961120637,8.8103728132,1442
80119,198031,246964,-3.9194434188,0.8961120637,8.8103728132,1443
80322,198124,247006,-3.9194434188,0.8961120637,8.8103728132,1444
80562,198172,247060,-3.9134613623,0.9906285563999999,8.885746725099999,1445
80822,198242,247111,-4.0007993872,1.0277173067,8.806783579300001,1446
81077,198317,247129,-4.1252261624,0.9714859755999999,8.877371846,1447
81344,198365,247199,-3.9816568063999997,0.9702895642999999,8.781658942,1448
81600,198469,247241,-3.8344982165,1.1042876299,8.7900338211,1449
81817,198513,247272,-3.7878381758,1.0336993632,8.757730716,1450
82072,198582,247353,-4.0139599115,0.9427721043999999,8.8713897895,1451
82308,198642,247335,-3.8727833781,1.0468598875,8.8582292652,1452
82056,198525,247277,-3.7627135385,0.909272588,8.7290168448,1453
81149,198324,247102,-3.7627135385,0.909272588,8.7290168448,1454
80104,198113,247031,-3.7627135385,0.909272588,8.7290168448,1455
79436,197981,246945,-3.7627135385,0.909272588,8.7290168448,1456
79097,197926,246902,-3.7627135385,0.909272588,8.7290168448,1457
78979,197891,246881,-3.7627135385,0.909272588,8.7290168448,1458
79062,197874,246866,-3.7627135385,0.909272588,8.7290168448,1459
79319,197993,246923,-3.7627135385,0.909272588,8.7290168448,1460
79605,198039,246941,-3.7627135385,0.909272588,8.7290168448,1461
79787,198066,246971,-3.7627135385,0.909272588,8.7290168448,1462
79906,198116,246971,-3.7627135385,0.909272588,8.7290168448,1463
80019,198127,247034,-3.7627135385,0.909272588,8.7290168448,1464
80135,198167,247021,-3.7627135385,0.909272588,8.7290168448,1465
80322,198249,247052,-3.7627135385,0.909272588,8.7290168448,1466
80498,198289,247082,-3.7627135385,0.909272588,8.7290168448,1467
80717,198362,247146,-3.7627135385,0.909272588,8.7290168448,1468
80950,198429,247231,-3.7627135385,0.909272588,8.7290168448,1469
81198,198475,247260,-3.7627135385,0.909272588,8.7290168448,1470
81440,198544,247293,-3.9003008379999997,1.0564311779,9.019744790699999,1471
81715,198612,247264,-3.9003008379999997,1.0564311779,9.019744790699999,1472
81928,198697,247350,-3.9003008379999997,1.0564311779,9.019744790699999,1473
82183,198748,247423,-3.9003008379999997,1.0564311779,9.019744790699999,1474
82219,198780,247416,-4.0295132584,1.0037890807,8.876175434699999,1475
81528,198583,247311,-3.8859439023999998,1.064806057,8.901300072,1476
80370,198316,247145,-4.0295132584,0.8949156524,8.819944103600001,1477
79419,198181,247051,-3.7830525306,0.8291130308999999,8.748159425599999,1478
78852,198036,246942,-3.9577285803999995,0.861416136,8.8008015228,1479
78600,197967,246907,-3.9684962821,0.933200814,8.8953180155,1480
78534,197978,246930,-3.8297125713,1.0552347666,8.7912302324,1481
78683,198039,246930,-3.9517465239000003,1.0612168231,8.7433737804,1482
78964,198093,246977,-3.8859439023999998,0.9798608547,8.9001036607,1483
79237,198119,247028,-3.8488551521,0.9667003303999999,8.7864445872,1484
79369,198160,247009,-3.8356946278,0.9475577495999999,8.901300072,1485
79495,198183,247065,-3.8249269261,0.9714859755999999,8.7852481759,1486
79636,198214,247059,-4.0378881375,0.8709874264,8.819944103600001,1487
79807,198288,247104,-3.9684962821,0.9511469834999999,8.805587167999999,1488
79996,198360,247103,-3.9768711611999996,0.885344362,8.885746725099999,1489
80208,198450,247178,-3.8919259589,0.8997012976000001,8.7433737804,1490
80473,198457,247212,-4.0773697104,1.0085747259,8.7912302324,1491
80751,198570,247247,-3.9577285803999995,0.9236295236,8.8008015228,1492
80996,198602,247287,-4.043870194,0.9607182739,8.7541414821,1493
81278,198682,247381,-3.9768711611999996,1.0325029519,8.9575314031,1494
81529,198749,247420,-3.8488551521,0.8470592004,8.8845503138,1495
81791,198739,247497,-3.9876388629,1.0600204118,8.9826560404,1496
82048,198902,247497,-3.9014972492999997,0.8350950873999999,8.828318982699999,1497
82275,198974,247504,-3.9433716447999996,0.9415756931,8.7912302324,1498
82063,198847,247465,-3.9014972492999997,0.969093153,8.8378902731,1499
81084,198637,247315,-3.9864424516000003,0.9894321450999999,8.8917287816,1500
79911,198370,247164,-4.0390845488,0.909272588,8.6775711589,1501
79114,198201,247030,-3.9912280968,0.9379864592,8.7625163612,1502
78679,198164,247036,-3.9637106368999997,0.9523433948,8.8426759183,1503
78515,198111,247035,-3.9146577735999997,0.9032905315,8.7050886188,1504
78574,198157,247031,-3.8201412809,0.8769694829,8.85344362,1505
78795,198203,247061,-3.9589249917,0.9475577495999999,8.7996051115,1506
79082,198273,247120,-4.0570307183,0.8697910151,8.73380249,1507
79346,198295,247119,-3.9625142255999997,0.9846464999,8.7589271273,1508
79516,198336,247131,-3.9625142255999997,0.9846464999,8.7589271273,1509
79645,198343,247145,-3.9625142255999997,0.9846464999,8.7589271273,1510
79810,198361,247177,-3.9625142255999997,0.9846464999,8.7589271273,1511
80004,198438,247193,-3.9625142255999997,0.9846464999,8.7589271273,1512
80208,198495,247185,-3.9625142255999997,0.9846464999,8.7589271273,1513
80466,198578,247260,-3.9625142255999997,0.9846464999,8.7589271273,1514
80739,198628,247277,-3.9625142255999997,0.9846464999,8.7589271273,1515
80991,198671,247344,-3.9433716447999996,0.9559326287,8.7254276109,1516
81315,198770,247402,-3.9433716447999996,0.9559326287,8.7254276109,1517
81564,198837,247467,-4.1766718483,0.8147560952999999,8.805587167999999,1518
