green,red,IR,acc_x,acc_y,acc_z,sample_index
92326,199022,222157,9.7471628611,1.8137595308,2.297109696,1
92377,199016,222159,9.6478607232,1.6570296505,2.3389840915,2
92428,199026,222168,9.7806623775,1.8460626359,2.2013967919999997,3
92486,199061,222124,9.7806623775,1.9334006607999998,2.3341984463,4
92559,199032,222195,9.6957171752,1.866401628,2.3724836079,5
92568,199067,222181,9.5389872949,1.9286150156,2.3497517932000003,6
92719,199083,222166,9.7052884656,1.8137595308,2.2887348169,7
92809,199110,222222,9.6849494735,1.8376877568,2.297109696,8
92917,199139,222232,9.6478607232,1.8999011444,2.3916261887,9
93008,199173,222247,9.6813602396,1.8807585636,2.3485553819,10
93110,199165,222234,9.8333044747,1.8376877568,2.27318147,11
93217,199187,222264,9.6287181424,1.8616159827999998,2.2827527603999997,12
93308,199249,222331,9.5521478192,1.9334006607999998,2.3916261887,13
93415,199241,222343,9.619146852,1.8652052167000002,2.4574288102,14
93523,199280,222323,9.6765745944,1.8340985228999998,2.3294128011,15
93640,199282,222323,9.5808616904,1.8999011444,2.2779671152,16
93744,199319,222324,9.6801638283,1.890329854,2.3641087288000002,17
93729,199254,222329,9.6526463684,1.9130616687,2.3772692530999997,18
93343,199149,222248,9.8141618939,1.9130616687,2.3593230836,19
92762,199012,222215,9.5856473356,1.8233308212,2.3353948576,20
92348,198957,222170,9.6239324972,1.8747765071,2.4155544147,21
92031,198937,222134,9.643075077999999,1.9812571127999998,2.344966148,22
91712,198845,222071,9.6514499571,1.8891334427000002,2.2779671152,23
91409,198819,222013,9.6957171752,1.8951154991999999,2.297109696,24
91197,198790,221982,9.6382894328,1.9094724347999998,2.321037922,25
91125,198773,221991,9.6478607232,1.9525432416,2.3353948576,26
91147,198753,221978,9.6765745944,1.8675980393,2.3401805028,27
91111,198735,221967,9.595218626,1.9094724347999998,2.2827527603999997,28
91101,198730,221950,9.5617191096,1.7994025952000001,2.3545374384,29
91093,198754,221966,9.7232346351,1.8855442087999998,2.2013967919999997,30
91176,198796,221991,9.6849494735,1.9094724347999998,2.2923240508,31
91224,198786,221978,9.6993064091,1.8089738856,2.2743778813,32
91295,198807,222038,9.6717889492,1.7862420709,2.2827527603999997,33
91422,198814,222045,9.675378183100001,1.8891334427000002,2.3306092124,34
91522,198844,222025,9.757930562799999,1.8951154991999999,2.2923240508,35
91625,198890,222007,9.6526463684,1.8855442087999998,2.3928226,36
91758,198895,222047,9.6849494735,1.9609181207,2.3928226,37
91804,198911,222082,9.732805925500001,1.938186306,2.2779671152,38
92018,198955,222108,9.633503787599999,1.9477575963999998,2.2588245344,39
92139,199015,222097,9.6765745944,1.8005990065,2.297109696,40
92269,199001,222173,9.6717889492,1.8951154991999999,2.3114666316,41
92422,199019,222138,9.728020280299999,1.938186306,2.2827527603999997,42
92567,199066,222190,9.6059863277,1.9800607015,2.3772692530999997,43
92648,199105,222234,9.6131647955,1.8101702968999998,2.3258235672,44
92785,199123,222193,9.667003304,1.8759729184,2.344966148,45
92914,199181,222268,9.633503787599999,1.8149559420999999,2.2301106632,46
92928,199165,222270,9.6801638283,1.962114532,2.3964118339,47
93076,199208,222284,9.7423772159,1.8089738856,2.2636101795999997,48
93184,199238,222313,9.7806623775,1.9034903783000001,2.3485553819,49
93308,199300,222322,9.6287181424,1.9202401365000001,2.3880369548,50
93500,199310,222350,9.757930562799999,1.842473402,2.2540388892,51
93431,199220,222298,9.728020280299999,1.9082760235,2.3114666316,52
92937,199090,222264,9.7770731436,1.8939190879,2.2779671152,53
92325,199029,222198,9.6000042712,1.8137595308,2.3353948576,54
91874,198999,222189,9.6478607232,1.8041882404,2.3198415107,55
91565,198949,222130,9.745966449800001,1.6821542877999998,2.2827527603999997,56
91217,198893,222048,9.7710910871,1.9274186043000001,2.2313070745,57
90855,198838,222013,9.6825566509,1.9130616687,2.3868405435,58
90628,198814,221991,9.6813602396,1.7276179172000001,2.2683958248,59
90558,198819,221993,9.7340023368,1.8005990065,2.3054845751,60
90510,198778,221943,9.6490571345,1.9704894111,2.321037922,61
90431,198785,221991,9.7088776995,1.8699908619,2.2540388892,62
90337,198749,221960,9.857232700700001,1.9800607015,2.2301106632,63
90317,198788,221933,9.665806892700001,1.770688724,2.2636101795999997,64
90304,198777,221943,9.6801638283,1.7419748528,2.3306092124,65
90340,198791,221981,9.6478607232,1.7419748528,2.2157537276,66
90356,198844,221947,9.6418786667,1.8939190879,2.2875384056,67
90404,198812,221990,9.7088776995,1.7048861025,2.2540388892,68
90451,198854,222018,9.7052884656,1.7324035624,2.27318147,69
90543,198862,221984,9.7471628611,1.5900306177,2.2779671152,70
90572,198876,221975,9.8620183459,1.7132609816000002,2.2301106632,71
90652,198865,222001,9.6825566509,1.8747765071,2.3102702203,72
90701,198923,222031,9.6765745944,1.7862420709,2.3066809864,73
90753,198904,222012,9.6526463684,1.8173487647,2.3712871966,74
90825,198901,222051,9.7483592724,1.7048861025,2.3294128011,75
90870,198964,222051,9.5724868113,1.9322042495,2.2109680824,76
90955,198992,222058,9.7471628611,1.7790636031,2.3306092124,77
91035,198992,222042,9.6969135865,1.770688724,2.2336998971,78
90946,198932,222064,9.6861458848,1.8089738856,2.3162522768000002,79
90464,198794,221910,9.4923272542,1.890329854,2.3437697367,80
89803,198678,221910,9.732805925500001,1.8987047331,2.3258235672,81
89353,198652,221865,9.6777710057,1.7563317884,2.4059831243,82
89003,198596,221768,9.700502820399999,1.8233308212,2.4203400599,83
88619,198508,221708,9.7483592724,1.962114532,2.3581266723,84
88311,198426,221656,9.786644434,1.7994025952000001,2.297109696,85
88131,198406,221698,9.6717889492,1.9944176371,2.3294128011,86
88075,198428,221634,9.5904329808,1.8616159827999998,2.368894374,87
88101,198389,221683,9.629914553699999,1.9226329591,2.3401805028,88
88080,198395,221621,9.714859756,1.8939190879,2.4215364712,89
88075,198393,221588,9.741180804599999,1.8520446924,2.3198415107,90
88101,198396,221656,9.7232346351,1.866401628,2.2492532439999997,91
88168,198418,221643,9.5772724565,1.7144573929,2.2863419943,92
88284,198419,221629,9.6861458848,1.9477575963999998,2.3676979627,93
88410,198465,221653,9.714859756,1.8951154991999999,2.3174486881,94
88445,198490,221702,9.7052884656,1.9465611851,2.3306092124,95
88565,198474,221689,9.6047899164,1.8233308212,2.4023938904,96
88685,198482,221717,9.619146852,1.8388841681,2.3545374384,97
88797,198489,221730,9.7758767323,1.79461695,2.3114666316,98
88923,198553,221757,9.7806623775,1.9286150156,2.3270199785,99
89059,198577,221782,9.687342296099999,1.9704894111,2.3916261887,100
89188,198628,221779,9.6765745944,1.8472590472,2.3724836079,101
89379,198635,221824,9.7232346351,1.8460626359,2.3162522768000002,102
89455,198643,221822,9.7902336679,1.79461695,2.2743778813,103
89588,198683,221833,9.7567341515,1.8317057003,2.3641087288000002,104
89711,198729,221926,9.738787982,1.9513468303000001,2.2959132847,105
89852,198771,221898,9.6622176588,1.7862420709,2.1918255016,106
89977,198763,221914,9.732805925500001,1.9238293703999998,2.2839491717,107
90107,198796,221996,9.767501853199999,1.9178473139,2.3258235672,108
90226,198836,221993,9.6574320136,1.7156538042,2.297109696,109
90367,198838,221994,9.6562356023,1.7766707805,2.27318147,110
90241,198777,221978,9.7423772159,1.7156538042,2.4346969955,111
89961,198677,221900,9.667003304,1.7324035624,2.297109696,112
89371,198540,221762,9.6861458848,1.8245272325,2.3641087288000002,113
88915,198522,221795,9.6729853605,1.8604195715,2.321037922,114
88621,198454,221708,9.6765745944,1.9034903783000001,2.2923240508,115
88294,198375,221629,9.6478607232,1.8137595308,2.3437697367,116
88000,198275,221595,9.6717889492,2.0997018315,2.3401805028,117
87811,198248,221570,9.732805925500001,1.9752750562999999,2.4203400599,118
87767,198258,221542,9.629914553699999,1.9992032822999999,2.3294128011,119
87828,198238,221608,9.7663054419,1.9286150156,2.297109696,120
87855,198241,221529,9.5294160045,1.9477575963999998,2.3784656644,121
87847,198251,221537,9.6777710057,1.8759729184,2.3353948576,122
87915,198294,221567,9.7064848769,1.8855442087999998,2.321037922,123
87979,198284,221575,9.7184489899,1.7335999736999999,2.344966148,124
88105,198304,221599,9.665806892700001,1.866401628,2.2588245344,125
88244,198316,221596,9.786644434,1.9561324755,2.4011974791,126
88380,198341,221639,9.7292166916,1.7001004573,2.2348963083999998,127
88473,198381,221652,9.7292166916,1.8807585636,2.2552353005,128
88613,198410,221689,9.6849494735,1.9645073545999998,2.4107687694999997,129
88751,198446,221694,9.7088776995,1.7862420709,2.2444675988,130
88894,198414,221719,9.7196454012,1.7898313048,2.3401805028,131
89031,198511,221734,9.7184489899,1.8711872732,2.3341984463,132
89172,198529,221793,9.6861458848,1.8987047331,2.3497517932000003,133
89352,198555,221797,9.8368937086,1.818545176,2.297109696,134
89460,198572,221821,9.675378183100001,1.7994025952000001,2.3676979627,135
89599,198636,221829,9.6622176588,1.842473402,2.2540388892,136
89718,198646,221880,9.6717889492,1.9369898947,2.3162522768000002,137
89859,198685,221911,9.7567341515,1.9034903783000001,2.2109680824,138
89971,198726,221890,9.675378183100001,1.7754743692000001,2.2827527603999997,139
90176,198752,221970,9.6012006825,1.7324035624,2.344966148,140
90292,198755,221932,9.6861458848,1.7910277161,2.3341984463,141
90043,198617,221841,9.738787982,1.818545176,2.3916261887,142
89471,198521,221797,9.634700198900001,1.8077774743,2.2923240508,143
89039,198456,221782,9.6478607232,1.8412769907000002,2.3736800192,144
88757,198434,221763,9.6478607232,1.8412769907000002,2.3736800192,145
88511,198378,221683,9.6478607232,1.8412769907000002,2.3736800192,146
88254,198341,221631,9.6478607232,1.8412769907000002,2.3736800192,147
88087,198320,221615,9.6478607232,1.8412769907000002,2.3736800192,148
88098,198332,221625,9.6478607232,1.8412769907000002,2.3736800192,149
88149,198314,221625,9.6478607232,1.8412769907000002,2.3736800192,150
88157,198303,221604,9.6478607232,1.8412769907000002,2.3736800192,151
88165,198298,221607,9.6478607232,1.8412769907000002,2.3736800192,152
88202,198306,221618,9.6478607232,1.8412769907000002,2.3736800192,153
88283,198309,221621,9.6478607232,1.8412769907000002,2.3736800192,154
88404,198316,221625,9.6478607232,1.8412769907000002,2.3736800192,155
88493,198364,221677,9.6478607232,1.8412769907000002,2.3736800192,156
88634,198359,221658,9.6478607232,1.8412769907000002,2.3736800192,157
88758,198410,221688,9.6478607232,1.8412769907000002,2.3736800192,158
88865,198397,221635,9.6478607232,1.8412769907000002,2.3736800192,159
88993,198419,221720,9.6478607232,1.8412769907000002,2.3736800192,160
89140,198453,221736,9.6478607232,1.8412769907000002,2.3736800192,161
89252,198514,221698,9.6478607232,1.8412769907000002,2.3736800192,162
89404,198526,221797,9.6478607232,1.8412769907000002,2.3736800192,163
89514,198507,221805,9.6478607232,1.8412769907000002,2.3736800192,164
89644,198560,221839,9.6478607232,1.8412769907000002,2.3736800192,165
89782,198592,221845,9.6478607232,1.8412769907000002,2.3736800192,166
89938,198613,221861,9.6478607232,1.8412769907000002,2.3736800192,167
90088,198648,221879,9.6478607232,1.8412769907000002,2.3736800192,168
90202,198705,221913,9.6478607232,1.8412769907000002,2.3736800192,169
90357,198688,221955,9.6478607232,1.8412769907000002,2.3736800192,170
90487,198735,221989,9.6478607232,1.8412769907000002,2.3736800192,171
90612,198746,221959,9.6478607232,1.8412769907000002,2.3736800192,172
90721,198777,221980,9.6478607232,1.8412769907000002,2.3736800192,173
90663,198691,221898,9.6478607232,1.8412769907000002,2.3736800192,174
90245,198558,221870,9.6478607232,1.8412769907000002,2.3736800192,175
89685,198478,221773,9.6478607232,1.8412769907000002,2.3736800192,176
89285,198420,221771,9.6478607232,1.8412769907000002,2.3736800192,177
88991,198351,221693,9.6478607232,1.8412769907000002,2.3736800192,178
88672,198308,221648,9.6478607232,1.8412769907000002,2.3736800192,179
88404,198250,221628,9.6478607232,1.8412769907000002,2.3736800192,180
88223,198184,221591,9.6478607232,1.8412769907000002,2.3736800192,181
88228,198199,221563,9.6478607232,1.8412769907000002,2.3736800192,182
88255,198200,221577,9.6478607232,1.8412769907000002,2.3736800192,183
88273,198208,221564,9.6478607232,1.8412769907000002,2.3736800192,184
88302,198198,221608,9.6478607232,1.8412769907000002,2.3736800192,185
88952,198331,221680,9.5868437469,1.7982061838999999,2.344966148,186
89109,198325,221682,9.5868437469,1.7982061838999999,2.344966148,187
89236,198346,221717,9.5868437469,1.7982061838999999,2.344966148,188
89386,198356,221725,9.5868437469,1.7982061838999999,2.344966148,189
89538,198402,221724,9.5868437469,1.7982061838999999,2.344966148,190
89683,198454,221756,9.5868437469,1.7982061838999999,2.344966148,191
89832,198479,221826,9.5868437469,1.7982061838999999,2.344966148,192
89972,198524,221857,9.5868437469,1.7982061838999999,2.344966148,193
90131,198507,221874,9.5868437469,1.7982061838999999,2.344966148,194
90265,198556,221825,9.5868437469,1.7982061838999999,2.344966148,195
90413,198619,221905,9.5868437469,1.7982061838999999,2.344966148,196
90554,198604,221883,9.5868437469,1.7982061838999999,2.344966148,197
90518,198520,221816,9.5868437469,1.7982061838999999,2.344966148,198
90105,198421,221790,9.5868437469,1.7982061838999999,2.344966148,199
89628,198327,221740,9.5868437469,1.7982061838999999,2.344966148,200
89290,198338,221721,9.5868437469,1.7982061838999999,2.344966148,201
89060,198238,221685,9.5868437469,1.7982061838999999,2.344966148,202
88829,198173,221590,9.5868437469,1.7982061838999999,2.344966148,203
88625,198135,221574,9.5868437469,1.7982061838999999,2.344966148,204
88565,198129,221610,9.5868437469,1.7982061838999999,2.344966148,205
88637,198173,221564,9.5868437469,1.7982061838999999,2.344966148,206
88760,198168,221608,9.5868437469,1.7982061838999999,2.344966148,207
88842,198137,221582,9.5868437469,1.7982061838999999,2.344966148,208
88942,198178,221589,9.5868437469,1.7982061838999999,2.344966148,209
89063,198176,221596,9.5868437469,1.7982061838999999,2.344966148,210
89202,198193,221646,9.5868437469,1.7982061838999999,2.344966148,211
89373,198229,221662,9.5868437469,1.7982061838999999,2.344966148,212
89545,198262,221670,9.5868437469,1.7982061838999999,2.344966148,213
89715,198301,221722,9.5868437469,1.7982061838999999,2.344966148,214
89904,198328,221741,9.5868437469,1.7982061838999999,2.344966148,215
90070,198364,221779,9.5868437469,1.7982061838999999,2.344966148,216
90267,198417,221827,9.5868437469,1.7982061838999999,2.344966148,217
90450,198435,221865,9.5868437469,1.7982061838999999,2.344966148,218
90639,198492,221877,9.5868437469,1.7982061838999999,2.344966148,219
90818,198506,221895,9.5868437469,1.7982061838999999,2.344966148,220
90997,198565,221930,9.5868437469,1.7982061838999999,2.344966148,221
91179,198594,221932,9.5868437469,1.7982061838999999,2.344966148,222
91363,198636,222018,9.5868437469,1.7982061838999999,2.344966148,223
91512,198708,222031,9.5868437469,1.7982061838999999,2.344966148,224
91700,198720,222084,9.5868437469,1.7982061838999999,2.344966148,225
91875,198747,222095,9.5868437469,1.7982061838999999,2.344966148,226
92052,198796,222095,9.5868437469,1.7982061838999999,2.344966148,227
90905,198417,221884,9.7519485063,1.9226329591,2.27318147,228
90964,198414,221859,9.7519485063,1.9226329591,2.27318147,229
91007,198403,221874,9.7519485063,1.9226329591,2.27318147,230
91026,198396,221894,9.7519485063,1.9226329591,2.27318147,231
91092,198417,221859,9.7519485063,1.9226329591,2.27318147,232
91200,198389,221858,9.7519485063,1.9226329591,2.27318147,233
91299,198436,221901,9.7519485063,1.9226329591,2.27318147,234
91435,198471,221942,9.7519485063,1.9226329591,2.27318147,235
91539,198479,221902,9.7519485063,1.9226329591,2.27318147,236
91683,198485,221931,9.7519485063,1.9226329591,2.27318147,237
91824,198503,221976,9.7519485063,1.9226329591,2.27318147,238
91945,198552,221956,9.7519485063,1.9226329591,2.27318147,239
92090,198577,222044,9.7519485063,1.9226329591,2.27318147,240
92225,198599,222015,9.7519485063,1.9226329591,2.27318147,241
92353,198617,222025,9.7519485063,1.9226329591,2.27318147,242
92508,198657,222066,9.7519485063,1.9226329591,2.27318147,243
92635,198673,222073,9.7519485063,1.9226329591,2.27318147,244
92786,198703,222098,9.7519485063,1.9226329591,2.27318147,245
92912,198686,222125,9.7519485063,1.9226329591,2.27318147,246
93057,198756,222149,9.7519485063,1.9226329591,2.27318147,247
93076,198711,222104,9.7519485063,1.9226329591,2.27318147,248
92786,198593,222043,9.7519485063,1.9226329591,2.27318147,249
92286,198476,221993,9.7519485063,1.9226329591,2.27318147,250
91932,198432,221977,9.7519485063,1.9226329591,2.27318147,251
91678,198393,221889,9.7519485063,1.9226329591,2.27318147,252
91403,198307,221869,9.7519485063,1.9226329591,2.27318147,253
91138,198274,221865,9.7519485063,1.9226329591,2.27318147,254
90997,198219,221801,9.7519485063,1.9226329591,2.27318147,255
90958,198229,221807,9.7519485063,1.9226329591,2.27318147,256
90987,198239,221833,9.7519485063,1.9226329591,2.27318147,257
90993,198220,221802,9.7519485063,1.9226329591,2.27318147,258
90992,198255,221764,9.7519485063,1.9226329591,2.27318147,259
91031,198237,221822,9.7519485063,1.9226329591,2.27318147,260
91093,198270,221844,9.7519485063,1.9226329591,2.27318147,261
91165,198304,221821,9.7519485063,1.9226329591,2.27318147,262
91300,198308,221869,9.7519485063,1.9226329591,2.27318147,263
91406,198315,221852,9.7519485063,1.9226329591,2.27318147,264
91519,198360,221902,9.7519485063,1.9226329591,2.27318147,265
91645,198390,221942,9.7519485063,1.9226329591,2.27318147,266
91753,198429,221933,9.7519485063,1.9226329591,2.27318147,267
91889,198424,221972,9.7519485063,1.9226329591,2.27318147,268
92018,198443,221952,9.7519485063,1.9226329591,2.27318147,269
90685,198254,221832,9.69093153,1.8269200550999998,2.3736800192,270
90772,198291,221775,9.69093153,1.8269200550999998,2.3736800192,271
90839,198272,221858,9.69093153,1.8269200550999998,2.3736800192,272
90935,198339,221896,9.69093153,1.8269200550999998,2.3736800192,273
91048,198334,221853,9.69093153,1.8269200550999998,2.3736800192,274
91114,198395,221891,9.69093153,1.8269200550999998,2.3736800192,275
91223,198425,221887,9.69093153,1.8269200550999998,2.3736800192,276
91318,198445,221936,9.69093153,1.8269200550999998,2.3736800192,277
91438,198492,221961,9.69093153,1.8269200550999998,2.3736800192,278
91531,198525,222015,9.69093153,1.8269200550999998,2.3736800192,279
91636,198530,221982,9.69093153,1.8269200550999998,2.3736800192,280
91727,198581,221997,9.69093153,1.8269200550999998,2.3736800192,281
91805,198599,222078,9.69093153,1.8269200550999998,2.3736800192,282
91914,198617,222100,9.69093153,1.8269200550999998,2.3736800192,283
92003,198634,222080,9.69093153,1.8269200550999998,2.3736800192,284
92103,198653,222110,9.69093153,1.8269200550999998,2.3736800192,285
92201,198674,222089,9.69093153,1.8269200550999998,2.3736800192,286
92278,198704,222075,9.69093153,1.8269200550999998,2.3736800192,287
92163,198623,222073,9.69093153,1.8269200550999998,2.3736800192,288
91679,198457,221963,9.69093153,1.8269200550999998,2.3736800192,289
91109,198449,221945,9.69093153,1.8269200550999998,2.3736800192,290
90695,198360,221887,9.69093153,1.8269200550999998,2.3736800192,291
90393,198315,221779,9.69093153,1.8269200550999998,2.3736800192,292
90067,198247,221781,9.69093153,1.8269200550999998,2.3736800192,293
89770,198207,221724,9.69093153,1.8269200550999998,2.3736800192,294
89620,198179,221696,9.69093153,1.8269200550999998,2.3736800192,295
89576,198205,221697,9.69093153,1.8269200550999998,2.3736800192,296
89530,198203,221662,9.69093153,1.8269200550999998,2.3736800192,297
89458,198166,221643,9.69093153,1.8269200550999998,2.3736800192,298
89411,198162,221658,9.69093153,1.8269200550999998,2.3736800192,299
89424,198177,221668,9.69093153,1.8269200550999998,2.3736800192,300
89462,198208,221653,9.69093153,1.8269200550999998,2.3736800192,301
89512,198191,221706,9.69093153,1.8269200550999998,2.3736800192,302
89593,198238,221661,9.69093153,1.8269200550999998,2.3736800192,303
89676,198235,221683,9.69093153,1.8269200550999998,2.3736800192,304
89762,198275,221723,9.69093153,1.8269200550999998,2.3736800192,305
89842,198271,221717,9.69093153,1.8269200550999998,2.3736800192,306
89942,198358,221789,9.69093153,1.8269200550999998,2.3736800192,307
90036,198339,221784,9.69093153,1.8269200550999998,2.3736800192,308
90140,198392,221804,9.69093153,1.8269200550999998,2.3736800192,309
90257,198394,221860,9.69093153,1.8269200550999998,2.3736800192,310
90367,198433,221844,9.69093153,1.8269200550999998,2.3736800192,311
88411,197959,221449,9.7483592724,1.9106688461,2.4215364712,312
88426,197980,221464,9.7483592724,1.9106688461,2.4215364712,313
88486,198010,221476,9.7483592724,1.9106688461,2.4215364712,314
88565,198020,221501,9.7483592724,1.9106688461,2.4215364712,315
88665,198070,221541,9.7483592724,1.9106688461,2.4215364712,316
88765,198034,221514,9.7483592724,1.9106688461,2.4215364712,317
88879,198103,221593,9.7483592724,1.9106688461,2.4215364712,318
89018,198115,221562,9.7483592724,1.9106688461,2.4215364712,319
89130,198165,221573,9.7483592724,1.9106688461,2.4215364712,320
89278,198208,221619,9.7483592724,1.9106688461,2.4215364712,321
89388,198245,221604,9.7483592724,1.9106688461,2.4215364712,322
89522,198274,221638,9.7483592724,1.9106688461,2.4215364712,323
89678,198313,221663,9.7483592724,1.9106688461,2.4215364712,324
89814,198317,221703,9.7483592724,1.9106688461,2.4215364712,325
89962,198367,221719,9.7483592724,1.9106688461,2.4215364712,326
90087,198396,221728,9.7483592724,1.9106688461,2.4215364712,327
90233,198408,221786,9.7483592724,1.9106688461,2.4215364712,328
90373,198453,221804,9.7483592724,1.9106688461,2.4215364712,329
90504,198489,221816,9.7483592724,1.9106688461,2.4215364712,330
90645,198558,221867,9.7483592724,1.9106688461,2.4215364712,331
90787,198529,221848,9.7483592724,1.9106688461,2.4215364712,332
90917,198622,221885,9.7483592724,1.9106688461,2.4215364712,333
91055,198633,221940,9.7483592724,1.9106688461,2.4215364712,334
91018,198550,221858,9.7483592724,1.9106688461,2.4215364712,335
90670,198399,221802,9.7483592724,1.9106688461,2.4215364712,336
90153,198344,221770,9.7483592724,1.9106688461,2.4215364712,337
89796,198332,221750,9.7483592724,1.9106688461,2.4215364712,338
89535,198277,221698,9.7483592724,1.9106688461,2.4215364712,339
89272,198239,221646,9.7483592724,1.9106688461,2.4215364712,340
89034,198154,221591,9.7483592724,1.9106688461,2.4215364712,341
88915,198134,221533,9.7483592724,1.9106688461,2.4215364712,342
88907,198150,221558,9.7483592724,1.9106688461,2.4215364712,343
88906,198171,221591,9.7483592724,1.9106688461,2.4215364712,344
88885,198112,221521,9.7483592724,1.9106688461,2.4215364712,345
88882,198121,221565,9.7483592724,1.9106688461,2.4215364712,346
88913,198112,221535,9.7483592724,1.9106688461,2.4215364712,347
88985,198144,221560,9.7483592724,1.9106688461,2.4215364712,348
89058,198148,221585,9.7483592724,1.9106688461,2.4215364712,349
89144,198182,221579,9.7483592724,1.9106688461,2.4215364712,350
89240,198206,221598,9.7483592724,1.9106688461,2.4215364712,351
89341,198242,221603,9.7483592724,1.9106688461,2.4215364712,352
89458,198246,221629,9.7483592724,1.9106688461,2.4215364712,353
90312,198319,221670,9.6526463684,1.8137595308,2.2695922361,354
89827,198197,221652,9.6526463684,1.8137595308,2.2695922361,355
89356,198133,221599,9.6526463684,1.8137595308,2.2695922361,356
89037,198105,221532,9.6526463684,1.8137595308,2.2695922361,357
88727,198045,221492,9.6526463684,1.8137595308,2.2695922361,358
88455,197942,221439,9.6526463684,1.8137595308,2.2695922361,359
88231,197891,221426,9.6526463684,1.8137595308,2.2695922361,360
88159,197883,221389,9.6526463684,1.8137595308,2.2695922361,361
88188,197915,221388,9.6526463684,1.8137595308,2.2695922361,362
88237,197910,221402,9.6526463684,1.8137595308,2.2695922361,363
88262,197892,221385,9.6526463684,1.8137595308,2.2695922361,364
88322,197927,221410,9.6526463684,1.8137595308,2.2695922361,365
88403,197925,221429,9.6526463684,1.8137595308,2.2695922361,366
88513,197932,221464,9.6526463684,1.8137595308,2.2695922361,367
88631,197975,221475,9.6526463684,1.8137595308,2.2695922361,368
88768,198016,221459,9.6526463684,1.8137595308,2.2695922361,369
88916,198037,221521,9.6526463684,1.8137595308,2.2695922361,370
89080,198078,221490,9.6526463684,1.8137595308,2.2695922361,371
89203,198092,221523,9.6526463684,1.8137595308,2.2695922361,372
89365,198120,221539,9.6526463684,1.8137595308,2.2695922361,373
89519,198151,221607,9.6526463684,1.8137595308,2.2695922361,374
89679,198178,221652,9.6526463684,1.8137595308,2.2695922361,375
89827,198224,221673,9.6526463684,1.8137595308,2.2695922361,376
89992,198234,221685,9.6526463684,1.8137595308,2.2695922361,377
90144,198260,221694,9.6526463684,1.8137595308,2.2695922361,378
90287,198291,221720,9.6526463684,1.8137595308,2.2695922361,379
90456,198326,221745,9.6526463684,1.8137595308,2.2695922361,380
90581,198388,221742,9.6526463684,1.8137595308,2.2695922361,381
90534,198285,221742,9.6526463684,1.8137595308,2.2695922361,382
90122,198154,221648,9.6526463684,1.8137595308,2.2695922361,383
89647,198075,221615,9.6526463684,1.8137595308,2.2695922361,384
89363,198050,221607,9.6526463684,1.8137595308,2.2695922361,385
89152,197963,221526,9.6526463684,1.8137595308,2.2695922361,386
88918,197932,221509,9.6526463684,1.8137595308,2.2695922361,387
88749,197878,221471,9.6526463684,1.8137595308,2.2695922361,388
88704,197859,221455,9.6526463684,1.8137595308,2.2695922361,389
88790,197905,221470,9.6526463684,1.8137595308,2.2695922361,390
88896,197882,221445,9.6526463684,1.8137595308,2.2695922361,391
88973,197908,221476,9.6526463684,1.8137595308,2.2695922361,392
89041,197932,221491,9.6526463684,1.8137595308,2.2695922361,393
89148,197946,221506,9.6526463684,1.8137595308,2.2695922361,394
89292,197971,221496,9.6526463684,1.8137595308,2.2695922361,395
90306,197949,221723,9.6849494735,1.79461695,2.3533410271,396
90299,197956,221731,9.6849494735,1.79461695,2.3533410271,397
90350,197989,221698,9.6849494735,1.79461695,2.3533410271,398
90334,197989,221674,9.6849494735,1.79461695,2.3533410271,399
90351,198014,221723,9.6849494735,1.79461695,2.3533410271,400
90433,198008,221728,9.6849494735,1.79461695,2.3533410271,401
90511,198082,221769,9.6849494735,1.79461695,2.3533410271,402
90631,198102,221809,9.6849494735,1.79461695,2.3533410271,403
90777,198159,221802,9.6849494735,1.79461695,2.3533410271,404
90907,198182,221845,9.6849494735,1.79461695,2.3533410271,405
91058,198194,221864,9.6849494735,1.79461695,2.3533410271,406
91200,198244,221863,9.6849494735,1.79461695,2.3533410271,407
91348,198273,221919,9.6849494735,1.79461695,2.3533410271,408
91479,198316,221939,9.6849494735,1.79461695,2.3533410271,409
91641,198392,222013,9.6849494735,1.79461695,2.3533410271,410
91786,198410,222010,9.6849494735,1.79461695,2.3533410271,411
91939,198463,222062,9.6849494735,1.79461695,2.3533410271,412
92100,198501,222044,9.6849494735,1.79461695,2.3533410271,413
92284,198532,222121,9.6849494735,1.79461695,2.3533410271,414
92423,198604,222130,9.6849494735,1.79461695,2.3533410271,415
92348,198515,222090,9.6849494735,1.79461695,2.3533410271,416
91924,198411,222065,9.6849494735,1.79461695,2.3533410271,417
91464,198327,222009,9.6849494735,1.79461695,2.3533410271,418
91195,198283,222023,9.6849494735,1.79461695,2.3533410271,419
90952,198247,221964,9.6849494735,1.79461695,2.3533410271,420
90711,198180,221918,9.6849494735,1.79461695,2.3533410271,421
90520,198156,221829,9.6849494735,1.79461695,2.3533410271,422
90473,198175,221876,9.6849494735,1.79461695,2.3533410271,423
90535,198192,221878,9.6849494735,1.79461695,2.3533410271,424
90534,198204,221861,9.6849494735,1.79461695,2.3533410271,425
90521,198186,221890,9.6849494735,1.79461695,2.3533410271,426
90510,198216,221905,9.6849494735,1.79461695,2.3533410271,427
90550,198212,221868,9.6849494735,1.79461695,2.3533410271,428
90613,198220,221911,9.6849494735,1.79461695,2.3533410271,429
90698,198246,221905,9.6849494735,1.79461695,2.3533410271,430
90758,198297,221898,9.6849494735,1.79461695,2.3533410271,431
90852,198309,221915,9.6849494735,1.79461695,2.3533410271,432
90924,198314,221933,9.6849494735,1.79461695,2.3533410271,433
91009,198326,221958,9.6849494735,1.79461695,2.3533410271,434
91105,198366,222020,9.6849494735,1.79461695,2.3533410271,435
91208,198412,221988,9.6849494735,1.79461695,2.3533410271,436
91291,198391,222028,9.6849494735,1.79461695,2.3533410271,437
89878,198021,221758,9.7722874984,1.8951154991999999,2.2827527603999997,438
89565,197947,221676,9.7722874984,1.8951154991999999,2.2827527603999997,439
89246,197834,221594,9.7722874984,1.8951154991999999,2.2827527603999997,440
89036,197777,221600,9.7722874984,1.8951154991999999,2.2827527603999997,441
88950,197802,221581,9.7722874984,1.8951154991999999,2.2827527603999997,442
89009,197810,221555,9.7722874984,1.8951154991999999,2.2827527603999997,443
89075,197806,221565,9.7722874984,1.8951154991999999,2.2827527603999997,444
89118,197831,221546,9.7722874984,1.8951154991999999,2.2827527603999997,445
89176,197843,221579,9.7722874984,1.8951154991999999,2.2827527603999997,446
89289,197871,221560,9.7722874984,1.8951154991999999,2.2827527603999997,447
89403,197874,221639,9.7722874984,1.8951154991999999,2.2827527603999997,448
89568,197903,221642,9.7722874984,1.8951154991999999,2.2827527603999997,449
89736,197933,221671,9.7722874984,1.8951154991999999,2.2827527603999997,450
89917,197954,221689,9.7722874984,1.8951154991999999,2.2827527603999997,451
90087,198006,221692,9.7722874984,1.8951154991999999,2.2827527603999997,452
90244,198071,221734,9.7722874984,1.8951154991999999,2.2827527603999997,453
90456,198074,221761,9.7722874984,1.8951154991999999,2.2827527603999997,454
90662,198155,221865,9.7722874984,1.8951154991999999,2.2827527603999997,455
90839,198142,221805,9.7722874984,1.8951154991999999,2.2827527603999997,456
90856,198075,221791,9.7722874984,1.8951154991999999,2.2827527603999997,457
90589,198008,221740,9.7722874984,1.8951154991999999,2.2827527603999997,458
90358,198002,221704,9.7722874984,1.8951154991999999,2.2827527603999997,459
90173,197980,221691,9.7722874984,1.8951154991999999,2.2827527603999997,460
90001,197928,221676,9.7722874984,1.8951154991999999,2.2827527603999997,461
89843,197896,221647,9.7722874984,1.8951154991999999,2.2827527603999997,462
89776,197923,221688,9.7722874984,1.8951154991999999,2.2827527603999997,463
89827,197918,221652,9.7722874984,1.8951154991999999,2.2827527603999997,464
89969,197975,221678,9.7722874984,1.8951154991999999,2.2827527603999997,465
90135,197973,221654,9.7722874984,1.8951154991999999,2.2827527603999997,466
90259,198028,221655,9.7722874984,1.8951154991999999,2.2827527603999997,467
90427,198037,221715,9.7722874984,1.8951154991999999,2.2827527603999997,468
90601,198084,221780,9.7722874984,1.8951154991999999,2.2827527603999997,469
90775,198131,221822,9.7722874984,1.8951154991999999,2.2827527603999997,470
90987,198180,221777,9.7722874984,1.8951154991999999,2.2827527603999997,471
91196,198205,221821,9.7722874984,1.8951154991999999,2.2827527603999997,472
91394,198227,221891,9.7722874984,1.8951154991999999,2.2827527603999997,473
91610,198308,221919,9.7722874984,1.8951154991999999,2.2827527603999997,474
91837,198318,221995,9.7722874984,1.8951154991999999,2.2827527603999997,475
92030,198349,222023,9.7722874984,1.8951154991999999,2.2827527603999997,476
92255,198445,222041,9.7722874984,1.8951154991999999,2.2827527603999997,477
92458,198491,222079,9.7722874984,1.8951154991999999,2.2827527603999997,478
92663,198565,222129,9.7722874984,1.8951154991999999,2.2827527603999997,479
95295,199092,222438,9.6681997153,1.9178473139,2.3784656644,480
95387,199104,222475,9.6681997153,1.9178473139,2.3784656644,481
95473,199114,222487,9.6681997153,1.9178473139,2.3784656644,482
95581,199112,222494,9.6681997153,1.9178473139,2.3784656644,483
95714,199138,222509,9.6681997153,1.9178473139,2.3784656644,484
95801,199168,222511,9.6681997153,1.9178473139,2.3784656644,485
95910,199198,222606,9.6681997153,1.9178473139,2.3784656644,486
96024,199225,222569,9.6681997153,1.9178473139,2.3784656644,487
96136,199250,222557,9.6681997153,1.9178473139,2.3784656644,488
96250,199272,222569,9.6681997153,1.9178473139,2.3784656644,489
96363,199333,222583,9.6681997153,1.9178473139,2.3784656644,490
96485,199359,222609,9.6681997153,1.9178473139,2.3784656644,491
96604,199377,222675,9.6681997153,1.9178473139,2.3784656644,492
96719,199364,222650,9.6681997153,1.9178473139,2.3784656644,493
96821,199408,222692,9.6681997153,1.9178473139,2.3784656644,494
96939,199460,222726,9.6681997153,1.9178473139,2.3784656644,495
97049,199465,222714,9.6681997153,1.9178473139,2.3784656644,496
97171,199440,222758,9.6681997153,1.9178473139,2.3784656644,497
97311,199507,222780,9.6681997153,1.9178473139,2.3784656644,498
97423,199547,222788,9.6681997153,1.9178473139,2.3784656644,499
97531,199573,222804,9.6681997153,1.9178473139,2.3784656644,500
97656,199626,222760,9.6681997153,1.9178473139,2.3784656644,501
97774,199598,222849,9.6681997153,1.9178473139,2.3784656644,502
97817,199632,222804,9.6681997153,1.9178473139,2.3784656644,503
97727,199525,222756,9.6681997153,1.9178473139,2.3784656644,504
97666,199511,222750,9.6681997153,1.9178473139,2.3784656644,505
97626,199577,222788,9.6681997153,1.9178473139,2.3784656644,506
97579,199516,222754,9.6681997153,1.9178473139,2.3784656644,507
97467,199544,222744,9.6681997153,1.9178473139,2.3784656644,508
97361,199538,222789,9.6681997153,1.9178473139,2.3784656644,509
97269,199552,222787,9.6681997153,1.9178473139,2.3784656644,510
97236,199576,222753,9.6681997153,1.9178473139,2.3784656644,511
97210,199563,222804,9.6681997153,1.9178473139,2.3784656644,512
97182,199596,222793,9.6681997153,1.9178473139,2.3784656644,513
97149,199614,222759,9.6681997153,1.9178473139,2.3784656644,514
97142,199640,222750,9.6681997153,1.9178473139,2.3784656644,515
97155,199660,222765,9.6681997153,1.9178473139,2.3784656644,516
97168,199640,222796,9.6681997153,1.9178473139,2.3784656644,517
97202,199662,222792,9.6681997153,1.9178473139,2.3784656644,518
97230,199670,222825,9.6681997153,1.9178473139,2.3784656644,519
97275,199697,222822,9.6681997153,1.9178473139,2.3784656644,520
97312,199747,222861,9.6681997153,1.9178473139,2.3784656644,521
97532,199819,222858,9.5485585853,1.9944176371,2.4538395763,522
97558,199842,222843,9.5485585853,1.9944176371,2.4538395763,523
97634,199816,222905,9.5485585853,1.9944176371,2.4538395763,524
97680,199865,222900,9.5485585853,1.9944176371,2.4538395763,525
97761,199879,222930,9.5485585853,1.9944176371,2.4538395763,526
97837,199912,222941,9.5485585853,1.9944176371,2.4538395763,527
97922,199923,222888,9.5485585853,1.9944176371,2.4538395763,528
97967,199929,222917,9.5485585853,1.9944176371,2.4538395763,529
97901,199873,222889,9.5485585853,1.9944176371,2.4538395763,530
97753,199830,222826,9.5485585853,1.9944176371,2.4538395763,531
97610,199823,222838,9.5485585853,1.9944176371,2.4538395763,532
97466,199822,222871,9.5485585853,1.9944176371,2.4538395763,533
97298,199837,222857,9.5485585853,1.9944176371,2.4538395763,534
97071,199836,222806,9.5485585853,1.9944176371,2.4538395763,535
96872,199781,222828,9.5485585853,1.9944176371,2.4538395763,536
96763,199862,222846,9.5485585853,1.9944176371,2.4538395763,537
96678,199867,222812,9.5485585853,1.9944176371,2.4538395763,538
96576,199845,222835,9.5485585853,1.9944176371,2.4538395763,539
96495,199838,222801,9.5485585853,1.9944176371,2.4538395763,540
96414,199898,222851,9.5485585853,1.9944176371,2.4538395763,541
96363,199929,222829,9.5485585853,1.9944176371,2.4538395763,542
96315,199909,222845,9.5485585853,1.9944176371,2.4538395763,543
96285,199898,222837,9.5485585853,1.9944176371,2.4538395763,544
96264,199913,222826,9.5485585853,1.9944176371,2.4538395763,545
96290,199924,222782,9.5485585853,1.9944176371,2.4538395763,546
96293,199924,222759,9.5485585853,1.9944176371,2.4538395763,547
96327,199924,222811,9.5485585853,1.9944176371,2.4538395763,548
96325,199950,222787,9.5485585853,1.9944176371,2.4538395763,549
96370,199924,222808,9.5485585853,1.9944176371,2.4538395763,550
96410,199951,222806,9.5485585853,1.9944176371,2.4538395763,551
96440,199988,222821,9.5485585853,1.9944176371,2.4538395763,552
96488,199987,222804,9.5485585853,1.9944176371,2.4538395763,553
96532,199992,222781,9.5485585853,1.9944176371,2.4538395763,554
96559,200051,222800,9.5485585853,1.9944176371,2.4538395763,555
96635,200044,222814,9.5485585853,1.9944176371,2.4538395763,556
96687,200041,222833,9.5485585853,1.9944176371,2.4538395763,557
96757,200057,222840,9.5485585853,1.9944176371,2.4538395763,558
96799,200070,222806,9.5485585853,1.9944176371,2.4538395763,559
96872,200084,222851,9.5485585853,1.9944176371,2.4538395763,560
96937,200117,222831,9.5485585853,1.9944176371,2.4538395763,561
96995,200096,222838,9.5485585853,1.9944176371,2.4538395763,562
97050,200111,222811,9.5485585853,1.9944176371,2.4538395763,563
93372,199747,222365,9.710074110799999,1.8807585636,2.3018953412000003,564
93331,199718,222370,9.710074110799999,1.8807585636,2.3018953412000003,565
93311,199727,222297,9.710074110799999,1.8807585636,2.3018953412000003,566
93312,199758,222298,9.710074110799999,1.8807585636,2.3018953412000003,567
93369,199793,222350,9.710074110799999,1.8807585636,2.3018953412000003,568
93388,199783,222302,9.710074110799999,1.8807585636,2.3018953412000003,569
93433,199795,222368,9.710074110799999,1.8807585636,2.3018953412000003,570
93499,199805,222321,9.710074110799999,1.8807585636,2.3018953412000003,571
93559,199787,222355,9.710074110799999,1.8807585636,2.3018953412000003,572
93623,199807,222348,9.710074110799999,1.8807585636,2.3018953412000003,573
93724,199862,222334,9.710074110799999,1.8807585636,2.3018953412000003,574
93786,199813,222359,9.710074110799999,1.8807585636,2.3018953412000003,575
93879,199892,222373,9.710074110799999,1.8807585636,2.3018953412000003,576
93959,199899,222395,9.710074110799999,1.8807585636,2.3018953412000003,577
94048,199887,222365,9.710074110799999,1.8807585636,2.3018953412000003,578
94145,199888,222411,9.710074110799999,1.8807585636,2.3018953412000003,579
94253,199942,222414,9.710074110799999,1.8807585636,2.3018953412000003,580
94329,199927,222399,9.710074110799999,1.8807585636,2.3018953412000003,581
94432,199963,222435,9.710074110799999,1.8807585636,2.3018953412000003,582
94522,199977,222410,9.710074110799999,1.8807585636,2.3018953412000003,583
94630,199974,222442,9.710074110799999,1.8807585636,2.3018953412000003,584
94727,200026,222412,9.710074110799999,1.8807585636,2.3018953412000003,585
94790,199983,222450,9.710074110799999,1.8807585636,2.3018953412000003,586
94861,200003,222417,9.710074110799999,1.8807585636,2.3018953412000003,587
94912,199976,222377,9.710074110799999,1.8807585636,2.3018953412000003,588
94691,199857,222300,9.710074110799999,1.8807585636,2.3018953412000003,589
94269,199773,222290,9.710074110799999,1.8807585636,2.3018953412000003,590
93937,199781,222289,9.710074110799999,1.8807585636,2.3018953412000003,591
93685,199724,222286,9.710074110799999,1.8807585636,2.3018953412000003,592
93415,199711,222244,9.710074110799999,1.8807585636,2.3018953412000003,593
93119,199665,222205,9.710074110799999,1.8807585636,2.3018953412000003,594
92892,199640,222199,9.710074110799999,1.8807585636,2.3018953412000003,595
92776,199649,222208,9.710074110799999,1.8807585636,2.3018953412000003,596
92721,199634,222162,9.710074110799999,1.8807585636,2.3018953412000003,597
92626,199647,222145,9.710074110799999,1.8807585636,2.3018953412000003,598
92545,199564,222159,9.710074110799999,1.8807585636,2.3018953412000003,599
92514,199590,222129,9.710074110799999,1.8807585636,2.3018953412000003,600
92514,199586,222140,9.710074110799999,1.8807585636,2.3018953412000003,601
92526,199591,222139,9.710074110799999,1.8807585636,2.3018953412000003,602
92569,199566,222167,9.710074110799999,1.8807585636,2.3018953412000003,603
92626,199586,222152,9.710074110799999,1.8807585636,2.3018953412000003,604
92674,199590,222181,9.710074110799999,1.8807585636,2.3018953412000003,605
90616,199231,221907,9.643075077999999,1.8568303376,2.3066809864,606
90582,199208,221916,9.643075077999999,1.8568303376,2.3066809864,607
90579,199208,221893,9.643075077999999,1.8568303376,2.3066809864,608
90642,199225,221957,9.643075077999999,1.8568303376,2.3066809864,609
90692,199194,221926,9.643075077999999,1.8568303376,2.3066809864,610
90765,199216,221956,9.643075077999999,1.8568303376,2.3066809864,611
90844,199212,221977,9.643075077999999,1.8568303376,2.3066809864,612
90952,199220,221980,9.643075077999999,1.8568303376,2.3066809864,613
91038,199271,221932,9.643075077999999,1.8568303376,2.3066809864,614
91132,199266,221963,9.643075077999999,1.8568303376,2.3066809864,615
91226,199286,221998,9.643075077999999,1.8568303376,2.3066809864,616
91355,199319,222011,9.643075077999999,1.8568303376,2.3066809864,617
91470,199294,221991,9.643075077999999,1.8568303376,2.3066809864,618
91559,199323,222067,9.643075077999999,1.8568303376,2.3066809864,619
91677,199317,222032,9.643075077999999,1.8568303376,2.3066809864,620
91787,199391,222068,9.643075077999999,1.8568303376,2.3066809864,621
91922,199394,222072,9.643075077999999,1.8568303376,2.3066809864,622
92039,199380,222100,9.643075077999999,1.8568303376,2.3066809864,623
92169,199422,222126,9.643075077999999,1.8568303376,2.3066809864,624
92282,199435,222097,9.643075077999999,1.8568303376,2.3066809864,625
92396,199489,222163,9.643075077999999,1.8568303376,2.3066809864,626
92538,199482,222148,9.643075077999999,1.8568303376,2.3066809864,627
92651,199506,222220,9.643075077999999,1.8568303376,2.3066809864,628
92711,199493,222208,9.643075077999999,1.8568303376,2.3066809864,629
92440,199390,222149,9.643075077999999,1.8568303376,2.3066809864,630
91816,199263,222097,9.643075077999999,1.8568303376,2.3066809864,631
91313,199268,222092,9.643075077999999,1.8568303376,2.3066809864,632
90991,199201,222055,9.643075077999999,1.8568303376,2.3066809864,633
90744,199216,222071,9.643075077999999,1.8568303376,2.3066809864,634
90474,199145,222007,9.643075077999999,1.8568303376,2.3066809864,635
90251,199110,222001,9.643075077999999,1.8568303376,2.3066809864,636
90178,199130,221998,9.643075077999999,1.8568303376,2.3066809864,637
90222,199149,222035,9.643075077999999,1.8568303376,2.3066809864,638
90225,199134,222036,9.643075077999999,1.8568303376,2.3066809864,639
90216,199125,222035,9.643075077999999,1.8568303376,2.3066809864,640
90227,199178,222028,9.643075077999999,1.8568303376,2.3066809864,641
90277,199167,222057,9.643075077999999,1.8568303376,2.3066809864,642
90365,199174,222055,9.643075077999999,1.8568303376,2.3066809864,643
90483,199182,222071,9.643075077999999,1.8568303376,2.3066809864,644
90606,199203,222144,9.643075077999999,1.8568303376,2.3066809864,645
90737,199227,222108,9.643075077999999,1.8568303376,2.3066809864,646
90864,199246,222119,9.643075077999999,1.8568303376,2.3066809864,647
89267,198981,222156,9.643075077999999,1.9525432416,2.368894374,648
89383,198936,222187,9.643075077999999,1.9525432416,2.368894374,649
89506,198956,222183,9.643075077999999,1.9525432416,2.368894374,650
89649,198997,222237,9.643075077999999,1.9525432416,2.368894374,651
89772,199027,222225,9.643075077999999,1.9525432416,2.368894374,652
89899,199064,222206,9.643075077999999,1.9525432416,2.368894374,653
90022,199031,222254,9.643075077999999,1.9525432416,2.368894374,654
90158,199095,222254,9.643075077999999,1.9525432416,2.368894374,655
90117,199019,222220,9.643075077999999,1.9525432416,2.368894374,656
89603,198908,222086,9.643075077999999,1.9525432416,2.368894374,657
88912,198825,222060,9.643075077999999,1.9525432416,2.368894374,658
88446,198764,222056,9.643075077999999,1.9525432416,2.368894374,659
88163,198741,222004,9.643075077999999,1.9525432416,2.368894374,660
87862,198693,221997,9.643075077999999,1.9525432416,2.368894374,661
87570,198636,221933,9.643075077999999,1.9525432416,2.368894374,662
87390,198615,221890,9.643075077999999,1.9525432416,2.368894374,663
87387,198611,221926,9.643075077999999,1.9525432416,2.368894374,664
87464,198578,221885,9.643075077999999,1.9525432416,2.368894374,665
87476,198576,221967,9.643075077999999,1.9525432416,2.368894374,666
87492,198576,221904,9.643075077999999,1.9525432416,2.368894374,667
87529,198577,221905,9.643075077999999,1.9525432416,2.368894374,668
87633,198593,221928,9.643075077999999,1.9525432416,2.368894374,669
87717,198619,221879,9.643075077999999,1.9525432416,2.368894374,670
87836,198604,221914,9.643075077999999,1.9525432416,2.368894374,671
87974,198628,221967,9.643075077999999,1.9525432416,2.368894374,672
88102,198657,221999,9.643075077999999,1.9525432416,2.368894374,673
88243,198642,221998,9.6765745944,1.890329854,2.2815563491,674
88387,198670,222009,9.6765745944,1.890329854,2.2815563491,675
88509,198697,222067,9.6765745944,1.890329854,2.2815563491,676
88640,198736,222084,9.6765745944,1.890329854,2.2815563491,677
88789,198780,222096,9.6765745944,1.890329854,2.2815563491,678
88928,198780,222104,9.6765745944,1.890329854,2.2815563491,679
89063,198838,222155,9.6765745944,1.890329854,2.2815563491,680
89219,198872,222133,9.6765745944,1.890329854,2.2815563491,681
89348,198891,222150,9.6765745944,1.890329854,2.2815563491,682
89272,198832,222106,9.6765745944,1.890329854,2.2815563491,683
88754,198708,222027,9.6765745944,1.890329854,2.2815563491,684
88187,198659,222007,9.6765745944,1.890329854,2.2815563491,685
87855,198639,222000,9.6765745944,1.890329854,2.2815563491,686
87646,198567,221945,9.6765745944,1.890329854,2.2815563491,687
87407,198529,221936,9.6765745944,1.890329854,2.2815563491,688
87223,198487,221906,9.6765745944,1.890329854,2.2815563491,689
87201,198483,221928,9.6765745944,1.890329854,2.2815563491,690
87315,198518,221896,9.6765745944,1.890329854,2.2815563491,691
87394,198480,221883,9.6765745944,1.890329854,2.2815563491,692
87424,198449,221922,9.745966449800001,1.8556339263000001,2.2169501389,693
87473,198492,221892,9.745966449800001,1.8556339263000001,2.2169501389,694
87559,198489,221924,9.745966449800001,1.8556339263000001,2.2169501389,695
87682,198498,221895,9.745966449800001,1.8556339263000001,2.2169501389,696
87813,198550,221902,9.6000042712,1.818545176,2.27318147,697
87959,198537,221922,9.6251289085,1.8041882404,2.321037922,698
88086,198496,221937,9.6526463684,1.7180466268,2.416750826,699
88290,198559,222021,9.7184489899,1.8281164664,2.3066809864,700
88370,198539,222026,9.667003304,1.9465611851,2.3736800192,701
88503,198572,222007,9.595218626,1.8759729184,2.4299113503,702
88640,198576,222067,9.6239324972,1.7886348934999998,2.3066809864,703
88774,198607,222046,9.7531449176,1.9573288867999998,2.3114666316,704
88928,198644,222094,9.7902336679,1.890329854,2.3676979627,705
89050,198635,222050,9.6239324972,1.9417755399,2.3533410271,706
88832,198519,222003,9.7663054419,1.9860427579999997,2.2839491717,707
88262,198427,221901,9.5808616904,1.9226329591,2.2456640101,708
87802,198369,221909,9.6143612068,1.8329021116,2.3114666316,709
87542,198309,221870,9.7471628611,1.890329854,2.3401805028,710
87335,198273,221833,9.6059863277,1.962114532,2.4155544147,711
87029,198213,221800,9.6382894328,1.8137595308,2.4394826406999996,712
86968,198180,221767,9.6275217311,1.8101702968999998,2.3306092124,713
87015,198160,221784,9.6095755616,1.8101702968999998,2.2923240508,714
87157,198214,221765,9.7172525786,1.9238293703999998,2.3258235672,715
87271,198184,221776,9.7196454012,1.8759729184,2.3676979627,716
87370,198173,221765,9.7196454012,1.8759729184,2.3676979627,717
87458,198204,221791,9.7196454012,1.8759729184,2.3676979627,718
87603,198210,221841,9.7196454012,1.8759729184,2.3676979627,719
87741,198233,221858,9.7196454012,1.8759729184,2.3676979627,720
87913,198295,221874,9.7196454012,1.8759729184,2.3676979627,721
88083,198274,221884,9.7196454012,1.8759729184,2.3676979627,722
88268,198334,221907,9.7196454012,1.8759729184,2.3676979627,723
88435,198328,221898,9.7196454012,1.8759729184,2.3676979627,724
88592,198365,221952,9.7483592724,1.8999011444,2.368894374,725
88751,198378,222020,9.7483592724,1.8999011444,2.368894374,726
88939,198434,221961,9.7340023368,1.9525432416,2.297109696,727
89085,198444,222009,9.7196454012,1.8329021116,2.4382862294,728
89149,198500,222039,9.7292166916,1.9046867896,2.3198415107,729
89430,198528,222076,9.7471628611,1.7814564256999998,2.3593230836,730
89566,198564,222077,9.7292166916,1.8747765071,2.3593230836,731
89709,198597,222161,9.7531449176,1.9657037659,2.3832513096,732
89851,198598,222167,9.5533442305,1.9334006607999998,2.2444675988,733
90007,198659,222159,9.595218626,1.8891334427000002,2.2588245344,734
90161,198659,222188,9.667003304,1.9357934834,2.3964118339,735
90195,198690,222240,9.5617191096,1.8376877568,2.321037922,736
90051,198572,222152,9.510273423700001,1.8604195715,2.4203400599,737
89476,198453,222057,9.5904329808,1.9752750562999999,2.4394826406999996,738
88979,198384,222068,9.6813602396,1.7431712641,2.2348963083999998,739
88671,198369,222026,9.562915520899999,1.9094724347999998,2.368894374,740
88430,198289,221989,9.7052884656,1.9238293703999998,2.2636101795999997,741
88197,198278,221979,9.7423772159,1.8759729184,2.3593230836,742
87979,198233,221932,9.714859756,1.8005990065,2.3389840915,743
87954,198247,221905,9.667003304,1.9034903783000001,2.3509482045,744
88026,198255,221976,9.6095755616,1.890329854,2.2923240508,745
88241,198240,221943,9.6287181424,1.8951154991999999,2.4586252215,746
88302,198244,221896,9.6478607232,1.7910277161,2.321037922,747
88403,198230,221972,9.643075077999999,1.8329021116,2.1822542112,748
88517,198290,221951,9.7052884656,1.8329021116,2.3832513096,749
88665,198295,221992,9.7375915707,1.9477575963999998,2.2169501389,750
88812,198337,221972,9.6717889492,1.7994025952000001,2.2648065909,751
88964,198378,222044,9.7244310464,1.8472590472,2.2683958248,752
89177,198391,222096,9.5665047548,1.9334006607999998,2.3258235672,753
89290,198417,222079,9.6705925379,1.7994025952000001,2.2683958248,754
89419,198442,222123,9.728020280299999,1.842473402,2.2492532439999997,755
89541,198507,222193,9.6526463684,1.9896319919,2.3832513096,756
89799,198495,222161,9.6945207639,1.8711872732,2.2923240508,757
89941,198571,222211,9.6622176588,1.8041882404,2.2301106632,758
90119,198589,222244,9.7555377402,1.7240286833,2.2504496553,759
90266,198595,222265,9.6012006825,1.9704894111,2.2959132847,760
90421,198643,222301,9.8763752815,1.8317057003,2.1738793321000003,761
90572,198728,222310,9.6478607232,1.8843477975,2.3246271559,762
90754,198716,222333,9.7340023368,1.8568303376,2.2157537276,763
90862,198755,222350,9.7375915707,1.8652052167000002,2.3162522768000002,764
91037,198799,222378,9.6382894328,1.8029918290999998,2.3102702203,765
91199,198876,222408,9.5533442305,1.8711872732,2.2157537276,766
91326,198888,222455,9.5712904,1.7898313048,2.3533410271,767
91477,198924,222453,9.7663054419,1.7898313048,2.3353948576,768
91579,198929,222470,9.6945207639,1.842473402,2.2109680824,769
91382,198849,222401,9.643075077999999,1.8520446924,2.344966148,770
90829,198684,222340,9.523433948000001,1.8089738856,2.3676979627,771
90359,198656,222311,9.523433948000001,1.8089738856,2.3676979627,772
90088,198618,222273,9.523433948000001,1.8089738856,2.3676979627,773
89871,198546,222240,9.523433948000001,1.8089738856,2.3676979627,774
89642,198516,222198,9.523433948000001,1.8089738856,2.3676979627,775
89498,198494,222205,9.523433948000001,1.8089738856,2.3676979627,776
89474,198510,222193,9.523433948000001,1.8089738856,2.3676979627,777
89562,198512,222202,9.523433948000001,1.8089738856,2.3676979627,778
89581,198473,222186,9.523433948000001,1.8089738856,2.3676979627,779
89593,198439,222166,9.523433948000001,1.8089738856,2.3676979627,780
89625,198488,222226,9.523433948000001,1.8089738856,2.3676979627,781
89732,198500,222189,9.523433948000001,1.8089738856,2.3676979627,782
89836,198511,222259,9.523433948000001,1.8089738856,2.3676979627,783
89948,198510,222232,9.523433948000001,1.8089738856,2.3676979627,784
90082,198553,222250,9.523433948000001,1.8089738856,2.3676979627,785
90210,198550,222274,9.523433948000001,1.8089738856,2.3676979627,786
90330,198577,222266,9.523433948000001,1.8089738856,2.3676979627,787
90477,198599,222251,9.523433948000001,1.8089738856,2.3676979627,788
90601,198615,222316,9.523433948000001,1.8089738856,2.3676979627,789
90735,198686,222327,9.523433948000001,1.8089738856,2.3676979627,790
90870,198699,222332,9.523433948000001,1.8089738856,2.3676979627,791
91005,198735,222364,9.523433948000001,1.8089738856,2.3676979627,792
91129,198769,222386,9.523433948000001,1.8089738856,2.3676979627,793
91257,198777,222377,9.523433948000001,1.8089738856,2.3676979627,794
91387,198781,222458,9.523433948000001,1.8089738856,2.3676979627,795
91522,198860,222427,9.523433948000001,1.8089738856,2.3676979627,796
91602,198806,222445,9.523433948000001,1.8089738856,2.3676979627,797
91285,198707,222358,9.523433948000001,1.8089738856,2.3676979627,798
90719,198602,222326,9.523433948000001,1.8089738856,2.3676979627,799
90297,198535,222281,9.523433948000001,1.8089738856,2.3676979627,800
90015,198529,222245,9.523433948000001,1.8089738856,2.3676979627,801
89756,198470,222191,9.6179504407,1.8233308212,2.3820548983,802
89495,198437,222155,9.6179504407,1.8233308212,2.3820548983,803
89338,198394,222191,9.6179504407,1.8233308212,2.3820548983,804
89324,198372,222169,9.6179504407,1.8233308212,2.3820548983,805
89435,198390,222125,9.6179504407,1.8233308212,2.3820548983,806
89521,198368,222147,9.5904329808,1.8376877568,2.4155544147,807
89577,198372,222107,9.619146852,2.0039889275,2.4454646972,808
89643,198392,222155,9.7722874984,1.8807585636,2.3533410271,809
89764,198423,222155,9.633503787599999,1.8580267489000002,2.3676979627,810
89837,198432,222205,9.6012006825,1.7718851352999998,2.3174486881,811
89964,198432,222190,9.6622176588,1.9334006607999998,2.2396819536,812
90161,198489,222224,9.6717889492,1.8616159827999998,2.3880369548,813
90316,198529,222244,9.6287181424,1.8747765071,2.3832513096,814
90452,198555,222274,9.799804958300001,1.7479569093,2.3198415107,815
90606,198527,222228,9.799804958300001,1.7479569093,2.3198415107,816
90755,198569,222328,9.799804958300001,1.7479569093,2.3198415107,817
90918,198604,222328,9.799804958300001,1.7479569093,2.3198415107,818
91071,198652,222351,9.799804958300001,1.7479569093,2.3198415107,819
91232,198702,222369,9.799804958300001,1.7479569093,2.3198415107,820
91394,198697,222407,9.799804958300001,1.7479569093,2.3198415107,821
91552,198739,222398,9.799804958300001,1.7479569093,2.3198415107,822
91698,198778,222447,9.799804958300001,1.7479569093,2.3198415107,823
91850,198806,222466,9.799804958300001,1.7479569093,2.3198415107,824
92009,198834,222470,9.799804958300001,1.7479569093,2.3198415107,825
92175,198877,222547,9.799804958300001,1.7479569093,2.3198415107,826
92296,198895,222554,9.799804958300001,1.7479569093,2.3198415107,827
92463,198923,222572,9.799804958300001,1.7479569093,2.3198415107,828
92608,198966,222578,9.799804958300001,1.7479569093,2.3198415107,829
92750,198987,222625,9.799804958300001,1.7479569093,2.3198415107,830
92773,198941,222579,9.799804958300001,1.7479569093,2.3198415107,831
92412,198799,222476,9.799804958300001,1.7479569093,2.3198415107,832
91877,198751,222488,9.799804958300001,1.7479569093,2.3198415107,833
91537,198707,222427,9.799804958300001,1.7479569093,2.3198415107,834
91326,198705,222453,9.799804958300001,1.7479569093,2.3198415107,835
91135,198618,222377,9.799804958300001,1.7479569093,2.3198415107,836
90910,198585,222404,9.799804958300001,1.7479569093,2.3198415107,837
90782,198562,222332,9.799804958300001,1.7479569093,2.3198415107,838
90823,198612,222355,9.799804958300001,1.7479569093,2.3198415107,839
90871,198588,222336,9.799804958300001,1.7479569093,2.3198415107,840
90891,198599,222324,9.799804958300001,1.7479569093,2.3198415107,841
90917,198621,222338,9.799804958300001,1.7479569093,2.3198415107,842
90965,198627,222344,9.799804958300001,1.7479569093,2.3198415107,843
91047,198605,222376,9.799804958300001,1.7479569093,2.3198415107,844
91164,198667,222360,9.799804958300001,1.7479569093,2.3198415107,845
91268,198685,222368,9.6993064091,1.8281164664,2.3545374384,846
91414,198667,222387,9.6993064091,1.8281164664,2.3545374384,847
91530,198681,222415,9.6993064091,1.8281164664,2.3545374384,848
91653,198700,222382,9.6993064091,1.8281164664,2.3545374384,849
91776,198725,222438,9.6993064091,1.8281164664,2.3545374384,850
91899,198754,222410,9.6993064091,1.8281164664,2.3545374384,851
92020,198746,222475,9.667003304,1.8233308212,2.321037922,852
92155,198799,222460,9.714859756,1.8376877568,2.2827527603999997,853
92272,198800,222496,9.7531449176,1.7659030788,2.2588245344,854
92395,198832,222454,9.6801638283,1.7479569093,2.3736800192,855
92506,198735,222480,9.620343263299999,1.890329854,2.2911276395,856
92666,198822,222555,9.5940222147,1.8652052167000002,2.3353948576,857
92764,198889,222502,9.6717889492,1.6534404165999999,2.2887348169,858
92830,198873,222516,9.619146852,1.7910277161,2.3724836079,859
92508,198739,222416,9.7615197967,1.866401628,2.3258235672,860
91987,198634,222398,9.8285188295,1.9238293703999998,2.3389840915,861
91593,198625,222401,9.6622176588,1.9992032822999999,2.297109696,862
91343,198584,222335,9.5569334644,1.7431712641,2.3162522768000002,863
91146,198540,222302,9.6478607232,1.7611174336,2.2492532439999997,864
90872,198466,222257,9.6143612068,1.9513468303000001,2.2540388892,865
90702,198489,222196,9.6897351187,1.8999011444,2.2779671152,866
90730,198493,222232,9.6287181424,1.7288143285,2.3545374384,867
90744,198474,222261,9.6897351187,1.8711872732,2.3545374384,868
90758,198466,222195,9.6239324972,1.9094724347999998,2.3162522768000002,869
90745,198459,222239,9.757930562799999,1.9429719511999999,2.2683958248,870
90771,198443,222202,9.6993064091,1.8807585636,2.2648065909,871
90834,198480,222230,9.5569334644,1.9094724347999998,2.2301106632,872
90924,198506,222258,9.646664311899999,1.9752750562999999,2.4155544147,873
91018,198515,222190,9.7196454012,1.842473402,2.3114666316,874
91139,198542,222260,9.732805925500001,1.7479569093,2.3593230836,875
91284,198552,222260,9.7519485063,1.9178473139,2.2875384056,876
91368,198551,222266,9.661021247499999,1.9848463467,2.3641087288000002,877
91499,198584,222305,9.785448022699999,1.6953148121,2.3401805028,878
91590,198601,222316,9.6729853605,1.9573288867999998,2.4442682859,879
91714,198631,222310,9.7758767323,1.8759729184,2.297109696,880
91861,198675,222349,9.6765745944,1.9752750562999999,2.368894374,881
91995,198694,222377,9.495916488099999,1.746760498,2.344966148,882
92117,198701,222381,9.69093153,1.9034903783000001,2.2875384056,883
92271,198742,222433,9.8141618939,1.9130616687,2.3401805028,884
92430,198778,222407,9.7232346351,1.9956140484,2.2875384056,885
92500,198788,222463,9.6095755616,1.9286150156,2.3533410271,886
92631,198844,222464,9.8285188295,1.9465611851,2.344966148,887
92790,198873,222493,9.8010013696,1.770688724,2.3401805028,888
92911,198872,222488,9.7519485063,1.7575281996999998,2.344966148,889
93009,198901,222512,9.6717889492,1.8436698133,2.4442682859,890
93169,198901,222515,9.6945207639,1.8293128776999998,2.3162522768000002,891
93260,198949,222527,9.7663054419,1.7670994901,2.3724836079,892
93102,198840,222478,9.5581298757,1.9178473139,2.2923240508,893
92603,198693,222411,9.5246303593,1.8233308212,2.3389840915,894
92100,198671,222374,9.7531449176,1.8951154991999999,2.3258235672,895
91807,198652,222329,9.6287181424,1.9704894111,2.4071795356,896
91576,198638,222279,9.738787982,1.9908284031999999,2.3976082452,897
91314,198552,222254,9.6287181424,1.8855442087999998,2.2683958248,898
91102,198509,222240,9.6574320136,2.0315063874,2.3820548983,899
91030,198516,222245,9.7244310464,1.6857435217,2.344966148,900
91029,198534,222250,9.6382894328,1.8137595308,2.2348963083999998,901
91072,198502,222208,9.6095755616,1.9848463467,2.4107687694999997,902
91060,198525,222228,9.6861458848,1.866401628,2.225325018,903
91057,198508,222199,9.6239324972,1.8520446924,2.3545374384,904
91092,198539,222246,9.714859756,1.8472590472,2.3162522768000002,905
91175,198564,222213,9.8512506442,1.8472590472,2.3018953412000003,906
91262,198531,222260,9.598807859899999,1.9130616687,2.368894374,907
91390,198557,222244,9.633503787599999,1.9417755399,2.3389840915,908
91454,198577,222285,9.633503787599999,1.842473402,2.3593230836,909
91583,198659,222281,9.667003304,1.8747765071,2.3258235672,910
91715,198656,222293,9.6717889492,1.9752750562999999,2.3018953412000003,911
91811,198689,222320,9.5342016497,1.8293128776999998,2.3401805028,912
91942,198687,222316,9.633503787599999,1.8568303376,2.2683958248,913
92065,198727,222338,9.7184489899,1.8819549749,2.3545374384,914
92228,198755,222339,9.6562356023,1.8329021116,2.3641087288000002,915
92317,198773,222407,9.710074110799999,1.7611174336,2.3114666316,916
92426,198836,222399,9.6287181424,1.8125631194999998,2.3114666316,917
92575,198851,222469,9.6622176588,1.8077774743,2.297109696,918
92709,198921,222486,9.6861458848,1.9178473139,2.2839491717,919
92854,198939,222464,9.728020280299999,1.8460626359,2.3353948576,920
92957,198928,222486,9.728020280299999,1.7276179172000001,2.2205393728,921
92853,198847,222438,9.6717889492,1.8855442087999998,2.2265214293,922
92378,198716,222336,9.728020280299999,1.9477575963999998,2.3772692530999997,923
91872,198669,222315,9.6813602396,1.890329854,2.2923240508,924
91572,198614,222273,9.576076045199999,2.0135602179,2.3150558654999998,925
91362,198564,222289,9.6945207639,1.9429719511999999,2.2839491717,926
91161,198510,222200,9.6945207639,1.9190437251999999,2.2827527603999997,927
90941,198497,222223,9.6478607232,1.9046867896,2.3736800192,928
90810,198481,222189,9.6095755616,1.9334006607999998,2.4023938904,929
90819,198487,222195,9.7806623775,1.8137595308,2.3114666316,930
90790,198435,222169,9.6000042712,1.8472590472,2.3258235672,931
90764,198460,222144,9.8010013696,1.8855442087999998,2.4011974791,932
90819,198465,222149,9.667003304,1.8233308212,2.4059831243,933
90868,198465,222194,9.6382894328,1.8053846516999998,2.2348963083999998,934
90961,198484,222153,9.6490571345,1.7718851352999998,2.3916261887,935
91048,198525,222157,9.5533442305,1.8376877568,2.3353948576,936
91171,198500,222174,9.6538427797,1.6809578765,2.3318056236999998,937
91253,198528,222176,9.620343263299999,1.7898313048,2.3772692530999997,938
91364,198558,222195,9.6897351187,1.8604195715,2.3916261887,939
91471,198592,222234,9.6813602396,1.8699908619,2.3102702203,940
91588,198602,222226,9.6239324972,1.746760498,2.2791635265,941
91675,198615,222266,9.7136633447,1.866401628,2.3258235672,942
91779,198663,222255,9.7088776995,1.7479569093,2.3258235672,943
91890,198671,222276,9.6382894328,1.8173487647,2.3820548983,944
92015,198762,222306,9.6717889492,1.8891334427000002,2.4011974791,945
92220,198724,222307,9.7136633447,1.8041882404,2.3258235672,946
92356,198767,222355,9.7112705221,1.9477575963999998,2.3341984463,947
92489,198790,222376,9.5617191096,1.866401628,2.2827527603999997,948
92618,198811,222382,9.6801638283,1.8125631194999998,2.3928226,949
92767,198848,222405,9.6849494735,1.8711872732,2.3114666316,950
92900,198850,222408,9.6382894328,1.9130616687,2.3353948576,951
93011,198869,222440,9.5665047548,1.8616159827999998,2.321037922,952
93129,198893,222437,9.665806892700001,1.8137595308,2.2923240508,953
93044,198809,222362,9.8045906035,1.842473402,2.2540388892,954
92552,198675,222323,9.7196454012,1.8711872732,2.3820548983,955
91913,198575,222205,9.6047899164,1.8855442087999998,2.3497517932000003,956
91494,198565,222224,9.8045906035,1.9130616687,2.4011974791,957
91219,198520,222188,9.667003304,1.8484554585000001,2.416750826,958
90897,198469,222125,9.5665047548,1.9848463467,2.3389840915,959
90568,198402,222085,9.7423772159,1.8089738856,2.4071795356,960
90328,198372,222020,9.6717889492,1.8759729184,2.3497517932000003,961
90276,198413,222040,9.5617191096,1.9238293703999998,2.297109696,962
90240,198381,222058,9.7842516114,1.9716858223999998,2.3736800192,963
90179,198377,222006,9.643075077999999,1.9752750562999999,2.2588245344,964
90126,198350,222027,9.6287181424,1.9334006607999998,2.3868405435,965
90091,198345,221975,9.7950193131,1.8041882404,2.3114666316,966
90097,198367,222042,9.6574320136,1.9657037659,2.4107687694999997,967
90148,198379,222033,9.7375915707,1.9573288867999998,2.2827527603999997,968
90191,198399,222014,9.6622176588,1.9202401365000001,2.3162522768000002,969
90256,198384,222061,9.6993064091,1.8436698133,2.3306092124,970
90306,198394,222050,9.6897351187,1.962114532,2.3114666316,971
90369,198432,222032,9.6143612068,1.9848463467,2.3258235672,972
90437,198483,222074,9.6287181424,1.8951154991999999,2.3916261887,973
90517,198462,222082,9.7088776995,1.8855442087999998,2.2624137683,974
90592,198489,222088,9.6382894328,1.9585252981,2.3545374384,975
90675,198540,222123,9.7615197967,1.890329854,2.3772692530999997,976
90770,198560,222109,9.595218626,1.8807585636,2.4023938904,977
90861,198580,222143,9.7615197967,1.9465611851,2.3629123174999997,978
90948,198564,222139,9.619146852,1.8472590472,2.3868405435,979
91030,198644,222196,9.7052884656,1.8329021116,2.3306092124,980
91104,198664,222157,9.675378183100001,1.818545176,2.2875384056,981
91200,198710,222213,9.6897351187,1.9046867896,2.3772692530999997,982
91260,198714,222272,9.6717889492,1.8939190879,2.2121644937,983
91352,198736,222235,9.7519485063,1.7419748528,2.297109696,984
91114,198677,222153,9.7531449176,1.8221344098999999,2.4059831243,985
90451,198533,222093,9.6287181424,1.9322042495,2.3928226,986
89828,198461,222016,9.7292166916,2.0362920326,2.3545374384,987
89427,198420,221963,9.6813602396,1.8951154991999999,2.3114666316,988
89042,198365,221955,9.619146852,2.0518453795,2.3760728418,989
88630,198305,221904,9.595218626,1.9561324755,2.2767707039,990
88392,198272,221827,9.6945207639,1.9334006607999998,2.4346969955,991
88257,198219,221832,9.646664311899999,1.8759729184,2.2408783649,992
88253,198242,221839,9.6143612068,1.9657037659,2.3545374384,993
88235,198229,221791,9.643075077999999,1.8568303376,2.3401805028,994
88197,198235,221765,9.6861458848,1.7288143285,2.4071795356,995
88176,198220,221803,9.714859756,1.9740786449999999,2.2923240508,996
88222,198267,221798,9.5820581017,1.8233308212,2.2815563491,997
88240,198291,221794,9.69093153,2.0279171535,2.3126630429,998
88306,198270,221779,9.834500886,1.9752750562999999,2.2636101795999997,999
88406,198304,221827,9.7088776995,1.8520446924,2.2109680824,1000
88507,198315,221852,9.726823869,1.9082760235,2.3437697367,1001
88605,198322,221841,9.6729853605,1.8795621523000001,2.3114666316,1002
88716,198375,221851,9.774680321,1.9334006607999998,2.1738793321000003,1003
88828,198398,221859,9.5964150373,1.842473402,2.2348963083999998,1004
88951,198432,221893,9.7663054419,1.8568303376,2.2923240508,1005
89058,198467,221932,9.7555377402,1.8699908619,2.3820548983,1006
89198,198484,222010,9.799804958300001,1.9070796122,2.1930219129,1007
89327,198518,221963,9.69093153,1.8364913454999998,2.3114666316,1008
89442,198542,221972,9.6957171752,1.7096717476999999,2.3114666316,1009
89573,198551,222004,9.6574320136,1.9274186043000001,2.4023938904,1010
89701,198605,221998,9.6382894328,1.8891334427000002,2.2923240508,1011
89833,198579,222050,9.7615197967,1.7012968686,2.3018953412000003,1012
89675,198487,221979,9.767501853199999,1.8987047331,2.3150558654999998,1013
89121,198359,221874,9.7471628611,1.890329854,2.3593230836,1014
88537,198304,221855,9.710074110799999,1.866401628,2.2396819536,1015
88194,198279,221815,9.6382894328,1.7694923127,2.2827527603999997,1016
87968,198220,221792,9.5856473356,1.866401628,2.27318147,1017
87790,198154,221717,9.562915520899999,1.746760498,2.2301106632,1018
87603,198103,221723,9.8560362894,1.8652052167000002,2.3593230836,1019
87535,198105,221679,9.7471628611,1.9944176371,2.3401805028,1020
87589,198100,221705,9.7136633447,1.8891334427000002,2.3964118339,1021
87618,198096,221643,9.6993064091,1.9369898947,2.3198415107,1022
87616,198094,221639,9.7088776995,1.818545176,2.3365912689,1023
87658,198088,221688,9.6382894328,1.8843477975,2.4346969955,1024
87728,198142,221660,9.8285188295,1.8484554585000001,2.3341984463,1025
87831,198137,221714,9.6801638283,1.8855442087999998,2.3102702203,1026
87944,198155,221717,9.6000042712,1.9657037659,2.3676979627,1027
88054,198170,221747,9.700502820399999,2.0554346134,2.3593230836,1028
88204,198196,221773,9.7483592724,1.890329854,2.2743778813,1029
88353,198232,221836,9.7471628611,1.8987047331,2.2779671152,1030
88485,198244,221839,9.6239324972,1.8951154991999999,2.2217357841,1031
88611,198276,221757,9.6574320136,1.8005990065,2.3880369548,1032
88743,198286,221796,9.7950193131,1.9274186043000001,2.3593230836,1033
88868,198317,221857,9.6813602396,2.0374884439,2.3485553819,1034
89047,198375,221928,9.7088776995,1.8281164664,2.3150558654999998,1035
89207,198384,221895,9.675378183100001,1.9800607015,2.3018953412000003,1036
89370,198448,221931,9.6813602396,1.818545176,2.4586252215,1037
89475,198464,221921,9.6622176588,1.6809578765,2.2923240508,1038
89641,198479,221977,9.5856473356,2.0889341298,2.2636101795999997,1039
89771,198494,221991,9.675378183100001,1.8041882404,2.3018953412000003,1040
89929,198543,222000,9.6717889492,1.8855442087999998,2.368894374,1041
90076,198580,222033,9.5916293921,1.8460626359,2.4155544147,1042
90224,198588,222099,9.6634140701,1.9417755399,2.321037922,1043
90340,198607,222066,9.510273423700001,1.7850456596,2.321037922,1044
90356,198559,222066,9.7519485063,1.9465611851,2.3724836079,1045
89961,198417,221973,9.6813602396,1.8807585636,2.4346969955,1046
89359,198332,221883,9.6622176588,1.9525432416,2.3641087288000002,1047
88909,198296,221835,9.661021247499999,1.79461695,2.2935204621,1048
88580,198264,221817,9.509077012399999,1.962114532,2.3102702203,1049
88304,198190,221758,9.598807859899999,1.8197415872999998,2.2683958248,1050
88023,198110,221737,9.7710910871,2.0051853388,2.3306092124,1051
87822,198083,221705,9.6418786667,1.8089738856,2.3593230836,1052
87777,198075,221681,9.620343263299999,1.8616159827999998,2.297109696,1053
87821,198071,221661,9.6765745944,1.9800607015,2.2492532439999997,1054
87860,198071,221622,9.7184489899,1.9178473139,2.3964118339,1055
87839,198050,221636,9.576076045199999,1.8233308212,2.3868405435,1056
87861,198060,221646,9.69093153,1.8652052167000002,2.3916261887,1057
87928,198111,221690,9.728020280299999,1.9944176371,2.368894374,1058
88006,198062,221702,9.710074110799999,1.9238293703999998,2.3306092124,1059
88119,198063,221690,9.7244310464,1.9226329591,2.4011974791,1060
88224,198138,221676,9.5820581017,1.9094724347999998,2.4490539311,1061
88339,198162,221717,9.619146852,1.9525432416,2.2301106632,1062
88411,198161,221776,9.643075077999999,1.8939190879,2.3976082452,1063
88507,198214,221752,9.7435736272,1.9465611851,2.4059831243,1064
88718,198232,221750,9.7615197967,1.938186306,2.3306092124,1065
88854,198228,221808,9.728020280299999,1.9046867896,2.3162522768000002,1066
88993,198316,221784,9.6239324972,1.7898313048,2.3401805028,1067
89147,198296,221786,9.5820581017,1.7575281996999998,2.3114666316,1068
89281,198361,221857,9.7567341515,1.818545176,2.2743778813,1069
89429,198370,221848,9.6000042712,1.9764714676,2.344966148,1070
89584,198364,221877,9.7710910871,2.009970984,2.4442682859,1071
89715,198441,221919,9.7232346351,2.0243279196,2.3258235672,1072
89909,198471,221925,9.6239324972,1.842473402,2.27318147,1073
90010,198504,221964,9.6957171752,1.8568303376,2.2743778813,1074
89982,198420,221947,9.7232346351,1.8855442087999998,2.3353948576,1075
89523,198286,221828,9.5138626576,1.9752750562999999,2.297109696,1076
88946,198228,221818,9.6574320136,1.9525432416,2.2396819536,1077
88579,198195,221768,9.7244310464,1.7575281996999998,2.2779671152,1078
88304,198145,221736,9.6717889492,1.842473402,2.3581266723,1079
88071,198091,221696,9.6717889492,1.842473402,2.3581266723,1080
87845,198040,221660,9.6717889492,1.842473402,2.3581266723,1081
87737,198048,221587,9.6717889492,1.842473402,2.3581266723,1082
87783,197996,221656,9.6717889492,1.842473402,2.3581266723,1083
87854,198032,221624,9.6717889492,1.842473402,2.3581266723,1084
87895,198046,221632,9.6717889492,1.842473402,2.3581266723,1085
87917,198033,221625,9.6717889492,1.842473402,2.3581266723,1086
87977,198048,221619,9.6717889492,1.842473402,2.3581266723,1087
88105,198067,221682,9.6717889492,1.842473402,2.3581266723,1088
88235,198114,221661,9.6095755616,1.8867406201,2.3736800192,1089
88388,198098,221690,9.6095755616,1.8867406201,2.3736800192,1090
88549,198079,221688,9.675378183100001,1.8604195715,2.2683958248,1091
88707,198150,221720,9.499505722,1.8795621523000001,2.2923240508,1092
88858,198201,221768,9.785448022699999,1.8747765071,2.2827527603999997,1093
89058,198237,221766,9.6526463684,1.7994025952000001,2.3736800192,1094
89169,198275,221809,9.6562356023,1.9178473139,2.3066809864,1095
89311,198343,221842,9.5617191096,1.7515461432000001,2.2157537276,1096
89466,198326,221825,9.7340023368,1.746760498,2.2827527603999997,1097
89623,198317,221856,9.6179504407,1.7694923127,2.3724836079,1098
89703,198395,221896,9.6514499571,1.8041882404,2.3916261887,1099
89923,198409,221924,9.7423772159,1.8939190879,2.3389840915,1100
90048,198443,221914,9.7088776995,1.8568303376,2.3150558654999998,1101
90189,198468,221924,9.7220382238,1.8137595308,2.1738793321000003,1102
90342,198473,221977,9.667003304,1.8855442087999998,2.27318147,1103
90449,198480,222012,9.7292166916,1.9178473139,2.3114666316,1104
90587,198499,221988,9.5569334644,1.9513468303000001,2.1403798157,1105
90366,198360,221895,9.643075077999999,1.8089738856,2.3401805028,1106
89816,198228,221814,9.6382894328,1.8089738856,2.2779671152,1107
89397,198188,221821,9.7184489899,1.8604195715,2.3198415107,1108
89082,198164,221704,9.5342016497,1.9334006607999998,2.3054845751,1109
88904,198114,221725,9.5437729401,1.9417755399,2.2492532439999997,1110
88701,198001,221642,9.5904329808,1.8939190879,2.3676979627,1111
88554,198013,221632,9.5425765288,1.9561324755,2.2205393728,1112
88579,197997,221642,9.7663054419,1.7623138449,2.321037922,1113
88649,198033,221663,9.6717889492,1.7754743692000001,2.2935204621,1114
88715,197971,221643,9.700502820399999,2.0566310246999997,2.3772692530999997,1115
88769,197986,221639,9.700502820399999,1.8759729184,2.2779671152,1116
88860,197980,221620,9.6717889492,1.8891334427000002,2.2875384056,1117
88918,198025,221665,9.7040920543,1.7814564256999998,2.2600209457,1118
89059,197995,221681,9.7423772159,1.8245272325,2.3066809864,1119
89169,198065,221738,9.7423772159,1.7958133612999998,2.2636101795999997,1120
89258,198077,221708,9.6586284249,1.890329854,2.3832513096,1121
89489,198089,221769,9.6861458848,1.8771693297,2.3258235672,1122
89678,198094,221722,9.6287181424,1.8568303376,2.4011974791,1123
89771,198140,221794,9.738787982,1.91425808,2.321037922,1124
89915,198183,221824,9.700502820399999,1.8472590472,2.3294128011,1125
90039,198212,221799,9.738787982,1.8568303376,2.3916261887,1126
90246,198212,221804,9.6012006825,1.8233308212,2.2348963083999998,1127
90411,198261,221860,9.6478607232,1.8999011444,2.4203400599,1128
90557,198262,221870,9.750752095,1.7670994901,2.3066809864,1129
90703,198322,221910,9.667003304,1.8089738856,2.3018953412000003,1130
90820,198321,221958,9.6047899164,1.9369898947,2.2504496553,1131
90975,198378,221959,9.6526463684,1.8281164664,2.2648065909,1132
91118,198402,221990,9.6059863277,1.8472590472,2.4538395763,1133
91213,198411,221986,9.667003304,1.8233308212,2.3162522768000002,1134
90957,198272,221913,9.619146852,2.0183458631,2.4011974791,1135
90386,198160,221850,9.6382894328,1.9417755399,2.2061824372,1136
89993,198078,221804,9.6813602396,1.9417755399,2.4107687694999997,1137
89697,198034,221748,9.6717889492,1.866401628,2.3162522768000002,1138
89469,197947,221696,9.643075077999999,1.9657037659,2.3437697367,1139
89203,197902,221613,9.6993064091,1.9369898947,2.3114666316,1140
89050,197873,221622,9.6765745944,1.7515461432000001,2.2923240508,1141
88982,197864,221603,9.667003304,1.8484554585000001,2.2348963083999998,1142
89060,197875,221598,9.7244310464,1.91425808,2.3401805028,1143
89128,197854,221570,9.7196454012,1.9046867896,2.2169501389,1144
89175,197860,221550,9.6143612068,1.818545176,2.3736800192,1145
89249,197836,221635,9.6681997153,1.9130616687,2.4394826406999996,1146
89309,197893,221625,9.6227360859,1.8747765071,2.2887348169,1147
89436,197905,221671,9.6574320136,1.8149559420999999,2.3533410271,1148
89575,197902,221650,9.6251289085,1.8807585636,2.344966148,1149
89727,197944,221667,9.675378183100001,1.8951154991999999,2.3545374384,1150
89889,198006,221705,9.786644434,1.9992032822999999,2.3222343333,1151
90057,198006,221737,9.8057870148,1.842473402,2.3916261887,1152
90202,198043,221713,9.5485585853,1.8053846516999998,2.3916261887,1153
90346,198104,221803,9.8608219346,1.9334006607999998,2.3018953412000003,1154
90519,198093,221843,9.6765745944,1.9082760235,2.225325018,1155
90687,198171,221876,9.7423772159,1.9369898947,2.3401805028,1156
90817,198164,221891,9.6382894328,1.9956140484,2.3006989299,1157
90984,198264,221903,9.757930562799999,1.962114532,2.3497517932000003,1158
91125,198230,221886,9.710074110799999,1.8568303376,2.2923240508,1159
91279,198299,221929,9.7184489899,1.8795621523000001,2.2121644937,1160
91444,198290,222002,9.6861458848,1.8843477975,2.4155544147,1161
91566,198315,221968,9.7088776995,1.9704894111,2.2588245344,1162
91339,198205,221841,9.687342296099999,1.9334006607999998,2.3593230836,1163
90817,198116,221794,9.767501853199999,1.6953148121,2.3389840915,1164
90390,198071,221771,9.6897351187,1.8269200550999998,2.3856441322,1165
90150,197999,221741,9.6012006825,1.9226329591,2.2444675988,1166
89941,197981,221707,9.728020280299999,1.9369898947,2.2504496553,1167
89776,197913,221679,9.5724868113,1.8795621523000001,2.2588245344,1168
89604,197876,221659,9.7902336679,1.866401628,2.3258235672,1169
89611,197886,221654,9.8560362894,1.7742779578999999,2.2013967919999997,1170
89699,197886,221693,9.619146852,1.8137595308,2.3437697367,1171
89732,197901,221664,9.6143612068,1.7994025952000001,2.3401805028,1172
89748,197938,221671,9.633503787599999,1.8556339263000001,2.3868405435,1173
89808,197946,221717,9.732805925500001,1.8556339263000001,2.3389840915,1174
89886,197968,221713,9.7663054419,1.9274186043000001,2.2157537276,1175
90001,197978,221717,9.846464999,1.9704894111,2.1966111468,1176
90119,197995,221764,9.7519485063,1.7659030788,2.3102702203,1177
90207,198021,221773,9.6418786667,1.7838492483,2.4107687694999997,1178
90338,198055,221737,9.6622176588,1.9322042495,2.2492532439999997,1179
90454,198062,221785,9.8715896363,1.9716858223999998,2.2624137683,1180
90569,198088,221809,9.6622176588,1.7898313048,2.3497517932000003,1181
90673,198100,221870,9.6574320136,1.8759729184,2.2444675988,1182
90787,198152,221843,9.6442714893,1.8089738856,2.3976082452,1183
90943,198203,221853,9.6095755616,1.8125631194999998,2.3258235672,1184
90997,198184,221865,9.6394858441,1.8412769907000002,2.3772692530999997,1185
91083,198201,221942,9.661021247499999,1.9334006607999998,2.3066809864,1186
91171,198257,221921,9.6000042712,1.9226329591,2.344966148,1187
91266,198263,221950,9.6634140701,1.9645073545999998,2.2600209457,1188
91429,198287,221940,9.5916293921,1.9094724347999998,2.2348963083999998,1189
91535,198283,221980,9.619146852,1.8460626359,2.3820548983,1190
91606,198325,222002,9.6000042712,1.7048861025,2.2588245344,1191
91484,198236,221895,9.7471628611,1.8951154991999999,2.2025932033,1192
90943,198111,221803,9.661021247499999,1.8747765071,2.3928226,1193
90309,198045,221829,9.667003304,1.8843477975,2.3724836079,1194
89862,197995,221687,9.629914553699999,1.842473402,2.3258235672,1195
89540,197902,221645,9.7483592724,1.8616159827999998,2.2923240508,1196
89172,197861,221616,9.5820581017,1.9369898947,2.3306092124,1197
88797,197809,221579,9.7758767323,1.9094724347999998,2.4873390927,1198
88578,197811,221556,9.6957171752,2.021935097,2.3581266723,1199
88526,197763,221486,9.6538427797,1.8508482811000002,2.3162522768000002,1200
88490,197798,221535,9.6526463684,1.7814564256999998,2.3497517932000003,1201
88461,197783,221528,9.7710910871,1.8999011444,2.4059831243,1202
88439,197760,221512,9.5617191096,1.8005990065,2.3964118339,1203
88401,197749,221524,9.5724868113,1.8951154991999999,2.2695922361,1204
88434,197799,221528,9.714859756,1.9657037659,2.2875384056,1205
88461,197803,221550,9.595218626,1.7240286833,2.2169501389,1206
88518,197821,221541,9.7088776995,1.8951154991999999,2.2743778813,1207
88556,197828,221560,9.7483592724,1.9752750562999999,2.3401805028,1208
88629,197846,221608,9.7663054419,1.8855442087999998,2.4490539311,1209
88769,197856,221581,9.661021247499999,1.938186306,2.2827527603999997,1210
88891,197927,221569,9.69093153,1.8951154991999999,2.3066809864,1211
88972,197924,221604,9.7531449176,1.8987047331,2.3353948576,1212
89103,197912,221643,9.634700198900001,1.9046867896,2.2827527603999997,1213
89216,197999,221635,9.7052884656,2.0315063874,2.4155544147,1214
89326,198008,221664,9.667003304,1.9417755399,2.344966148,1215
89443,198039,221663,9.667003304,1.9896319919,2.344966148,1216
89572,198046,221697,9.595218626,1.9417755399,2.3533410271,1217
89665,198096,221704,9.6813602396,1.8843477975,2.3018953412000003,1218
89792,198129,221752,9.5485585853,1.9094724347999998,2.297109696,1219
89903,198132,221778,9.6861458848,1.9046867896,2.3581266723,1220
90002,198140,221761,9.7232346351,1.8604195715,2.2025932033,1221
89767,198044,221698,9.8189475391,1.8699908619,2.3413769141,1222
89165,197911,221593,9.6969135865,1.8329021116,2.4023938904,1223
88604,197856,221597,9.5150590689,1.9848463467,2.344966148,1224
88290,197813,221540,9.643075077999999,1.9513468303000001,2.3533410271,1225
87949,197697,221420,9.7758767323,1.9597217094,2.297109696,1226
87618,197647,221403,9.6574320136,1.9178473139,2.2875384056,1227
87291,197635,221388,9.700502820399999,1.8376877568,2.3018953412000003,1228
87319,197593,221344,9.5677011661,1.9286150156,2.3401805028,1229
87352,197633,221356,9.7052884656,1.9489540077,2.2827527603999997,1230
87394,197651,221343,9.6849494735,2.0315063874,2.4071795356,1231
87416,197651,221386,9.8237331843,1.8987047331,2.3964118339,1232
87443,197647,221369,9.808179837399999,1.9046867896,2.3533410271,1233
87496,197653,221349,9.8201439504,1.9513468303000001,2.2348963083999998,1234
87606,197704,221383,9.7196454012,1.890329854,2.3545374384,1235
87719,197709,221445,9.834500886,1.8233308212,2.3294128011,1236
87865,197747,221423,9.7663054419,1.938186306,2.3114666316,1237
87988,197790,221511,9.7663054419,1.7754743692000001,2.2540388892,1238
88158,197809,221462,9.6562356023,1.8855442087999998,2.2923240508,1239
88307,197862,221553,9.643075077999999,1.8795621523000001,2.3545374384,1240
88439,197854,221524,9.5581298757,1.866401628,2.2492532439999997,1241
88533,197923,221546,9.6538427797,1.9190437251999999,2.2588245344,1242
88639,197963,221607,9.7208418125,1.8568303376,2.3820548983,1243
88872,197934,221612,9.6239324972,1.7527425545,2.4059831243,1244
89026,198016,221620,9.6239324972,1.7527425545,2.4059831243,1245
89181,198095,221693,9.6239324972,1.7527425545,2.4059831243,1246
89327,198130,221729,9.6239324972,1.7527425545,2.4059831243,1247
89474,198143,221733,9.6239324972,1.7527425545,2.4059831243,1248
89645,198161,221749,9.6239324972,1.7527425545,2.4059831243,1249
89763,198203,221776,9.6239324972,1.7527425545,2.4059831243,1250
89900,198249,221841,9.6239324972,1.7527425545,2.4059831243,1251
90035,198282,221862,9.6239324972,1.7527425545,2.4059831243,1252
90177,198316,221858,9.6239324972,1.7527425545,2.4059831243,1253
90307,198315,221867,9.6239324972,1.7527425545,2.4059831243,1254
90288,198280,221866,9.6239324972,1.7527425545,2.4059831243,1255
89865,198135,221753,9.6239324972,1.7527425545,2.4059831243,1256
89264,198004,221718,9.6239324972,1.7527425545,2.4059831243,1257
88846,198037,221669,9.6239324972,1.7527425545,2.4059831243,1258
88590,197974,221643,9.6239324972,1.7527425545,2.4059831243,1259
88344,197910,221585,9.6239324972,1.7527425545,2.4059831243,1260
88099,197878,221539,9.6239324972,1.7527425545,2.4059831243,1261
87978,197836,221524,9.6574320136,1.8999011444,2.3820548983,1262
88003,197878,221537,9.6574320136,1.8999011444,2.3820548983,1263
88012,197866,221518,9.6574320136,1.8999011444,2.3820548983,1264
88013,197798,221557,9.6574320136,1.8999011444,2.3820548983,1265
88002,197840,221497,9.6574320136,1.8999011444,2.3820548983,1266
88033,197852,221508,9.6574320136,1.8999011444,2.3820548983,1267
88121,197856,221577,9.6574320136,1.8999011444,2.3820548983,1268
88165,197922,221576,9.6574320136,1.8999011444,2.3820548983,1269
88230,197909,221631,9.6574320136,1.8999011444,2.3820548983,1270
88306,197952,221654,9.6574320136,1.8999011444,2.3820548983,1271
88393,197992,221638,9.6574320136,1.8999011444,2.3820548983,1272
88479,198006,221671,9.6574320136,1.8999011444,2.3820548983,1273
88607,198069,221743,9.6574320136,1.9286150156,2.3401805028,1274
88708,198127,221722,9.6574320136,1.9286150156,2.3401805028,1275
88849,198177,221789,9.6574320136,1.9286150156,2.3401805028,1276
88989,198221,221815,9.8285188295,1.8329021116,2.3545374384,1277
89149,198289,221876,9.5772724565,1.9178473139,2.4263221164,1278
89314,198379,221910,9.7088776995,1.7910277161,2.2492532439999997,1279
89495,198427,221977,9.6849494735,1.770688724,2.4681965119,1280
89656,198475,222027,9.6562356023,1.9477575963999998,2.3258235672,1281
89764,198525,222053,9.5150590689,1.8939190879,2.4215364712,1282
89521,198388,221953,9.6526463684,1.9322042495,2.3880369548,1283
88868,198302,221891,9.6287181424,1.8245272325,2.3641087288000002,1284
88359,198238,221886,9.7435736272,1.8759729184,2.4346969955,1285
88051,198197,221878,9.633503787599999,1.8412769907000002,2.3162522768000002,1286
87764,198180,221837,9.7196454012,1.9465611851,2.4059831243,1287
87487,198151,221813,9.6861458848,1.8137595308,2.2181465501999997,1288
87308,198118,221780,9.6957171752,1.8568303376,2.4394826406999996,1289
87281,198120,221791,9.6143612068,1.9800607015,2.4777678023000003,1290
87393,198145,221790,9.7567341515,1.8005990065,2.3306092124,1291
87518,198173,221791,9.5904329808,1.7982061838999999,2.4071795356,1292
87566,198213,221836,9.633503787599999,1.7994025952000001,2.321037922,1293
87632,198253,221851,9.4767739073,1.8221344098999999,2.3054845751,1294
87736,198248,221918,9.8428757651,1.7575281996999998,2.2695922361,1295
87870,198277,221912,9.69093153,1.7802600144,2.2779671152,1296
88007,198321,221978,9.767501853199999,1.7659030788,2.2827527603999997,1297
88141,198422,222016,9.8428757651,1.8556339263000001,2.3581266723,1298
88347,198476,222022,9.6526463684,1.6941184008,2.2779671152,1299
88497,198532,222082,9.6526463684,1.6941184008,2.2779671152,1300
88674,198599,222129,9.6526463684,1.6941184008,2.2779671152,1301
88850,198680,222225,9.6526463684,1.6941184008,2.2779671152,1302
89044,198724,222241,9.6526463684,1.6941184008,2.2779671152,1303
89204,198755,222293,9.6526463684,1.6941184008,2.2779671152,1304
89381,198812,222336,9.6526463684,1.6941184008,2.2779671152,1305
89545,198870,222336,9.7088776995,1.7563317884,2.2779671152,1306
89693,198892,222412,9.7088776995,1.7563317884,2.2779671152,1307
89901,198989,222426,9.5581298757,1.6510475939999998,2.428714939,1308
89946,198976,222449,9.6490571345,1.746760498,2.2983061073,1309
89588,198829,222362,9.7519485063,1.8939190879,2.4442682859,1310
88983,198728,222290,9.7519485063,1.8939190879,2.4442682859,1311
88560,198674,222300,9.7519485063,1.8939190879,2.4442682859,1312
88312,198690,222239,9.7519485063,1.8939190879,2.4442682859,1313
88040,198596,222247,9.7519485063,1.8939190879,2.4442682859,1314
87800,198539,222163,9.7519485063,1.8939190879,2.4442682859,1315
87683,198543,222124,9.7519485063,1.8939190879,2.4442682859,1316
87753,198532,222184,9.7519485063,1.8939190879,2.4442682859,1317
87833,198570,222155,9.7519485063,1.8939190879,2.4442682859,1318
87870,198540,222166,9.7519485063,1.8939190879,2.4442682859,1319
87865,198523,222165,9.7519485063,1.8939190879,2.4442682859,1320
87933,198535,222167,9.7519485063,1.8939190879,2.4442682859,1321
88026,198534,222149,9.7519485063,1.8939190879,2.4442682859,1322
88120,198577,222193,9.7519485063,1.8939190879,2.4442682859,1323
88252,198610,222210,9.7519485063,1.8939190879,2.4442682859,1324
88365,198603,222193,9.7519485063,1.8939190879,2.4442682859,1325
88483,198664,222229,9.7519485063,1.8939190879,2.4442682859,1326
88609,198665,222254,9.7519485063,1.8939190879,2.4442682859,1327
88754,198671,222277,9.7519485063,1.8939190879,2.4442682859,1328
88883,198700,222328,9.7519485063,1.8939190879,2.4442682859,1329
88757,198634,222290,9.7519485063,1.8939190879,2.4442682859,1330
88223,198502,222177,9.7519485063,1.8939190879,2.4442682859,1331
87709,198431,222107,9.7519485063,1.8939190879,2.4442682859,1332
87370,198359,222138,9.7519485063,1.8939190879,2.4442682859,1333
87035,198324,222097,9.7519485063,1.8939190879,2.4442682859,1334
86763,198265,222009,9.7519485063,1.8939190879,2.4442682859,1335
86560,198272,222008,9.7519485063,1.8939190879,2.4442682859,1336
86566,198224,222014,9.7519485063,1.8939190879,2.4442682859,1337
86685,198233,222027,9.6705925379,1.842473402,2.4263221164,1338
86785,198184,221953,9.6705925379,1.842473402,2.4263221164,1339
86852,198213,222017,9.6705925379,1.842473402,2.4263221164,1340
86946,198227,222005,9.6705925379,1.842473402,2.4263221164,1341
87067,198258,222008,9.6705925379,1.842473402,2.4263221164,1342
87202,198282,222016,9.6705925379,1.842473402,2.4263221164,1343
87357,198269,222034,9.6705925379,1.842473402,2.4263221164,1344
87533,198380,222101,9.6705925379,1.842473402,2.4263221164,1345
87712,198415,222083,9.6705925379,1.842473402,2.4263221164,1346
87908,198470,222148,9.6705925379,1.842473402,2.4263221164,1347
88110,198504,222213,9.6705925379,1.842473402,2.4263221164,1348
88328,198542,222261,9.6705925379,1.842473402,2.4263221164,1349
88490,198511,222224,9.6705925379,1.842473402,2.4263221164,1350
88324,198460,222203,9.6705925379,1.842473402,2.4263221164,1351
87819,198398,222146,9.6705925379,1.842473402,2.4263221164,1352
87461,198338,222128,9.6705925379,1.842473402,2.4263221164,1353
87229,198313,222111,9.6705925379,1.842473402,2.4263221164,1354
86986,198203,222029,9.6705925379,1.842473402,2.4263221164,1355
86784,198147,222015,9.6705925379,1.842473402,2.4263221164,1356
86709,198109,221998,9.6705925379,1.842473402,2.4263221164,1357
86823,198159,222053,9.6705925379,1.842473402,2.4263221164,1358
87013,198241,222004,9.6705925379,1.842473402,2.4263221164,1359
87178,198218,222016,9.6705925379,1.842473402,2.4263221164,1360
87317,198233,222054,9.6705925379,1.842473402,2.4263221164,1361
87473,198238,222083,9.6705925379,1.842473402,2.4263221164,1362
87673,198268,222026,9.6705925379,1.842473402,2.4263221164,1363
87889,198278,222057,9.6705925379,1.842473402,2.4263221164,1364
88115,198235,222023,9.6705925379,1.842473402,2.4263221164,1365
88344,198310,222042,9.6705925379,1.842473402,2.4263221164,1366
88571,198268,222002,9.6705925379,1.842473402,2.4263221164,1367
88807,198333,222061,9.6705925379,1.842473402,2.4263221164,1368
89014,198366,222080,9.6705925379,1.842473402,2.4263221164,1369
89225,198393,222114,9.6705925379,1.842473402,2.4263221164,1370
89444,198403,222152,9.6705925379,1.842473402,2.4263221164,1371
89658,198414,222139,9.6705925379,1.842473402,2.4263221164,1372
89783,198465,222171,9.6705925379,1.842473402,2.4263221164,1373
89636,198298,222072,9.6705925379,1.842473402,2.4263221164,1374
89377,198269,221996,9.6705925379,1.842473402,2.4263221164,1375
89229,198254,222013,9.6705925379,1.842473402,2.4263221164,1376
89128,198267,222016,9.6705925379,1.842473402,2.4263221164,1377
88999,198239,221989,9.6705925379,1.842473402,2.4263221164,1378
88948,198212,221984,9.6705925379,1.842473402,2.4263221164,1379
93276,198952,222496,9.6059863277,1.9609181207,2.3724836079,1380
93477,198974,222518,9.6059863277,1.9609181207,2.3724836079,1381
93649,199000,222527,9.6059863277,1.9609181207,2.3724836079,1382
93816,199077,222566,9.6059863277,1.9609181207,2.3724836079,1383
93996,199052,222585,9.6059863277,1.9609181207,2.3724836079,1384
94167,199110,222609,9.6059863277,1.9609181207,2.3724836079,1385
94346,199117,222609,9.6059863277,1.9609181207,2.3724836079,1386
94395,199073,222570,9.6059863277,1.9609181207,2.3724836079,1387
94293,198977,222494,9.6059863277,1.9609181207,2.3724836079,1388
94203,199005,222526,9.6059863277,1.9609181207,2.3724836079,1389
94170,198993,222528,9.6059863277,1.9609181207,2.3724836079,1390
94091,198986,222519,9.6059863277,1.9609181207,2.3724836079,1391
93997,198986,222504,9.6059863277,1.9609181207,2.3724836079,1392
93913,198990,222508,9.6059863277,1.9609181207,2.3724836079,1393
93913,199004,222521,9.6059863277,1.9609181207,2.3724836079,1394
93972,199050,222545,9.6059863277,1.9609181207,2.3724836079,1395
94025,199058,222545,9.6059863277,1.9609181207,2.3724836079,1396
94066,199072,222570,9.6059863277,1.9609181207,2.3724836079,1397
94147,199073,222613,9.6059863277,1.9609181207,2.3724836079,1398
94221,199099,222607,9.6059863277,1.9609181207,2.3724836079,1399
94307,199132,222617,9.6059863277,1.9609181207,2.3724836079,1400
94411,199149,222650,9.6059863277,1.9609181207,2.3724836079,1401
94515,199214,222601,9.6059863277,1.9609181207,2.3724836079,1402
94619,199186,222657,9.6059863277,1.9609181207,2.3724836079,1403
94729,199242,222677,9.6059863277,1.9609181207,2.3724836079,1404
94834,199267,222710,9.6059863277,1.9609181207,2.3724836079,1405
94935,199296,222676,9.6059863277,1.9609181207,2.3724836079,1406
95068,199344,222722,9.6059863277,1.9609181207,2.3724836079,1407
95188,199350,222701,9.6059863277,1.9609181207,2.3724836079,1408
95303,199375,222744,9.6059863277,1.9609181207,2.3724836079,1409
95405,199390,222772,9.6059863277,1.9609181207,2.3724836079,1410
95526,199437,222776,9.6059863277,1.9609181207,2.3724836079,1411
95660,199472,222803,9.6059863277,1.9609181207,2.3724836079,1412
95795,199513,222821,9.6059863277,1.9609181207,2.3724836079,1413
95906,199517,222794,9.6059863277,1.9609181207,2.3724836079,1414
96017,199570,222825,9.6059863277,1.9609181207,2.3724836079,1415
96144,199561,222804,9.6059863277,1.9609181207,2.3724836079,1416
96206,199595,222811,9.6059863277,1.9609181207,2.3724836079,1417
96140,199488,222784,9.6059863277,1.9609181207,2.3724836079,1418
96016,199464,222715,9.6059863277,1.9609181207,2.3724836079,1419
95938,199463,222768,9.6059863277,1.9609181207,2.3724836079,1420
95851,199467,222752,9.6059863277,1.9609181207,2.3724836079,1421
96211,199687,222831,9.7950193131,1.9094724347999998,2.3593230836,1422
96283,199725,222876,9.7950193131,1.9094724347999998,2.3593230836,1423
96340,199732,222856,9.7950193131,1.9094724347999998,2.3593230836,1424
96433,199766,222867,9.7950193131,1.9094724347999998,2.3593230836,1425
96511,199761,222878,9.7950193131,1.9094724347999998,2.3593230836,1426
96592,199781,222871,9.7950193131,1.9094724347999998,2.3593230836,1427
96670,199836,222890,9.7950193131,1.9094724347999998,2.3593230836,1428
96744,199850,222864,9.7950193131,1.9094724347999998,2.3593230836,1429
96828,199836,222920,9.7950193131,1.9094724347999998,2.3593230836,1430
96894,199852,222927,9.7950193131,1.9094724347999998,2.3593230836,1431
96965,199891,222918,9.7950193131,1.9094724347999998,2.3593230836,1432
96899,199819,222873,9.7950193131,1.9094724347999998,2.3593230836,1433
96688,199722,222893,9.7950193131,1.9094724347999998,2.3593230836,1434
96463,199699,222844,9.7950193131,1.9094724347999998,2.3593230836,1435
96249,199735,222816,9.7950193131,1.9094724347999998,2.3593230836,1436
96015,199730,222800,9.7950193131,1.9094724347999998,2.3593230836,1437
95737,199685,222805,9.7950193131,1.9094724347999998,2.3593230836,1438
95446,199664,222759,9.7950193131,1.9094724347999998,2.3593230836,1439
95234,199660,222750,9.7950193131,1.9094724347999998,2.3593230836,1440
95103,199673,222745,9.7950193131,1.9094724347999998,2.3593230836,1441
94992,199669,222772,9.7950193131,1.9094724347999998,2.3593230836,1442
94874,199661,222785,9.7950193131,1.9094724347999998,2.3593230836,1443
94770,199667,222744,9.7950193131,1.9094724347999998,2.3593230836,1444
94673,199641,222720,9.7950193131,1.9094724347999998,2.3593230836,1445
94630,199678,222768,9.7950193131,1.9094724347999998,2.3593230836,1446
94598,199685,222705,9.7950193131,1.9094724347999998,2.3593230836,1447
94594,199737,222756,9.7950193131,1.9094724347999998,2.3593230836,1448
94572,199748,222724,9.7950193131,1.9094724347999998,2.3593230836,1449
94602,199745,222760,9.7950193131,1.9094724347999998,2.3593230836,1450
94631,199716,222766,9.7950193131,1.9094724347999998,2.3593230836,1451
94664,199724,222740,9.7950193131,1.9094724347999998,2.3593230836,1452
94693,199757,222729,9.7950193131,1.9094724347999998,2.3593230836,1453
94768,199765,222725,9.7950193131,1.9094724347999998,2.3593230836,1454
94798,199777,222739,9.7950193131,1.9094724347999998,2.3593230836,1455
94877,199823,222785,9.7950193131,1.9094724347999998,2.3593230836,1456
94943,199874,222752,9.7950193131,1.9094724347999998,2.3593230836,1457
95005,199845,222784,9.7950193131,1.9094724347999998,2.3593230836,1458
95077,199872,222760,9.7950193131,1.9094724347999998,2.3593230836,1459
95162,199892,222740,9.7950193131,1.9094724347999998,2.3593230836,1460
95240,199898,222798,9.7950193131,1.9094724347999998,2.3593230836,1461
95296,199904,222812,9.7950193131,1.9094724347999998,2.3593230836,1462
95360,199921,222750,9.7950193131,1.9094724347999998,2.3593230836,1463
92930,199544,222381,9.6095755616,1.9525432416,2.3401805028,1464
92996,199574,222373,9.6095755616,1.9525432416,2.3401805028,1465
93059,199564,222342,9.6095755616,1.9525432416,2.3401805028,1466
93120,199569,222398,9.6095755616,1.9525432416,2.3401805028,1467
93216,199565,222399,9.6095755616,1.9525432416,2.3401805028,1468
93281,199635,222394,9.6095755616,1.9525432416,2.3401805028,1469
93384,199629,222428,9.6095755616,1.9525432416,2.3401805028,1470
93454,199646,222400,9.6095755616,1.9525432416,2.3401805028,1471
93562,199644,222464,9.6095755616,1.9525432416,2.3401805028,1472
93651,199637,222429,9.6095755616,1.9525432416,2.3401805028,1473
93714,199674,222438,9.6095755616,1.9525432416,2.3401805028,1474
93808,199700,222463,9.6095755616,1.9525432416,2.3401805028,1475
93914,199687,222458,9.6095755616,1.9525432416,2.3401805028,1476
93884,199708,222427,9.6095755616,1.9525432416,2.3401805028,1477
93511,199579,222327,9.6095755616,1.9525432416,2.3401805028,1478
92959,199519,222359,9.6095755616,1.9525432416,2.3401805028,1479
92562,199438,222303,9.6095755616,1.9525432416,2.3401805028,1480
92262,199469,222302,9.6095755616,1.9525432416,2.3401805028,1481
91957,199457,222295,9.6095755616,1.9525432416,2.3401805028,1482
91646,199396,222243,9.6095755616,1.9525432416,2.3401805028,1483
91388,199397,222250,9.6095755616,1.9525432416,2.3401805028,1484
91303,199403,222210,9.6095755616,1.9525432416,2.3401805028,1485
91273,199397,222228,9.6095755616,1.9525432416,2.3401805028,1486
91194,199392,222180,9.6095755616,1.9525432416,2.3401805028,1487
91130,199377,222177,9.6095755616,1.9525432416,2.3401805028,1488
91108,199404,222225,9.6095755616,1.9525432416,2.3401805028,1489
91136,199377,222217,9.6095755616,1.9525432416,2.3401805028,1490
91178,199379,222235,9.6095755616,1.9525432416,2.3401805028,1491
91233,199401,222200,9.6095755616,1.9525432416,2.3401805028,1492
91298,199412,222217,9.6095755616,1.9525432416,2.3401805028,1493
91398,199412,222207,9.6095755616,1.9525432416,2.3401805028,1494
91480,199413,222232,9.6095755616,1.9525432416,2.3401805028,1495
91575,199462,222215,9.6095755616,1.9525432416,2.3401805028,1496
91655,199454,222220,9.6095755616,1.9525432416,2.3401805028,1497
91773,199434,222265,9.6095755616,1.9525432416,2.3401805028,1498
91871,199492,222260,9.6095755616,1.9525432416,2.3401805028,1499
91972,199448,222252,9.6095755616,1.9525432416,2.3401805028,1500
92074,199501,222246,9.6095755616,1.9525432416,2.3401805028,1501
92195,199500,222306,9.6095755616,1.9525432416,2.3401805028,1502
92307,199541,222244,9.6095755616,1.9525432416,2.3401805028,1503
92430,199573,222289,9.6095755616,1.9525432416,2.3401805028,1504
92519,199537,222332,9.6095755616,1.9525432416,2.3401805028,1505
91277,198911,222226,9.5342016497,1.9465611851,2.297109696,1506
90574,198794,222208,9.5342016497,1.9465611851,2.297109696,1507
90161,198800,222204,9.5342016497,1.9465611851,2.297109696,1508
89989,198763,222213,9.5342016497,1.9465611851,2.297109696,1509
89778,198679,222143,9.5342016497,1.9465611851,2.297109696,1510
89543,198674,222161,9.5342016497,1.9465611851,2.297109696,1511
89410,198671,222135,9.5342016497,1.9465611851,2.297109696,1512
89484,198695,222166,9.5342016497,1.9465611851,2.297109696,1513
89544,198675,222131,9.5342016497,1.9465611851,2.297109696,1514
89570,198659,222177,9.5342016497,1.9465611851,2.297109696,1515
89584,198662,222140,9.5342016497,1.9465611851,2.297109696,1516
89605,198667,222177,9.5342016497,1.9465611851,2.297109696,1517
89708,198695,222180,9.5342016497,1.9465611851,2.297109696,1518
