green,red,IR,acc_x,acc_y,acc_z,sample_index
120352,191187,251442,1.9968104597,-8.8701933782,2.9766713144,1
120365,191218,251438,1.9788642901999998,-8.9216390641,2.9838497821999996,2
120359,191252,251424,1.8759729184,-8.9001036607,3.1405796625,3
120399,191229,251462,1.8927226765999998,-8.9659062822,3.0616165167,4
120418,191256,251498,1.9190437251999999,-8.9647098709,3.0376882907,5
120488,191277,251495,1.9537396529,-8.916853418899999,3.1202406704,6
120525,191281,251537,1.9680965885,-8.9479601127,3.1441688964,7
120573,191329,251551,2.0243279196,-8.8450687409,3.098705267,8
120625,191361,251505,2.0566310246999997,-8.939585233599999,2.9814569596,9
120652,191377,251549,1.9812571127999998,-8.913264185,3.1250263156,10
120708,191364,251604,1.8640088054,-8.9898345082,3.1776684127999997,11
120734,191402,251670,1.8448662246,-9.054440718399999,3.1286155494999996,12
120697,191353,251694,1.8939190879,-8.9347995884,3.2362925665,13
120532,191365,251685,1.9585252981,-8.9192462415,3.1226334930000004,14
120364,191385,251660,2.0303099761,-8.997012975999999,3.2243284535,15
120238,191396,251722,1.9908284031999999,-8.9802632178,3.0903303879,16
120157,191421,251709,2.0685951377,-9.0053878551,3.0963124444,17
120067,191406,251670,1.8640088054,-8.9886380969,3.1764720014999996,18
120018,191458,251679,1.9896319919,-8.889335959,3.1393832512,19
120018,191493,251738,1.9250257817,-8.985048863000001,3.1932217597,20
120058,191474,251714,1.9262221929999999,-8.9874416856,3.1202406704,21
120102,191507,251736,1.8747765071,-8.9108713624,3.2075786953,22
120137,191545,251767,1.8400805794,-8.829515394,3.1657042998000002,23
120180,191528,251726,1.9513468303000001,-8.970691927399999,3.1357940173,24
120202,191573,251762,1.8807585636,-8.9934237421,3.1202406704,25
120259,191548,251784,1.9238293703999998,-8.9635134596,3.086741154,26
120316,191583,251776,1.8472590472,-8.9192462415,3.11066938,27
120404,191623,251764,2.0279171535,-9.0723868879,3.0652057506,28
120505,191531,251753,1.8879370314,-8.949156524,3.0161528873,29
120588,191636,251783,1.9680965885,-9.0113699116,3.0939196218,30
120679,191642,251802,1.8807585636,-8.930013943199999,3.0939196218,31
120751,191662,251798,1.9405791285999998,-8.9001036607,3.1118657913,32
120856,191633,251807,1.9118652574,-8.8809610799,3.0939196218,33
120917,191677,251816,1.9310078382,-8.9228354754,3.0604201053999995,34
121005,191683,251837,1.9716858223999998,-8.943174467499999,3.1537401868,35
121065,191674,251847,1.890329854,-9.0341017263,3.0508488149999997,36
121135,191706,251824,1.9070796122,-8.9874416856,3.0843483314,37
121194,191688,251796,1.9238293703999998,-8.9635134596,3.170489945,38
121203,191684,251808,1.9286150156,-8.8390866844,3.0699913958000002,39
121133,191652,251832,2.0135602179,-8.8522472087,3.1274191382,40
121101,191634,251804,1.9238293703999998,-8.8163548697,3.086741154,41
121032,191619,251839,1.8496518698,-8.944370878800001,3.1034909122000003,42
120993,191630,251808,1.8675980393,-8.9635134596,3.1680971224,43
120947,191617,251785,1.9405791285999998,-8.7661055951,3.1441688964,44
120969,191647,251794,1.8472590472,-8.8558364426,3.1716863562999995,45
120996,191623,251794,1.9597217094,-8.73380249,3.194418171,46
121007,191660,251746,1.8376877568,-8.8809610799,3.158525832,47
121060,191640,251727,2.0662023151,-8.9886380969,3.1178478478000002,48
121090,191646,251682,1.9250257817,-8.997012975999999,3.1561330094,49
121106,191636,251742,1.9704894111,-8.9204426528,3.1776684127999997,50
121165,191681,251696,1.9800607015,-8.8558364426,3.2386853891,51
121159,191684,251712,1.842473402,-8.859425676499999,3.2374889778,52
121225,191696,251706,1.9393827173,-8.9635134596,3.1322047834,53
121267,191689,251693,1.7790636031,-8.8953180155,3.2470602682000003,54
121381,191695,251703,1.7910277161,-9.010173500299999,3.1633114771999997,55
121436,191750,251745,1.8532411037,-8.8869431364,3.3559336964999997,56
121499,191762,251770,1.8843477975,-9.0364945489,3.1657042998000002,57
121531,191810,251730,1.9322042495,-8.8785682573,3.1154550251999997,58
121640,191738,251743,1.8233308212,-8.9682991048,3.1932217597,59
121685,191777,251739,1.8101702968999998,-9.0281196698,3.1716863562999995,60
121809,191786,251753,1.9250257817,-8.9084785398,3.2374889778,61
121875,191802,251776,1.8448662246,-8.9826560404,3.1657042998000002,62
121932,191809,251769,2.0039889275,-8.931210354500001,3.1609186546,63
122009,191825,251807,1.8927226765999998,-9.0053878551,3.2482566795000003,64
122047,191827,251766,1.842473402,-8.876175434699999,3.2159535744,65
122108,191824,251804,1.8771693297,-8.876175434699999,3.2159535744,66
122071,191804,251800,1.7539389658,-8.8474615635,3.2279176874,67
122034,191783,251779,1.7754743692000001,-8.9718883387,3.1980074049,68
121929,191762,251729,1.7718851352999998,-8.8929251929,3.2207392196,69
121904,191784,251766,1.8939190879,-8.9156570076,3.1633114771999997,70
121849,191779,251775,1.9046867896,-8.9120677737,3.1740791789,71
121829,191764,251761,1.9657037659,-8.949156524,3.1812576466999998,72
121814,191672,251760,1.8544375149999999,-8.9467637014,3.2458638569,73
121826,191797,251723,1.842473402,-9.020941202,3.2207392196,74
121845,191814,251735,1.7970097726,-8.9503529353,3.1920253483999996,75
121850,191770,251777,1.79461695,-9.0939222913,3.2709884942,76
121871,191813,251769,1.8460626359,-9.010173500299999,3.2087751066,77
121869,191802,251795,1.8520446924,-8.8797646686,3.2470602682000003,78
121907,191818,251783,1.842473402,-8.926424709299999,3.2279176874,79
121907,191868,251841,1.8137595308,-8.9072821285,3.2051858726999995,80
121946,191817,251785,1.8496518698,-9.0161555568,3.2039894614,81
122028,191847,251817,1.8448662246,-8.9084785398,3.1058837348,82
122061,191838,251793,1.9022939669999999,-8.9623170483,3.1034909122000003,83
122119,191851,251767,1.9513468303000001,-8.97308475,3.2602207924999997,84
122167,191865,251793,1.8963119105000001,-8.918049830200001,3.2578279699,85
122228,191865,251784,1.9776678789,-8.9946201534,3.1968109935999998,86
122294,191893,251769,1.8951154991999999,-8.8390866844,3.1381868399,87
122342,191838,251762,1.8783657409999999,-8.9826560404,3.2111679291999997,88
122393,191897,251787,1.8460626359,-8.8678005556,3.194418171,89
122447,191909,251772,1.9274186043000001,-8.889335959,3.1250263156,90
122504,191956,251768,1.7575281996999998,-8.937192411,3.1680971224,91
122544,191932,251743,1.8771693297,-8.8689969669,3.1764720014999996,92
122612,191932,251770,1.8735800958,-8.9419780562,3.2159535744,93
122676,191946,251718,1.8412769907000002,-8.8354974505,3.0819555088,94
122701,191974,251681,1.8783657409999999,-8.831908216599999,3.23031051,95
122767,191985,251749,1.842473402,-9.0460658393,3.278166962,96
122826,191965,251752,1.806581063,-9.042476605400001,3.2135607518000002,97
122830,191995,251694,1.7443676754000002,-8.985048863000001,3.2673992603000004,98
122737,191903,251715,1.8221344098999999,-8.9539421692,3.1992038162000003,99
122629,191878,251718,1.8173487647,-8.9001036607,3.1680971224,100
122422,191844,251737,1.9166509025999998,-8.9096749511,3.1776684127999997,101
122289,191832,251801,1.7024932798999999,-8.889335959,3.2458638569,102
122153,191818,251835,1.9836499354,-8.9802632178,3.0735806297,103
122022,191833,251790,1.8161523534,-8.9467637014,3.1357940173,104
121925,191784,251805,1.9202401365000001,-8.918049830200001,3.23031051,105
121934,191793,251828,1.842473402,-8.8929251929,3.1513473642000003,106
121870,191754,251805,1.8053846516999998,-8.9455672901,3.314059301,107
121862,191780,251808,1.9657037659,-8.925228298,3.2111679291999997,108
121790,191765,251839,1.9322042495,-8.930013943199999,3.1872397032,109
121756,191765,251841,1.7264215058999999,-8.949156524,3.2398818003999996,110
121692,191753,251795,1.9226329591,-8.9718883387,3.1238299043,111
121693,191765,251796,1.8544375149999999,-8.8570328539,3.2051858726999995,112
121720,191794,251786,1.806581063,-8.873782612100001,3.2602207924999997,113
121697,191843,251754,1.9022939669999999,-8.8235333375,3.2219356309,114
121774,191833,251784,1.8747765071,-8.9084785398,3.1489545415999998,115
121784,191823,251753,1.7312071511,-8.8426759183,3.2614172038,116
121833,191835,251742,1.9298114269,-8.7924266437,3.146561719,117
121836,191831,251687,1.8137595308,-8.818747692299999,3.2135607518000002,118
121906,191812,251676,1.9262221929999999,-8.9551385805,3.1609186546,119
121919,191864,251724,1.782652837,-9.0711904766,3.218346397,120
121994,191867,251725,1.7970097726,-8.9958165647,3.1776684127999997,121
122042,191855,251692,1.7240286833,-8.998209387300001,3.2650064377,122
122125,191885,251766,1.8448662246,-8.8570328539,3.1657042998000002,123
122173,191853,251750,1.8113667082,-8.865407733,3.1561330094,124
122209,191869,251752,1.9070796122,-8.983852451699999,3.1274191382,125
122285,191884,251774,1.7694923127,-8.9778703952,3.1776684127999997,126
122351,191884,251745,1.9250257817,-8.8235333375,3.23031051,127
122408,191884,251732,1.8281164664,-8.9467637014,3.3272198253,128
122458,191937,251730,1.8305092889999999,-8.9072821285,3.1082765574000004,129
122524,191946,251746,1.8927226765999998,-8.9467637014,3.2805597846,130
122611,191915,251746,1.7754743692000001,-8.9001036607,3.2111679291999997,131
122613,191956,251752,1.8987047331,-8.8570328539,3.2961131315000003,132
122579,191938,251733,1.8831513862,-8.9084785398,3.2255248647999997,133
122378,191894,251688,1.8017954178,-8.7972122889,3.2865418411,134
122119,191889,251644,1.9944176371,-8.9276211206,3.1669007111,135
121846,191906,251681,1.8987047331,-8.9108713624,3.1968109935999998,136
121594,191853,251621,1.8711872732,-8.9778703952,3.1800612354,137
121392,191849,251585,1.7168502155,-8.9156570076,3.2327033326,138
121194,191819,251576,1.8951154991999999,-8.9958165647,3.2243284535,139
121116,191798,251537,1.9214365478,-8.9048893059,3.2075786953,140
121062,191810,251543,1.8927226765999998,-8.9539421692,3.2841490185,141
121026,191835,251491,1.7180466268,-8.9072821285,3.158525832,142
120944,191810,251527,1.9489540077,-8.9539421692,3.2650064377,143
120901,191803,251489,1.8388841681,-8.8091764019,3.1680971224,144
120770,191809,251432,1.8652052167000002,-8.930013943199999,3.182454058,145
120763,191745,251468,1.9322042495,-8.9898345082,3.1393832512,146
120715,191827,251477,1.7850456596,-8.8307118053,3.158525832,147
120729,191839,251475,1.8927226765999998,-8.952745757899999,3.2769705507,148
120755,191823,251471,1.8053846516999998,-8.8426759183,3.2111679291999997,149
120772,191853,251444,1.8759729184,-8.8378902731,3.1633114771999997,150
120852,191834,251426,1.9190437251999999,-8.872586200799999,3.1788648241,151
120915,191856,251421,1.9022939669999999,-8.8546400313,3.170489945,152
120961,191865,251435,2.0015961049,-8.930013943199999,3.1549365981,153
121044,191823,251416,1.8783657409999999,-8.998209387300001,3.2685956716,154
121140,191901,251374,1.8592231602,-8.8127656358,3.2147571631,155
121187,191946,251395,1.8472590472,-8.8941216042,3.1369904286000003,156
121252,191941,251354,1.8975083218,-8.8701933782,3.1573294206999996,157
121355,191935,251424,1.7551353771,-8.8211405149,3.2255248647999997,158
121403,191937,251390,1.9609181207,-8.952745757899999,3.182454058,159
121472,191986,251382,1.9130616687,-8.8570328539,3.1680971224,160
121562,191964,251360,1.8723836845000001,-8.9419780562,3.2255248647999997,161
121639,192023,251326,1.9178473139,-8.9036928946,3.194418171,162
121720,191985,251358,1.8783657409999999,-8.9407816449,3.2709884942,163
121798,191950,251336,1.9345970721,-8.8426759183,3.1992038162000003,164
121866,191995,251347,1.9046867896,-8.9671026935,3.2470602682000003,165
121953,191973,251343,1.806581063,-8.9659062822,3.2111679291999997,166
122032,192002,251369,1.7754743692000001,-8.916853418899999,3.2279176874,167
122038,192012,251354,1.8352949342,-9.0364945489,3.2207392196,168
121889,191988,251306,2.0602202586000002,-8.961120637,3.23031051,169
121597,191895,251316,1.8843477975,-8.8450687409,3.2350961552,170
121249,191915,251259,1.79461695,-8.8546400313,3.3296126479000003,171
120917,191839,251291,1.8711872732,-8.8402830957,3.2518459134,172
120648,191899,251222,1.782652837,-8.9108713624,3.1489545415999998,173
120405,191783,251234,1.8831513862,-9.0029950325,3.1633114771999997,174
120247,191809,251193,1.79461695,-8.8749790234,3.2829526072,175
120139,191787,251196,1.7551353771,-8.889335959,3.2685956716,176
120090,191787,251165,1.8520446924,-8.918049830200001,3.218346397,177
120036,191774,251156,1.9094724347999998,-8.8929251929,3.194418171,178
119948,191792,251152,1.7443676754000002,-8.8426759183,3.1154550251999997,179
119862,191762,251089,1.9657037659,-8.9826560404,3.3032915993,180
119771,191773,251116,1.818545176,-8.841479506999999,3.158525832,181
119694,191760,251098,1.8640088054,-8.8749790234,3.1848468806000003,182
119700,191744,251121,1.818545176,-8.8091764019,3.2985059541,183
119724,191756,251093,1.8245272325,-8.818747692299999,3.1214370817,184
119740,191772,251068,1.7850456596,-8.9802632178,3.1561330094,185
119796,191757,251143,1.8089738856,-8.9336031771,3.2518459134,186
119874,191779,251093,1.8687944506,-8.9383888223,3.1381868399,187
119920,191747,251085,1.782652837,-8.9216390641,3.2985059541,188
120000,191804,251088,1.9130616687,-8.8606220878,3.2111679291999997,189
120087,191795,251115,1.8568303376,-8.877371846,3.1992038162000003,190
120176,191815,251057,1.7982061838999999,-8.85344362,3.2817561959000003,191
120249,191799,251087,1.8233308212,-9.0149591455,3.1190442591,192
120329,191796,251049,1.9465611851,-8.8917287816,3.2590243811999997,193
120422,191831,251083,1.9298114269,-8.8235333375,3.1896325258,194
120524,191822,251066,1.8484554585000001,-8.9024964833,3.2315069213,195
120621,191829,251067,1.9070796122,-8.8941216042,3.2004002275,196
120659,191850,251060,1.8867406201,-8.8965144268,3.2386853891,197
120808,191832,251082,1.8879370314,-8.8402830957,3.2398818003999996,198
120889,191806,251065,1.8975083218,-8.8115692245,3.1716863562999995,199
120988,191857,251097,1.9046867896,-8.873782612100001,3.1800612354,200
121085,191917,251130,1.79461695,-8.9874416856,3.206382284,201
121112,191885,251139,1.806581063,-8.9467637014,3.1322047834,202
120914,191889,251125,1.8041882404,-8.9910309195,3.3176485349,203
120500,191791,251094,1.9513468303000001,-8.8235333375,3.1740791789,204
120066,191760,251079,2.0374884439,-8.8941216042,3.3032915993,205
119684,191759,251083,1.8221344098999999,-8.9288175319,3.158525832,206
119369,191670,251034,1.8352949342,-8.873782612100001,3.1322047834,207
119057,191658,251011,1.8041882404,-8.8606220878,3.2267212761,208
118839,191660,250948,1.8783657409999999,-8.8582292652,3.2219356309,209
118726,191628,250912,1.7132609816000002,-8.9060857172,3.3272198253,210
118689,191585,250921,1.8388841681,-8.9204426528,3.2243284535,211
118641,191608,250917,1.7635102562,-8.975477572600001,3.2721849055,212
118554,191633,250908,1.8855442087999998,-8.925228298,3.2925238975999997,213
118461,191589,250847,1.8843477975,-8.939585233599999,3.1884361145,214
118359,191599,250867,1.8137595308,-8.9539421692,3.1657042998000002,215
118296,191613,250840,1.7407784414999998,-8.9276211206,3.2135607518000002,216
118276,191592,250790,1.9058832009,-8.8570328539,3.2159535744,217
118327,191612,250786,1.8137595308,-8.918049830200001,3.182454058,218
118413,191629,250787,1.8496518698,-9.0149591455,3.1728827676,219
118484,191615,250759,1.8879370314,-8.876175434699999,3.2004002275,220
118575,191640,250774,1.9310078382,-8.828318982699999,3.2542387359999996,221
118713,191644,250772,1.8233308212,-8.9790668065,3.2518459134,222
118826,191643,250786,1.7300107398,-8.8833539025,3.2386853891,223
118906,191640,250752,1.8999011444,-8.944370878800001,3.1920253483999996,224
119014,191666,250770,1.8843477975,-8.818747692299999,3.2159535744,225
119122,191671,250752,1.9669001771999999,-9.0652084201,3.2482566795000003,226
119223,191710,250748,1.9034903783000001,-8.9874416856,3.2039894614,227
119362,191723,250766,1.782652837,-8.975477572600001,3.1992038162000003,228
119477,191742,250786,1.9848463467,-8.901300072,3.1776684127999997,229
119621,191753,250810,1.9250257817,-8.9276211206,3.0915267992,230
119703,191749,250802,1.9310078382,-9.0400837828,3.2769705507,231
119857,191752,250769,1.8305092889999999,-8.944370878800001,3.1274191382,232
119974,191817,250856,1.8436698133,-8.8223369262,3.2626136151000003,233
120100,191785,250844,1.9920248145,-9.032905315,3.2410782117,234
120190,191794,250834,1.8867406201,-8.913264185,3.1322047834,235
120239,191801,250875,1.8317057003,-8.970691927399999,3.2087751066,236
120098,191765,250864,1.842473402,-8.8079799906,3.1633114771999997,237
119684,191699,250866,1.8640088054,-8.9108713624,3.1489545415999998,238
119231,191685,250827,1.770688724,-8.9383888223,3.3176485349,239
118788,191583,250801,1.8376877568,-8.806783579300001,3.1657042998000002,240
118454,191521,250747,1.7802600144,-8.9156570076,3.1609186546,241
118165,191522,250697,1.8867406201,-9.055637129700001,3.2279176874,242
117912,191455,250714,1.8221344098999999,-8.9766739839,3.2099715178999997,243
117831,191489,250718,1.8257236438,-8.8259261601,3.1848468806000003,244
117762,191486,250663,1.8137595308,-8.8115692245,3.2207392196,245
117717,191480,250654,1.8831513862,-8.8091764019,3.2207392196,246
117622,191446,250621,1.9202401365000001,-8.918049830200001,3.2398818003999996,247
117501,191443,250602,1.8197415872999998,-8.8845503138,3.3032915993,248
117344,191409,250613,1.8879370314,-8.8259261601,3.2494530908,249
117299,191419,250615,1.782652837,-8.872586200799999,3.2327033326,250
117182,191413,250568,1.7635102562,-9.044869428,3.1046873235,251
117302,191415,250592,1.8735800958,-8.7924266437,3.2207392196,252
117353,191432,250563,1.8089738856,-8.8785682573,3.2638100264,253
117423,191430,250564,1.7982061838999999,-8.8797646686,3.2398818003999996,254
117522,191453,250635,1.8807585636,-8.877371846,3.2135607518000002,255
117622,191482,250589,1.806581063,-8.9575314031,3.2350961552,256
117730,191430,250611,1.8257236438,-8.8378902731,3.1489545415999998,257
117813,191489,250570,1.8544375149999999,-9.0161555568,3.206382284,258
117922,191465,250618,1.8305092889999999,-8.9156570076,3.2039894614,259
118067,191515,250628,1.9130616687,-8.970691927399999,3.2602207924999997,260
118141,191528,250625,1.8209379986,-8.873782612100001,3.2745777280999997,261
118252,191524,250597,1.9178473139,-8.985048863000001,3.1800612354,262
118372,191530,250621,1.8293128776999998,-8.9802632178,3.2039894614,263
118490,191551,250650,1.7503497318999999,-8.9587278144,3.2446674455999998,264
118629,191543,250592,1.7383856189,-8.9001036607,3.1513473642000003,265
118730,191559,250625,1.9465611851,-8.8630149104,3.3284162366,266
118845,191660,250684,1.8161523534,-8.8307118053,3.2327033326,267
118949,191584,250606,1.8592231602,-8.8618184991,3.2159535744,268
119037,191619,250644,1.9106688461,-8.9120677737,3.2542387359999996,269
118889,191597,250647,1.8029918290999998,-8.9587278144,3.2494530908,270
118420,191512,250571,1.866401628,-8.9144605963,3.2733813167999997,271
117788,191449,250548,1.9214365478,-8.9240318867,3.2195428083000004,272
117253,191448,250562,1.8783657409999999,-9.050851484499999,3.2207392196,273
116747,191328,250504,1.9286150156,-8.9467637014,3.2506495021,274
116313,191313,250433,1.9178473139,-8.961120637,3.2087751066,275
115977,191264,250474,1.8041882404,-8.8570328539,3.1609186546,276
115718,191262,250373,1.8735800958,-8.8043907567,3.170489945,277
115651,191260,250379,1.8640088054,-8.9635134596,3.2566315586,278
115534,191252,250383,1.8376877568,-8.8941216042,3.2673992603000004,279
115452,191241,250350,1.9836499354,-8.885746725099999,3.3702906320999997,280
115311,191216,250328,1.8041882404,-8.7996051115,3.2075786953,281
115150,191213,250339,1.8723836845000001,-8.8905323703,3.2458638569,282
115057,191182,250300,1.9274186043000001,-8.9228354754,3.2039894614,283
114971,191197,250318,1.8687944506,-8.7972122889,3.2027930501,284
115006,191229,250246,1.7802600144,-8.937192411,3.2207392196,285
115083,191199,250226,1.8496518698,-8.864211321700001,3.1657042998000002,286
115198,191231,250238,1.8089738856,-8.8402830957,3.2255248647999997,287
115291,191235,250291,1.818545176,-8.7996051115,3.2159535744,288
115386,191250,250263,1.8891334427000002,-9.0029950325,3.2638100264,289
115533,191245,250281,1.8735800958,-8.9120677737,3.3224341800999997,290
115641,191212,250265,1.8771693297,-8.8259261601,3.3535408739,291
115781,191250,250357,1.8640088054,-8.873782612100001,3.194418171,292
115920,191302,250282,1.9322042495,-8.975477572600001,3.218346397,293
116042,191300,250360,1.8472590472,-8.865407733,3.2650064377,294
116181,191304,250316,1.8352949342,-8.7852481759,3.2709884942,295
116312,191225,250365,1.8137595308,-9.0759761218,3.1489545415999998,296
116468,191343,250381,1.8592231602,-8.9204426528,3.2255248647999997,297
116613,191345,250339,1.8113667082,-8.944370878800001,3.2889346637,298
116773,191350,250371,1.8819549749,-8.8821574912,3.2279176874,299
116908,191357,250395,1.9465611851,-8.865407733,3.134597606,300
117061,191365,250403,1.770688724,-8.9204426528,3.2542387359999996,301
117228,191390,250425,1.8245272325,-8.8630149104,3.2757741394,302
117377,191422,250427,1.79461695,-8.916853418899999,3.2255248647999997,303
117512,191421,250428,1.8329021116,-8.8606220878,3.1537401868,304
117570,191396,250464,1.758724611,-8.97308475,3.2685956716,305
117272,191376,250475,2.0039889275,-8.9718883387,3.2590243811999997,306
116667,191305,250414,1.9214365478,-8.8797646686,3.2470602682000003,307
115989,191242,250378,1.8448662246,-8.918049830200001,3.2410782117,308
115419,191191,250293,1.9274186043000001,-8.9467637014,3.1405796625,309
114877,191125,250273,1.8508482811000002,-8.918049830200001,3.2398818003999996,310
114390,191095,250228,1.782652837,-8.9048893059,3.2398818003999996,311
114067,191066,250192,1.6941184008,-8.8713897895,3.2757741394,312
113869,191055,250204,1.8496518698,-8.9120677737,3.2087751066,313
113781,191049,250141,1.890329854,-8.9048893059,3.1776684127999997,314
113689,191077,250106,1.8400805794,-8.8426759183,3.2386853891,315
113545,191049,250086,1.8711872732,-8.9347995884,3.2075786953,316
113416,191032,250140,1.8520446924,-8.9467637014,3.2099715178999997,317
113287,191024,250103,1.866401628,-8.9515493466,3.2279176874,318
113191,190933,250055,1.8951154991999999,-8.970691927399999,3.2135607518000002,319
113161,191000,250091,1.7479569093,-9.0472622506,3.2135607518000002,320
113193,191008,250022,1.9345970721,-8.8498543861,3.2685956716,321
113328,191040,250059,1.8137595308,-8.9587278144,3.1441688964,322
113451,191045,250079,1.8448662246,-8.8510507974,3.2769705507,323
113596,191082,250074,1.7802600144,-8.9467637014,3.2614172038,324
113762,191068,250056,1.8604195715,-8.943174467499999,3.2638100264,325
113962,191107,250148,1.8137595308,-8.983852451699999,3.2243284535,326
114099,191105,250122,1.8711872732,-8.9503529353,3.1728827676,327
114281,191139,250117,1.9944176371,-8.9419780562,3.158525832,328
114435,191089,250168,1.8448662246,-8.9419780562,3.2087751066,329
114591,191128,250176,1.8305092889999999,-8.961120637,3.1393832512,330
114762,191168,250178,1.8616159827999998,-8.8450687409,3.1489545415999998,331
114922,191177,250189,1.9788642901999998,-8.9276211206,3.2769705507,332
115127,191188,250233,1.8771693297,-8.8701933782,3.194418171,333
115299,191195,250256,1.866401628,-8.930013943199999,3.2279176874,334
115469,191257,250227,1.8747765071,-8.9910309195,3.0771698636,335
115649,191211,250268,1.9262221929999999,-8.865407733,3.1920253483999996,336
115801,191237,250259,1.8819549749,-8.8163548697,3.3391839383,337
115968,191216,250230,1.7503497318999999,-8.8402830957,3.1034909122000003,338
116114,191253,250327,1.8879370314,-8.865407733,3.1489545415999998,339
116285,191268,250300,2.0554346134,-8.9539421692,3.1752755902,340
116434,191248,250293,2.0207386857,-8.8558364426,3.2518459134,341
116491,191285,250287,1.8568303376,-9.0711904766,3.1896325258,342
116234,191207,250269,1.7359927963,-8.9994057986,3.1920253483999996,343
115567,191144,250259,1.8233308212,-8.7996051115,3.2135607518000002,344
114813,191016,250223,1.8652052167000002,-8.961120637,3.1752755902,345
114107,190956,250133,1.9298114269,-8.8618184991,3.1992038162000003,346
113485,190933,250106,1.9178473139,-8.9419780562,3.1728827676,347
112957,190887,250016,1.8735800958,-8.985048863000001,3.2087751066,348
112548,190873,249982,1.7850456596,-8.9718883387,3.2111679291999997,349
112296,190827,249996,1.9549360641999998,-8.9228354754,3.1657042998000002,350
112184,190829,249951,1.9082760235,-8.9599242257,3.2961131315000003,351
112073,190844,249889,1.9154544913,-8.8558364426,3.2015966388,352
111906,190813,249850,1.9812571127999998,-8.8749790234,3.2111679291999997,353
111685,190796,249891,1.8400805794,-8.8869431364,3.2195428083000004,354
111523,190809,249854,1.8939190879,-9.0293160811,3.2530423247,355
111395,190784,249848,1.8305092889999999,-9.0017986212,3.158525832,356
111347,190762,249832,1.7312071511,-8.913264185,3.2338997439000003,357
111384,190865,249859,1.8508482811000002,-8.8917287816,3.1800612354,358
111461,190805,249851,1.8352949342,-8.9347995884,3.2721849055,359
111585,190819,249842,1.8293128776999998,-9.0077806777,3.194418171,360
111750,190770,249874,1.8281164664,-8.8438723296,3.3080772444999997,361
111908,190827,249845,1.7934205387,-8.7876409985,3.182454058,362
112090,190853,249878,1.8041882404,-8.9563349918,3.23031051,363
112232,190850,249901,1.7958133612999998,-8.7708912403,3.1489545415999998,364
112385,190873,249905,1.8508482811000002,-9.032905315,3.2650064377,365
112541,190908,249913,1.9118652574,-8.937192411,3.2745777280999997,366
112713,190935,249937,1.9010975557,-8.9802632178,3.2350961552,367
112923,190947,249968,1.8376877568,-8.8845503138,3.1645078885,368
113076,190950,249965,1.8376877568,-8.8259261601,3.2745777280999997,369
113235,190859,249955,1.842473402,-8.8869431364,3.1405796625,370
113413,191006,250023,1.8041882404,-8.9419780562,3.194418171,371
113641,190985,250005,1.9633109433,-8.872586200799999,3.2350961552,372
113826,191009,250028,1.8771693297,-9.0987079365,3.2159535744,373
114032,191034,250043,1.734796385,-8.7756768855,3.2374889778,374
114230,191038,250057,1.7994025952000001,-8.930013943199999,3.2350961552,375
114412,191057,250085,1.8496518698,-8.9539421692,3.1752755902,376
114591,191081,250089,1.8233308212,-8.8582292652,3.3188449462,377
114769,191102,250126,1.7718851352999998,-8.877371846,3.266202849,378
114963,191099,250154,1.8496518698,-8.9718883387,3.2159535744,379
115164,191124,250114,1.8867406201,-8.944370878800001,3.242274623,380
115131,191118,250160,1.8329021116,-8.9671026935,3.2626136151000003,381
114641,191074,250092,1.8544375149999999,-9.0017986212,3.2231320422,382
113820,190981,250073,1.9010975557,-8.9120677737,3.182454058,383
112923,190861,249983,1.7886348934999998,-8.8259261601,3.2518459134,384
112170,190827,249943,1.8771693297,-8.949156524,3.1573294206999996,385
111473,190763,249900,1.8616159827999998,-8.8618184991,3.1561330094,386
110919,190706,249858,1.8747765071,-8.918049830200001,3.2255248647999997,387
110475,190696,249822,1.7611174336,-8.8570328539,3.11066938,388
110222,190686,249722,1.8951154991999999,-8.901300072,3.3032915993,389
110150,190699,249722,1.9070796122,-8.9515493466,3.1812576466999998,390
110020,190662,249674,1.9130616687,-8.9036928946,3.2626136151000003,391
109869,190673,249703,1.8089738856,-8.8809610799,3.2793633733,392
109703,190618,249716,1.7994025952000001,-8.926424709299999,3.2673992603000004,393
109522,190595,249695,1.8795621523000001,-8.9419780562,3.2733813167999997,394
109417,190591,249655,1.8281164664,-8.97308475,3.2231320422,395
109436,190647,249692,1.8987047331,-8.9156570076,3.2865418411,396
109509,190602,249677,1.8508482811000002,-9.0460658393,3.2111679291999997,397
109642,190641,249681,1.9250257817,-8.8989072494,3.2195428083000004,398
109830,190640,249733,1.8783657409999999,-8.9587278144,3.2973095428,399
109960,190667,249742,1.770688724,-8.8689969669,3.2111679291999997,400
110228,190698,249737,1.818545176,-8.885746725099999,3.2159535744,401
110452,190753,249812,1.9034903783000001,-8.9958165647,3.1645078885,402
110636,190723,249756,1.8448662246,-9.0029950325,3.2733813167999997,403
110838,190767,249829,1.7754743692000001,-8.9910309195,3.1417760738,404
111080,190748,249846,1.7682959014000001,-9.0137627342,3.2350961552,405
111277,190765,249830,1.7730815466,-8.9347995884,3.2111679291999997,406
111506,190821,249868,1.7994025952000001,-8.9347995884,3.218346397,407
111740,190839,249836,1.8436698133,-8.9539421692,3.3152557123,408
111959,190847,249940,1.8448662246,-8.8749790234,3.1836504693,409
112201,190841,249902,2.0195422744,-8.918049830200001,3.182454058,410
112438,190912,249911,1.8915262653,-8.9635134596,3.1788648241,411
112691,190926,249930,1.818545176,-8.939585233599999,3.2530423247,412
112916,190928,249944,1.9585252981,-8.9778703952,3.23031051,413
113137,190956,249983,1.9417755399,-8.9024964833,3.23031051,414
113362,190979,249962,1.8257236438,-8.939585233599999,3.2015966388,415
113594,190984,249980,1.8005990065,-8.939585233599999,3.2590243811999997,416
113791,191041,249931,1.9657037659,-8.8965144268,3.098705267,417
113665,191018,249966,1.8305092889999999,-8.944370878800001,3.1980074049,418
113104,190902,249897,1.9848463467,-8.8570328539,3.2482566795000003,419
112325,190845,249855,1.8209379986,-8.7984087002,3.2374889778,420
111631,190754,249824,1.7096717476999999,-8.8235333375,3.182454058,421
111001,190742,249745,1.9609181207,-8.9419780562,3.1788648241,422
110494,190655,249725,1.8592231602,-8.9084785398,3.1381868399,423
110063,190624,249684,1.8568303376,-8.931210354500001,3.1740791789,424
109814,190616,249623,1.8699908619,-8.9072821285,3.1381868399,425
109689,190605,249626,1.8711872732,-8.8163548697,3.1633114771999997,426
109662,190588,249557,1.866401628,-8.9120677737,3.1920253483999996,427
109574,190571,249518,1.8041882404,-9.0305124924,3.170489945,428
109438,190570,249558,1.8771693297,-8.8307118053,3.1968109935999998,429
109323,190574,249572,1.8891334427000002,-8.8354974505,3.2243284535,430
109199,190541,249591,1.8855442087999998,-8.9682991048,3.1633114771999997,431
109187,190522,249576,1.8472590472,-8.8378902731,3.2123643404999997,432
109224,190522,249556,1.8855442087999998,-8.9826560404,3.1633114771999997,433
109359,190550,249557,1.8568303376,-8.8558364426,3.2219356309,434
109523,190564,249540,1.8053846516999998,-8.9383888223,3.194418171,435
109737,190569,249623,1.8077774743,-8.8977108381,3.0819555088,436
109942,190619,249600,1.8771693297,-8.9682991048,3.2745777280999997,437
110146,190606,249628,1.8544375149999999,-8.8785682573,3.1489545415999998,438
110361,190593,249624,1.7659030788,-8.9276211206,3.2315069213,439
110559,190609,249613,1.6701901747999999,-8.916853418899999,3.194418171,440
110751,190664,249658,1.8041882404,-8.8965144268,3.23031051,441
110963,190664,249664,1.7994025952000001,-8.8989072494,3.2458638569,442
111178,190675,249670,1.6570296505,-8.916853418899999,3.2350961552,443
111393,190715,249688,1.8101702968999998,-8.876175434699999,3.2135607518000002,444
111640,190698,249670,1.8460626359,-8.975477572600001,3.1501509529,445
111875,190720,249635,1.8999011444,-8.913264185,3.2865418411,446
112094,190804,249650,1.8759729184,-8.9934237421,3.242274623,447
112319,190783,249658,1.8568303376,-8.8402830957,3.1920253483999996,448
112548,190784,249677,1.770688724,-8.9874416856,3.3128628897,449
112761,190816,249684,1.9046867896,-8.930013943199999,3.3212377687999997,450
112998,190867,249744,1.9752750562999999,-8.8366938618,3.170489945,451
113212,190863,249729,1.866401628,-8.7732840629,3.2709884942,452
113291,190861,249774,1.8604195715,-8.937192411,3.2255248647999997,453
112919,190783,249725,1.8293128776999998,-8.9587278144,3.2482566795000003,454
112107,190700,249709,1.8975083218,-8.9204426528,3.2470602682000003,455
111304,190599,249633,1.9022939669999999,-8.913264185,3.3044880106,456
110577,190545,249617,1.7515461432000001,-8.9778703952,3.3068808331999997,457
109930,190510,249510,1.8508482811000002,-9.0137627342,3.182454058,458
109406,190419,249472,1.8436698133,-8.9826560404,3.2626136151000003,459
108990,190413,249454,1.7659030788,-8.925228298,3.2015966388,460
108752,190386,249445,1.9094724347999998,-8.8797646686,3.1621150658999997,461
108693,190380,249375,1.9944176371,-8.961120637,3.2470602682000003,462
108630,190381,249353,1.8723836845000001,-8.8881395477,3.2614172038,463
108507,190372,249363,1.8400805794,-8.9694955161,3.2470602682000003,464
108368,190347,249377,1.8723836845000001,-8.8343010392,3.2721849055,465
108249,190344,249422,1.7718851352999998,-8.975477572600001,3.206382284,466
108211,190359,249398,1.710868159,-8.9359959997,3.2231320422,467
108236,190333,249366,1.7922241274,-8.9718883387,3.2279176874,468
108355,190395,249396,1.770688724,-8.8905323703,3.2554351473,469
108571,190398,249399,1.8879370314,-8.9084785398,3.2051858726999995,470
108769,190405,249406,1.9226329591,-8.8582292652,3.2889346637,471
108983,190438,249376,1.6905291669,-8.8630149104,3.1848468806000003,472
109237,190424,249457,1.7790636031,-8.8271225714,3.1848468806000003,473
109444,190435,249437,1.7479569093,-8.9347995884,3.2530423247,474
109701,190412,249497,1.8448662246,-8.7828553533,3.218346397,475
109928,190510,249470,1.782652837,-9.050851484499999,3.2817561959000003,476
110136,190421,249542,1.9274186043000001,-8.876175434699999,3.2279176874,477
110395,190586,249532,1.9800607015,-8.9874416856,3.3176485349,478
110650,190566,249574,1.7682959014000001,-8.970691927399999,3.2506495021,479
110900,190597,249605,1.7922241274,-8.8833539025,3.3044880106,480
111122,190573,249614,1.9070796122,-8.9826560404,3.2087751066,481
111390,190627,249649,1.9166509025999998,-8.8618184991,3.1429724850999996,482
111620,190588,249668,1.79461695,-9.0185483794,3.1369904286000003,483
111866,190631,249684,1.8041882404,-8.9539421692,3.1393832512,484
112084,190693,249726,1.7682959014000001,-8.937192411,3.182454058,485
112355,190694,249699,1.9369898947,-8.9228354754,3.1058837348,486
112559,190723,249736,1.8077774743,-8.7924266437,3.2542387359999996,487
112580,190718,249777,1.8496518698,-8.9192462415,3.2099715178999997,488
112155,190638,249752,1.7958133612999998,-8.9419780562,3.2231320422,489
111335,190552,249643,1.9238293703999998,-8.8211405149,3.2590243811999997,490
110449,190434,249520,1.8568303376,-8.8845503138,3.2350961552,491
109673,190370,249541,1.8448662246,-8.8091764019,3.2374889778,492
109039,190317,249490,1.8257236438,-8.9072821285,3.2470602682000003,493
108495,190283,249415,1.8233308212,-8.7876409985,3.1752755902,494
108082,190288,249386,1.8400805794,-9.010173500299999,3.1633114771999997,495
107893,190216,249392,1.7359927963,-8.949156524,3.3008987767,496
107842,190221,249389,1.9561324755,-8.97308475,3.2530423247,497
107786,190229,249397,1.938186306,-8.9156570076,3.2530423247,498
107662,190193,249424,1.9704894111,-8.872586200799999,3.2494530908,499
107556,190196,249400,1.9561324755,-8.9671026935,3.3008987767,500
107475,190175,249400,1.8233308212,-8.8546400313,3.2626136151000003,501
107452,190196,249455,1.8017954178,-8.864211321700001,3.2327033326,502
107487,190163,249459,1.7922241274,-8.8666041443,3.2291140987,503
107663,190201,249489,1.8568303376,-8.9204426528,3.2506495021,504
107887,190212,249466,1.9549360641999998,-8.9347995884,3.1429724850999996,505
108134,190202,249508,1.7982061838999999,-8.913264185,3.1609186546,506
108417,190214,249540,1.8771693297,-8.9072821285,3.1633114771999997,507
108665,190305,249512,1.8376877568,-8.9192462415,3.1752755902,508
108912,190311,249548,1.9441683625,-8.828318982699999,3.2386853891,509
109189,190300,249555,1.9106688461,-8.877371846,3.1728827676,510
109449,190380,249613,1.8927226765999998,-8.9503529353,3.2530423247,511
109719,190364,249639,1.9094724347999998,-8.983852451699999,3.1621150658999997,512
109997,190407,249650,1.8161523534,-8.9359959997,3.2243284535,513
110275,190441,249650,1.8604195715,-8.975477572600001,3.2518459134,514
110536,190475,249653,1.8544375149999999,-8.9862452743,3.2231320422,515
110787,190491,249690,1.9393827173,-8.9659062822,3.0915267992,516
111095,190528,249699,1.7754743692000001,-8.9659062822,3.1776684127999997,517
111367,190538,249735,1.7958133612999998,-8.9503529353,3.1776684127999997,518
111605,190550,249731,2.0015961049,-8.8785682573,3.1609186546,519
111696,190591,249727,1.8771693297,-8.9922273308,3.2243284535,520
111320,190492,249744,1.8017954178,-9.081958178299999,3.1752755902,521
110587,190377,249667,1.8652052167000002,-8.944370878800001,3.1609186546,522
109816,190340,249628,1.9561324755,-8.872586200799999,3.0879375653000003,523
109154,190272,249558,1.8831513862,-8.8247297488,3.2386853891,524
108632,190201,249541,1.7802600144,-8.9694955161,3.0915267992,525
108203,190173,249463,1.8400805794,-8.9886380969,3.146561719,526
107915,190144,249453,1.806581063,-8.939585233599999,3.1860432919,527
107814,190156,249444,1.9704894111,-8.889335959,3.1046873235,528
107809,190125,249429,1.9178473139,-8.9347995884,3.2315069213,529
107758,190120,249377,1.7670994901,-8.7637127725,3.2147571631,530
107605,190077,249421,1.7886348934999998,-8.859425676499999,3.1513473642000003,531
107470,190057,249413,2.0111673952999998,-8.931210354500001,3.1776684127999997,532
107330,190050,249402,1.9453647738,-8.975477572600001,3.2087751066,533
107309,190015,249395,1.9178473139,-8.9419780562,3.1537401868,534
107366,190027,249409,1.842473402,-8.8977108381,3.2004002275,535
107503,189999,249469,1.8759729184,-8.925228298,3.1178478478000002,536
107701,190018,249456,1.9154544913,-8.9228354754,3.1130622026,537
107894,190059,249431,1.9166509025999998,-9.0149591455,3.1680971224,538
108078,190073,249458,1.7563317884,-8.8965144268,3.2410782117,539
108323,190068,249482,1.9214365478,-8.8797646686,3.2255248647999997,540
108503,190107,249466,1.9130616687,-8.8989072494,3.206382284,541
108708,190120,249445,1.7503497318999999,-9.0233340246,3.1513473642000003,542
108898,190100,249493,1.8927226765999998,-8.9204426528,3.242274623,543
109115,190105,249485,1.9010975557,-8.7828553533,3.3188449462,544
109329,190146,249511,2.0386848552,-8.865407733,3.2985059541,545
109502,190124,249500,1.9118652574,-8.9587278144,3.158525832,546
109736,190156,249458,1.7898313048,-8.9048893059,3.2147571631,547
109803,190058,249491,1.8759729184,-8.901300072,3.1752755902,548
109357,190105,249459,1.782652837,-8.913264185,3.2111679291999997,549
108402,189982,249354,1.7874384822,-8.9276211206,3.194418171,550
107306,189874,249331,1.9250257817,-8.865407733,3.2889346637,551
106371,189825,249285,1.9250257817,-8.865407733,3.2889346637,552
105566,189725,249215,1.9250257817,-8.865407733,3.2889346637,553
104847,189672,249154,1.9250257817,-8.865407733,3.2889346637,554
104286,189606,249155,1.9250257817,-8.865407733,3.2889346637,555
103982,189608,249131,1.9250257817,-8.865407733,3.2889346637,556
103929,189592,249184,1.9250257817,-8.865407733,3.2889346637,557
103940,189560,249183,1.9250257817,-8.865407733,3.2889346637,558
103848,189555,249211,1.9250257817,-8.865407733,3.2889346637,559
103724,189542,249201,1.9250257817,-8.865407733,3.2889346637,560
103679,189520,249252,1.9250257817,-8.865407733,3.2889346637,561
103686,189519,249278,1.9250257817,-8.865407733,3.2889346637,562
103764,189553,249250,1.9250257817,-8.865407733,3.2889346637,563
103964,189554,249287,1.9250257817,-8.865407733,3.2889346637,564
104204,189562,249377,1.9250257817,-8.865407733,3.2889346637,565
104527,189616,249433,1.9250257817,-8.865407733,3.2889346637,566
104818,189624,249415,1.842473402,-8.916853418899999,3.2709884942,567
105092,189648,249439,1.842473402,-8.916853418899999,3.2709884942,568
105379,189645,249488,1.842473402,-8.916853418899999,3.2709884942,569
105680,189687,249516,1.842473402,-8.916853418899999,3.2709884942,570
105947,189760,249557,1.842473402,-8.916853418899999,3.2709884942,571
106203,189753,249577,1.842473402,-8.916853418899999,3.2709884942,572
106489,189822,249604,1.842473402,-8.916853418899999,3.2709884942,573
106790,189833,249579,1.842473402,-8.916853418899999,3.2709884942,574
107053,189879,249589,1.842473402,-8.916853418899999,3.2709884942,575
107311,189893,249598,1.842473402,-8.916853418899999,3.2709884942,576
107617,189900,249692,1.842473402,-8.916853418899999,3.2709884942,577
107864,189982,249601,1.842473402,-8.916853418899999,3.2709884942,578
107787,189938,249583,1.842473402,-8.916853418899999,3.2709884942,579
107021,189810,249566,1.842473402,-8.916853418899999,3.2709884942,580
105805,189708,249442,1.842473402,-8.916853418899999,3.2709884942,581
104622,189577,249355,1.842473402,-8.916853418899999,3.2709884942,582
103653,189486,249347,1.842473402,-8.916853418899999,3.2709884942,583
102842,189406,249298,1.842473402,-8.916853418899999,3.2709884942,584
102163,189359,249293,1.842473402,-8.916853418899999,3.2709884942,585
101718,189324,249253,1.7874384822,-8.7385881352,3.1441688964,586
101583,189312,249271,1.7874384822,-8.7385881352,3.1441688964,587
101613,189319,249270,1.7874384822,-8.7385881352,3.1441688964,588
101609,189313,249324,1.7874384822,-8.7385881352,3.1441688964,589
101553,189254,249341,1.7874384822,-8.7385881352,3.1441688964,590
101503,189301,249406,1.7874384822,-8.7385881352,3.1441688964,591
101503,189288,249388,1.7874384822,-8.7385881352,3.1441688964,592
101591,189312,249445,1.7874384822,-8.7385881352,3.1441688964,593
101792,189301,249480,1.7874384822,-8.7385881352,3.1441688964,594
102115,189356,249516,1.7874384822,-8.7385881352,3.1441688964,595
102476,189369,249606,1.7874384822,-8.7385881352,3.1441688964,596
102832,189437,249602,1.7874384822,-8.7385881352,3.1441688964,597
103189,189487,249681,1.7874384822,-8.7385881352,3.1441688964,598
103531,189485,249685,1.7874384822,-8.7385881352,3.1441688964,599
103860,189498,249760,1.7874384822,-8.7385881352,3.1441688964,600
104198,189539,249770,1.7874384822,-8.7385881352,3.1441688964,601
104509,189554,249829,1.7874384822,-8.7385881352,3.1441688964,602
104848,189603,249826,1.7874384822,-8.7385881352,3.1441688964,603
105160,189653,249856,1.7874384822,-8.7385881352,3.1441688964,604
105506,189724,249882,1.7874384822,-8.7385881352,3.1441688964,605
105843,189754,249938,1.7874384822,-8.7385881352,3.1441688964,606
106185,189768,249963,1.7874384822,-8.7385881352,3.1441688964,607
106546,189814,249983,1.7874384822,-8.7385881352,3.1441688964,608
106862,189856,250016,1.7874384822,-8.7385881352,3.1441688964,609
107227,189887,250049,1.7874384822,-8.7385881352,3.1441688964,610
107542,189936,250070,1.7874384822,-8.7385881352,3.1441688964,611
107862,189972,250072,1.7754743692000001,-8.8558364426,3.2111679291999997,612
108139,190003,250075,1.7754743692000001,-8.8558364426,3.2111679291999997,613
108115,190000,250064,1.7754743692000001,-8.8558364426,3.2111679291999997,614
107374,189903,249987,1.7754743692000001,-8.8558364426,3.2111679291999997,615
106229,189797,249913,1.7754743692000001,-8.8558364426,3.2111679291999997,616
105108,189702,249870,1.7754743692000001,-8.8558364426,3.2111679291999997,617
104182,189613,249775,1.7754743692000001,-8.8558364426,3.2111679291999997,618
103472,189565,249777,1.7754743692000001,-8.8558364426,3.2111679291999997,619
102898,189494,249722,1.7754743692000001,-8.8558364426,3.2111679291999997,620
102557,189489,249678,1.7754743692000001,-8.8558364426,3.2111679291999997,621
102465,189490,249670,1.7754743692000001,-8.8558364426,3.2111679291999997,622
102429,189487,249684,1.7754743692000001,-8.8558364426,3.2111679291999997,623
102312,189442,249683,1.7754743692000001,-8.8558364426,3.2111679291999997,624
102173,189439,249713,1.7754743692000001,-8.8558364426,3.2111679291999997,625
102074,189444,249717,1.7754743692000001,-8.8558364426,3.2111679291999997,626
102028,189423,249705,1.7754743692000001,-8.8558364426,3.2111679291999997,627
102074,189415,249705,1.7754743692000001,-8.8558364426,3.2111679291999997,628
102221,189420,249719,1.7754743692000001,-8.8558364426,3.2111679291999997,629
102468,189407,249740,1.7754743692000001,-8.8558364426,3.2111679291999997,630
102775,189442,249788,1.9345970721,-8.9036928946,3.2207392196,631
103043,189477,249799,1.9345970721,-8.9036928946,3.2207392196,632
103349,189493,249815,1.9345970721,-8.9036928946,3.2207392196,633
103625,189551,249851,1.9345970721,-8.9036928946,3.2207392196,634
103908,189570,249927,1.9345970721,-8.9036928946,3.2207392196,635
104171,189577,249898,1.9345970721,-8.9036928946,3.2207392196,636
104451,189604,249959,1.9345970721,-8.9036928946,3.2207392196,637
104740,189644,249932,1.9345970721,-8.9036928946,3.2207392196,638
105063,189669,249984,1.9345970721,-8.9036928946,3.2207392196,639
105349,189710,249994,1.9345970721,-8.9036928946,3.2207392196,640
105667,189761,249986,1.9345970721,-8.9036928946,3.2207392196,641
105983,189780,249980,1.9345970721,-8.9036928946,3.2207392196,642
106322,189866,250041,1.9345970721,-8.9036928946,3.2207392196,643
106640,189859,250018,1.9345970721,-8.9036928946,3.2207392196,644
106924,189906,250012,1.9345970721,-8.9036928946,3.2207392196,645
107276,189917,250062,1.9345970721,-8.9036928946,3.2207392196,646
107553,189983,250118,1.9345970721,-8.9036928946,3.2207392196,647
107866,190023,250120,1.9345970721,-8.9036928946,3.2207392196,648
108078,190055,250067,1.9345970721,-8.9036928946,3.2207392196,649
107793,189988,250004,1.9345970721,-8.9036928946,3.2207392196,650
106890,189858,249938,1.9345970721,-8.9036928946,3.2207392196,651
105701,189748,249842,1.9345970721,-8.9036928946,3.2207392196,652
104614,189695,249828,1.9345970721,-8.9036928946,3.2207392196,653
103762,189630,249786,1.9345970721,-8.9036928946,3.2207392196,654
103057,189584,249760,1.9345970721,-8.9036928946,3.2207392196,655
102454,189508,249714,1.9345970721,-8.9036928946,3.2207392196,656
102112,189462,249651,1.842473402,-8.885746725099999,3.1800612354,657
102063,189514,249724,1.842473402,-8.885746725099999,3.1800612354,658
102136,189504,249722,1.842473402,-8.885746725099999,3.1800612354,659
102112,189489,249710,1.842473402,-8.885746725099999,3.1800612354,660
102087,189508,249727,1.842473402,-8.885746725099999,3.1800612354,661
102061,189488,249714,1.842473402,-8.885746725099999,3.1800612354,662
102084,189520,249748,1.842473402,-8.885746725099999,3.1800612354,663
102212,189504,249771,1.842473402,-8.885746725099999,3.1800612354,664
102467,189491,249842,1.842473402,-8.885746725099999,3.1800612354,665
102790,189524,249855,1.842473402,-8.885746725099999,3.1800612354,666
103147,189575,249866,1.842473402,-8.885746725099999,3.1800612354,667
103458,189611,249857,1.842473402,-8.885746725099999,3.1800612354,668
103815,189647,249891,1.842473402,-8.885746725099999,3.1800612354,669
104138,189672,249919,1.842473402,-8.885746725099999,3.1800612354,670
104464,189723,249929,1.842473402,-8.885746725099999,3.1800612354,671
104761,189754,249926,1.842473402,-8.885746725099999,3.1800612354,672
105086,189753,250024,1.842473402,-8.885746725099999,3.1800612354,673
105402,189799,249992,1.842473402,-8.885746725099999,3.1800612354,674
105736,189859,250004,1.842473402,-8.885746725099999,3.1800612354,675
106061,189883,250023,1.842473402,-8.885746725099999,3.1800612354,676
106393,189901,250025,1.842473402,-8.885746725099999,3.1800612354,677
106728,189927,250037,1.842473402,-8.885746725099999,3.1800612354,678
107053,189973,250131,1.842473402,-8.885746725099999,3.1800612354,679
107447,190014,250092,1.842473402,-8.885746725099999,3.1800612354,680
107765,190045,250090,1.842473402,-8.885746725099999,3.1800612354,681
108077,190081,250161,1.842473402,-8.885746725099999,3.1800612354,682
108406,190110,250159,1.842473402,-8.885746725099999,3.1800612354,683
108739,190135,250187,1.842473402,-8.885746725099999,3.1800612354,684
109042,190170,250178,1.842473402,-8.885746725099999,3.1800612354,685
109132,190146,250185,1.842473402,-8.885746725099999,3.1800612354,686
108760,190095,250100,1.842473402,-8.885746725099999,3.1800612354,687
107955,190021,250044,1.842473402,-8.885746725099999,3.1800612354,688
107126,189942,250029,1.842473402,-8.885746725099999,3.1800612354,689
106441,189889,249916,1.842473402,-8.885746725099999,3.1800612354,690
105882,189853,249929,1.842473402,-8.885746725099999,3.1800612354,691
105363,189791,249960,1.842473402,-8.885746725099999,3.1800612354,692
105032,189767,249932,1.842473402,-8.885746725099999,3.1800612354,693
104904,189758,249884,1.842473402,-8.885746725099999,3.1800612354,694
104941,189761,249886,1.842473402,-8.885746725099999,3.1800612354,695
104994,189814,249909,1.842473402,-8.885746725099999,3.1800612354,696
104999,189782,249905,1.842473402,-8.885746725099999,3.1800612354,697
104990,189782,249912,1.842473402,-8.885746725099999,3.1800612354,698
110010,190309,250296,1.7898313048,-8.970691927399999,3.23031051,699
110323,190317,250295,1.7898313048,-8.970691927399999,3.23031051,700
110659,190343,250333,1.7898313048,-8.970691927399999,3.23031051,701
110990,190351,250334,1.7898313048,-8.970691927399999,3.23031051,702
111300,190426,250368,1.7898313048,-8.970691927399999,3.23031051,703
111588,190440,250401,1.7898313048,-8.970691927399999,3.23031051,704
111906,190497,250368,1.7898313048,-8.970691927399999,3.23031051,705
112184,190522,250392,1.7898313048,-8.970691927399999,3.23031051,706
112257,190513,250387,1.7898313048,-8.970691927399999,3.23031051,707
111990,190457,250355,1.7898313048,-8.970691927399999,3.23031051,708
111535,190396,250343,1.7898313048,-8.970691927399999,3.23031051,709
111047,190338,250340,1.7898313048,-8.970691927399999,3.23031051,710
110624,190320,250270,1.7898313048,-8.970691927399999,3.23031051,711
110324,190281,250197,1.7898313048,-8.970691927399999,3.23031051,712
110040,190263,250215,1.7898313048,-8.970691927399999,3.23031051,713
109843,190217,250148,1.7898313048,-8.970691927399999,3.23031051,714
109801,190220,250170,1.7898313048,-8.970691927399999,3.23031051,715
109773,190211,250142,1.7898313048,-8.970691927399999,3.23031051,716
109715,190169,250156,1.7898313048,-8.970691927399999,3.23031051,717
109603,190144,250160,1.7898313048,-8.970691927399999,3.23031051,718
109503,190115,250180,1.7898313048,-8.970691927399999,3.23031051,719
109472,190102,250087,1.7898313048,-8.970691927399999,3.23031051,720
109463,190071,250130,1.7898313048,-8.970691927399999,3.23031051,721
109545,190117,250070,1.7898313048,-8.970691927399999,3.23031051,722
109673,190100,250127,1.7898313048,-8.970691927399999,3.23031051,723
109851,190131,250142,1.7898313048,-8.970691927399999,3.23031051,724
110029,190122,250144,1.7898313048,-8.970691927399999,3.23031051,725
110213,190148,250126,1.7898313048,-8.970691927399999,3.23031051,726
110406,190173,250171,1.7898313048,-8.970691927399999,3.23031051,727
110568,190212,250136,1.7898313048,-8.970691927399999,3.23031051,728
110788,190186,250198,1.7898313048,-8.970691927399999,3.23031051,729
110938,190157,250224,1.7898313048,-8.970691927399999,3.23031051,730
111175,190235,250210,1.7898313048,-8.970691927399999,3.23031051,731
111363,190242,250206,1.7898313048,-8.970691927399999,3.23031051,732
111600,190292,250216,1.7898313048,-8.970691927399999,3.23031051,733
111844,190306,250201,1.7898313048,-8.970691927399999,3.23031051,734
112050,190325,250268,1.7898313048,-8.970691927399999,3.23031051,735
112272,190344,250237,1.7898313048,-8.970691927399999,3.23031051,736
112515,190352,250237,1.7898313048,-8.970691927399999,3.23031051,737
112723,190386,250309,1.7898313048,-8.970691927399999,3.23031051,738
112942,190431,250281,1.7898313048,-8.970691927399999,3.23031051,739
113030,190414,250274,1.7898313048,-8.970691927399999,3.23031051,740
108160,189958,249926,1.9154544913,-8.7996051115,3.2650064377,741
108000,189937,249929,1.9154544913,-8.7996051115,3.2650064377,742
107836,189900,249926,1.9154544913,-8.7996051115,3.2650064377,743
107703,189907,249875,1.9154544913,-8.7996051115,3.2650064377,744
107663,189940,249883,1.9154544913,-8.7996051115,3.2650064377,745
107721,189866,249906,1.9154544913,-8.7996051115,3.2650064377,746
107833,189955,249947,1.9154544913,-8.7996051115,3.2650064377,747
108024,189945,249980,1.9154544913,-8.7996051115,3.2650064377,748
108233,189994,250018,1.9154544913,-8.7996051115,3.2650064377,749
108445,189979,249970,1.9154544913,-8.7996051115,3.2650064377,750
108696,190043,250046,1.9154544913,-8.7996051115,3.2650064377,751
108917,190027,250021,1.9154544913,-8.7996051115,3.2650064377,752
109127,190051,250083,1.9154544913,-8.7996051115,3.2650064377,753
109343,190078,250096,1.9154544913,-8.7996051115,3.2650064377,754
109608,190128,250107,1.9154544913,-8.7996051115,3.2650064377,755
109817,190178,250157,1.9154544913,-8.7996051115,3.2650064377,756
110058,190186,250157,1.9154544913,-8.7996051115,3.2650064377,757
110336,190178,250197,1.9154544913,-8.7996051115,3.2650064377,758
110574,190211,250181,1.9154544913,-8.7996051115,3.2650064377,759
110819,190239,250189,1.9154544913,-8.7996051115,3.2650064377,760
111077,190297,250274,1.9154544913,-8.7996051115,3.2650064377,761
111319,190300,250261,1.9154544913,-8.7996051115,3.2650064377,762
111564,190328,250221,1.9154544913,-8.7996051115,3.2650064377,763
111844,190358,250291,1.9154544913,-8.7996051115,3.2650064377,764
112018,190376,250281,1.9154544913,-8.7996051115,3.2650064377,765
111873,190353,250301,1.9154544913,-8.7996051115,3.2650064377,766
111225,190251,250243,1.9154544913,-8.7996051115,3.2650064377,767
110347,190157,250094,1.9154544913,-8.7996051115,3.2650064377,768
109452,190068,250062,1.9154544913,-8.7996051115,3.2650064377,769
108705,190014,249984,1.9154544913,-8.7996051115,3.2650064377,770
108065,189936,249979,1.9154544913,-8.7996051115,3.2650064377,771
107482,189913,249942,1.9154544913,-8.7996051115,3.2650064377,772
107107,189910,249931,1.9154544913,-8.7996051115,3.2650064377,773
106938,189884,249951,1.9154544913,-8.7996051115,3.2650064377,774
106882,189891,249908,1.9154544913,-8.7996051115,3.2650064377,775
106784,189889,249891,1.9154544913,-8.7996051115,3.2650064377,776
106654,189871,249913,1.9154544913,-8.7996051115,3.2650064377,777
106557,189836,249927,1.9154544913,-8.7996051115,3.2650064377,778
106545,189864,249920,1.9154544913,-8.7996051115,3.2650064377,779
106530,189840,249914,1.9154544913,-8.7996051115,3.2650064377,780
106686,189836,249908,1.9154544913,-8.7996051115,3.2650064377,781
106914,189874,249988,1.9154544913,-8.7996051115,3.2650064377,782
105338,189650,249644,1.8041882404,-8.918049830200001,3.1836504693,783
105266,189679,249764,1.8041882404,-8.918049830200001,3.1836504693,784
105164,189645,249726,1.8041882404,-8.918049830200001,3.1836504693,785
105026,189617,249728,1.8041882404,-8.918049830200001,3.1836504693,786
104897,189597,249738,1.8041882404,-8.918049830200001,3.1836504693,787
104880,189642,249740,1.8041882404,-8.918049830200001,3.1836504693,788
104881,189592,249723,1.8041882404,-8.918049830200001,3.1836504693,789
105009,189631,249757,1.8041882404,-8.918049830200001,3.1836504693,790
105256,189650,249749,1.8041882404,-8.918049830200001,3.1836504693,791
105498,189659,249759,1.8041882404,-8.918049830200001,3.1836504693,792
105789,189684,249785,1.8041882404,-8.918049830200001,3.1836504693,793
106052,189695,249882,1.8041882404,-8.918049830200001,3.1836504693,794
106321,189723,249847,1.8041882404,-8.918049830200001,3.1836504693,795
106562,189722,249837,1.8041882404,-8.918049830200001,3.1836504693,796
106831,189766,249907,1.8041882404,-8.918049830200001,3.1836504693,797
107097,189792,249921,1.8041882404,-8.918049830200001,3.1836504693,798
107366,189825,249907,1.8041882404,-8.918049830200001,3.1836504693,799
107636,189856,249920,1.8041882404,-8.918049830200001,3.1836504693,800
107911,189895,249977,1.8041882404,-8.918049830200001,3.1836504693,801
108173,189896,249994,1.8041882404,-8.918049830200001,3.1836504693,802
108468,189940,250036,1.8041882404,-8.918049830200001,3.1836504693,803
108765,190003,249997,1.8041882404,-8.918049830200001,3.1836504693,804
109008,190027,250073,1.8041882404,-8.918049830200001,3.1836504693,805
109318,190036,250053,1.8041882404,-8.918049830200001,3.1836504693,806
109571,190072,250061,1.8041882404,-8.918049830200001,3.1836504693,807
109853,190077,250026,1.8041882404,-8.918049830200001,3.1836504693,808
110095,190103,250065,1.8041882404,-8.918049830200001,3.1836504693,809
110212,190103,250063,1.8041882404,-8.918049830200001,3.1836504693,810
109852,190035,250025,1.8041882404,-8.918049830200001,3.1836504693,811
108974,189916,249971,1.8041882404,-8.918049830200001,3.1836504693,812
107962,189822,249923,1.8041882404,-8.918049830200001,3.1836504693,813
107050,189741,249832,1.8041882404,-8.918049830200001,3.1836504693,814
106266,189685,249806,1.8041882404,-8.918049830200001,3.1836504693,815
105534,189590,249740,1.8041882404,-8.918049830200001,3.1836504693,816
104983,189563,249726,1.8041882404,-8.918049830200001,3.1836504693,817
104696,189552,249720,1.8041882404,-8.918049830200001,3.1836504693,818
104584,189514,249671,1.8041882404,-8.918049830200001,3.1836504693,819
104556,189522,249692,1.8041882404,-8.918049830200001,3.1836504693,820
104507,189516,249716,1.8041882404,-8.918049830200001,3.1836504693,821
104388,189511,249736,1.8041882404,-8.918049830200001,3.1836504693,822
104312,189492,249711,1.8041882404,-8.918049830200001,3.1836504693,823
104344,189489,249705,1.8041882404,-8.918049830200001,3.1836504693,824
105258,189571,249820,1.8951154991999999,-8.918049830200001,3.1621150658999997,825
105595,189569,249847,1.8951154991999999,-8.918049830200001,3.1621150658999997,826
105909,189655,249884,1.8951154991999999,-8.918049830200001,3.1621150658999997,827
106244,189662,249895,1.8951154991999999,-8.918049830200001,3.1621150658999997,828
106532,189684,249927,1.8951154991999999,-8.918049830200001,3.1621150658999997,829
106858,189724,249920,1.8951154991999999,-8.918049830200001,3.1621150658999997,830
107163,189746,249979,1.8951154991999999,-8.918049830200001,3.1621150658999997,831
107478,189796,250040,1.8951154991999999,-8.918049830200001,3.1621150658999997,832
107818,189808,250003,1.8951154991999999,-8.918049830200001,3.1621150658999997,833
108154,189874,250117,1.8951154991999999,-8.918049830200001,3.1621150658999997,834
108509,189913,250080,1.8951154991999999,-8.918049830200001,3.1621150658999997,835
108826,189949,250106,1.8951154991999999,-8.918049830200001,3.1621150658999997,836
109177,189964,250158,1.8951154991999999,-8.918049830200001,3.1621150658999997,837
109521,190025,250100,1.8951154991999999,-8.918049830200001,3.1621150658999997,838
109859,190046,250154,1.8951154991999999,-8.918049830200001,3.1621150658999997,839
110158,190058,250198,1.8951154991999999,-8.918049830200001,3.1621150658999997,840
110484,190127,250232,1.8951154991999999,-8.918049830200001,3.1621150658999997,841
110796,190136,250264,1.8951154991999999,-8.918049830200001,3.1621150658999997,842
111014,190117,250202,1.8951154991999999,-8.918049830200001,3.1621150658999997,843
110934,190135,250175,1.8951154991999999,-8.918049830200001,3.1621150658999997,844
110331,190013,250122,1.8951154991999999,-8.918049830200001,3.1621150658999997,845
109614,189959,250127,1.8951154991999999,-8.918049830200001,3.1621150658999997,846
108935,189905,250028,1.8951154991999999,-8.918049830200001,3.1621150658999997,847
108387,189815,250018,1.8951154991999999,-8.918049830200001,3.1621150658999997,848
107938,189798,250001,1.8951154991999999,-8.918049830200001,3.1621150658999997,849
107613,189716,249942,1.8951154991999999,-8.918049830200001,3.1621150658999997,850
107430,189705,249947,1.8951154991999999,-8.918049830200001,3.1621150658999997,851
107374,189731,249931,1.8951154991999999,-8.918049830200001,3.1621150658999997,852
107373,189681,249939,1.8951154991999999,-8.918049830200001,3.1621150658999997,853
107227,189666,249908,1.8951154991999999,-8.918049830200001,3.1621150658999997,854
107086,189619,249896,1.8951154991999999,-8.918049830200001,3.1621150658999997,855
106997,189621,249868,1.8951154991999999,-8.918049830200001,3.1621150658999997,856
106932,189602,249846,1.8951154991999999,-8.918049830200001,3.1621150658999997,857
106990,189562,249859,1.8951154991999999,-8.918049830200001,3.1621150658999997,858
107115,189588,249898,1.8951154991999999,-8.918049830200001,3.1621150658999997,859
107286,189593,249882,1.8951154991999999,-8.918049830200001,3.1621150658999997,860
107498,189637,249894,1.8951154991999999,-8.918049830200001,3.1621150658999997,861
107722,189620,249920,1.8951154991999999,-8.918049830200001,3.1621150658999997,862
108180,189649,249931,1.8412769907000002,-9.0580299523,3.170489945,863
108377,189700,249952,1.8412769907000002,-9.0580299523,3.170489945,864
108603,189698,249952,1.8412769907000002,-9.0580299523,3.170489945,865
108824,189736,250010,1.8412769907000002,-9.0580299523,3.170489945,866
109058,189768,250019,1.8412769907000002,-9.0580299523,3.170489945,867
109321,189769,249981,1.8412769907000002,-9.0580299523,3.170489945,868
109545,189768,250003,1.8412769907000002,-9.0580299523,3.170489945,869
109823,189861,250037,1.8412769907000002,-9.0580299523,3.170489945,870
110077,189831,250039,1.8412769907000002,-9.0580299523,3.170489945,871
110330,189824,250055,1.8412769907000002,-9.0580299523,3.170489945,872
110584,189866,250048,1.8412769907000002,-9.0580299523,3.170489945,873
110839,189897,250077,1.8412769907000002,-9.0580299523,3.170489945,874
111071,189926,250135,1.8412769907000002,-9.0580299523,3.170489945,875
111095,189896,250047,1.8412769907000002,-9.0580299523,3.170489945,876
110636,189802,250005,1.8412769907000002,-9.0580299523,3.170489945,877
109753,189724,249963,1.8412769907000002,-9.0580299523,3.170489945,878
108862,189625,249884,1.8412769907000002,-9.0580299523,3.170489945,879
108060,189544,249808,1.8412769907000002,-9.0580299523,3.170489945,880
107355,189483,249771,1.8412769907000002,-9.0580299523,3.170489945,881
106744,189396,249743,1.8412769907000002,-9.0580299523,3.170489945,882
106268,189372,249754,1.8412769907000002,-9.0580299523,3.170489945,883
106019,189358,249687,1.8412769907000002,-9.0580299523,3.170489945,884
106000,189365,249746,1.8412769907000002,-9.0580299523,3.170489945,885
105951,189330,249704,1.8412769907000002,-9.0580299523,3.170489945,886
105857,189335,249677,1.8412769907000002,-9.0580299523,3.170489945,887
105765,189280,249735,1.8412769907000002,-9.0580299523,3.170489945,888
105735,189310,249710,1.8412769907000002,-9.0580299523,3.170489945,889
105747,189309,249710,1.8412769907000002,-9.0580299523,3.170489945,890
105853,189325,249741,1.8412769907000002,-9.0580299523,3.170489945,891
106071,189332,249782,1.8412769907000002,-9.0580299523,3.170489945,892
106347,189358,249825,1.8412769907000002,-9.0580299523,3.170489945,893
106608,189382,249846,1.8412769907000002,-9.0580299523,3.170489945,894
106873,189422,249859,1.8412769907000002,-9.0580299523,3.170489945,895
107157,189461,249860,1.8412769907000002,-9.0580299523,3.170489945,896
107431,189459,249943,1.8412769907000002,-9.0580299523,3.170489945,897
107701,189486,249934,1.8412769907000002,-9.0580299523,3.170489945,898
107975,189519,249923,1.8412769907000002,-9.0580299523,3.170489945,899
108243,189563,249977,1.8412769907000002,-9.0580299523,3.170489945,900
108518,189578,250009,1.8412769907000002,-9.0580299523,3.170489945,901
108792,189596,249991,1.8412769907000002,-9.0580299523,3.170489945,902
109075,189649,249954,1.8412769907000002,-9.0580299523,3.170489945,903
109335,189696,250032,1.8412769907000002,-9.0580299523,3.170489945,904
110199,189817,250065,1.7276179172000001,-9.0017986212,3.1609186546,905
110497,189832,250063,1.7276179172000001,-9.0017986212,3.1609186546,906
110773,189831,250123,1.7276179172000001,-9.0017986212,3.1609186546,907
111027,189875,250118,1.7276179172000001,-9.0017986212,3.1609186546,908
111286,189872,250108,1.7276179172000001,-9.0017986212,3.1609186546,909
111543,189923,250112,1.7276179172000001,-9.0017986212,3.1609186546,910
111789,189972,250145,1.7276179172000001,-9.0017986212,3.1609186546,911
112075,189967,250175,1.7276179172000001,-9.0017986212,3.1609186546,912
112251,189984,250162,1.7276179172000001,-9.0017986212,3.1609186546,913
112368,189981,250198,1.7276179172000001,-9.0017986212,3.1609186546,914
112065,189927,250113,1.7276179172000001,-9.0017986212,3.1609186546,915
111319,189836,250017,1.7276179172000001,-9.0017986212,3.1609186546,916
110356,189757,249993,1.7276179172000001,-9.0017986212,3.1609186546,917
109497,189632,249888,1.7276179172000001,-9.0017986212,3.1609186546,918
108752,189584,249852,1.7276179172000001,-9.0017986212,3.1609186546,919
108103,189520,249790,1.7276179172000001,-9.0017986212,3.1609186546,920
107550,189466,249726,1.7276179172000001,-9.0017986212,3.1609186546,921
107203,189438,249743,1.7276179172000001,-9.0017986212,3.1609186546,922
107057,189423,249739,1.7276179172000001,-9.0017986212,3.1609186546,923
106963,189421,249739,1.7276179172000001,-9.0017986212,3.1609186546,924
106825,189388,249777,1.7276179172000001,-9.0017986212,3.1609186546,925
106635,189390,249733,1.7276179172000001,-9.0017986212,3.1609186546,926
106528,189401,249735,1.7276179172000001,-9.0017986212,3.1609186546,927
106473,189374,249689,1.7276179172000001,-9.0017986212,3.1609186546,928
106478,189336,249760,1.7276179172000001,-9.0017986212,3.1609186546,929
106620,189412,249739,1.7276179172000001,-9.0017986212,3.1609186546,930
106856,189438,249747,1.7276179172000001,-9.0017986212,3.1609186546,931
107132,189475,249809,1.7276179172000001,-9.0017986212,3.1609186546,932
107403,189508,249831,1.7276179172000001,-9.0017986212,3.1609186546,933
107665,189540,249844,1.7276179172000001,-9.0017986212,3.1609186546,934
107949,189537,249869,1.7276179172000001,-9.0017986212,3.1609186546,935
108228,189617,249904,1.7276179172000001,-9.0017986212,3.1609186546,936
108519,189606,249923,1.7276179172000001,-9.0017986212,3.1609186546,937
108781,189635,249966,1.7276179172000001,-9.0017986212,3.1609186546,938
109062,189657,249957,1.7276179172000001,-9.0017986212,3.1609186546,939
109353,189686,249951,1.7276179172000001,-9.0017986212,3.1609186546,940
109631,189745,250017,1.7276179172000001,-9.0017986212,3.1609186546,941
109908,189774,250009,1.7276179172000001,-9.0017986212,3.1609186546,942
110206,189796,249990,1.7276179172000001,-9.0017986212,3.1609186546,943
110504,189850,250048,1.7276179172000001,-9.0017986212,3.1609186546,944
110802,189856,250121,1.7276179172000001,-9.0017986212,3.1609186546,945
111072,189884,250123,1.7276179172000001,-9.0017986212,3.1609186546,946
108541,189561,249826,1.7479569093,-9.104689993,3.1178478478000002,947
108742,189587,249839,1.7479569093,-9.104689993,3.1178478478000002,948
108931,189603,249793,1.7479569093,-9.104689993,3.1178478478000002,949
109129,189600,249840,1.7479569093,-9.104689993,3.1178478478000002,950
109330,189623,249805,1.7479569093,-9.104689993,3.1178478478000002,951
109529,189638,249844,1.7479569093,-9.104689993,3.1178478478000002,952
109719,189648,249816,1.7479569093,-9.104689993,3.1178478478000002,953
109918,189678,249890,1.7479569093,-9.104689993,3.1178478478000002,954
110148,189687,249893,1.7479569093,-9.104689993,3.1178478478000002,955
110346,189688,249905,1.7479569093,-9.104689993,3.1178478478000002,956
110545,189688,249883,1.7479569093,-9.104689993,3.1178478478000002,957
110770,189759,249956,1.7479569093,-9.104689993,3.1178478478000002,958
110991,189747,249894,1.7479569093,-9.104689993,3.1178478478000002,959
111205,189755,249886,1.7479569093,-9.104689993,3.1178478478000002,960
111427,189819,249935,1.7479569093,-9.104689993,3.1178478478000002,961
111647,189816,249950,1.7479569093,-9.104689993,3.1178478478000002,962
111837,189858,249954,1.7479569093,-9.104689993,3.1178478478000002,963
111694,189800,249860,1.7479569093,-9.104689993,3.1178478478000002,964
111052,189701,249828,1.7479569093,-9.104689993,3.1178478478000002,965
110057,189588,249736,1.7479569093,-9.104689993,3.1178478478000002,966
109116,189502,249739,1.7479569093,-9.104689993,3.1178478478000002,967
108251,189430,249621,1.7479569093,-9.104689993,3.1178478478000002,968
107514,189360,249561,1.7479569093,-9.104689993,3.1178478478000002,969
106899,189305,249528,1.7479569093,-9.104689993,3.1178478478000002,970
106442,189297,249498,1.7479569093,-9.104689993,3.1178478478000002,971
106238,189265,249494,1.7479569093,-9.104689993,3.1178478478000002,972
106131,189284,249539,1.7479569093,-9.104689993,3.1178478478000002,973
106081,189222,249567,1.7479569093,-9.104689993,3.1178478478000002,974
105934,189226,249489,1.7479569093,-9.104689993,3.1178478478000002,975
105825,189228,249493,1.7479569093,-9.104689993,3.1178478478000002,976
105735,189215,249570,1.7479569093,-9.104689993,3.1178478478000002,977
105757,189204,249540,1.7479569093,-9.104689993,3.1178478478000002,978
105860,189233,249548,1.7479569093,-9.104689993,3.1178478478000002,979
106063,189280,249591,1.7479569093,-9.104689993,3.1178478478000002,980
106317,189264,249570,1.7479569093,-9.104689993,3.1178478478000002,981
106586,189291,249541,1.7479569093,-9.104689993,3.1178478478000002,982
106867,189358,249637,1.7479569093,-9.104689993,3.1178478478000002,983
107124,189352,249647,1.7479569093,-9.104689993,3.1178478478000002,984
107413,189394,249679,1.7479569093,-9.104689993,3.1178478478000002,985
107694,189400,249687,1.7479569093,-9.104689993,3.1178478478000002,986
107960,189431,249686,1.7479569093,-9.104689993,3.1178478478000002,987
108235,189484,249711,1.7479569093,-9.104689993,3.1178478478000002,988
109690,189616,249889,1.7324035624,-8.864211321700001,3.3128628897,989
109183,189544,249835,1.7324035624,-8.864211321700001,3.3128628897,990
108717,189486,249766,1.7324035624,-8.864211321700001,3.3128628897,991
108420,189413,249727,1.7324035624,-8.864211321700001,3.3128628897,992
108261,189438,249693,1.7324035624,-8.864211321700001,3.3128628897,993
108153,189417,249694,1.7324035624,-8.864211321700001,3.3128628897,994
108010,189387,249706,1.7324035624,-8.864211321700001,3.3128628897,995
107841,189367,249670,1.7324035624,-8.864211321700001,3.3128628897,996
107671,189345,249667,1.7324035624,-8.864211321700001,3.3128628897,997
107553,189312,249650,1.7324035624,-8.864211321700001,3.3128628897,998
107520,189327,249683,1.7324035624,-8.864211321700001,3.3128628897,999
107567,189328,249667,1.7324035624,-8.864211321700001,3.3128628897,1000
107677,189326,249665,1.7324035624,-8.864211321700001,3.3128628897,1001
107874,189358,249721,1.7324035624,-8.864211321700001,3.3128628897,1002
108057,189382,249705,1.7324035624,-8.864211321700001,3.3128628897,1003
108261,189412,249680,1.7324035624,-8.864211321700001,3.3128628897,1004
108471,189407,249746,1.7324035624,-8.864211321700001,3.3128628897,1005
108686,189446,249740,1.7324035624,-8.864211321700001,3.3128628897,1006
108908,189440,249773,1.7324035624,-8.864211321700001,3.3128628897,1007
109104,189467,249779,1.7324035624,-8.864211321700001,3.3128628897,1008
109341,189456,249797,1.7324035624,-8.864211321700001,3.3128628897,1009
109559,189518,249760,1.7324035624,-8.864211321700001,3.3128628897,1010
109775,189516,249787,1.7324035624,-8.864211321700001,3.3128628897,1011
109987,189512,249821,1.7324035624,-8.864211321700001,3.3128628897,1012
110270,189568,249825,1.7324035624,-8.864211321700001,3.3128628897,1013
110502,189578,249875,1.7324035624,-8.864211321700001,3.3128628897,1014
110738,189626,249862,1.7324035624,-8.864211321700001,3.3128628897,1015
110994,189616,249851,1.7324035624,-8.864211321700001,3.3128628897,1016
111201,189662,249893,1.7324035624,-8.864211321700001,3.3128628897,1017
111459,189710,249909,1.7324035624,-8.864211321700001,3.3128628897,1018
111652,189740,249895,1.7324035624,-8.864211321700001,3.3128628897,1019
111622,189703,249873,1.7324035624,-8.864211321700001,3.3128628897,1020
111084,189610,249806,1.9166509025999998,-8.9024964833,3.1680971224,1021
110162,189506,249657,1.9166509025999998,-8.9024964833,3.1680971224,1022
109176,189420,249680,1.9166509025999998,-8.9024964833,3.1680971224,1023
108297,189340,249638,1.9166509025999998,-8.9024964833,3.1680971224,1024
107498,189263,249621,1.9166509025999998,-8.9024964833,3.1680971224,1025
106808,189222,249567,1.9166509025999998,-8.9024964833,3.1680971224,1026
106291,189149,249531,1.9166509025999998,-8.9024964833,3.1680971224,1027
105970,189125,249477,1.9166509025999998,-8.9024964833,3.1680971224,1028
105875,189123,249469,1.9166509025999998,-8.9024964833,3.1680971224,1029
105757,189111,249480,1.9166509025999998,-8.9024964833,3.1680971224,1030
105602,189110,249507,1.9166509025999998,-8.9024964833,3.1680971224,1031
105501,189112,249481,1.9166509025999998,-8.9024964833,3.1680971224,1032
105385,189062,249491,1.9166509025999998,-8.9024964833,3.1680971224,1033
105364,189055,249532,1.9166509025999998,-8.9024964833,3.1680971224,1034
105414,189072,249501,1.9166509025999998,-8.9024964833,3.1680971224,1035
105551,189082,249511,1.9166509025999998,-8.9024964833,3.1680971224,1036
105780,189096,249518,1.9166509025999998,-8.9024964833,3.1680971224,1037
106021,189120,249588,1.9166509025999998,-8.9024964833,3.1680971224,1038
106330,189165,249621,1.9166509025999998,-8.9024964833,3.1680971224,1039
106603,189158,249640,1.9166509025999998,-8.9024964833,3.1680971224,1040
106865,189192,249695,1.9166509025999998,-8.9024964833,3.1680971224,1041
107126,189215,249672,1.9166509025999998,-8.9024964833,3.1680971224,1042
107383,189218,249729,1.9166509025999998,-8.9024964833,3.1680971224,1043
107671,189307,249712,1.9166509025999998,-8.9024964833,3.1680971224,1044
107915,189309,249771,1.9166509025999998,-8.9024964833,3.1680971224,1045
108204,189336,249773,1.9166509025999998,-8.9024964833,3.1680971224,1046
108492,189376,249752,1.9166509025999998,-8.9024964833,3.1680971224,1047
108742,189409,249777,1.9166509025999998,-8.9024964833,3.1680971224,1048
109050,189417,249782,1.9166509025999998,-8.9024964833,3.1680971224,1049
109349,189451,249859,1.9166509025999998,-8.9024964833,3.1680971224,1050
109648,189476,249839,1.9166509025999998,-8.9024964833,3.1680971224,1051
109913,189531,249832,1.9166509025999998,-8.9024964833,3.1680971224,1052
110155,189538,249840,1.9166509025999998,-8.9024964833,3.1680971224,1053
110450,189565,249897,1.9166509025999998,-8.9024964833,3.1680971224,1054
110714,189579,249889,1.9166509025999998,-8.9024964833,3.1680971224,1055
110978,189609,249869,1.9166509025999998,-8.9024964833,3.1680971224,1056
111226,189622,249965,1.9166509025999998,-8.9024964833,3.1680971224,1057
111434,189682,249906,1.9166509025999998,-8.9024964833,3.1680971224,1058
111427,189626,249931,1.9166509025999998,-8.9024964833,3.1680971224,1059
110913,189543,249860,1.9166509025999998,-8.9024964833,3.1680971224,1060
110026,189469,249767,1.9166509025999998,-8.9024964833,3.1680971224,1061
109050,189354,249731,1.9166509025999998,-8.9024964833,3.1680971224,1062
106229,189136,249531,1.7754743692000001,-9.006584266399999,3.2817561959000003,1063
105966,189093,249525,1.7754743692000001,-9.006584266399999,3.2817561959000003,1064
105858,189094,249547,1.7754743692000001,-9.006584266399999,3.2817561959000003,1065
105739,189061,249569,1.7754743692000001,-9.006584266399999,3.2817561959000003,1066
105624,189068,249562,1.7754743692000001,-9.006584266399999,3.2817561959000003,1067
105500,189030,249591,1.7754743692000001,-9.006584266399999,3.2817561959000003,1068
105426,188975,249542,1.7754743692000001,-9.006584266399999,3.2817561959000003,1069
105419,189015,249594,1.7754743692000001,-9.006584266399999,3.2817561959000003,1070
105487,189036,249563,1.7754743692000001,-9.006584266399999,3.2817561959000003,1071
105683,189055,249599,1.7754743692000001,-9.006584266399999,3.2817561959000003,1072
105929,189047,249605,1.7754743692000001,-9.006584266399999,3.2817561959000003,1073
106220,189130,249676,1.7754743692000001,-9.006584266399999,3.2817561959000003,1074
106490,189116,249659,1.7754743692000001,-9.006584266399999,3.2817561959000003,1075
106786,189120,249691,1.7754743692000001,-9.006584266399999,3.2817561959000003,1076
107092,189149,249766,1.7754743692000001,-9.006584266399999,3.2817561959000003,1077
107362,189195,249741,1.7754743692000001,-9.006584266399999,3.2817561959000003,1078
107640,189210,249822,1.7754743692000001,-9.006584266399999,3.2817561959000003,1079
107939,189259,249819,1.7754743692000001,-9.006584266399999,3.2817561959000003,1080
108233,189294,249864,1.7754743692000001,-9.006584266399999,3.2817561959000003,1081
108524,189333,249867,1.7754743692000001,-9.006584266399999,3.2817561959000003,1082
108809,189353,249899,1.7754743692000001,-9.006584266399999,3.2817561959000003,1083
109145,189379,249931,1.7754743692000001,-9.006584266399999,3.2817561959000003,1084
109440,189436,249912,1.7754743692000001,-9.006584266399999,3.2817561959000003,1085
109745,189466,249949,1.7754743692000001,-9.006584266399999,3.2817561959000003,1086
110019,189470,249917,1.7754743692000001,-9.006584266399999,3.2817561959000003,1087
110334,189551,249990,1.7754743692000001,-9.006584266399999,3.2817561959000003,1088
110636,189556,249976,1.7754743692000001,-9.006584266399999,3.2817561959000003,1089
110897,189580,250011,1.7754743692000001,-9.006584266399999,3.2817561959000003,1090
111186,189629,249987,1.7754743692000001,-9.006584266399999,3.2817561959000003,1091
111446,189646,250024,1.7754743692000001,-9.006584266399999,3.2817561959000003,1092
111725,189655,250030,1.7754743692000001,-9.006584266399999,3.2817561959000003,1093
111903,189687,250061,1.7754743692000001,-9.006584266399999,3.2817561959000003,1094
111794,189677,250039,1.7754743692000001,-9.006584266399999,3.2817561959000003,1095
111256,189536,249997,1.7754743692000001,-9.006584266399999,3.2817561959000003,1096
110494,189446,249907,1.7754743692000001,-9.006584266399999,3.2817561959000003,1097
109738,189383,249852,1.7754743692000001,-9.006584266399999,3.2817561959000003,1098
109100,189312,249883,1.7754743692000001,-9.006584266399999,3.2817561959000003,1099
108569,189255,249790,1.7754743692000001,-9.006584266399999,3.2817561959000003,1100
108125,189234,249737,1.7754743692000001,-9.006584266399999,3.2817561959000003,1101
107850,189196,249763,1.7754743692000001,-9.006584266399999,3.2817561959000003,1102
107750,189204,249735,1.7754743692000001,-9.006584266399999,3.2817561959000003,1103
107643,189164,249705,1.7754743692000001,-9.006584266399999,3.2817561959000003,1104
110302,189322,249833,1.8472590472,-8.8833539025,3.2374889778,1105
109392,189221,249753,1.8472590472,-8.8833539025,3.2374889778,1106
108300,189130,249681,1.8472590472,-8.8833539025,3.2374889778,1107
107306,189049,249613,1.8472590472,-8.8833539025,3.2374889778,1108
106471,188938,249565,1.8472590472,-8.8833539025,3.2374889778,1109
105731,188899,249519,1.8472590472,-8.8833539025,3.2374889778,1110
105183,188854,249464,1.8472590472,-8.8833539025,3.2374889778,1111
104912,188827,249484,1.8472590472,-8.8833539025,3.2374889778,1112
104784,188825,249486,1.8472590472,-8.8833539025,3.2374889778,1113
104708,188826,249500,1.8472590472,-8.8833539025,3.2374889778,1114
104563,188804,249499,1.8472590472,-8.8833539025,3.2374889778,1115
104459,188751,249467,1.8472590472,-8.8833539025,3.2374889778,1116
104354,188756,249488,1.8472590472,-8.8833539025,3.2374889778,1117
104376,188757,249502,1.8472590472,-8.8833539025,3.2374889778,1118
104454,188790,249479,1.8472590472,-8.8833539025,3.2374889778,1119
104666,188819,249528,1.8472590472,-8.8833539025,3.2374889778,1120
104935,188843,249589,1.8472590472,-8.8833539025,3.2374889778,1121
105253,188872,249561,1.8472590472,-8.8833539025,3.2374889778,1122
105591,188928,249553,1.8472590472,-8.8833539025,3.2374889778,1123
105911,188930,249653,1.8472590472,-8.8833539025,3.2374889778,1124
106226,188987,249627,1.8472590472,-8.8833539025,3.2374889778,1125
106552,188991,249697,1.8472590472,-8.8833539025,3.2374889778,1126
106861,189037,249699,1.8472590472,-8.8833539025,3.2374889778,1127
107165,189061,249749,1.8472590472,-8.8833539025,3.2374889778,1128
107474,189110,249788,1.8472590472,-8.8833539025,3.2374889778,1129
107792,189169,249755,1.8472590472,-8.8833539025,3.2374889778,1130
108109,189173,249796,1.8472590472,-8.8833539025,3.2374889778,1131
108468,189200,249827,1.8472590472,-8.8833539025,3.2374889778,1132
108783,189244,249847,1.8472590472,-8.8833539025,3.2374889778,1133
109105,189288,249888,1.8472590472,-8.8833539025,3.2374889778,1134
109425,189323,249899,1.8472590472,-8.8833539025,3.2374889778,1135
109741,189370,249882,1.8472590472,-8.8833539025,3.2374889778,1136
110069,189362,249902,1.8472590472,-8.8833539025,3.2374889778,1137
110367,189426,249904,1.8472590472,-8.8833539025,3.2374889778,1138
110686,189456,249953,1.8472590472,-8.8833539025,3.2374889778,1139
110975,189461,249953,1.8472590472,-8.8833539025,3.2374889778,1140
111249,189508,249960,1.8472590472,-8.8833539025,3.2374889778,1141
111346,189485,249958,1.8472590472,-8.8833539025,3.2374889778,1142
111079,189454,249908,1.8472590472,-8.8833539025,3.2374889778,1143
110445,189363,249857,1.8472590472,-8.8833539025,3.2374889778,1144
109653,189289,249848,1.8472590472,-8.8833539025,3.2374889778,1145
108923,189173,249779,1.8472590472,-8.8833539025,3.2374889778,1146
106477,188833,249662,1.866401628,-8.8941216042,3.3475588174,1147
106758,188891,249711,1.866401628,-8.8941216042,3.3475588174,1148
107082,188883,249711,1.866401628,-8.8941216042,3.3475588174,1149
107401,188934,249774,1.866401628,-8.8941216042,3.3475588174,1150
107709,188969,249782,1.866401628,-8.8941216042,3.3475588174,1151
107999,188985,249826,1.866401628,-8.8941216042,3.3475588174,1152
108294,189037,249846,1.866401628,-8.8941216042,3.3475588174,1153
108576,189044,249905,1.866401628,-8.8941216042,3.3475588174,1154
108878,189097,249926,1.866401628,-8.8941216042,3.3475588174,1155
109176,189145,249936,1.866401628,-8.8941216042,3.3475588174,1156
109497,189189,249907,1.866401628,-8.8941216042,3.3475588174,1157
109779,189158,249927,1.866401628,-8.8941216042,3.3475588174,1158
110086,189242,249939,1.866401628,-8.8941216042,3.3475588174,1159
110375,189273,249997,1.866401628,-8.8941216042,3.3475588174,1160
110668,189305,249988,1.866401628,-8.8941216042,3.3475588174,1161
110949,189289,250055,1.866401628,-8.8941216042,3.3475588174,1162
111227,189368,250022,1.866401628,-8.8941216042,3.3475588174,1163
111482,189363,250025,1.866401628,-8.8941216042,3.3475588174,1164
111734,189396,250010,1.866401628,-8.8941216042,3.3475588174,1165
111757,189399,250021,1.866401628,-8.8941216042,3.3475588174,1166
111335,189300,249975,1.866401628,-8.8941216042,3.3475588174,1167
110579,189185,249929,1.866401628,-8.8941216042,3.3475588174,1168
109753,189098,249863,1.866401628,-8.8941216042,3.3475588174,1169
108960,189023,249780,1.866401628,-8.8941216042,3.3475588174,1170
108309,188944,249717,1.866401628,-8.8941216042,3.3475588174,1171
107773,188904,249680,1.866401628,-8.8941216042,3.3475588174,1172
107378,188865,249666,1.866401628,-8.8941216042,3.3475588174,1173
107213,188830,249685,1.866401628,-8.8941216042,3.3475588174,1174
107116,188849,249651,1.866401628,-8.8941216042,3.3475588174,1175
107010,188785,249646,1.866401628,-8.8941216042,3.3475588174,1176
106861,188773,249620,1.866401628,-8.8941216042,3.3475588174,1177
106698,188739,249593,1.866401628,-8.8941216042,3.3475588174,1178
106565,188721,249629,1.866401628,-8.8941216042,3.3475588174,1179
106540,188723,249605,1.866401628,-8.8941216042,3.3475588174,1180
106578,188706,249639,1.866401628,-8.8941216042,3.3475588174,1181
106688,188730,249646,1.866401628,-8.8941216042,3.3475588174,1182
106849,188765,249713,1.866401628,-8.8941216042,3.3475588174,1183
107110,188784,249678,1.866401628,-8.8941216042,3.3475588174,1184
107329,188758,249660,1.866401628,-8.8941216042,3.3475588174,1185
107579,188819,249707,1.866401628,-8.8941216042,3.3475588174,1186
107812,188860,249741,1.866401628,-8.8941216042,3.3475588174,1187
108041,188852,249756,1.866401628,-8.8941216042,3.3475588174,1188
108981,188959,249803,1.8544375149999999,-8.9934237421,3.1776684127999997,1189
109236,189031,249828,1.8544375149999999,-8.9934237421,3.1776684127999997,1190
109446,189045,249835,1.8544375149999999,-8.9934237421,3.1776684127999997,1191
109717,189032,249857,1.8544375149999999,-8.9934237421,3.1776684127999997,1192
109953,189105,249826,1.8544375149999999,-8.9934237421,3.1776684127999997,1193
110189,189092,249875,1.8544375149999999,-8.9934237421,3.1776684127999997,1194
110425,189141,249907,1.8544375149999999,-8.9934237421,3.1776684127999997,1195
110665,189186,249858,1.8544375149999999,-8.9934237421,3.1776684127999997,1196
110939,189203,249905,1.8544375149999999,-8.9934237421,3.1776684127999997,1197
111134,189210,249893,1.8544375149999999,-8.9934237421,3.1776684127999997,1198
111072,189205,249904,1.8544375149999999,-8.9934237421,3.1776684127999997,1199
110535,189090,249840,1.8544375149999999,-8.9934237421,3.1776684127999997,1200
109537,188947,249765,1.8544375149999999,-8.9934237421,3.1776684127999997,1201
108446,188861,249665,1.8544375149999999,-8.9934237421,3.1776684127999997,1202
107445,188809,249606,1.8544375149999999,-8.9934237421,3.1776684127999997,1203
106572,188727,249588,1.8544375149999999,-8.9934237421,3.1776684127999997,1204
105849,188648,249543,1.8544375149999999,-8.9934237421,3.1776684127999997,1205
105303,188622,249450,1.8544375149999999,-8.9934237421,3.1776684127999997,1206
105005,188589,249471,1.8544375149999999,-8.9934237421,3.1776684127999997,1207
104907,188589,249456,1.8293128776999998,-8.9276211206,3.2913274863,1208
104787,188533,249471,1.8293128776999998,-8.9276211206,3.2913274863,1209
104662,188537,249510,1.8293128776999998,-8.9276211206,3.2913274863,1210
104495,188520,249524,1.8293128776999998,-8.9276211206,3.2913274863,1211
104398,188517,249506,1.746760498,-8.939585233599999,3.2410782117,1212
104379,188498,249499,1.7730815466,-9.0233340246,3.0903303879,1213
104437,188530,249511,1.7802600144,-8.918049830200001,3.182454058,1214
104581,188522,249541,1.9058832009,-8.930013943199999,3.2207392196,1215
104826,188563,249547,1.6809578765,-8.9682991048,3.206382284,1216
105118,188473,249550,1.710868159,-8.9001036607,3.2757741394,1217
105395,188593,249560,1.8508482811000002,-8.918049830200001,3.3080772444999997,1218
105685,188663,249642,1.8113667082,-8.8785682573,3.1896325258,1219
105968,188674,249683,1.8281164664,-9.0233340246,3.2374889778,1220
106243,188704,249686,1.8352949342,-8.9635134596,3.2231320422,1221
106551,188735,249723,1.8735800958,-8.9192462415,3.2219356309,1222
106809,188736,249696,1.8735800958,-8.9192462415,3.2219356309,1223
107071,188812,249751,1.8735800958,-8.9192462415,3.2219356309,1224
107361,188863,249731,1.8735800958,-8.9192462415,3.2219356309,1225
107666,188860,249773,1.8735800958,-8.9192462415,3.2219356309,1226
107913,188906,249789,1.8735800958,-8.9192462415,3.2219356309,1227
108220,188933,249796,1.8735800958,-8.9192462415,3.2219356309,1228
108532,188942,249826,1.8735800958,-8.9192462415,3.2219356309,1229
108789,188985,249818,1.8735800958,-8.9192462415,3.2219356309,1230
109087,189039,249845,1.8735800958,-8.9192462415,3.2219356309,1231
109371,189050,249846,1.8735800958,-8.9192462415,3.2219356309,1232
109656,189064,249860,1.8735800958,-8.9192462415,3.2219356309,1233
109910,189089,249901,1.8735800958,-8.9192462415,3.2219356309,1234
110168,189118,249922,1.8735800958,-8.9192462415,3.2219356309,1235
110303,189136,249881,1.8735800958,-8.9192462415,3.2219356309,1236
109967,189037,249857,1.8735800958,-8.9192462415,3.2219356309,1237
109137,188975,249783,1.8735800958,-8.9192462415,3.2219356309,1238
108012,188849,249688,1.8735800958,-8.9192462415,3.2219356309,1239
106992,188747,249612,1.8735800958,-8.9192462415,3.2219356309,1240
106047,188655,249553,1.8735800958,-8.9192462415,3.2219356309,1241
105284,188617,249542,1.8735800958,-8.9192462415,3.2219356309,1242
104644,188528,249497,1.8735800958,-8.9192462415,3.2219356309,1243
104297,188503,249508,1.8735800958,-8.9192462415,3.2219356309,1244
104176,188504,249448,1.8735800958,-8.9192462415,3.2219356309,1245
104117,188489,249465,1.8735800958,-8.9192462415,3.2219356309,1246
104040,188489,249456,1.8735800958,-8.9192462415,3.2219356309,1247
103930,188473,249481,1.8735800958,-8.9192462415,3.2219356309,1248
103861,188459,249467,1.8735800958,-8.9192462415,3.2219356309,1249
103859,188444,249467,1.8735800958,-8.9192462415,3.2219356309,1250
103924,188451,249476,1.8735800958,-8.9192462415,3.2219356309,1251
104111,188491,249509,1.8735800958,-8.9192462415,3.2219356309,1252
104361,188514,249591,1.8735800958,-8.9192462415,3.2219356309,1253
104699,188547,249610,1.8735800958,-8.9192462415,3.2219356309,1254
105020,188598,249617,1.8735800958,-8.9192462415,3.2219356309,1255
105363,188616,249638,1.8735800958,-8.9192462415,3.2219356309,1256
105699,188626,249711,1.8735800958,-8.9192462415,3.2219356309,1257
106035,188685,249756,1.8735800958,-8.9192462415,3.2219356309,1258
106363,188747,249792,1.8735800958,-8.9192462415,3.2219356309,1259
106656,188752,249790,1.8735800958,-8.9192462415,3.2219356309,1260
106977,188807,249789,1.8735800958,-8.9192462415,3.2219356309,1261
107335,188843,249847,1.8735800958,-8.9192462415,3.2219356309,1262
107654,188905,249854,1.8735800958,-8.9192462415,3.2219356309,1263
109308,188982,249830,1.8939190879,-8.9001036607,3.1848468806000003,1264
109560,188993,249816,1.8939190879,-8.9001036607,3.1848468806000003,1265
109841,189055,249892,1.8939190879,-8.9001036607,3.1848468806000003,1266
110091,189059,249811,1.8939190879,-8.9001036607,3.1848468806000003,1267
110223,189047,249836,1.8939190879,-8.9001036607,3.1848468806000003,1268
109951,188981,249818,1.8939190879,-8.9001036607,3.1848468806000003,1269
109130,188876,249702,1.8939190879,-8.9001036607,3.1848468806000003,1270
107981,188778,249639,1.8939190879,-8.9001036607,3.1848468806000003,1271
106818,188658,249614,1.8939190879,-8.9001036607,3.1848468806000003,1272
105821,188593,249489,1.8939190879,-8.9001036607,3.1848468806000003,1273
104962,188504,249473,1.8939190879,-8.9001036607,3.1848468806000003,1274
104264,188460,249426,1.8939190879,-8.9001036607,3.1848468806000003,1275
103809,188409,249386,1.8939190879,-8.9001036607,3.1848468806000003,1276
103644,188428,249362,1.8939190879,-8.9001036607,3.1848468806000003,1277
103594,188411,249424,1.8939190879,-8.9001036607,3.1848468806000003,1278
103516,188369,249392,1.8939190879,-8.9001036607,3.1848468806000003,1279
103386,188378,249414,1.8939190879,-8.9001036607,3.1848468806000003,1280
103296,188350,249436,1.8939190879,-8.9001036607,3.1848468806000003,1281
103264,188375,249430,1.8939190879,-8.9001036607,3.1848468806000003,1282
103287,188327,249460,1.8939190879,-8.9001036607,3.1848468806000003,1283
103441,188370,249489,1.8939190879,-8.9001036607,3.1848468806000003,1284
103673,188411,249502,1.8939190879,-8.9001036607,3.1848468806000003,1285
103986,188424,249525,1.8939190879,-8.9001036607,3.1848468806000003,1286
104308,188496,249543,1.8939190879,-8.9001036607,3.1848468806000003,1287
104603,188519,249586,1.8939190879,-8.9001036607,3.1848468806000003,1288
104946,188522,249613,1.8939190879,-8.9001036607,3.1848468806000003,1289
105247,188567,249653,1.8939190879,-8.9001036607,3.1848468806000003,1290
105549,188623,249648,1.8939190879,-8.9001036607,3.1848468806000003,1291
105861,188641,249665,1.8939190879,-8.9001036607,3.1848468806000003,1292
106154,188659,249671,1.8939190879,-8.9001036607,3.1848468806000003,1293
106442,188679,249692,1.8939190879,-8.9001036607,3.1848468806000003,1294
106760,188716,249728,1.8939190879,-8.9001036607,3.1848468806000003,1295
107061,188755,249740,1.7335999736999999,-8.9120677737,3.1848468806000003,1296
107387,188817,249738,1.7335999736999999,-8.9120677737,3.1848468806000003,1297
107696,188846,249735,1.7335999736999999,-8.9120677737,3.1848468806000003,1298
108001,188867,249788,1.7335999736999999,-8.9120677737,3.1848468806000003,1299
108285,188892,249847,1.7335999736999999,-8.9120677737,3.1848468806000003,1300
108579,188893,249832,1.7335999736999999,-8.9120677737,3.1848468806000003,1301
108894,188988,249878,1.7335999736999999,-8.9120677737,3.1848468806000003,1302
109167,189017,249826,1.7335999736999999,-8.9120677737,3.1848468806000003,1303
109449,189028,249888,1.7335999736999999,-8.9120677737,3.1848468806000003,1304
109622,189052,249875,1.7335999736999999,-8.9120677737,3.1848468806000003,1305
109360,188974,249794,1.7335999736999999,-8.9120677737,3.1848468806000003,1306
108532,188883,249733,1.7335999736999999,-8.9120677737,3.1848468806000003,1307
107381,188755,249652,1.7335999736999999,-8.9120677737,3.1848468806000003,1308
106280,188658,249624,1.7335999736999999,-8.9120677737,3.1848468806000003,1309
105296,188523,249575,1.7335999736999999,-8.9120677737,3.1848468806000003,1310
104531,188501,249509,1.7335999736999999,-8.9120677737,3.1848468806000003,1311
103911,188424,249457,1.7335999736999999,-8.9120677737,3.1848468806000003,1312
103530,188413,249439,1.7335999736999999,-8.9120677737,3.1848468806000003,1313
103428,188402,249497,1.7335999736999999,-8.9120677737,3.1848468806000003,1314
103399,188403,249449,1.7335999736999999,-8.9120677737,3.1848468806000003,1315
103321,188384,249480,1.7335999736999999,-8.9120677737,3.1848468806000003,1316
103221,188400,249486,1.7335999736999999,-8.9120677737,3.1848468806000003,1317
103176,188376,249492,1.7335999736999999,-8.9120677737,3.1848468806000003,1318
103176,188372,249513,1.7335999736999999,-8.9120677737,3.1848468806000003,1319
103281,188412,249502,1.7335999736999999,-8.9120677737,3.1848468806000003,1320
103440,188396,249536,1.7335999736999999,-8.9120677737,3.1848468806000003,1321
103737,188454,249536,1.7335999736999999,-8.9120677737,3.1848468806000003,1322
104072,188504,249584,1.7335999736999999,-8.9120677737,3.1848468806000003,1323
104440,188510,249640,1.7335999736999999,-8.9120677737,3.1848468806000003,1324
104782,188564,249670,1.7335999736999999,-8.9120677737,3.1848468806000003,1325
105156,188590,249699,1.7335999736999999,-8.9120677737,3.1848468806000003,1326
105465,188636,249692,1.7335999736999999,-8.9120677737,3.1848468806000003,1327
105805,188708,249694,1.7335999736999999,-8.9120677737,3.1848468806000003,1328
106142,188667,249772,1.7335999736999999,-8.9120677737,3.1848468806000003,1329
106479,188760,249799,1.7335999736999999,-8.9120677737,3.1848468806000003,1330
106817,188724,249831,1.7335999736999999,-8.9120677737,3.1848468806000003,1331
107152,188809,249859,1.7335999736999999,-8.9120677737,3.1848468806000003,1332
107498,188821,249858,1.7335999736999999,-8.9120677737,3.1848468806000003,1333
107829,188867,249887,1.7335999736999999,-8.9120677737,3.1848468806000003,1334
108194,188921,249879,1.7335999736999999,-8.9120677737,3.1848468806000003,1335
108519,188940,249912,1.7335999736999999,-8.9120677737,3.1848468806000003,1336
108846,189012,249966,1.7335999736999999,-8.9120677737,3.1848468806000003,1337
104319,188330,249779,1.9573288867999998,-8.97308475,3.146561719,1338
104673,188340,249763,1.9573288867999998,-8.97308475,3.146561719,1339
104957,188375,249754,1.9573288867999998,-8.97308475,3.146561719,1340
105285,188417,249779,1.9573288867999998,-8.97308475,3.146561719,1341
105616,188460,249858,1.9573288867999998,-8.97308475,3.146561719,1342
105924,188513,249880,1.9573288867999998,-8.97308475,3.146561719,1343
106276,188578,249881,1.9573288867999998,-8.97308475,3.146561719,1344
106580,188584,249887,1.9573288867999998,-8.97308475,3.146561719,1345
106918,188631,249945,1.9573288867999998,-8.97308475,3.146561719,1346
107241,188650,249901,1.9573288867999998,-8.97308475,3.146561719,1347
107547,188666,249907,1.9573288867999998,-8.97308475,3.146561719,1348
107859,188708,249938,1.9573288867999998,-8.97308475,3.146561719,1349
108182,188750,249935,1.9573288867999998,-8.97308475,3.146561719,1350
108510,188800,249972,1.9573288867999998,-8.97308475,3.146561719,1351
108795,188810,249945,1.9573288867999998,-8.97308475,3.146561719,1352
108896,188792,250002,1.9573288867999998,-8.97308475,3.146561719,1353
108524,188692,249909,1.9573288867999998,-8.97308475,3.146561719,1354
107622,188614,249821,1.9573288867999998,-8.97308475,3.146561719,1355
106527,188497,249705,1.9573288867999998,-8.97308475,3.146561719,1356
105551,188420,249680,1.9573288867999998,-8.97308475,3.146561719,1357
104685,188318,249601,1.9573288867999998,-8.97308475,3.146561719,1358
103990,188274,249580,1.9573288867999998,-8.97308475,3.146561719,1359
103486,188198,249619,1.9573288867999998,-8.97308475,3.146561719,1360
103270,188191,249563,1.9573288867999998,-8.97308475,3.146561719,1361
103219,188187,249599,1.9573288867999998,-8.97308475,3.146561719,1362
103203,188190,249718,1.9573288867999998,-8.97308475,3.146561719,1363
103143,188188,249598,1.9573288867999998,-8.97308475,3.146561719,1364
103089,188184,249617,1.9573288867999998,-8.97308475,3.146561719,1365
103080,188160,249645,1.9573288867999998,-8.97308475,3.146561719,1366
103116,188185,249615,1.9573288867999998,-8.97308475,3.146561719,1367
103242,188216,249671,1.9573288867999998,-8.97308475,3.146561719,1368
103472,188201,249719,1.9573288867999998,-8.97308475,3.146561719,1369
103770,188247,249729,1.9573288867999998,-8.97308475,3.146561719,1370
104140,188269,249751,1.9573288867999998,-8.97308475,3.146561719,1371
104445,188319,249753,1.9573288867999998,-8.97308475,3.146561719,1372
104817,188360,249808,1.9573288867999998,-8.97308475,3.146561719,1373
105184,188396,249878,1.9573288867999998,-8.97308475,3.146561719,1374
105472,188397,249903,1.9573288867999998,-8.97308475,3.146561719,1375
105820,188453,249918,1.9573288867999998,-8.97308475,3.146561719,1376
106144,188516,249964,1.9573288867999998,-8.97308475,3.146561719,1377
106450,188538,249944,1.9573288867999998,-8.97308475,3.146561719,1378
106790,188552,250037,1.9573288867999998,-8.97308475,3.146561719,1379
105662,188460,249847,1.8759729184,-9.038887371500001,3.194418171,1380
105350,188459,249802,1.8759729184,-9.038887371500001,3.194418171,1381
105292,188469,249854,1.8759729184,-9.038887371500001,3.194418171,1382
105276,188455,249882,1.8759729184,-9.038887371500001,3.194418171,1383
105182,188435,249790,1.8759729184,-9.038887371500001,3.194418171,1384
105027,188407,249807,1.8759729184,-9.038887371500001,3.194418171,1385
104910,188405,249770,1.8759729184,-9.038887371500001,3.194418171,1386
104798,188354,249780,1.8759729184,-9.038887371500001,3.194418171,1387
104808,188390,249786,1.8759729184,-9.038887371500001,3.194418171,1388
104886,188369,249768,1.8759729184,-9.038887371500001,3.194418171,1389
105085,188383,249794,1.8759729184,-9.038887371500001,3.194418171,1390
105278,188409,249809,1.8759729184,-9.038887371500001,3.194418171,1391
105552,188451,249852,1.8759729184,-9.038887371500001,3.194418171,1392
105770,188445,249837,1.8759729184,-9.038887371500001,3.194418171,1393
106000,188461,249876,1.8759729184,-9.038887371500001,3.194418171,1394
106231,188502,249900,1.8759729184,-9.038887371500001,3.194418171,1395
106471,188563,249896,1.8759729184,-9.038887371500001,3.194418171,1396
106719,188621,249948,1.8759729184,-9.038887371500001,3.194418171,1397
106936,188592,249955,1.8759729184,-9.038887371500001,3.194418171,1398
107207,188620,249955,1.8759729184,-9.038887371500001,3.194418171,1399
107442,188633,249962,1.8759729184,-9.038887371500001,3.194418171,1400
107737,188683,249956,1.8759729184,-9.038887371500001,3.194418171,1401
107994,188741,249990,1.8759729184,-9.038887371500001,3.194418171,1402
108267,188777,249993,1.8759729184,-9.038887371500001,3.194418171,1403
108512,188804,250029,1.8759729184,-9.038887371500001,3.194418171,1404
108775,188821,250008,1.8759729184,-9.038887371500001,3.194418171,1405
109061,188863,250018,1.8759729184,-9.038887371500001,3.194418171,1406
109316,188890,250050,1.8759729184,-9.038887371500001,3.194418171,1407
109560,188897,250040,1.8759729184,-9.038887371500001,3.194418171,1408
109709,188945,250070,1.8759729184,-9.038887371500001,3.194418171,1409
109411,188920,250000,1.8759729184,-9.038887371500001,3.194418171,1410
108489,188785,249920,1.8759729184,-9.038887371500001,3.194418171,1411
107213,188673,249901,1.8759729184,-9.038887371500001,3.194418171,1412
106033,188529,249762,1.8759729184,-9.038887371500001,3.194418171,1413
104969,188474,249743,1.8759729184,-9.038887371500001,3.194418171,1414
104088,188421,249697,1.8759729184,-9.038887371500001,3.194418171,1415
103408,188362,249659,1.8759729184,-9.038887371500001,3.194418171,1416
102987,188312,249630,1.8759729184,-9.038887371500001,3.194418171,1417
102824,188356,249587,1.8759729184,-9.038887371500001,3.194418171,1418
102732,188294,249650,1.8759729184,-9.038887371500001,3.194418171,1419
102632,188317,249649,1.8759729184,-9.038887371500001,3.194418171,1420
102502,188282,249633,1.8759729184,-9.038887371500001,3.194418171,1421
106334,188865,250060,1.758724611,-9.0460658393,3.1489545415999998,1422
106611,188885,250060,1.758724611,-9.0460658393,3.1489545415999998,1423
106869,188900,250019,1.758724611,-9.0460658393,3.1489545415999998,1424
107133,188932,250057,1.758724611,-9.0460658393,3.1489545415999998,1425
107416,188965,250091,1.758724611,-9.0460658393,3.1489545415999998,1426
107675,188985,250073,1.758724611,-9.0460658393,3.1489545415999998,1427
107974,189025,250075,1.758724611,-9.0460658393,3.1489545415999998,1428
108244,189037,250128,1.758724611,-9.0460658393,3.1489545415999998,1429
108528,189085,250095,1.758724611,-9.0460658393,3.1489545415999998,1430
108798,189112,250165,1.758724611,-9.0460658393,3.1489545415999998,1431
109092,189110,250136,1.758724611,-9.0460658393,3.1489545415999998,1432
109329,189155,250156,1.758724611,-9.0460658393,3.1489545415999998,1433
109479,189185,250149,1.758724611,-9.0460658393,3.1489545415999998,1434
109167,189095,250096,1.758724611,-9.0460658393,3.1489545415999998,1435
108265,188994,250033,1.758724611,-9.0460658393,3.1489545415999998,1436
107147,188892,249979,1.758724611,-9.0460658393,3.1489545415999998,1437
106036,188850,249946,1.758724611,-9.0460658393,3.1489545415999998,1438
105104,188728,249854,1.758724611,-9.0460658393,3.1489545415999998,1439
104328,188654,249815,1.758724611,-9.0460658393,3.1489545415999998,1440
103737,188589,249769,1.758724611,-9.0460658393,3.1489545415999998,1441
103355,188567,249736,1.758724611,-9.0460658393,3.1489545415999998,1442
103225,188564,249762,1.758724611,-9.0460658393,3.1489545415999998,1443
103203,188523,249761,1.758724611,-9.0460658393,3.1489545415999998,1444
103169,188553,249736,1.758724611,-9.0460658393,3.1489545415999998,1445
103099,188505,249762,1.758724611,-9.0460658393,3.1489545415999998,1446
103003,188508,249797,1.758724611,-9.0460658393,3.1489545415999998,1447
103011,188479,249808,1.758724611,-9.0460658393,3.1489545415999998,1448
103124,188517,249784,1.758724611,-9.0460658393,3.1489545415999998,1449
103297,188557,249781,1.758724611,-9.0460658393,3.1489545415999998,1450
103562,188566,249895,1.758724611,-9.0460658393,3.1489545415999998,1451
103857,188625,249901,1.758724611,-9.0460658393,3.1489545415999998,1452
104173,188640,249904,1.758724611,-9.0460658393,3.1489545415999998,1453
104541,188671,249940,1.758724611,-9.0460658393,3.1489545415999998,1454
104836,188699,249961,1.758724611,-9.0460658393,3.1489545415999998,1455
105190,188758,249988,1.758724611,-9.0460658393,3.1489545415999998,1456
105488,188760,249971,1.758724611,-9.0460658393,3.1489545415999998,1457
105789,188802,249994,1.758724611,-9.0460658393,3.1489545415999998,1458
106090,188848,250036,1.758724611,-9.0460658393,3.1489545415999998,1459
106426,188881,250036,1.758724611,-9.0460658393,3.1489545415999998,1460
106708,188921,250101,1.758724611,-9.0460658393,3.1489545415999998,1461
107046,188942,250112,1.758724611,-9.0460658393,3.1489545415999998,1462
107378,188962,250089,1.758724611,-9.0460658393,3.1489545415999998,1463
104211,188604,249977,1.8472590472,-8.8785682573,3.2039894614,1464
104579,188624,250023,1.8472590472,-8.8785682573,3.2039894614,1465
104954,188643,250059,1.8472590472,-8.8785682573,3.2039894614,1466
105305,188740,250076,1.8472590472,-8.8785682573,3.2039894614,1467
105670,188759,250103,1.8472590472,-8.8785682573,3.2039894614,1468
106041,188841,250139,1.8472590472,-8.8785682573,3.2039894614,1469
106378,188868,250181,1.8472590472,-8.8785682573,3.2039894614,1470
106704,188910,250203,1.8472590472,-8.8785682573,3.2039894614,1471
107081,188926,250198,1.8472590472,-8.8785682573,3.2039894614,1472
107398,188977,250243,1.8472590472,-8.8785682573,3.2039894614,1473
107744,189008,250175,1.8472590472,-8.8785682573,3.2039894614,1474
108082,189034,250264,1.8472590472,-8.8785682573,3.2039894614,1475
108409,189082,250237,1.8472590472,-8.8785682573,3.2039894614,1476
108747,189099,250319,1.8472590472,-8.8785682573,3.2039894614,1477
109064,189136,250328,1.8472590472,-8.8785682573,3.2039894614,1478
109403,189210,250343,1.8472590472,-8.8785682573,3.2039894614,1479
109661,189203,250351,1.8472590472,-8.8785682573,3.2039894614,1480
109620,189167,250303,1.8472590472,-8.8785682573,3.2039894614,1481
109064,189078,250248,1.8472590472,-8.8785682573,3.2039894614,1482
108207,188991,250194,1.8472590472,-8.8785682573,3.2039894614,1483
107324,188902,250104,1.8472590472,-8.8785682573,3.2039894614,1484
106555,188808,250008,1.8472590472,-8.8785682573,3.2039894614,1485
105925,188737,250082,1.8472590472,-8.8785682573,3.2039894614,1486
105409,188694,249974,1.8472590472,-8.8785682573,3.2039894614,1487
105090,188663,249998,1.8472590472,-8.8785682573,3.2039894614,1488
104992,188652,249936,1.8472590472,-8.8785682573,3.2039894614,1489
104940,188624,249961,1.8472590472,-8.8785682573,3.2039894614,1490
104794,188577,249934,1.8472590472,-8.8785682573,3.2039894614,1491
104592,188585,249913,1.8472590472,-8.8785682573,3.2039894614,1492
104470,188533,249896,1.8472590472,-8.8785682573,3.2039894614,1493
104388,188531,249897,1.8472590472,-8.8785682573,3.2039894614,1494
104371,188516,249901,1.8472590472,-8.8785682573,3.2039894614,1495
104444,188532,249954,1.8472590472,-8.8785682573,3.2039894614,1496
104630,188596,249912,1.8472590472,-8.8785682573,3.2039894614,1497
104826,188590,249905,1.8472590472,-8.8785682573,3.2039894614,1498
105070,188598,249957,1.8472590472,-8.8785682573,3.2039894614,1499
105325,188611,249984,1.8472590472,-8.8785682573,3.2039894614,1500
105572,188670,250021,1.8472590472,-8.8785682573,3.2039894614,1501
105812,188644,249980,1.8472590472,-8.8785682573,3.2039894614,1502
106054,188695,250043,1.8472590472,-8.8785682573,3.2039894614,1503
106318,188733,250070,1.8472590472,-8.8785682573,3.2039894614,1504
106561,188746,250060,1.8472590472,-8.8785682573,3.2039894614,1505
107622,188843,250104,2.8618158296000002,-8.0004023631,4.9244289108,1506
107860,188894,250134,2.8618158296000002,-8.0004023631,4.9244289108,1507
107834,188884,250080,2.8618158296000002,-8.0004023631,4.9244289108,1508
107244,188751,250020,2.8618158296000002,-8.0004023631,4.9244289108,1509
106110,188633,249952,2.8618158296000002,-8.0004023631,4.9244289108,1510
104926,188551,249853,2.8618158296000002,-8.0004023631,4.9244289108,1511
103918,188445,249809,2.8618158296000002,-8.0004023631,4.9244289108,1512
103038,188355,249807,2.8618158296000002,-8.0004023631,4.9244289108,1513
102374,188297,249750,2.8618158296000002,-8.0004023631,4.9244289108,1514
101956,188270,249727,2.8618158296000002,-8.0004023631,4.9244289108,1515
101878,188248,249721,2.8618158296000002,-8.0004023631,4.9244289108,1516
102031,188240,249744,2.8618158296000002,-8.0004023631,4.9244289108,1517
102266,188255,249767,2.8618158296000002,-8.0004023631,4.9244289108,1518
102518,188259,249758,2.8618158296000002,-8.0004023631,4.9244289108,1519
102733,188258,249648,2.8618158296000002,-8.0004023631,4.9244289108,1520
103034,188252,249566,2.8618158296000002,-8.0004023631,4.9244289108,1521
103416,188298,249583,2.8618158296000002,-8.0004023631,4.9244289108,1522
103896,188351,249634,2.8618158296000002,-8.0004023631,4.9244289108,1523
104355,188436,249684,2.8618158296000002,-8.0004023631,4.9244289108,1524
104759,188509,249751,2.8618158296000002,-8.0004023631,4.9244289108,1525
105114,188534,249743,2.8618158296000002,-8.0004023631,4.9244289108,1526
105439,188567,249850,2.8618158296000002,-8.0004023631,4.9244289108,1527
105750,188614,249879,2.8618158296000002,-8.0004023631,4.9244289108,1528
106022,188623,249894,2.8618158296000002,-8.0004023631,4.9244289108,1529
106317,188607,249935,2.8618158296000002,-8.0004023631,4.9244289108,1530
106527,188596,249954,2.8618158296000002,-8.0004023631,4.9244289108,1531
106757,188624,249911,2.8618158296000002,-8.0004023631,4.9244289108,1532
107024,188622,249908,2.8618158296000002,-8.0004023631,4.9244289108,1533
107270,188638,249909,2.8618158296000002,-8.0004023631,4.9244289108,1534
107255,188606,249815,2.8618158296000002,-8.0004023631,4.9244289108,1535
106663,188451,249757,2.8618158296000002,-8.0004023631,4.9244289108,1536
105563,188302,249655,2.8618158296000002,-8.0004023631,4.9244289108,1537
104343,188161,249532,2.8618158296000002,-8.0004023631,4.9244289108,1538
103270,188000,249452,2.8618158296000002,-8.0004023631,4.9244289108,1539
102414,187833,249308,2.8618158296000002,-8.0004023631,4.9244289108,1540
