green,red,IR,acc_x,acc_y,acc_z,sample_index
104620,184316,227433,-3.0652057506,7.381857721,5.74277424,1
104780,184391,227506,-3.1058837348,7.4380890521,5.7020962558,2
105083,184369,227532,-3.0771698636,7.4512495764,5.6865429089,3
105466,184413,227535,-3.0065815969000003,7.4392854634,5.8576297248,4
105700,184468,227543,-3.1058837348,7.335197680299999,5.8193445632000005,5
106018,184500,227608,-3.1154550251999997,7.4344998182,5.7523455304,6
106362,184547,227576,-3.0963124444,7.4967132058,5.8540404909,7
106715,184592,227599,-3.1010980895999998,7.3962146566,5.8073804502,8
107106,184614,227647,-3.0041887742999998,7.5062844962,5.7690952886,9
107404,184684,227678,-2.9766713144,7.4105715922,5.873183071700001,10
107758,184722,227754,-3.0329026454999997,7.4811598589,5.8540404909,11
108070,184762,227787,-3.1250263156,7.3435725594,5.856433313499999,12
108292,184827,227760,-2.9838497821999996,7.453642399,5.8337014988,13
107877,184791,227809,-2.9587251449000003,7.4811598589,5.7595239982,14
106877,184716,227797,-2.9898318387,7.4871419154,5.7978091598,15
105851,184602,227689,-2.9132615155,7.505088084900001,5.8396835553,16
104953,184469,227589,-3.0185457098999997,7.332804857699999,5.7678988773,17
104402,184360,227546,-3.0412775246,7.4967132058,5.735595772199999,18
104252,184318,227513,-3.0879375653000003,7.365107962800001,5.874379483,19
104442,184289,227487,-2.9635107901000004,7.5086773188,5.8002019824,20
104518,184311,227464,-3.0520452262999997,7.5385876013,5.7882378694,21
104804,184351,227457,-3.0448667585,7.5026952623000005,5.778666579,22
105046,184409,227506,-3.0891339766000003,7.403393124400001,5.7834522241999995,23
105165,184403,227530,-3.0460631697999996,7.4715885685,5.8707902491,24
105451,184412,227557,-3.0101708308,7.460820866800001,5.7403814174,25
105720,184462,227555,-3.0101708308,7.4763742137,5.8002019824,26
106084,184509,227558,-3.1692935337,7.4715885685,5.7810594016,27
106523,184578,227611,-2.8845476443,7.4261249391,5.778666579,28
106763,184647,227617,-3.0807590974999997,7.4524459877,5.8217373858000006,29
107046,184645,227648,-2.9718856692,7.3890361888,5.8803615395,30
107579,184676,227708,-3.0305098229,7.5242306657,5.7882378694,31
107710,184716,227737,-2.9575287336000002,7.3435725594,5.818148151899999,32
108082,184787,227776,-3.0137600647,7.4488567538,5.8492548457,33
108267,184817,227791,-3.0173492985999997,7.357929495,5.8205409745,34
108636,184860,227856,-3.014956476,7.4703921572,5.7571311756,35
109101,184944,227884,-3.0759734523,7.2849484057,5.8971112976999995,36
109239,184983,227892,-3.0340990568,7.429714173,5.7463634739,37
109675,185063,227899,-3.1357940173,7.5409804239,5.74277424,38
109728,185050,227997,-2.9276184511,7.3746792532,5.732006538299999,39
110118,185133,228004,-3.0951160330999996,7.453642399,5.8217373858000006,40
110317,185136,228023,-2.9898318387,7.3304120351,5.8408799666,41
110541,185172,228024,-3.0903303879,7.525427077,5.778666579,42
110935,185220,228068,-2.9874390161,7.472784979799999,5.826523031,43
111115,185309,228105,-2.9647072014,7.4632136894,5.7439706513,44
111375,185372,228146,-3.0317062341999996,7.4428746973,5.8468620231,45
111612,185391,228152,-2.9922246613000003,7.365107962800001,5.761916820800001,46
111750,185386,228214,-3.0340990568,7.4404818747,5.7858450468,47
111560,185453,228216,-2.9778677257000004,7.4584280442,5.8049876276,48
110889,185346,228206,-3.098705267,7.3268228012,5.8073804502,49
109967,185317,228172,-3.0329026454999997,7.3866433661999995,5.8923256525,50
108618,185192,228098,-2.9252256285000002,7.446463931199999,5.9449677497,51
107742,185150,228022,-2.9802605483,7.3962146566,5.8169517405999995,52
107314,184999,227931,-2.9718856692,7.4847490928,5.7882378694,53
106907,184970,227914,-3.0699913958000002,7.4428746973,5.843272789199999,54
107010,184989,227808,-3.0029923629999997,7.3758756645,5.7631132321,55
106959,184913,227854,-3.1118657913,7.5134629639999995,5.7954163372,56
106977,184916,227833,-2.9982067177999996,7.4524459877,5.8253266197,57
107043,184965,227837,-3.0747770410000004,7.4847490928,5.8073804502,58
106884,184947,227817,-2.99102825,7.4392854634,5.8480584344,59
107019,184982,227860,-3.0819555088,7.444071108599999,5.7810594016,60
107078,184915,227843,-3.0412775246,7.405785946999999,5.7858450468,61
107249,184959,227831,-2.8725835312999997,7.4392854634,5.8540404909,62
107328,184965,227862,-2.9802605483,7.405785946999999,5.7882378694,63
107608,184995,227854,-3.1657042998000002,7.5062844962,5.7188460139999995,64
107793,185013,227874,-3.0532416376,7.4249285278,5.8420763779,65
107890,185040,227910,-2.9958138952,7.4392854634,5.7954163372,66
108242,185084,227896,-3.0604201053999995,7.4010003018,5.8408799666,67
108286,185110,227930,-2.9527430884,7.489534738000001,5.8612189587,68
108613,185148,227942,-2.9874390161,7.555337359499999,5.8552369022,69
108742,185170,227986,-2.979064137,7.4237321165,5.7212388366,70
109056,185210,227991,-3.0340990568,7.3603223176,5.8791651282,71
109205,185139,228015,-2.9694928465999997,7.5122665527,5.8672010152,72
109296,185272,228039,-2.9754749031,7.5194450205,5.8133625067,73
108764,185236,228004,-3.0113672421,7.5158557866,5.8097732728,74
107977,185167,228013,-2.9742784918,7.4584280442,5.776273756399999,75
107094,185088,227948,-2.8881368781999996,7.501498850999999,5.812166095399999,76
106205,185020,227876,-3.0675985732,7.4392854634,5.843272789199999,77
105535,184945,227810,-3.0029923629999997,7.3507510272,5.8073804502,78
105227,184905,227823,-3.0317062341999996,7.381857721,5.9162538785,79
105214,184844,227716,-3.0412775246,7.4703921572,5.6997034332,80
105334,184862,227763,-3.0484559924,7.488338326699999,5.8480584344,81
105509,184891,227721,-3.1669007111,7.4548388103,5.827719442299999,82
105523,184857,227730,-2.9694928465999997,7.5601230047,5.7631132321,83
105657,184872,227710,-3.0029923629999997,7.459624455499999,5.7690952886,84
105668,184856,227710,-3.0245277664,7.446463931199999,5.812166095399999,85
105740,184885,227760,-3.0891339766000003,7.4165536487,5.7690952886,86
105957,184866,227765,-3.0699913958000002,7.465606512,5.7332029496,87
106256,184951,227792,-2.9850461935,7.2873412283,5.7810594016,88
106504,184974,227787,-3.1417760738,7.4249285278,5.8169517405999995,89
106797,184927,227820,-2.9958138952,7.4129644148,5.773880933799999,90
106587,185009,227839,-2.9802605483,7.4835526815,5.8301122648999995,91
106065,184963,227820,-3.1573294206999996,7.4129644148,5.790630692000001,92
105288,184864,227722,-2.9515466771,7.4691957459,5.754738353,93
104347,184766,227697,-3.098705267,7.4691957459,5.9066825881,94
103795,184660,227632,-3.0723842184,7.3746792532,5.745167062599999,95
103495,184597,227563,-3.0819555088,7.4368926408,5.812166095399999,96
103519,184600,227511,-2.9874390161,7.444071108599999,5.8348979101000005,97
103611,184582,227573,-2.9347969189,7.543373246500001,5.7643096434,98
103952,184613,227550,-2.9635107901000004,7.485945504099999,5.8097732728,99
104077,184607,227544,-3.0508488149999997,7.4165536487,5.7810594016,100
104301,184586,227611,-3.0544380489000003,7.357929495,5.8193445632000005,101
104506,184630,227619,-2.9527430884,7.4045895357,5.826523031,102
104575,184654,227606,-3.0556344602,7.3591259063,5.773880933799999,103
104903,184677,227629,-3.0089744195,7.3531438498,5.747559885199999,104
105329,184713,227655,-3.0508488149999997,7.3866433661999995,5.8193445632000005,105
105567,184735,227699,-3.1429724850999996,7.4177500599999995,5.8217373858000006,106
105803,184767,227672,-3.1322047834,7.505088084900001,5.8169517405999995,107
106049,184783,227677,-2.9479574432,7.4201428826,5.826523031,108
105519,184743,227691,-3.0532416376,7.3627151402,5.7702916999,109
104736,184684,227689,-3.0759734523,7.3830541323,5.86241537,110
103919,184559,227623,-3.0017959517,7.4249285278,5.8348979101000005,111
103284,184517,227545,-3.0317062341999996,7.3842505436,5.9186467011,112
102916,184450,227459,-2.9958138952,7.430910584299999,5.826523031,113
103071,184388,227417,-3.0999016782999997,7.3675007854,5.8456656118,114
103255,184419,227412,-2.9802605483,7.477570625,5.826523031,115
103539,184412,227447,-3.1010980895999998,7.3722864306,5.8408799666,116
103860,184447,227466,-3.0400811133000003,7.3842505436,5.8827543621,117
104015,184457,227445,-3.0293134116,7.472784979799999,5.8013983936999995,118
104295,184454,227467,-3.158525832,7.485945504099999,5.8576297248,119
104622,184495,227481,-2.9539394997,7.477570625,5.8683974265,120
104901,184543,227482,-2.9635107901000004,7.4201428826,5.826523031,121
105125,184509,227508,-3.014956476,7.5290163108999995,5.888736418600001,122
105511,184589,227587,-3.1274191382,7.505088084900001,5.7810594016,123
106039,184632,227596,-3.0747770410000004,7.4787670363,5.856433313499999,124
106292,184684,227604,-3.0699913958000002,7.3734828419,5.748756296500001,125
106606,184711,227652,-2.9611179675,7.390232600099999,5.8468620231,126
106967,184753,227702,-3.0245277664,7.4177500599999995,5.8767723056,127
107229,184789,227699,-3.0652057506,7.465606512,5.7882378694,128
107565,184842,227762,-3.1250263156,7.393821834000001,5.7954163372,129
107957,184887,227776,-2.8546373618,7.4644101007,5.844469200500001,130
108304,184943,227806,-2.9898318387,7.3746792532,5.812166095399999,131
108557,184962,227822,-3.0412775246,7.3220371559999995,5.7343993608999995,132
108804,185007,227898,-2.9527430884,7.5158557866,5.745167062599999,133
108880,185028,227847,-3.0687949845,7.485945504099999,5.7858450468,134
108194,184982,227860,-2.99102825,7.348358204599999,5.8205409745,135
107156,184930,227831,-2.9419753867,7.4010003018,5.8468620231,136
106185,184767,227761,-2.8773691765,7.4249285278,5.8049876276,137
105378,184709,227623,-3.1417760738,7.4668029232999995,5.754738353,138
104893,184589,227581,-2.9371897415,7.393821834000001,5.8073804502,139
104792,184514,227536,-3.0544380489000003,7.5768727629,5.8408799666,140
104891,184509,227541,-2.967100024,7.444071108599999,5.8109696841,141
105088,184519,227501,-3.0113672421,7.457231632899999,5.7834522241999995,142
105210,184552,227503,-2.9694928465999997,7.403393124400001,5.826523031,143
105410,184517,227546,-3.0532416376,7.5744799403,5.7858450468,144
105410,184539,227556,-2.9898318387,7.361518728899999,5.8755758943,145
105608,184557,227545,-2.9623143788,7.4213392939,5.9162538785,146
105850,184578,227574,-2.979064137,7.4512495764,5.8683974265,147
106211,184614,227560,-3.0699913958000002,7.4249285278,5.8396835553,148
106627,184654,227596,-3.0233313551,7.3507510272,5.8875400073,149
106782,184667,227649,-3.0711878071,7.447660342499999,5.8301122648999995,150
107176,184621,227676,-3.0747770410000004,7.361518728899999,5.773880933799999,151
107410,184758,227712,-2.9515466771,7.6055866341,5.838487144,152
107888,184827,227779,-2.9539394997,7.2897340509,5.7978091598,153
108106,184797,227759,-3.1250263156,7.334001269,5.8301122648999995,154
108231,184896,227786,-3.0939196218,7.4010003018,5.7212388366,155
108113,184866,227794,-3.0305098229,7.4512495764,5.8073804502,156
107503,184806,227746,-3.0185457098999997,7.399803890499999,5.838487144,157
106461,184728,227727,-3.0891339766000003,7.429714173,5.8097732728,158
105688,184586,227646,-3.0101708308,7.405785946999999,5.8289158536,159
105163,184440,227561,-2.9730820805000002,7.336394091599999,5.6913285541,160
104854,184499,227503,-3.0065815969000003,7.381857721,5.802594804999999,161
104996,184390,227479,-2.9108686929000003,7.5290163108999995,5.778666579,162
105207,184419,227482,-3.062812928,7.472784979799999,5.7499527078,163
105311,184419,227540,-3.1010980895999998,7.3292156238,5.831308676200001,164
105633,184490,227528,-2.9479574432,7.4524459877,5.843272789199999,165
105777,184465,227521,-3.1226334930000004,7.4404818747,5.8360943214,166
106000,184460,227551,-3.0652057506,7.4715885685,5.7954163372,167
106294,184504,227552,-3.0652057506,7.505088084900001,5.7942199259,168
106604,184541,227560,-3.1190442591,7.334001269,5.86241537,169
106860,184594,227638,-2.9359933301999996,7.335197680299999,5.761916820800001,170
107281,184612,227627,-2.8929225234,7.5625158273,5.8923256525,171
107592,184607,227656,-2.9898318387,7.3842505436,5.9090754107,172
107675,184714,227654,-3.0376882907,7.4703921572,5.818148151899999,173
107486,184701,227702,-2.979064137,7.3675007854,5.7858450468,174
106859,184617,227707,-3.0077780082,7.460820866800001,5.8827543621,175
105984,184495,227629,-3.098705267,7.429714173,5.838487144,176
105325,184410,227553,-3.0640093393,7.5218378431,5.826523031,177
104906,184360,227439,-3.0640093393,7.5218378431,5.826523031,178
104831,184302,227449,-3.0640093393,7.5218378431,5.826523031,179
105057,184288,227433,-3.0640093393,7.5218378431,5.826523031,180
105368,184314,227461,-3.0640093393,7.5218378431,5.826523031,181
105629,184380,227466,-3.0640093393,7.5218378431,5.826523031,182
105856,184357,227494,-3.0640093393,7.5218378431,5.826523031,183
106013,184380,227501,-3.0640093393,7.5218378431,5.826523031,184
106258,184424,227486,-3.0640093393,7.5218378431,5.826523031,185
106545,184461,227528,-3.0640093393,7.5218378431,5.826523031,186
106846,184503,227569,-3.0640093393,7.5218378431,5.826523031,187
107154,184502,227538,-3.0640093393,7.5218378431,5.826523031,188
107505,184556,227634,-3.0640093393,7.5218378431,5.826523031,189
107804,184619,227667,-3.0640093393,7.5218378431,5.826523031,190
108124,184683,227658,-3.0640093393,7.5218378431,5.826523031,191
108448,184698,227716,-3.0640093393,7.5218378431,5.826523031,192
108739,184749,227738,-3.0640093393,7.5218378431,5.826523031,193
109001,184767,227791,-3.0640093393,7.5218378431,5.826523031,194
109009,184820,227799,-3.0640093393,7.5218378431,5.826523031,195
108388,184737,227731,-3.0640093393,7.5218378431,5.826523031,196
107426,184668,227742,-3.0640093393,7.5218378431,5.826523031,197
106510,184555,227655,-3.0640093393,7.5218378431,5.826523031,198
105834,184435,227573,-3.0640093393,7.5218378431,5.826523031,199
105413,184366,227511,-3.0640093393,7.5218378431,5.826523031,200
105398,184351,227494,-3.0640093393,7.5218378431,5.826523031,201
105531,184357,227454,-3.0640093393,7.5218378431,5.826523031,202
105733,184371,227463,-3.0640093393,7.5218378431,5.826523031,203
105906,184385,227514,-3.0640093393,7.5218378431,5.826523031,204
106053,184386,227476,-3.0640093393,7.5218378431,5.826523031,205
106199,184425,227465,-3.0640093393,7.5218378431,5.826523031,206
106385,184451,227536,-3.0640093393,7.5218378431,5.826523031,207
106725,184471,227553,-2.8689942974,7.3316084464,5.9186467011,208
107029,184510,227569,-2.8689942974,7.3316084464,5.9186467011,209
107205,184521,227610,-2.8689942974,7.3316084464,5.9186467011,210
107237,184546,227585,-2.8689942974,7.3316084464,5.9186467011,211
106826,184510,227579,-2.8689942974,7.3316084464,5.9186467011,212
106020,184430,227557,-2.8689942974,7.3316084464,5.9186467011,213
105215,184326,227478,-2.8689942974,7.3316084464,5.9186467011,214
104630,184258,227415,-2.8689942974,7.3316084464,5.9186467011,215
104350,184150,227357,-2.8689942974,7.3316084464,5.9186467011,216
104448,184162,227318,-2.8689942974,7.3316084464,5.9186467011,217
104762,184215,227381,-2.8689942974,7.3316084464,5.9186467011,218
105070,184204,227388,-2.8689942974,7.3316084464,5.9186467011,219
105313,184224,227416,-2.8689942974,7.3316084464,5.9186467011,220
105513,184219,227420,-2.8689942974,7.3316084464,5.9186467011,221
105741,184279,227408,-2.8689942974,7.3316084464,5.9186467011,222
106016,184290,227440,-2.8689942974,7.3316084464,5.9186467011,223
106280,184352,227465,-2.8689942974,7.3316084464,5.9186467011,224
106548,184351,227493,-2.8689942974,7.3316084464,5.9186467011,225
106427,184349,227521,-2.8689942974,7.3316084464,5.9186467011,226
105782,184319,227466,-2.8689942974,7.3316084464,5.9186467011,227
104895,184185,227373,-2.8689942974,7.3316084464,5.9186467011,228
104138,184086,227340,-2.8689942974,7.3316084464,5.9186467011,229
103728,184002,227246,-2.8689942974,7.3316084464,5.9186467011,230
103651,183945,227248,-2.8689942974,7.3316084464,5.9186467011,231
103909,183976,227256,-2.8689942974,7.3316084464,5.9186467011,232
104275,184014,227256,-2.8689942974,7.3316084464,5.9186467011,233
104590,184044,227256,-2.8689942974,7.3316084464,5.9186467011,234
104842,184063,227286,-2.8689942974,7.3316084464,5.9186467011,235
105081,184082,227325,-2.8689942974,7.3316084464,5.9186467011,236
105375,184103,227299,-2.8689942974,7.3316084464,5.9186467011,237
105706,184157,227348,-2.8689942974,7.3316084464,5.9186467011,238
106084,184225,227385,-2.8689942974,7.3316084464,5.9186467011,239
106515,184238,227411,-3.0735806297,7.377072075799999,5.831308676200001,240
106714,184311,227470,-3.0735806297,7.377072075799999,5.831308676200001,241
107094,184336,227536,-3.0735806297,7.377072075799999,5.831308676200001,242
107519,184398,227504,-3.0735806297,7.377072075799999,5.831308676200001,243
107865,184472,227547,-3.0735806297,7.377072075799999,5.831308676200001,244
108199,184508,227573,-3.0735806297,7.377072075799999,5.831308676200001,245
108524,184553,227653,-3.0735806297,7.377072075799999,5.831308676200001,246
108612,184548,227614,-3.0735806297,7.377072075799999,5.831308676200001,247
108110,184538,227617,-3.0735806297,7.377072075799999,5.831308676200001,248
107038,184434,227584,-3.0735806297,7.377072075799999,5.831308676200001,249
105964,184278,227458,-3.0735806297,7.377072075799999,5.831308676200001,250
105131,184159,227379,-3.0735806297,7.377072075799999,5.831308676200001,251
104598,184079,227343,-3.0735806297,7.377072075799999,5.831308676200001,252
104430,184027,227262,-3.0735806297,7.377072075799999,5.831308676200001,253
104621,184073,227305,-3.0735806297,7.377072075799999,5.831308676200001,254
104847,184046,227285,-3.0735806297,7.377072075799999,5.831308676200001,255
105066,184103,227287,-3.0735806297,7.377072075799999,5.831308676200001,256
105213,184106,227323,-3.0735806297,7.377072075799999,5.831308676200001,257
105397,184119,227340,-3.0735806297,7.377072075799999,5.831308676200001,258
105613,184147,227307,-3.0735806297,7.377072075799999,5.831308676200001,259
105881,184159,227368,-3.0735806297,7.377072075799999,5.831308676200001,260
106199,184212,227381,-3.0735806297,7.377072075799999,5.831308676200001,261
106508,184283,227426,-3.0735806297,7.377072075799999,5.831308676200001,262
106854,184349,227424,-3.0735806297,7.377072075799999,5.831308676200001,263
107157,184335,227443,-3.0735806297,7.377072075799999,5.831308676200001,264
107483,184406,227516,-3.0735806297,7.377072075799999,5.831308676200001,265
107778,184437,227564,-2.8797619991,7.4081787696,5.8612189587,266
108071,184480,227626,-2.8797619991,7.4081787696,5.8612189587,267
108403,184547,227596,-2.9443682093000003,7.459624455499999,5.8480584344,268
108447,184527,227599,-2.9240292172,7.4799634476,5.7140603688,269
108036,184547,227595,-3.062812928,7.441678286,5.8253266197,270
107196,184458,227563,-3.0305098229,7.5361947787,5.8612189587,271
106282,184352,227517,-3.0460631697999996,7.453642399,5.826523031,272
105416,184249,227390,-2.9647072014,7.477570625,5.8504512570000005,273
104749,184124,227350,-3.1190442591,7.4010003018,5.778666579,274
104766,184110,227329,-3.0376882907,7.432106995600001,5.773880933799999,275
104774,184123,227333,-3.0233313551,7.4225357052000005,5.8695938378,276
104985,184136,227311,-3.0233313551,7.4225357052000005,5.8695938378,277
105101,184126,227351,-3.0233313551,7.4225357052000005,5.8695938378,278
105279,184158,227353,-3.0233313551,7.4225357052000005,5.8695938378,279
105413,184194,227336,-3.0233313551,7.4225357052000005,5.8695938378,280
105579,184209,227346,-3.0233313551,7.4225357052000005,5.8695938378,281
105834,184249,227429,-3.0233313551,7.4225357052000005,5.8695938378,282
106080,184264,227415,-3.0233313551,7.4225357052000005,5.8695938378,283
106377,184315,227468,-3.0233313551,7.4225357052000005,5.8695938378,284
106644,184353,227484,-3.014956476,7.5673014725,5.7008998445,285
107010,184444,227494,-2.9635107901000004,7.5182486092000005,5.7978091598,286
107271,184475,227551,-3.0412775246,7.4105715922,5.8672010152,287
107579,184524,227571,-3.0412775246,7.4105715922,5.8672010152,288
107873,184546,227605,-3.0412775246,7.4105715922,5.8672010152,289
108129,184563,227677,-3.0412775246,7.4105715922,5.8672010152,290
108451,184634,227715,-3.0412775246,7.4105715922,5.8672010152,291
108665,184714,227721,-3.0412775246,7.4105715922,5.8672010152,292
108541,184700,227759,-3.0412775246,7.4105715922,5.8672010152,293
107762,184613,227682,-3.0412775246,7.4105715922,5.8672010152,294
106606,184520,227649,-3.0412775246,7.4105715922,5.8672010152,295
105574,184389,227588,-3.0412775246,7.4105715922,5.8672010152,296
104794,184272,227474,-3.0412775246,7.4105715922,5.8672010152,297
104289,184194,227405,-2.9946174839,7.3962146566,5.8827543621,298
104236,184129,227386,-3.0699913958000002,7.4213392939,5.8827543621,299
104350,184179,227371,-2.9347969189,7.4787670363,5.766702466,300
104496,184182,227350,-3.014956476,7.3914290114000005,5.8169517405999995,301
104826,184114,227401,-3.1034909122000003,7.488338326699999,5.8289158536,302
104809,184199,227394,-3.0245277664,7.3890361888,5.838487144,303
105035,184268,227413,-3.1262227269,7.432106995600001,5.8528440796,304
105171,184256,227378,-2.9862426048,7.441678286,5.8097732728,305
105375,184271,227437,-3.0089744195,7.5194450205,5.812166095399999,306
105757,184360,227458,-3.0759734523,7.304090986499999,5.9054861768,307
106048,184317,227468,-3.0891339766000003,7.4237321165,5.8145589179999995,308
106368,184387,227485,-2.9850461935,7.3794648984,5.8097732728,309
106485,184369,227514,-2.9874390161,7.405785946999999,5.8360943214,310
105913,184370,227518,-3.0161528873,7.5625158273,5.7643096434,311
105111,184289,227453,-2.9180471607,7.4823562701999995,5.7499527078,312
104400,184197,227382,-2.9886354273999998,7.4871419154,5.7978091598,313
103791,184101,227323,-3.1154550251999997,7.4249285278,5.8157553293,314
103696,184092,227305,-2.8498517166,7.3794648984,5.9282179915,315
103971,184064,227286,-2.9742784918,7.4620172781,5.7284173044,316
104225,184118,227345,-2.9647072014,7.4356962295,5.8169517405999995,317
104639,184160,227293,-3.0544380489000003,7.3914290114000005,5.778666579,318
104799,184156,227358,-3.1202406704,7.4273213504,5.8995041203,319
105046,184160,227332,-3.0735806297,7.53739119,5.9330036367,320
105239,184170,227360,-3.0735806297,7.441678286,5.860022547400001,321
105572,184230,227378,-3.038884702,7.4644101007,5.8504512570000005,322
105774,184260,227415,-2.9371897415,7.415357237399999,5.7930235146,323
106193,184282,227392,-3.0221349438,7.4584280442,5.8408799666,324
106407,184350,227477,-3.0029923629999997,7.3675007854,5.8325050875,325
106730,184386,227472,-3.1657042998000002,7.4991060284,5.812166095399999,326
107035,184435,227489,-2.9419753867,7.4117680035,5.8815579507999995,327
107484,184460,227555,-3.1513473642000003,7.377072075799999,5.838487144,328
107835,184516,227578,-3.0843483314,7.4237321165,5.8217373858000006,329
107919,184533,227599,-2.9491538545,7.403393124400001,5.7882378694,330
107669,184556,227603,-3.0400811133000003,7.432106995600001,5.7571311756,331
106833,184460,227579,-3.0400811133000003,7.432106995600001,5.7571311756,332
105824,184345,227487,-3.0400811133000003,7.432106995600001,5.7571311756,333
104978,184275,227443,-3.0400811133000003,7.432106995600001,5.7571311756,334
104472,184158,227327,-3.0400811133000003,7.432106995600001,5.7571311756,335
104277,184119,227308,-3.0400811133000003,7.432106995600001,5.7571311756,336
104410,184131,227306,-3.0400811133000003,7.432106995600001,5.7571311756,337
104665,184167,227316,-3.0400811133000003,7.432106995600001,5.7571311756,338
104827,184186,227310,-3.0400811133000003,7.432106995600001,5.7571311756,339
104967,184198,227373,-3.0400811133000003,7.432106995600001,5.7571311756,340
105123,184203,227350,-3.0400811133000003,7.432106995600001,5.7571311756,341
105237,184237,227360,-3.0400811133000003,7.432106995600001,5.7571311756,342
105480,184243,227382,-3.0400811133000003,7.432106995600001,5.7571311756,343
105730,184290,227408,-3.0400811133000003,7.432106995600001,5.7571311756,344
106049,184325,227450,-3.0400811133000003,7.432106995600001,5.7571311756,345
106375,184384,227438,-3.0400811133000003,7.432106995600001,5.7571311756,346
106665,184397,227512,-3.0400811133000003,7.432106995600001,5.7571311756,347
107001,184454,227495,-3.0400811133000003,7.432106995600001,5.7571311756,348
107296,184492,227573,-3.0400811133000003,7.432106995600001,5.7571311756,349
107586,184536,227562,-3.0400811133000003,7.432106995600001,5.7571311756,350
107703,184573,227621,-3.0400811133000003,7.432106995600001,5.7571311756,351
107222,184514,227598,-3.0400811133000003,7.432106995600001,5.7571311756,352
106270,184443,227559,-3.0400811133000003,7.432106995600001,5.7571311756,353
105227,184353,227489,-3.0400811133000003,7.432106995600001,5.7571311756,354
104416,184216,227409,-3.0400811133000003,7.432106995600001,5.7571311756,355
103875,184153,227342,-2.9467610319,7.4225357052000005,5.8217373858000006,356
103687,184109,227268,-2.9467610319,7.4225357052000005,5.8217373858000006,357
103907,184115,227284,-2.9467610319,7.4225357052000005,5.8217373858000006,358
104099,184159,227352,-2.9467610319,7.4225357052000005,5.8217373858000006,359
104266,184156,227325,-2.9467610319,7.4225357052000005,5.8217373858000006,360
104378,184200,227355,-2.9467610319,7.4225357052000005,5.8217373858000006,361
104508,184192,227363,-2.9467610319,7.4225357052000005,5.8217373858000006,362
104690,184229,227374,-2.9467610319,7.4225357052000005,5.8217373858000006,363
104907,184283,227408,-2.9467610319,7.4225357052000005,5.8217373858000006,364
105163,184301,227403,-2.9467610319,7.4225357052000005,5.8217373858000006,365
105456,184343,227459,-2.9467610319,7.4225357052000005,5.8217373858000006,366
105710,184377,227474,-2.9467610319,7.4225357052000005,5.8217373858000006,367
106000,184415,227499,-2.9467610319,7.4225357052000005,5.8217373858000006,368
106302,184472,227568,-2.9467610319,7.4225357052000005,5.8217373858000006,369
106554,184534,227563,-2.9467610319,7.4225357052000005,5.8217373858000006,370
106801,184559,227644,-2.9467610319,7.4225357052000005,5.8217373858000006,371
106783,184595,227666,-2.9467610319,7.4225357052000005,5.8217373858000006,372
106151,184549,227595,-2.9467610319,7.4225357052000005,5.8217373858000006,373
105089,184446,227570,-2.9467610319,7.4225357052000005,5.8217373858000006,374
103999,184355,227492,-2.9467610319,7.4225357052000005,5.8217373858000006,375
103155,184241,227417,-2.9467610319,7.4225357052000005,5.8217373858000006,376
102574,184179,227357,-2.9467610319,7.4225357052000005,5.8217373858000006,377
102404,184127,227356,-2.9467610319,7.4225357052000005,5.8217373858000006,378
102546,184145,227329,-2.9467610319,7.4225357052000005,5.8217373858000006,379
102745,184160,227316,-2.9467610319,7.4225357052000005,5.8217373858000006,380
102867,184169,227359,-2.9467610319,7.4225357052000005,5.8217373858000006,381
103044,184213,227370,-2.9467610319,7.4225357052000005,5.8217373858000006,382
103188,184240,227410,-2.9467610319,7.4225357052000005,5.8217373858000006,383
103385,184271,227383,-2.9467610319,7.4225357052000005,5.8217373858000006,384
103638,184277,227423,-2.9467610319,7.4225357052000005,5.8217373858000006,385
103940,184307,227457,-2.9467610319,7.4225357052000005,5.8217373858000006,386
104208,184364,227479,-2.9467610319,7.4225357052000005,5.8217373858000006,387
104480,184408,227505,-3.0484559924,7.4081787696,5.8791651282,388
104870,184431,227514,-3.0484559924,7.4081787696,5.8791651282,389
105291,184495,227571,-3.0484559924,7.4081787696,5.8791651282,390
105486,184541,227588,-3.0484559924,7.4081787696,5.8791651282,391
105765,184609,227650,-3.0484559924,7.4081787696,5.8791651282,392
106040,184665,227652,-3.0484559924,7.4081787696,5.8791651282,393
106051,184654,227731,-3.0484559924,7.4081787696,5.8791651282,394
105486,184669,227693,-3.0484559924,7.4081787696,5.8791651282,395
104452,184560,227682,-3.0484559924,7.4081787696,5.8791651282,396
103449,184483,227614,-3.0484559924,7.4081787696,5.8791651282,397
102679,184406,227531,-3.0484559924,7.4081787696,5.8791651282,398
102230,184343,227512,-3.0484559924,7.4081787696,5.8791651282,399
102190,184341,227444,-3.0484559924,7.4081787696,5.8791651282,400
102400,184316,227416,-3.0484559924,7.4081787696,5.8791651282,401
102623,184326,227434,-3.0484559924,7.4081787696,5.8791651282,402
102802,184384,227476,-3.0484559924,7.4081787696,5.8791651282,403
102970,184421,227496,-3.0484559924,7.4081787696,5.8791651282,404
103134,184422,227491,-3.0484559924,7.4081787696,5.8791651282,405
103348,184446,227492,-3.0484559924,7.4081787696,5.8791651282,406
103618,184456,227551,-3.0484559924,7.4081787696,5.8791651282,407
103926,184523,227611,-3.0484559924,7.4081787696,5.8791651282,408
104205,184572,227603,-3.0484559924,7.4081787696,5.8791651282,409
104582,184604,227631,-3.0484559924,7.4081787696,5.8791651282,410
104907,184650,227636,-3.0484559924,7.4081787696,5.8791651282,411
105220,184734,227683,-3.0484559924,7.4081787696,5.8791651282,412
105552,184775,227689,-3.0711878071,7.444071108599999,5.8289158536,413
105743,184827,227754,-3.0711878071,7.444071108599999,5.8289158536,414
106104,184848,227804,-3.0711878071,7.444071108599999,5.8289158536,415
106430,184906,227837,-3.0711878071,7.444071108599999,5.8289158536,416
106699,184979,227868,-3.0711878071,7.444071108599999,5.8289158536,417
106967,185028,227903,-3.0711878071,7.444071108599999,5.8289158536,418
106911,185037,227904,-3.0711878071,7.444071108599999,5.8289158536,419
106249,185010,227916,-3.0711878071,7.444071108599999,5.8289158536,420
105248,184960,227890,-3.0711878071,7.444071108599999,5.8289158536,421
104285,184898,227839,-3.0711878071,7.444071108599999,5.8289158536,422
103583,184833,227826,-3.0711878071,7.444071108599999,5.8289158536,423
103183,184779,227752,-3.0711878071,7.444071108599999,5.8289158536,424
103122,184743,227745,-3.0711878071,7.444071108599999,5.8289158536,425
103299,184781,227737,-3.0711878071,7.444071108599999,5.8289158536,426
103449,184769,227753,-3.0711878071,7.444071108599999,5.8289158536,427
103602,184801,227732,-3.0711878071,7.444071108599999,5.8289158536,428
103741,184797,227781,-3.0711878071,7.444071108599999,5.8289158536,429
103905,184840,227768,-3.0711878071,7.444071108599999,5.8289158536,430
104088,184827,227785,-3.0711878071,7.444071108599999,5.8289158536,431
104319,184893,227792,-3.0711878071,7.444071108599999,5.8289158536,432
104321,184914,227833,-3.0711878071,7.444071108599999,5.8289158536,433
104049,184858,227847,-3.0711878071,7.444071108599999,5.8289158536,434
103616,184880,227822,-3.0711878071,7.444071108599999,5.8289158536,435
103297,184838,227812,-3.0711878071,7.444071108599999,5.8289158536,436
103360,184832,227811,-3.0711878071,7.444071108599999,5.8289158536,437
103660,184870,227776,-3.0711878071,7.444071108599999,5.8289158536,438
104011,184908,227838,-3.0711878071,7.444071108599999,5.8289158536,439
104306,184886,227811,-3.0711878071,7.444071108599999,5.8289158536,440
104565,184956,227836,-3.0711878071,7.444071108599999,5.8289158536,441
104808,184986,227895,-3.0711878071,7.444071108599999,5.8289158536,442
105050,185025,227890,-3.0711878071,7.444071108599999,5.8289158536,443
105313,185061,227962,-3.0711878071,7.444071108599999,5.8289158536,444
105534,185084,227980,-2.9970103065,7.4943203832,5.8648081926,445
105825,185131,227991,-2.9970103065,7.4943203832,5.8648081926,446
106160,185150,227990,-2.9970103065,7.4943203832,5.8648081926,447
106469,185243,228012,-2.9970103065,7.4943203832,5.8648081926,448
106754,185259,228091,-2.9970103065,7.4943203832,5.8648081926,449
107034,185312,228112,-2.9970103065,7.4943203832,5.8648081926,450
107304,185373,228155,-2.9970103065,7.4943203832,5.8648081926,451
107475,185416,228153,-2.9970103065,7.4943203832,5.8648081926,452
107266,185401,228164,-2.9970103065,7.4943203832,5.8648081926,453
106433,185390,228167,-2.9970103065,7.4943203832,5.8648081926,454
105379,185339,228171,-2.9970103065,7.4943203832,5.8648081926,455
104521,185270,228117,-2.9970103065,7.4943203832,5.8648081926,456
103888,185174,228074,-2.9970103065,7.4943203832,5.8648081926,457
103620,185171,228068,-2.9970103065,7.4943203832,5.8648081926,458
103771,185119,228002,-2.9970103065,7.4943203832,5.8648081926,459
103864,185154,228008,-2.9970103065,7.4943203832,5.8648081926,460
104037,185145,227950,-2.9970103065,7.4943203832,5.8648081926,461
104166,185163,227997,-2.9970103065,7.4943203832,5.8648081926,462
104282,185152,228011,-2.9970103065,7.4943203832,5.8648081926,463
104431,185180,227990,-2.9970103065,7.4943203832,5.8648081926,464
104637,185183,227995,-2.9970103065,7.4943203832,5.8648081926,465
104889,185204,228015,-2.9970103065,7.4943203832,5.8648081926,466
105186,185245,228057,-2.9970103065,7.4943203832,5.8648081926,467
105490,185273,228054,-2.9970103065,7.4943203832,5.8648081926,468
105773,185330,228070,-2.9970103065,7.4943203832,5.8648081926,469
106076,185356,228101,-2.9970103065,7.4943203832,5.8648081926,470
106392,185360,228104,-2.9970103065,7.4943203832,5.8648081926,471
106638,185427,228138,-2.9970103065,7.4943203832,5.8648081926,472
106811,185444,228140,-2.9970103065,7.4943203832,5.8648081926,473
106504,185427,228183,-2.9970103065,7.4943203832,5.8648081926,474
105712,185374,228159,-2.9970103065,7.4943203832,5.8648081926,475
104794,185320,228133,-2.9970103065,7.4943203832,5.8648081926,476
104097,185267,228067,-2.9970103065,7.4943203832,5.8648081926,477
103653,185208,228031,-2.9970103065,7.4943203832,5.8648081926,478
103605,185182,228020,-2.9970103065,7.4943203832,5.8648081926,479
103806,185174,227986,-2.9970103065,7.4943203832,5.8648081926,480
104069,185157,228019,-2.9970103065,7.4943203832,5.8648081926,481
104238,185177,227976,-2.9970103065,7.4943203832,5.8648081926,482
104418,185193,228006,-2.9970103065,7.4943203832,5.8648081926,483
104582,185202,227981,-2.9970103065,7.4943203832,5.8648081926,484
104769,185233,228023,-2.9970103065,7.4943203832,5.8648081926,485
105050,185259,228022,-2.9970103065,7.4943203832,5.8648081926,486
104239,185320,228119,-3.0771698636,7.3136622769,5.8301122648999995,487
104344,185272,228082,-3.0771698636,7.3136622769,5.8301122648999995,488
104582,185279,228048,-3.0771698636,7.3136622769,5.8301122648999995,489
104719,185265,228075,-3.0771698636,7.3136622769,5.8301122648999995,490
104944,185264,228024,-3.0771698636,7.3136622769,5.8301122648999995,491
105090,185285,228032,-3.0771698636,7.3136622769,5.8301122648999995,492
105265,185279,228038,-3.0771698636,7.3136622769,5.8301122648999995,493
105602,185324,228040,-3.0364918793999998,7.4081787696,5.8660046039,494
105849,185350,228061,-3.1010980895999998,7.4201428826,5.7930235146,495
106139,185348,228089,-2.9814569596,7.390232600099999,5.790630692000001,496
106449,185281,228125,-3.0065815969000003,7.29810893,5.761916820800001,497
106870,185430,228126,-3.0771698636,7.495516794499999,5.8133625067,498
107124,185469,228204,-3.038884702,7.3722864306,5.7882378694,499
107340,185499,228166,-2.9180471607,7.3734828419,5.8803615395,500
107685,185523,228192,-3.0293134116,7.525427077,5.773880933799999,501
107895,185584,228223,-3.0795626862,7.4249285278,5.9198431124,502
108146,185593,228184,-3.0687949845,7.5361947787,5.9330036367,503
108547,185610,228258,-2.9276184511,7.4105715922,5.7930235146,504
108842,185678,228287,-3.0819555088,7.4333034069,5.8552369022,505
109044,185695,228279,-3.0975088557,7.53739119,5.7690952886,506
109022,185692,228307,-3.0412775246,7.361518728899999,5.7643096434,507
108623,185694,228329,-3.0412775246,7.361518728899999,5.7643096434,508
107696,185612,228302,-3.0412775246,7.361518728899999,5.7643096434,509
106729,185548,228261,-3.0412775246,7.361518728899999,5.7643096434,510
105902,185508,228225,-3.0412775246,7.361518728899999,5.7643096434,511
105377,185431,228147,-3.0412775246,7.361518728899999,5.7643096434,512
105185,185378,228119,-3.0412775246,7.361518728899999,5.7643096434,513
105311,185340,228049,-3.0412775246,7.361518728899999,5.7643096434,514
105523,185341,228072,-3.0412775246,7.361518728899999,5.7643096434,515
105698,185312,228021,-3.0412775246,7.361518728899999,5.7643096434,516
105834,185336,228030,-3.0412775246,7.361518728899999,5.7643096434,517
105921,185343,228039,-3.0412775246,7.361518728899999,5.7643096434,518
106121,185334,228028,-2.9850461935,7.3758756645,5.7678988773,519
106347,185368,228063,-2.9850461935,7.3758756645,5.7678988773,520
106596,185393,228043,-2.9850461935,7.3758756645,5.7678988773,521
106886,185423,228080,-2.9850461935,7.3758756645,5.7678988773,522
107197,185427,228127,-2.9850461935,7.3758756645,5.7678988773,523
107497,185436,228137,-2.9850461935,7.3758756645,5.7678988773,524
107832,185500,228165,-2.9850461935,7.3758756645,5.7678988773,525
108258,185465,228122,-2.9120651042,7.3866433661999995,5.900700531599999,526
108407,185540,228196,-3.0544380489000003,7.429714173,5.8133625067,527
108700,185604,228230,-3.1513473642000003,7.432106995600001,5.7870414581,528
108937,185633,228260,-3.0759734523,7.5062844962,5.8767723056,529
109197,185632,228215,-3.0759734523,7.5062844962,5.8767723056,530
109135,185617,228253,-3.0759734523,7.5062844962,5.8767723056,531
108540,185592,228238,-3.0759734523,7.5062844962,5.8767723056,532
107617,185515,228210,-3.0759734523,7.5062844962,5.8767723056,533
106804,185472,228118,-3.0759734523,7.5062844962,5.8767723056,534
106245,185356,228105,-3.0759734523,7.5062844962,5.8767723056,535
105930,185343,228082,-3.0759734523,7.5062844962,5.8767723056,536
105974,185286,228018,-3.0759734523,7.5062844962,5.8767723056,537
106160,185306,228013,-3.0759734523,7.5062844962,5.8767723056,538
106384,185304,228004,-3.0759734523,7.5062844962,5.8767723056,539
106506,185283,227999,-3.0759734523,7.5062844962,5.8767723056,540
106622,185291,228009,-3.0759734523,7.5062844962,5.8767723056,541
106725,185322,228029,-3.0759734523,7.5062844962,5.8767723056,542
106942,185328,228044,-3.0759734523,7.5062844962,5.8767723056,543
107162,185341,228018,-3.0759734523,7.5062844962,5.8767723056,544
107374,185369,228045,-3.0173492985999997,7.4177500599999995,5.826523031,545
107808,185392,228064,-2.99102825,7.3064838090999995,5.8875400073,546
108054,185391,228063,-3.038884702,7.335197680299999,5.8456656118,547
108297,185463,228110,-3.0592236941,7.5457660691,5.8695938378,548
108727,185413,228108,-2.8618158296000002,7.3555366724,5.7595239982,549
108817,185509,228156,-3.062812928,7.543373246500001,5.7559347643,550
109121,185602,228175,-2.9276184511,7.3519474385,5.778666579,551
109065,185565,228210,-3.0544380489000003,7.4201428826,5.754738353,552
108581,185572,228150,-3.0807590974999997,7.335197680299999,5.8947184750999995,553
107491,185406,228146,-3.0101708308,7.5062844962,5.8576297248,554
106755,185345,228047,-3.1034909122000003,7.4488567538,5.826523031,555
106022,185299,227994,-3.0077780082,7.6008009889000006,5.790630692000001,556
105810,185225,227917,-2.9922246613000003,7.365107962800001,5.8337014988,557
105724,185156,227923,-3.1214370817,7.393821834000001,5.8013983936999995,558
105817,185127,227867,-2.9778677257000004,7.4081787696,5.8408799666,559
106054,185176,227900,-3.0580272828,7.3890361888,5.7834522241999995,560
106181,185149,227919,-2.9682964353,7.5170521979,5.8301122648999995,561
106348,185174,227917,-2.9730820805000002,7.405785946999999,5.831308676200001,562
106632,185155,227928,-2.9730820805000002,7.405785946999999,5.831308676200001,563
106718,185185,227917,-2.9730820805000002,7.405785946999999,5.831308676200001,564
106970,185205,227925,-2.9730820805000002,7.405785946999999,5.831308676200001,565
107257,185213,227964,-2.9730820805000002,7.405785946999999,5.831308676200001,566
107554,185275,227968,-2.9730820805000002,7.405785946999999,5.831308676200001,567
107857,185299,227977,-2.9730820805000002,7.405785946999999,5.831308676200001,568
108149,185332,227972,-2.9730820805000002,7.405785946999999,5.831308676200001,569
108444,185346,228039,-2.9730820805000002,7.405785946999999,5.831308676200001,570
108716,185367,228087,-2.9730820805000002,7.405785946999999,5.831308676200001,571
108787,185399,228105,-2.9730820805000002,7.405785946999999,5.831308676200001,572
108297,185330,228082,-2.9730820805000002,7.405785946999999,5.831308676200001,573
107372,185248,228007,-2.9730820805000002,7.405785946999999,5.831308676200001,574
106508,185151,227981,-2.9730820805000002,7.405785946999999,5.831308676200001,575
105830,185096,227935,-2.9730820805000002,7.405785946999999,5.831308676200001,576
105469,185013,227857,-3.0699913958000002,7.3914290114000005,5.8516476683,577
105405,184951,227862,-3.0005995404,7.3603223176,5.8552369022,578
105613,184957,227797,-2.9946174839,7.4380890521,5.7954163372,579
105861,184965,227822,-3.0412775246,7.5194450205,5.8791651282,580
106163,184990,227828,-3.0209385325,7.334001269,5.8145589179999995,581
106229,185001,227834,-2.9706892578999997,7.4344998182,5.8013983936999995,582
106385,184999,227833,-3.0436703472,7.336394091599999,5.8049876276,583
106616,185024,227797,-3.0077780082,7.4249285278,5.8456656118,584
106860,185032,227809,-3.1561330094,7.4763742137,5.812166095399999,585
107159,185060,227910,-2.9108686929000003,7.4691957459,5.7332029496,586
107374,185160,227856,-3.0161528873,7.3866433661999995,5.778666579,587
107707,185164,227916,-3.0293134116,7.453642399,5.873183071700001,588
108018,185158,227936,-3.1262227269,7.4392854634,5.8456656118,589
107713,185152,227973,-3.0293134116,7.4907311493,5.8360943214,590
106947,185107,227881,-3.0903303879,7.4141608261,5.873183071700001,591
106187,185021,227840,-2.9515466771,7.3387869142,5.8947184750999995,592
105414,184911,227819,-2.9431717980000003,7.4512495764,5.8337014988,593
105152,184814,227714,-2.9886354273999998,7.3603223176,5.7882378694,594
105147,184768,227740,-3.1034909122000003,7.4273213504,5.8049876276,595
105448,184783,227662,-2.9252256285000002,7.4010003018,5.7834522241999995,596
105680,184804,227662,-3.0293134116,7.5673014725,5.8169517405999995,597
105886,184807,227709,-2.9551359109999997,7.4943203832,5.818148151899999,598
106098,184861,227727,-2.9491538545,7.3316084464,5.888736418600001,599
106281,184869,227752,-3.0125636533999995,7.334001269,5.8468620231,600
106593,184917,227719,-2.9419753867,7.5074809075,5.7415778287,601
106981,184933,227726,-3.1226334930000004,7.4691957459,5.7954163372,602
107192,184973,227763,-3.1477581302999997,7.4356962295,5.802594804999999,603
107560,184979,227772,-3.0173492985999997,7.5409804239,5.8289158536,604
107729,184993,227793,-3.0197421212,7.5242306657,5.790630692000001,605
107389,184973,227792,-2.9946174839,7.4715885685,5.838487144,606
106597,184897,227779,-2.9982067177999996,7.332804857699999,5.7882378694,607
105752,184772,227697,-3.0017959517,7.429714173,5.9353964593,608
105061,184615,227618,-3.0269205889999995,7.4500531651,5.7690952886,609
104832,184506,227562,-2.9001009912,7.357929495,5.7942199259,610
104637,184542,227530,-3.0556344602,7.4584280442,5.802594804999999,611
104992,184507,227549,-2.9300112737000004,7.4225357052000005,5.812166095399999,612
105316,184604,227563,-2.9982067177999996,7.5445696578,5.766702466,613
105414,184623,227581,-3.062812928,7.5194450205,5.7858450468,614
105741,184543,227553,-2.9371897415,7.4919275606,5.8468620231,615
106008,184682,227576,-3.0269205889999995,7.390232600099999,5.7930235146,616
106153,184666,227605,-2.99102825,7.3890361888,5.8528440796,617
106546,184770,227636,-3.0101708308,7.3890361888,5.7523455304,618
106811,184779,227665,-3.0340990568,7.5062844962,5.8540404909,619
107146,184806,227677,-3.0077780082,7.4261249391,5.7810594016,620
107377,184858,227694,-2.9898318387,7.429714173,5.8528440796,621
107486,184837,227730,-3.0197421212,7.460820866800001,5.8169517405999995,622
106953,184785,227675,-3.0221349438,7.485945504099999,5.831308676200001,623
106055,184716,227667,-3.0221349438,7.369893608,5.7810594016,624
105256,184605,227553,-3.1118657913,7.4344998182,5.8217373858000006,625
104577,184483,227527,-2.979064137,7.4512495764,5.8408799666,626
104278,184378,227464,-2.9814569596,7.399803890499999,5.8169517405999995,627
104427,184381,227412,-2.9778677257000004,7.4201428826,5.7978091598,628
104715,184426,227435,-3.0484559924,7.447660342499999,5.8695938378,629
105060,184438,227431,-3.0089744195,7.4273213504,5.843272789199999,630
105211,184431,227484,-2.9694928465999997,7.4691957459,5.8301122648999995,631
105418,184522,227491,-3.0137600647,7.4165536487,5.8528440796,632
105747,184480,227426,-2.9922246613000003,7.4907311493,5.831308676200001,633
105929,184519,227493,-2.9587251449000003,7.361518728899999,5.773880933799999,634
106351,184522,227554,-3.0161528873,7.4201428826,5.7810594016,635
106678,184558,227523,-3.1405796625,7.4177500599999995,5.7714881112,636
106908,184582,227549,-3.0221349438,7.2801627605000006,5.8791651282,637
107290,184651,227602,-3.0795626862,7.4368926408,5.8049876276,638
107626,184686,227638,-3.062812928,7.3722864306,5.8540404909,639
108122,184741,227674,-3.0520452262999997,7.505088084900001,5.790630692000001,640
108410,184803,227728,-2.9850461935,7.3710900192999995,5.7332029496,641
108675,184839,227745,-2.8211378454,7.3411797368,5.7834522241999995,642
108876,184871,227788,-2.919243572,7.4512495764,5.8360943214,643
108798,184899,227821,-3.0293134116,7.4344998182,5.7499527078,644
108022,184834,227762,-2.9647072014,7.4081787696,5.766702466,645
106949,184678,227704,-2.9407789753999998,7.4141608261,5.7870414581,646
105918,184568,227637,-3.0915267992,7.365107962800001,5.8337014988,647
105139,184451,227511,-3.0532416376,7.3914290114000005,5.826523031,648
104764,184358,227472,-3.0436703472,7.453642399,5.8791651282,649
104735,184368,227438,-3.0197421212,7.4177500599999995,5.8480584344,650
105068,184359,227445,-2.9647072014,7.5338019561000005,5.8289158536,651
105161,184359,227433,-2.9922246613000003,7.4931239719,5.8552369022,652
105366,184372,227462,-2.9084758702999998,7.4763742137,5.802594804999999,653
105595,184380,227428,-3.1226334930000004,7.335197680299999,5.8408799666,654
105924,184419,227476,-3.0723842184,7.4823562701999995,5.8193445632000005,655
106154,184479,227493,-3.0604201053999995,7.4069823583000005,5.8289158536,656
106450,184451,227534,-3.0652057506,7.4751778024,5.8504512570000005,657
106804,184453,227529,-3.014956476,7.4177500599999995,5.8528440796,658
107100,184538,227592,-3.0675985732,7.485945504099999,5.8672010152,659
107464,184631,227587,-3.0221349438,7.363911551499999,5.7714881112,660
107793,184647,227681,-3.0340990568,7.4751778024,5.8348979101000005,661
108164,184690,227647,-3.0340990568,7.4751778024,5.8348979101000005,662
108504,184739,227699,-3.0340990568,7.4751778024,5.8348979101000005,663
108653,184723,227748,-3.0340990568,7.4751778024,5.8348979101000005,664
108338,184747,227681,-3.0340990568,7.4751778024,5.8348979101000005,665
107509,184646,227696,-3.0340990568,7.4751778024,5.8348979101000005,666
106624,184570,227652,-3.1393832512,7.5038916736,5.8169517405999995,667
106108,184505,227572,-2.9694928465999997,7.514659375300001,5.6997034332,668
105601,184465,227542,-2.9970103065,7.4069823583000005,5.8755758943,669
105601,184384,227524,-2.8965117573,7.4679993346,5.925825168899999,670
105880,184432,227537,-2.9802605483,7.4715885685,5.7834522241999995,671
106102,184406,227471,-3.0197421212,7.415357237399999,5.8612189587,672
106347,184474,227518,-3.0197421212,7.415357237399999,5.8612189587,673
106529,184484,227519,-3.0197421212,7.415357237399999,5.8612189587,674
106694,184517,227550,-3.0197421212,7.415357237399999,5.8612189587,675
106852,184555,227544,-3.0197421212,7.415357237399999,5.8612189587,676
107125,184579,227586,-3.0197421212,7.415357237399999,5.8612189587,677
107400,184625,227612,-3.0197421212,7.415357237399999,5.8612189587,678
107585,184638,227641,-3.0197421212,7.415357237399999,5.8612189587,679
107393,184641,227628,-3.0197421212,7.415357237399999,5.8612189587,680
106712,184526,227615,-3.0197421212,7.415357237399999,5.8612189587,681
105854,184436,227539,-3.0197421212,7.415357237399999,5.8612189587,682
105170,184370,227479,-3.0197421212,7.415357237399999,5.8612189587,683
104806,184313,227458,-3.0197421212,7.415357237399999,5.8612189587,684
104808,184269,227412,-3.0197421212,7.415357237399999,5.8612189587,685
105062,184302,227424,-3.0197421212,7.415357237399999,5.8612189587,686
105318,184288,227435,-3.0197421212,7.415357237399999,5.8612189587,687
105532,184352,227432,-3.0197421212,7.415357237399999,5.8612189587,688
105757,184338,227482,-3.0197421212,7.415357237399999,5.8612189587,689
105934,184375,227508,-3.0197421212,7.415357237399999,5.8612189587,690
106147,184396,227487,-3.0197421212,7.415357237399999,5.8612189587,691
106414,184455,227537,-3.0197421212,7.415357237399999,5.8612189587,692
106687,184470,227542,-3.0197421212,7.415357237399999,5.8612189587,693
106938,184492,227580,-3.0197421212,7.415357237399999,5.8612189587,694
106793,184541,227592,-3.0197421212,7.415357237399999,5.8612189587,695
106072,184438,227560,-3.0197421212,7.415357237399999,5.8612189587,696
105058,184354,227499,-3.0197421212,7.415357237399999,5.8612189587,697
104178,184220,227404,-3.0197421212,7.415357237399999,5.8612189587,698
103576,184127,227352,-3.0819555088,7.4093751809,5.8636117813,699
103421,184050,227288,-2.9922246613000003,7.3962146566,5.8073804502,700
103510,184046,227302,-3.0161528873,7.6103722793,5.7367921835,701
103788,184063,227298,-3.0233313551,7.5577301821,5.827719442299999,702
104134,184093,227325,-3.0652057506,7.3112694543000005,5.942574927099999,703
104267,184123,227328,-3.0484559924,7.4201428826,5.8193445632000005,704
104536,184152,227315,-3.0053851856000002,7.432106995600001,5.8396835553,705
104876,184158,227375,-2.8917261120999997,7.485945504099999,5.8229337971,706
105136,184199,227336,-3.0975088557,7.501498850999999,5.754738353,707
105513,184247,227407,-3.0532416376,7.4691957459,5.7918271033,708
105786,184258,227429,-3.1058837348,7.4763742137,5.9042897655,709
106190,184317,227460,-3.0293134116,7.5517481256,5.843272789199999,710
106530,184366,227481,-3.086741154,7.4632136894,5.9162538785,711
106888,184442,227514,-3.0077780082,7.415357237399999,5.7391850061000005,712
107137,184495,227571,-2.9742784918,7.4512495764,5.8707902491,713
107538,184513,227585,-3.0257241777000004,7.505088084900001,5.812166095399999,714
107871,184526,227593,-3.0065815969000003,7.4967132058,5.7571311756,715
107367,184509,227587,-3.0269205889999995,7.457231632899999,5.761916820800001,716
106420,184450,227562,-3.0269205889999995,7.457231632899999,5.761916820800001,717
105242,184296,227522,-3.0269205889999995,7.457231632899999,5.761916820800001,718
104300,184176,227419,-3.0269205889999995,7.457231632899999,5.761916820800001,719
103682,184105,227286,-3.0269205889999995,7.457231632899999,5.761916820800001,720
103503,184012,227267,-3.0269205889999995,7.457231632899999,5.761916820800001,721
103599,184003,227277,-3.0269205889999995,7.457231632899999,5.761916820800001,722
103896,184020,227249,-3.0269205889999995,7.457231632899999,5.761916820800001,723
104070,184049,227288,-3.0640093393,7.4811598589,5.802594804999999,724
104275,184069,227331,-2.9467610319,7.4632136894,5.7595239982,725
104457,184107,227290,-3.1142586138999997,7.514659375300001,5.8193445632000005,726
104697,184082,227358,-2.9575287336000002,7.5122665527,5.826523031,727
105040,184177,227325,-3.0197421212,7.4380890521,5.7990055710999995,728
105316,184169,227402,-2.8462624827,7.5242306657,5.7595239982,729
105579,184245,227401,-2.9431717980000003,7.3794648984,5.790630692000001,730
106013,184268,227441,-2.9682964353,7.5338019561000005,5.7690952886,731
106341,184290,227453,-2.9659036127,7.430910584299999,5.8169517405999995,732
106771,184330,227460,-3.1034909122000003,7.5038916736,5.827719442299999,733
107065,184374,227528,-3.0999016782999997,7.5314091335,5.9150574672000005,734
107173,184316,227554,-3.0556344602,7.6043902228,5.7523455304,735
106948,184389,227518,-3.0412775246,7.444071108599999,5.778666579,736
106042,184361,227499,-3.038884702,7.5517481256,5.885147184699999,737
105092,184251,227463,-2.9647072014,7.378268487100001,5.8636117813,738
104332,184124,227402,-2.9647072014,7.378268487100001,5.8636117813,739
103846,184023,227335,-2.9647072014,7.378268487100001,5.8636117813,740
103751,184020,227303,-2.9647072014,7.378268487100001,5.8636117813,741
103973,184011,227244,-2.9647072014,7.378268487100001,5.8636117813,742
104277,184022,227316,-2.9647072014,7.378268487100001,5.8636117813,743
104494,184087,227320,-2.9647072014,7.378268487100001,5.8636117813,744
104688,184107,227292,-2.9647072014,7.378268487100001,5.8636117813,745
104860,184118,227356,-2.9647072014,7.378268487100001,5.8636117813,746
105083,184142,227370,-2.9647072014,7.378268487100001,5.8636117813,747
105370,184162,227379,-2.9647072014,7.378268487100001,5.8636117813,748
105654,184200,227404,-2.9647072014,7.378268487100001,5.8636117813,749
105991,184256,227434,-2.9647072014,7.378268487100001,5.8636117813,750
106305,184297,227468,-2.9647072014,7.378268487100001,5.8636117813,751
106648,184363,227496,-2.9647072014,7.378268487100001,5.8636117813,752
106952,184357,227525,-2.9647072014,7.378268487100001,5.8636117813,753
107247,184414,227541,-2.9647072014,7.378268487100001,5.8636117813,754
107487,184433,227634,-2.9647072014,7.378268487100001,5.8636117813,755
107314,184427,227594,-2.9647072014,7.378268487100001,5.8636117813,756
106353,184363,227568,-2.9647072014,7.378268487100001,5.8636117813,757
105253,184235,227523,-2.9647072014,7.378268487100001,5.8636117813,758
104324,184146,227426,-2.9647072014,7.378268487100001,5.8636117813,759
103694,184011,227386,-2.9647072014,7.378268487100001,5.8636117813,760
103398,184010,227330,-2.9647072014,7.378268487100001,5.8636117813,761
103533,183975,227320,-2.9647072014,7.378268487100001,5.8636117813,762
103816,183962,227298,-2.9647072014,7.378268487100001,5.8636117813,763
104064,184034,227300,-2.9647072014,7.378268487100001,5.8636117813,764
104277,184037,227326,-2.9647072014,7.378268487100001,5.8636117813,765
104457,184063,227382,-2.9647072014,7.378268487100001,5.8636117813,766
104695,184046,227366,-2.9647072014,7.378268487100001,5.8636117813,767
104959,184087,227333,-2.9647072014,7.378268487100001,5.8636117813,768
105275,184132,227401,-2.9647072014,7.378268487100001,5.8636117813,769
105633,184183,227413,-2.9647072014,7.378268487100001,5.8636117813,770
105972,184230,227482,-2.9647072014,7.378268487100001,5.8636117813,771
106341,184243,227500,-2.9647072014,7.378268487100001,5.8636117813,772
106644,184299,227497,-2.9647072014,7.378268487100001,5.8636117813,773
107000,184347,227546,-2.9647072014,7.378268487100001,5.8636117813,774
107116,184397,227601,-2.9766713144,7.453642399,5.8803615395,775
106448,184334,227570,-2.9766713144,7.453642399,5.8803615395,776
105479,184237,227519,-2.9766713144,7.453642399,5.8803615395,777
104470,184114,227436,-2.9766713144,7.453642399,5.8803615395,778
103855,184027,227359,-2.9766713144,7.453642399,5.8803615395,779
103568,183951,227319,-2.9766713144,7.453642399,5.8803615395,780
103736,183974,227296,-2.9766713144,7.453642399,5.8803615395,781
104049,183983,227304,-2.9766713144,7.453642399,5.8803615395,782
104347,184001,227355,-2.9766713144,7.453642399,5.8803615395,783
104561,184046,227354,-2.9766713144,7.453642399,5.8803615395,784
104749,184054,227353,-2.9766713144,7.453642399,5.8803615395,785
104992,184075,227376,-2.9766713144,7.453642399,5.8803615395,786
105288,184107,227396,-3.0317062341999996,7.4668029232999995,5.8480584344,787
105573,184176,227427,-3.0173492985999997,7.3507510272,5.8097732728,788
105845,184201,227473,-3.038884702,7.4368926408,5.871986660399999,789
105710,184175,227427,-3.1525437755,7.415357237399999,5.7236316592000005,790
105347,184177,227441,-3.0281170003,7.3734828419,5.886343596000001,791
104523,184062,227380,-3.062812928,7.4105715922,5.8480584344,792
103911,183940,227336,-3.0795626862,7.477570625,5.8648081926,793
103742,183931,227293,-3.0795626862,7.477570625,5.8648081926,794
103950,183948,227278,-3.0795626862,7.477570625,5.8648081926,795
104372,183981,227360,-3.0795626862,7.477570625,5.8648081926,796
104682,184002,227269,-3.0795626862,7.477570625,5.8648081926,797
104984,184060,227401,-3.0795626862,7.477570625,5.8648081926,798
105201,184098,227385,-3.0795626862,7.477570625,5.8648081926,799
105421,184106,227404,-3.0795626862,7.477570625,5.8648081926,800
105722,184117,227404,-3.0795626862,7.477570625,5.8648081926,801
106037,184164,227434,-3.0795626862,7.477570625,5.8648081926,802
106371,184178,227419,-3.0795626862,7.477570625,5.8648081926,803
106695,184236,227523,-3.0795626862,7.477570625,5.8648081926,804
107053,184316,227502,-3.0795626862,7.477570625,5.8648081926,805
107394,184327,227564,-3.0795626862,7.477570625,5.8648081926,806
107717,184393,227581,-3.0795626862,7.477570625,5.8648081926,807
108029,184443,227644,-3.0795626862,7.477570625,5.8648081926,808
108353,184464,227660,-3.0795626862,7.477570625,5.8648081926,809
108610,184522,227670,-3.0795626862,7.477570625,5.8648081926,810
108555,184526,227684,-3.0795626862,7.477570625,5.8648081926,811
107868,184467,227710,-3.0795626862,7.477570625,5.8648081926,812
106767,184379,227662,-2.9132615155,7.465606512,5.860022547400001,813
105776,184292,227561,-2.9132615155,7.465606512,5.860022547400001,814
104792,184155,227455,-3.0795626862,7.2849484057,5.8827543621,815
104311,184058,227419,-3.0795626862,7.2849484057,5.8827543621,816
104269,184035,227348,-3.0795626862,7.2849484057,5.8827543621,817
104482,184054,227387,-3.0795626862,7.2849484057,5.8827543621,818
104697,184080,227373,-3.0795626862,7.2849484057,5.8827543621,819
104853,184077,227405,-3.0795626862,7.2849484057,5.8827543621,820
105001,184083,227403,-3.0795626862,7.2849484057,5.8827543621,821
105190,184120,227378,-3.0795626862,7.2849484057,5.8827543621,822
105381,184154,227486,-3.0795626862,7.2849484057,5.8827543621,823
105650,184182,227504,-3.0795626862,7.2849484057,5.8827543621,824
105976,184225,227481,-3.0795626862,7.2849484057,5.8827543621,825
106307,184272,227515,-3.0795626862,7.2849484057,5.8827543621,826
106663,184285,227524,-3.0795626862,7.2849484057,5.8827543621,827
106967,184332,227561,-3.0795626862,7.2849484057,5.8827543621,828
107314,184382,227586,-3.0795626862,7.2849484057,5.8827543621,829
107613,184433,227614,-3.0795626862,7.2849484057,5.8827543621,830
107938,184448,227656,-3.0795626862,7.2849484057,5.8827543621,831
108182,184528,227669,-3.1369904286000003,7.3746792532,5.8636117813,832
108531,184539,227679,-3.1369904286000003,7.3746792532,5.8636117813,833
108769,184612,227752,-3.1369904286000003,7.3746792532,5.8636117813,834
109103,184636,227765,-3.1369904286000003,7.3746792532,5.8636117813,835
109399,184649,227768,-3.1369904286000003,7.3746792532,5.8636117813,836
109632,184733,227852,-3.1369904286000003,7.3746792532,5.8636117813,837
109557,184704,227878,-3.1369904286000003,7.3746792532,5.8636117813,838
108912,184688,227850,-3.1369904286000003,7.3746792532,5.8636117813,839
107794,184623,227808,-3.1369904286000003,7.3746792532,5.8636117813,840
106716,184485,227710,-3.1369904286000003,7.3746792532,5.8636117813,841
105864,184367,227631,-3.1369904286000003,7.3746792532,5.8636117813,842
105340,184263,227583,-3.1369904286000003,7.3746792532,5.8636117813,843
105185,184229,227551,-3.1369904286000003,7.3746792532,5.8636117813,844
105311,184228,227531,-3.0293134116,7.429714173,5.8516476683,845
105626,184277,227523,-2.9982067177999996,7.3591259063,5.8528440796,846
105755,184292,227542,-3.1214370817,7.4273213504,5.735595772199999,847
105763,184269,227500,-3.0687949845,7.5517481256,5.831308676200001,848
105917,184278,227508,-2.9491538545,7.4919275606,5.856433313499999,849
106156,184336,227535,-3.0891339766000003,7.3914290114000005,5.856433313499999,850
106419,184340,227538,-3.0652057506,7.4632136894,5.8002019824,851
106751,184383,227571,-3.0568308715,7.2969125187,5.7966127485,852
106938,184396,227569,-3.0340990568,7.485945504099999,5.8002019824,853
107295,184428,227616,-3.0269205889999995,7.405785946999999,5.8002019824,854
107532,184475,227647,-3.0747770410000004,7.429714173,5.8253266197,855
107830,184500,227673,-3.0412775246,7.3866433661999995,5.802594804999999,856
107649,184494,227678,-3.0364918793999998,7.526623488299999,5.871986660399999,857
107114,184466,227626,-3.0352954681,7.4129644148,5.9066825881,858
106157,184373,227641,-2.9395825641,7.4368926408,5.8241302084,859
105570,184279,227525,-2.9994031291,7.5338019561000005,5.9018969429000006,860
105195,184215,227454,-3.0053851856000002,7.5960153436999995,5.7032926670999995,861
105147,184233,227481,-3.0041887742999998,7.5338019561000005,5.7918271033,862
105524,184214,227461,-2.9862426048,7.3962146566,5.6925249654,863
105943,184266,227474,-3.0652057506,7.4129644148,5.86241537,864
105976,184279,227506,-2.9623143788,7.459624455499999,5.8145589179999995,865
106353,184289,227538,-2.9647072014,7.3986074792,5.7942199259,866
106491,184241,227525,-2.9718856692,7.4177500599999995,5.8480584344,867
106742,184372,227537,-2.9132615155,7.4392854634,5.7714881112,868
106980,184366,227573,-3.0532416376,7.4907311493,5.802594804999999,869
107236,184412,227605,-3.1250263156,7.5338019561000005,5.7726845225,870
107601,184457,227600,-3.1250263156,7.5338019561000005,5.7726845225,871
107921,184503,227629,-3.1250263156,7.5338019561000005,5.7726845225,872
108261,184520,227700,-3.1250263156,7.5338019561000005,5.7726845225,873
108569,184561,227714,-3.1250263156,7.5338019561000005,5.7726845225,874
108862,184638,227700,-3.1250263156,7.5338019561000005,5.7726845225,875
109163,184668,227776,-3.1250263156,7.5338019561000005,5.7726845225,876
109279,184670,227787,-3.1250263156,7.5338019561000005,5.7726845225,877
108854,184659,227797,-3.1250263156,7.5338019561000005,5.7726845225,878
107983,184579,227743,-3.1250263156,7.5338019561000005,5.7726845225,879
107007,184509,227731,-3.1250263156,7.5338019561000005,5.7726845225,880
106286,184380,227602,-3.1250263156,7.5338019561000005,5.7726845225,881
105867,184308,227527,-3.1250263156,7.5338019561000005,5.7726845225,882
105792,184269,227554,-3.1250263156,7.5338019561000005,5.7726845225,883
105984,184299,227503,-3.1250263156,7.5338019561000005,5.7726845225,884
106209,184319,227538,-3.1250263156,7.5338019561000005,5.7726845225,885
106362,184327,227540,-3.1250263156,7.5338019561000005,5.7726845225,886
106523,184336,227547,-3.1250263156,7.5338019561000005,5.7726845225,887
106657,184371,227544,-3.1250263156,7.5338019561000005,5.7726845225,888
106832,184407,227583,-3.1250263156,7.5338019561000005,5.7726845225,889
107039,184429,227623,-3.1250263156,7.5338019561000005,5.7726845225,890
107296,184436,227572,-3.1250263156,7.5338019561000005,5.7726845225,891
107579,184479,227624,-3.1250263156,7.5338019561000005,5.7726845225,892
107867,184524,227654,-3.1250263156,7.5338019561000005,5.7726845225,893
108021,184537,227655,-3.1250263156,7.5338019561000005,5.7726845225,894
107715,184513,227659,-3.1250263156,7.5338019561000005,5.7726845225,895
106916,184437,227613,-3.1250263156,7.5338019561000005,5.7726845225,896
106022,184359,227567,-3.1250263156,7.5338019561000005,5.7726845225,897
105310,184247,227521,-3.1250263156,7.5338019561000005,5.7726845225,898
104927,184174,227441,-3.1250263156,7.5338019561000005,5.7726845225,899
104930,184137,227404,-3.1250263156,7.5338019561000005,5.7726845225,900
105168,184160,227446,-3.1250263156,7.5338019561000005,5.7726845225,901
105398,184175,227440,-3.1250263156,7.5338019561000005,5.7726845225,902
105729,184223,227481,-2.979064137,7.2765735266,5.8097732728,903
105948,184197,227462,-2.979064137,7.2765735266,5.8097732728,904
105990,184284,227484,-2.979064137,7.2765735266,5.8097732728,905
106184,184262,227506,-2.979064137,7.2765735266,5.8097732728,906
106482,184304,227532,-2.979064137,7.2765735266,5.8097732728,907
106775,184344,227551,-2.979064137,7.2765735266,5.8097732728,908
107030,184400,227541,-2.979064137,7.2765735266,5.8097732728,909
106999,184366,227579,-2.979064137,7.2765735266,5.8097732728,910
106351,184320,227547,-2.979064137,7.2765735266,5.8097732728,911
105394,184213,227471,-2.979064137,7.2765735266,5.8097732728,912
104539,184129,227410,-2.979064137,7.2765735266,5.8097732728,913
103935,184023,227355,-2.979064137,7.2765735266,5.8097732728,914
103702,183974,227301,-2.979064137,7.2765735266,5.8097732728,915
103850,183953,227272,-2.979064137,7.2765735266,5.8097732728,916
104164,184007,227328,-2.979064137,7.2765735266,5.8097732728,917
104464,183991,227335,-2.979064137,7.2765735266,5.8097732728,918
104719,184028,227304,-2.979064137,7.2765735266,5.8097732728,919
104920,184043,227352,-2.979064137,7.2765735266,5.8097732728,920
105196,184079,227379,-2.979064137,7.2765735266,5.8097732728,921
105482,184118,227386,-2.979064137,7.2765735266,5.8097732728,922
105816,184143,227435,-2.979064137,7.2765735266,5.8097732728,923
106164,184187,227435,-2.979064137,7.2765735266,5.8097732728,924
106505,184236,227464,-2.979064137,7.2765735266,5.8097732728,925
106886,184279,227498,-2.979064137,7.2765735266,5.8097732728,926
107234,184312,227456,-2.979064137,7.2765735266,5.8097732728,927
107568,184381,227552,-2.979064137,7.2765735266,5.8097732728,928
107902,184405,227601,-2.979064137,7.2765735266,5.8097732728,929
108223,184454,227678,-2.979064137,7.2765735266,5.8097732728,930
108548,184536,227672,-2.979064137,7.2765735266,5.8097732728,931
108843,184540,227715,-2.979064137,7.2765735266,5.8097732728,932
109081,184584,227745,-2.979064137,7.2765735266,5.8097732728,933
108836,184581,227743,-2.979064137,7.2765735266,5.8097732728,934
107931,184506,227675,-2.979064137,7.2765735266,5.8097732728,935
106830,184384,227663,-2.979064137,7.2765735266,5.8097732728,936
105724,184253,227569,-2.979064137,7.2765735266,5.8097732728,937
105034,184170,227446,-2.979064137,7.2765735266,5.8097732728,938
104659,184101,227387,-2.979064137,7.2765735266,5.8097732728,939
104685,184072,227406,-2.979064137,7.2765735266,5.8097732728,940
104897,184109,227390,-2.979064137,7.2765735266,5.8097732728,941
105107,184114,227387,-2.979064137,7.2765735266,5.8097732728,942
105280,184119,227393,-2.979064137,7.2765735266,5.8097732728,943
105434,184144,227387,-2.979064137,7.2765735266,5.8097732728,944
104284,184348,227521,-3.0173492985999997,7.4488567538,5.776273756399999,945
104573,184397,227502,-3.0173492985999997,7.4488567538,5.776273756399999,946
104878,184419,227547,-3.0173492985999997,7.4488567538,5.776273756399999,947
104977,184423,227580,-3.0173492985999997,7.4488567538,5.776273756399999,948
105075,184451,227547,-3.0173492985999997,7.4488567538,5.776273756399999,949
105210,184485,227568,-3.0173492985999997,7.4488567538,5.776273756399999,950
105445,184490,227576,-3.0173492985999997,7.4488567538,5.776273756399999,951
105737,184523,227617,-3.0173492985999997,7.4488567538,5.776273756399999,952
106055,184536,227622,-3.0173492985999997,7.4488567538,5.776273756399999,953
106359,184595,227681,-3.0173492985999997,7.4488567538,5.776273756399999,954
106684,184627,227669,-3.0173492985999997,7.4488567538,5.776273756399999,955
106963,184664,227659,-3.0173492985999997,7.4488567538,5.776273756399999,956
107245,184708,227704,-3.0173492985999997,7.4488567538,5.776273756399999,957
107488,184730,227769,-3.0173492985999997,7.4488567538,5.776273756399999,958
107253,184694,227755,-3.0173492985999997,7.4488567538,5.776273756399999,959
106405,184676,227702,-3.0173492985999997,7.4488567538,5.776273756399999,960
105312,184569,227692,-3.0173492985999997,7.4488567538,5.776273756399999,961
104344,184466,227614,-3.0173492985999997,7.4488567538,5.776273756399999,962
103708,184341,227576,-3.0173492985999997,7.4488567538,5.776273756399999,963
103420,184321,227485,-3.0173492985999997,7.4488567538,5.776273756399999,964
103508,184278,227476,-3.0173492985999997,7.4488567538,5.776273756399999,965
103728,184319,227444,-3.0173492985999997,7.4488567538,5.776273756399999,966
103922,184347,227493,-3.0173492985999997,7.4488567538,5.776273756399999,967
104099,184351,227486,-3.0173492985999997,7.4488567538,5.776273756399999,968
104229,184333,227493,-3.0173492985999997,7.4488567538,5.776273756399999,969
104429,184342,227496,-3.0173492985999997,7.4488567538,5.776273756399999,970
104656,184423,227509,-3.0173492985999997,7.4488567538,5.776273756399999,971
104937,184427,227551,-3.0173492985999997,7.4488567538,5.776273756399999,972
105249,184470,227571,-3.0173492985999997,7.4488567538,5.776273756399999,973
105582,184507,227617,-3.0173492985999997,7.4488567538,5.776273756399999,974
105997,184544,227603,-3.0173492985999997,7.4488567538,5.776273756399999,975
106185,184591,227680,-3.0173492985999997,7.4488567538,5.776273756399999,976
106446,184601,227671,-3.0221349438,7.495516794499999,5.7523455304,977
106259,184612,227693,-3.0221349438,7.495516794499999,5.7523455304,978
105264,184535,227650,-3.0221349438,7.495516794499999,5.7523455304,979
104206,184410,227620,-3.0221349438,7.495516794499999,5.7523455304,980
103346,184318,227525,-3.0221349438,7.495516794499999,5.7523455304,981
102804,184214,227452,-3.0221349438,7.495516794499999,5.7523455304,982
102637,184167,227363,-3.0221349438,7.495516794499999,5.7523455304,983
102862,184162,227435,-3.0221349438,7.495516794499999,5.7523455304,984
103182,184187,227415,-3.0221349438,7.495516794499999,5.7523455304,985
103469,184211,227439,-3.0221349438,7.495516794499999,5.7523455304,986
103707,184225,227438,-3.0221349438,7.495516794499999,5.7523455304,987
103930,184261,227433,-3.0221349438,7.495516794499999,5.7523455304,988
104170,184274,227493,-3.0221349438,7.495516794499999,5.7523455304,989
104428,184312,227503,-3.0221349438,7.495516794499999,5.7523455304,990
104809,184345,227530,-3.0221349438,7.495516794499999,5.7523455304,991
105152,184360,227564,-3.0221349438,7.495516794499999,5.7523455304,992
105503,184403,227560,-3.0221349438,7.495516794499999,5.7523455304,993
105871,184471,227576,-3.0221349438,7.495516794499999,5.7523455304,994
106226,184497,227599,-3.0221349438,7.495516794499999,5.7523455304,995
106351,184536,227664,-2.9347969189,7.465606512,5.776273756399999,996
105928,184487,227654,-2.9347969189,7.465606512,5.776273756399999,997
104999,184407,227619,-2.9347969189,7.465606512,5.776273756399999,998
104024,184324,227525,-2.9347969189,7.465606512,5.776273756399999,999
103246,184173,227513,-2.9347969189,7.465606512,5.776273756399999,1000
102839,184113,227413,-2.9347969189,7.465606512,5.776273756399999,1001
102796,184088,227345,-2.9347969189,7.465606512,5.776273756399999,1002
103077,184099,227409,-2.9347969189,7.465606512,5.776273756399999,1003
103417,184110,227367,-2.9347969189,7.465606512,5.776273756399999,1004
103712,184181,227365,-2.9347969189,7.465606512,5.776273756399999,1005
103929,184189,227440,-2.9347969189,7.465606512,5.776273756399999,1006
104162,184160,227437,-2.9347969189,7.465606512,5.776273756399999,1007
104458,184229,227429,-2.9347969189,7.465606512,5.776273756399999,1008
104807,184283,227470,-3.0173492985999997,7.3292156238,5.8085768615,1009
105061,184293,227512,-3.0173492985999997,7.3292156238,5.8085768615,1010
105504,184321,227497,-3.0173492985999997,7.3292156238,5.8085768615,1011
105855,184329,227569,-3.0173492985999997,7.3292156238,5.8085768615,1012
106230,184422,227550,-3.0173492985999997,7.3292156238,5.8085768615,1013
106576,184456,227633,-3.0173492985999997,7.3292156238,5.8085768615,1014
106925,184511,227684,-3.0173492985999997,7.3292156238,5.8085768615,1015
107155,184519,227655,-3.0173492985999997,7.3292156238,5.8085768615,1016
106879,184511,227662,-3.0173492985999997,7.3292156238,5.8085768615,1017
106029,184434,227641,-3.0173492985999997,7.3292156238,5.8085768615,1018
105061,184351,227586,-3.0173492985999997,7.3292156238,5.8085768615,1019
104327,184255,227535,-3.0173492985999997,7.3292156238,5.8085768615,1020
103849,184132,227425,-3.0173492985999997,7.3292156238,5.8085768615,1021
103746,184105,227358,-3.0173492985999997,7.3292156238,5.8085768615,1022
103978,184110,227391,-3.0173492985999997,7.3292156238,5.8085768615,1023
104401,184164,227409,-3.0173492985999997,7.3292156238,5.8085768615,1024
104534,184146,227409,-3.0173492985999997,7.3292156238,5.8085768615,1025
104768,184190,227389,-3.0173492985999997,7.3292156238,5.8085768615,1026
104952,184202,227434,-3.0173492985999997,7.3292156238,5.8085768615,1027
105144,184253,227497,-3.0173492985999997,7.3292156238,5.8085768615,1028
105449,184250,227495,-3.0173492985999997,7.3292156238,5.8085768615,1029
105778,184312,227496,-3.0173492985999997,7.3292156238,5.8085768615,1030
106086,184334,227509,-3.0173492985999997,7.3292156238,5.8085768615,1031
106421,184343,227558,-3.0173492985999997,7.3292156238,5.8085768615,1032
106766,184395,227576,-3.0173492985999997,7.3292156238,5.8085768615,1033
107097,184460,227624,-3.0173492985999997,7.3292156238,5.8085768615,1034
107504,184481,227649,-3.0173492985999997,7.3292156238,5.8085768615,1035
107749,184520,227634,-3.0173492985999997,7.3292156238,5.8085768615,1036
108130,184589,227668,-3.0173492985999997,7.3292156238,5.8085768615,1037
108330,184627,227711,-3.0173492985999997,7.3292156238,5.8085768615,1038
108644,184653,227756,-3.0173492985999997,7.3292156238,5.8085768615,1039
108905,184731,227817,-3.0173492985999997,7.3292156238,5.8085768615,1040
109115,184752,227784,-3.086741154,7.3842505436,5.8002019824,1041
109562,184800,227847,-3.086741154,7.3842505436,5.8002019824,1042
109477,184809,227889,-3.086741154,7.3842505436,5.8002019824,1043
109081,184807,227882,-3.086741154,7.3842505436,5.8002019824,1044
108077,184663,227820,-3.086741154,7.3842505436,5.8002019824,1045
107029,184564,227740,-3.086741154,7.3842505436,5.8002019824,1046
106147,184424,227645,-3.086741154,7.3842505436,5.8002019824,1047
105544,184370,227579,-3.086741154,7.3842505436,5.8002019824,1048
105284,184316,227526,-3.086741154,7.3842505436,5.8002019824,1049
105357,184307,227526,-3.086741154,7.3842505436,5.8002019824,1050
105534,184345,227552,-3.086741154,7.3842505436,5.8002019824,1051
105682,184318,227540,-3.086741154,7.3842505436,5.8002019824,1052
105796,184337,227516,-3.086741154,7.3842505436,5.8002019824,1053
105925,184352,227487,-3.086741154,7.3842505436,5.8002019824,1054
106070,184356,227580,-3.086741154,7.3842505436,5.8002019824,1055
106279,184374,227539,-3.086741154,7.3842505436,5.8002019824,1056
106531,184398,227557,-3.086741154,7.3842505436,5.8002019824,1057
106806,184482,227570,-3.086741154,7.3842505436,5.8002019824,1058
107113,184463,227594,-3.086741154,7.3842505436,5.8002019824,1059
107440,184483,227633,-3.086741154,7.3842505436,5.8002019824,1060
107739,184567,227651,-3.086741154,7.3842505436,5.8002019824,1061
108016,184597,227685,-3.086741154,7.3842505436,5.8002019824,1062
108315,184615,227707,-3.086741154,7.3842505436,5.8002019824,1063
108522,184656,227743,-3.086741154,7.3842505436,5.8002019824,1064
108417,184674,227722,-3.086741154,7.3842505436,5.8002019824,1065
107733,184582,227757,-3.086741154,7.3842505436,5.8002019824,1066
106754,184505,227689,-3.086741154,7.3842505436,5.8002019824,1067
105841,184342,227592,-3.086741154,7.3842505436,5.8002019824,1068
105206,184275,227519,-3.086741154,7.3842505436,5.8002019824,1069
104868,184192,227475,-3.086741154,7.3842505436,5.8002019824,1070
104910,184206,227457,-3.086741154,7.3842505436,5.8002019824,1071
105183,184220,227416,-3.086741154,7.3842505436,5.8002019824,1072
105430,184232,227421,-3.086741154,7.3842505436,5.8002019824,1073
105616,184259,227488,-3.086741154,7.3842505436,5.8002019824,1074
105781,184277,227455,-3.086741154,7.3842505436,5.8002019824,1075
105967,184286,227452,-3.086741154,7.3842505436,5.8002019824,1076
106201,184351,227508,-3.086741154,7.3842505436,5.8002019824,1077
106438,184349,227508,-3.086741154,7.3842505436,5.8002019824,1078
106734,184377,227545,-3.086741154,7.3842505436,5.8002019824,1079
107030,184402,227556,-3.086741154,7.3842505436,5.8002019824,1080
107373,184490,227595,-3.086741154,7.3842505436,5.8002019824,1081
107699,184475,227587,-3.086741154,7.3842505436,5.8002019824,1082
106949,184406,227529,-3.0783662749,7.405785946999999,5.9186467011,1083
107388,184444,227546,-3.0783662749,7.405785946999999,5.9186467011,1084
107561,184479,227540,-3.0783662749,7.405785946999999,5.9186467011,1085
107654,184508,227637,-3.0783662749,7.405785946999999,5.9186467011,1086
107318,184451,227567,-3.0783662749,7.405785946999999,5.9186467011,1087
106385,184350,227528,-3.0783662749,7.405785946999999,5.9186467011,1088
105409,184267,227463,-3.0783662749,7.405785946999999,5.9186467011,1089
104635,184138,227373,-3.0783662749,7.405785946999999,5.9186467011,1090
104220,184083,227284,-3.0783662749,7.405785946999999,5.9186467011,1091
104142,184021,227287,-3.0783662749,7.405785946999999,5.9186467011,1092
104349,184074,227326,-3.0783662749,7.405785946999999,5.9186467011,1093
104647,184091,227307,-3.0783662749,7.405785946999999,5.9186467011,1094
104852,184098,227334,-3.0783662749,7.405785946999999,5.9186467011,1095
105054,184133,227328,-3.0783662749,7.405785946999999,5.9186467011,1096
105244,184156,227360,-3.0783662749,7.405785946999999,5.9186467011,1097
105453,184181,227332,-3.0783662749,7.405785946999999,5.9186467011,1098
105714,184208,227376,-3.0783662749,7.405785946999999,5.9186467011,1099
106044,184213,227401,-3.0783662749,7.405785946999999,5.9186467011,1100
106375,184271,227446,-3.0783662749,7.405785946999999,5.9186467011,1101
106707,184303,227471,-3.0783662749,7.405785946999999,5.9186467011,1102
107036,184361,227487,-3.0783662749,7.405785946999999,5.9186467011,1103
107248,184372,227511,-3.0783662749,7.405785946999999,5.9186467011,1104
106960,184332,227521,-3.0783662749,7.405785946999999,5.9186467011,1105
106089,184275,227496,-3.0783662749,7.405785946999999,5.9186467011,1106
105038,184154,227470,-3.0783662749,7.405785946999999,5.9186467011,1107
104269,184000,227323,-2.9742784918,7.4703921572,5.8504512570000005,1108
103655,183920,227288,-2.9742784918,7.4703921572,5.8504512570000005,1109
103463,183889,227241,-2.9742784918,7.4703921572,5.8504512570000005,1110
103618,183877,227171,-2.9742784918,7.4703921572,5.8504512570000005,1111
103920,183873,227219,-2.9742784918,7.4703921572,5.8504512570000005,1112
104188,183911,227227,-2.9742784918,7.4703921572,5.8504512570000005,1113
104400,183917,227239,-2.9742784918,7.4703921572,5.8504512570000005,1114
104612,183959,227225,-2.9742784918,7.4703921572,5.8504512570000005,1115
104843,183989,227259,-2.9742784918,7.4703921572,5.8504512570000005,1116
105125,183985,227288,-2.9742784918,7.4703921572,5.8504512570000005,1117
105438,184005,227251,-2.9742784918,7.4703921572,5.8504512570000005,1118
105797,184066,227287,-2.9742784918,7.4703921572,5.8504512570000005,1119
106134,184099,227352,-2.9742784918,7.4703921572,5.8504512570000005,1120
106489,184125,227345,-2.9742784918,7.4703921572,5.8504512570000005,1121
106803,184217,227423,-2.9742784918,7.4703921572,5.8504512570000005,1122
107170,184234,227439,-2.9742784918,7.4703921572,5.8504512570000005,1123
107497,184301,227468,-2.9742784918,7.4703921572,5.8504512570000005,1124
107825,184354,227492,-2.9742784918,7.4703921572,5.8504512570000005,1125
108116,184385,227526,-2.9742784918,7.4703921572,5.8504512570000005,1126
108161,184375,227540,-2.9742784918,7.4703921572,5.8504512570000005,1127
107559,184354,227471,-2.9742784918,7.4703921572,5.8504512570000005,1128
106464,184221,227447,-2.9742784918,7.4703921572,5.8504512570000005,1129
105386,184107,227373,-2.9742784918,7.4703921572,5.8504512570000005,1130
104599,183965,227272,-2.9742784918,7.4703921572,5.8504512570000005,1131
104099,183881,227223,-2.9742784918,7.4703921572,5.8504512570000005,1132
103998,183885,227189,-2.9742784918,7.4703921572,5.8504512570000005,1133
104241,183903,227218,-2.9742784918,7.4703921572,5.8504512570000005,1134
104540,183915,227166,-2.9742784918,7.4703921572,5.8504512570000005,1135
104776,183932,227214,-2.9742784918,7.4703921572,5.8504512570000005,1136
104963,183952,227225,-2.9742784918,7.4703921572,5.8504512570000005,1137
105163,183968,227242,-2.9742784918,7.4703921572,5.8504512570000005,1138
105394,183978,227246,-2.9742784918,7.4703921572,5.8504512570000005,1139
105686,184004,227281,-2.9742784918,7.4703921572,5.8504512570000005,1140
106039,184022,227285,-2.9934210726,7.4811598589,5.8360943214,1141
106338,184083,227306,-2.9934210726,7.4811598589,5.8360943214,1142
106662,184124,227358,-2.9934210726,7.4811598589,5.8360943214,1143
107047,184163,227361,-2.9934210726,7.4811598589,5.8360943214,1144
107358,184211,227395,-2.9934210726,7.4811598589,5.8360943214,1145
107675,184260,227476,-2.9934210726,7.4811598589,5.8360943214,1146
108010,184323,227514,-2.9934210726,7.4811598589,5.8360943214,1147
108002,184335,227465,-2.9934210726,7.4811598589,5.8360943214,1148
107427,184249,227482,-2.9934210726,7.4811598589,5.8360943214,1149
106500,184148,227403,-2.9934210726,7.4811598589,5.8360943214,1150
105627,184088,227360,-2.9934210726,7.4811598589,5.8360943214,1151
105028,184003,227290,-2.9934210726,7.4811598589,5.8360943214,1152
104745,183943,227243,-2.9934210726,7.4811598589,5.8360943214,1153
104853,183939,227232,-2.9934210726,7.4811598589,5.8360943214,1154
105120,183985,227227,-2.9934210726,7.4811598589,5.8360943214,1155
105397,184020,227284,-2.9934210726,7.4811598589,5.8360943214,1156
105586,183997,227315,-2.9934210726,7.4811598589,5.8360943214,1157
105796,184020,227291,-2.9934210726,7.4811598589,5.8360943214,1158
105965,184055,227317,-2.9934210726,7.4811598589,5.8360943214,1159
106183,184063,227260,-2.9934210726,7.4811598589,5.8360943214,1160
106439,184123,227344,-2.9934210726,7.4811598589,5.8360943214,1161
106736,184147,227388,-2.9934210726,7.4811598589,5.8360943214,1162
107044,184202,227446,-2.9934210726,7.4811598589,5.8360943214,1163
107355,184242,227429,-2.9934210726,7.4811598589,5.8360943214,1164
107680,184273,227441,-2.9934210726,7.4811598589,5.8360943214,1165
107998,184335,227473,-2.9934210726,7.4811598589,5.8360943214,1166
108289,184375,227547,-2.9934210726,7.4811598589,5.8360943214,1167
108388,184381,227573,-2.9934210726,7.4811598589,5.8360943214,1168
107891,184311,227519,-2.9934210726,7.4811598589,5.8360943214,1169
106905,184243,227490,-2.9934210726,7.4811598589,5.8360943214,1170
105900,184125,227412,-2.9934210726,7.4811598589,5.8360943214,1171
105138,184038,227320,-2.9934210726,7.4811598589,5.8360943214,1172
104838,183935,227272,-3.0723842184,7.4488567538,5.7954163372,1173
104587,183923,227224,-3.0723842184,7.4488567538,5.7954163372,1174
104789,183927,227209,-3.0723842184,7.4488567538,5.7954163372,1175
105075,183947,227221,-3.0723842184,7.4488567538,5.7954163372,1176
105290,183960,227209,-3.0723842184,7.4488567538,5.7954163372,1177
105465,183988,227243,-3.0723842184,7.4488567538,5.7954163372,1178
105660,183982,227263,-3.0723842184,7.4488567538,5.7954163372,1179
105833,184034,227277,-3.0723842184,7.4488567538,5.7954163372,1180
106121,184051,227312,-3.0723842184,7.4488567538,5.7954163372,1181
106396,184079,227366,-3.0723842184,7.4488567538,5.7954163372,1182
106702,184134,227348,-3.0723842184,7.4488567538,5.7954163372,1183
107037,184156,227379,-3.0723842184,7.4488567538,5.7954163372,1184
107441,184189,227442,-3.0723842184,7.4488567538,5.7954163372,1185
107634,184242,227421,-3.0723842184,7.4488567538,5.7954163372,1186
107639,184264,227467,-3.0723842184,7.4488567538,5.7954163372,1187
107038,184175,227435,-3.0723842184,7.4488567538,5.7954163372,1188
106064,184088,227350,-3.0723842184,7.4488567538,5.7954163372,1189
105120,183986,227302,-3.0723842184,7.4488567538,5.7954163372,1190
104432,183858,227204,-3.0723842184,7.4488567538,5.7954163372,1191
104026,183808,227176,-3.0723842184,7.4488567538,5.7954163372,1192
104085,183772,227153,-3.0723842184,7.4488567538,5.7954163372,1193
104443,183788,227117,-3.0723842184,7.4488567538,5.7954163372,1194
104766,183820,227162,-3.0723842184,7.4488567538,5.7954163372,1195
104879,183819,227178,-3.0723842184,7.4488567538,5.7954163372,1196
105045,183839,227204,-3.0723842184,7.4488567538,5.7954163372,1197
105236,183891,227218,-3.0723842184,7.4488567538,5.7954163372,1198
105474,183911,227184,-3.0723842184,7.4488567538,5.7954163372,1199
105756,183941,227236,-3.0723842184,7.4488567538,5.7954163372,1200
106099,183989,227240,-3.0723842184,7.4488567538,5.7954163372,1201
106431,184005,227295,-3.0723842184,7.4488567538,5.7954163372,1202
106784,184042,227348,-3.0723842184,7.4488567538,5.7954163372,1203
107108,184112,227359,-3.0723842184,7.4488567538,5.7954163372,1204
107436,184179,227360,-3.0412775246,7.4368926408,5.8097732728,1205
107578,184172,227420,-3.0412775246,7.4368926408,5.8097732728,1206
107128,184130,227369,-3.0412775246,7.4368926408,5.8097732728,1207
106169,184055,227321,-3.0412775246,7.4368926408,5.8097732728,1208
105165,183912,227277,-3.0412775246,7.4368926408,5.8097732728,1209
104418,183801,227218,-3.0412775246,7.4368926408,5.8097732728,1210
103980,183749,227117,-3.0412775246,7.4368926408,5.8097732728,1211
103922,183717,227073,-3.0412775246,7.4368926408,5.8097732728,1212
104172,183742,227091,-3.0412775246,7.4368926408,5.8097732728,1213
104465,183758,227146,-3.0412775246,7.4368926408,5.8097732728,1214
104678,183791,227109,-3.0412775246,7.4368926408,5.8097732728,1215
104854,183763,227148,-3.0412775246,7.4368926408,5.8097732728,1216
105049,183790,227124,-3.0412775246,7.4368926408,5.8097732728,1217
105232,183832,227147,-3.0412775246,7.4368926408,5.8097732728,1218
105522,183864,227166,-3.0412775246,7.4368926408,5.8097732728,1219
105838,183906,227190,-3.0412775246,7.4368926408,5.8097732728,1220
106163,183918,227215,-3.0412775246,7.4368926408,5.8097732728,1221
106357,183962,227256,-3.0412775246,7.4368926408,5.8097732728,1222
105993,183917,227252,-3.0412775246,7.4368926408,5.8097732728,1223
105153,183811,227195,-3.0412775246,7.4368926408,5.8097732728,1224
104230,183732,227094,-3.0412775246,7.4368926408,5.8097732728,1225
103514,183628,227056,-3.0412775246,7.4368926408,5.8097732728,1226
103136,183549,227003,-3.0412775246,7.4368926408,5.8097732728,1227
103171,183528,226962,-3.0412775246,7.4368926408,5.8097732728,1228
103477,183573,226994,-3.0412775246,7.4368926408,5.8097732728,1229
103852,183587,227001,-2.9587251449000003,7.5122665527,5.8516476683,1230
104008,183619,227022,-2.9587251449000003,7.5122665527,5.8516476683,1231
104226,183617,227037,-2.9587251449000003,7.5122665527,5.8516476683,1232
104433,183649,227044,-2.9587251449000003,7.5122665527,5.8516476683,1233
104668,183708,227098,-2.9587251449000003,7.5122665527,5.8516476683,1234
104945,183705,227099,-2.9587251449000003,7.5122665527,5.8516476683,1235
105260,183756,227130,-2.9587251449000003,7.5122665527,5.8516476683,1236
105587,183812,227164,-2.9587251449000003,7.5122665527,5.8516476683,1237
105940,183843,227209,-2.9587251449000003,7.5122665527,5.8516476683,1238
106153,183851,227227,-2.9587251449000003,7.5122665527,5.8516476683,1239
105857,183865,227189,-2.9587251449000003,7.5122665527,5.8516476683,1240
104918,183753,227152,-2.9587251449000003,7.5122665527,5.8516476683,1241
103853,183617,227116,-2.9587251449000003,7.5122665527,5.8516476683,1242
103021,183489,226982,-2.9587251449000003,7.5122665527,5.8516476683,1243
102430,183402,226912,-2.9587251449000003,7.5122665527,5.8516476683,1244
102283,183359,226900,-2.9587251449000003,7.5122665527,5.8516476683,1245
102548,183358,226885,-2.9587251449000003,7.5122665527,5.8516476683,1246
102871,183375,226885,-2.9587251449000003,7.5122665527,5.8516476683,1247
103149,183450,226942,-2.9587251449000003,7.5122665527,5.8516476683,1248
103337,183469,226948,-2.9587251449000003,7.5122665527,5.8516476683,1249
103612,183510,226956,-2.9587251449000003,7.5122665527,5.8516476683,1250
103912,183518,227007,-2.9587251449000003,7.5122665527,5.8516476683,1251
104236,183528,227004,-2.9587251449000003,7.5122665527,5.8516476683,1252
104589,183602,227063,-2.9587251449000003,7.5122665527,5.8516476683,1253
104954,183629,227085,-2.9587251449000003,7.5122665527,5.8516476683,1254
105339,183704,227115,-2.9587251449000003,7.5122665527,5.8516476683,1255
105686,183750,227153,-2.9587251449000003,7.5122665527,5.8516476683,1256
106043,183782,227170,-2.9587251449000003,7.5122665527,5.8516476683,1257
106410,183846,227231,-2.9587251449000003,7.5122665527,5.8516476683,1258
106732,183867,227243,-2.9587251449000003,7.5122665527,5.8516476683,1259
106786,183894,227287,-2.9587251449000003,7.5122665527,5.8516476683,1260
106208,183848,227253,-2.9587251449000003,7.5122665527,5.8516476683,1261
105251,183743,227231,-2.9563323222999998,7.4524459877,5.8337014988,1262
104148,183596,227082,-2.9563323222999998,7.4524459877,5.8337014988,1263
103276,183473,227036,-2.9563323222999998,7.4524459877,5.8337014988,1264
102772,183383,226951,-2.9563323222999998,7.4524459877,5.8337014988,1265
102650,183359,226895,-2.9563323222999998,7.4524459877,5.8337014988,1266
102895,183361,226893,-2.9563323222999998,7.4524459877,5.8337014988,1267
103176,183364,226931,-2.9563323222999998,7.4524459877,5.8337014988,1268
103412,183416,226957,-2.9563323222999998,7.4524459877,5.8337014988,1269
103638,183401,226984,-2.9563323222999998,7.4524459877,5.8337014988,1270
103843,183462,226998,-2.9563323222999998,7.4524459877,5.8337014988,1271
104116,183422,227000,-2.9563323222999998,7.4524459877,5.8337014988,1272
104437,183527,227008,-2.9563323222999998,7.4524459877,5.8337014988,1273
104761,183570,227062,-2.9563323222999998,7.4524459877,5.8337014988,1274
105116,183600,227036,-2.9563323222999998,7.4524459877,5.8337014988,1275
105461,183650,227126,-2.9563323222999998,7.4524459877,5.8337014988,1276
105816,183693,227168,-2.9563323222999998,7.4524459877,5.8337014988,1277
106159,183736,227179,-2.9563323222999998,7.4524459877,5.8337014988,1278
106507,183787,227230,-2.9563323222999998,7.4524459877,5.8337014988,1279
106840,183852,227269,-2.9563323222999998,7.4524459877,5.8337014988,1280
107174,183904,227304,-2.9563323222999998,7.4524459877,5.8337014988,1281
107486,183975,227335,-2.9563323222999998,7.4524459877,5.8337014988,1282
107814,184009,227400,-2.9563323222999998,7.4524459877,5.8337014988,1283
108136,184048,227385,-2.9563323222999998,7.4524459877,5.8337014988,1284
108427,184105,227349,-2.9563323222999998,7.4524459877,5.8337014988,1285
108705,184142,227463,-2.9563323222999998,7.4524459877,5.8337014988,1286
109017,184200,227485,-2.9563323222999998,7.4524459877,5.8337014988,1287
109288,184259,227494,-2.9563323222999998,7.4524459877,5.8337014988,1288
109417,184259,227546,-2.9563323222999998,7.4524459877,5.8337014988,1289
108926,184241,227540,-2.9563323222999998,7.4524459877,5.8337014988,1290
107981,184158,227499,-2.9563323222999998,7.4524459877,5.8337014988,1291
106947,184028,227402,-2.9563323222999998,7.4524459877,5.8337014988,1292
106097,183926,227317,-2.9563323222999998,7.4524459877,5.8337014988,1293
105497,183812,227220,-2.9563323222999998,7.4524459877,5.8337014988,1294
105235,183746,227140,-2.9563323222999998,7.4524459877,5.8337014988,1295
105305,183735,227140,-2.9563323222999998,7.4524459877,5.8337014988,1296
105446,183755,227175,-2.9563323222999998,7.4524459877,5.8337014988,1297
105601,183768,227182,-2.9563323222999998,7.4524459877,5.8337014988,1298
105689,183763,227175,-2.9563323222999998,7.4524459877,5.8337014988,1299
105795,183806,227227,-2.9563323222999998,7.4524459877,5.8337014988,1300
105960,183784,227220,-2.9563323222999998,7.4524459877,5.8337014988,1301
106177,183826,227194,-2.9563323222999998,7.4524459877,5.8337014988,1302
106388,183842,227251,-2.9563323222999998,7.4524459877,5.8337014988,1303
107536,183985,227308,-2.9204399833,7.403393124400001,5.860022547400001,1304
107866,184046,227359,-2.9204399833,7.403393124400001,5.860022547400001,1305
108288,184072,227380,-2.9204399833,7.403393124400001,5.860022547400001,1306
108445,184113,227386,-2.9204399833,7.403393124400001,5.860022547400001,1307
108689,184155,227409,-2.9204399833,7.403393124400001,5.860022547400001,1308
108914,184212,227430,-2.9204399833,7.403393124400001,5.860022547400001,1309
108875,184209,227432,-2.9204399833,7.403393124400001,5.860022547400001,1310
108343,184162,227458,-2.9204399833,7.403393124400001,5.860022547400001,1311
107440,184077,227404,-2.9204399833,7.403393124400001,5.860022547400001,1312
106570,183968,227304,-2.9204399833,7.403393124400001,5.860022547400001,1313
105946,183827,227243,-2.9204399833,7.403393124400001,5.860022547400001,1314
105595,183828,227188,-2.9204399833,7.403393124400001,5.860022547400001,1315
105595,183794,227182,-2.9204399833,7.403393124400001,5.860022547400001,1316
105717,183796,227172,-2.9204399833,7.403393124400001,5.860022547400001,1317
105889,183866,227185,-2.9204399833,7.403393124400001,5.860022547400001,1318
106039,183839,227228,-2.9204399833,7.403393124400001,5.860022547400001,1319
106182,183834,227257,-2.9204399833,7.403393124400001,5.860022547400001,1320
106300,183869,227234,-2.9204399833,7.403393124400001,5.860022547400001,1321
106513,183887,227256,-2.9204399833,7.403393124400001,5.860022547400001,1322
106735,183924,227265,-2.9204399833,7.403393124400001,5.860022547400001,1323
106991,183922,227228,-2.9204399833,7.403393124400001,5.860022547400001,1324
107247,183960,227298,-2.9204399833,7.403393124400001,5.860022547400001,1325
107548,184006,227352,-2.9204399833,7.403393124400001,5.860022547400001,1326
107842,184077,227378,-2.9204399833,7.403393124400001,5.860022547400001,1327
108104,184118,227396,-2.9204399833,7.403393124400001,5.860022547400001,1328
108386,184152,227397,-2.9204399833,7.403393124400001,5.860022547400001,1329
108573,184194,227448,-2.9204399833,7.403393124400001,5.860022547400001,1330
108404,184176,227449,-2.9204399833,7.403393124400001,5.860022547400001,1331
107687,184128,227478,-2.9204399833,7.403393124400001,5.860022547400001,1332
106751,184004,227416,-2.9204399833,7.403393124400001,5.860022547400001,1333
105919,183894,227327,-2.9204399833,7.403393124400001,5.860022547400001,1334
105347,183793,227277,-2.9204399833,7.403393124400001,5.860022547400001,1335
105081,183753,227211,-2.9204399833,7.403393124400001,5.860022547400001,1336
105136,183754,227216,-2.9204399833,7.403393124400001,5.860022547400001,1337
105353,183775,227166,-2.9204399833,7.403393124400001,5.860022547400001,1338
105558,183763,227197,-2.9204399833,7.403393124400001,5.860022547400001,1339
105717,183773,227166,-2.9204399833,7.403393124400001,5.860022547400001,1340
105856,183797,227228,-2.9204399833,7.403393124400001,5.860022547400001,1341
106046,183807,227214,-2.9204399833,7.403393124400001,5.860022547400001,1342
106248,183873,227243,-2.9204399833,7.403393124400001,5.860022547400001,1343
106509,183907,227287,-2.9204399833,7.403393124400001,5.860022547400001,1344
106791,183931,227259,-2.9204399833,7.403393124400001,5.860022547400001,1345
104409,183529,227029,-2.9431717980000003,7.472784979799999,5.74277424,1346
104110,183465,227000,-2.9431717980000003,7.472784979799999,5.74277424,1347
104253,183471,226999,-2.9431717980000003,7.472784979799999,5.74277424,1348
104399,183456,227007,-2.9431717980000003,7.472784979799999,5.74277424,1349
104657,183520,226999,-2.9431717980000003,7.472784979799999,5.74277424,1350
104966,183531,227032,-2.9431717980000003,7.472784979799999,5.74277424,1351
105122,183566,227036,-2.9431717980000003,7.472784979799999,5.74277424,1352
105361,183570,227039,-2.9431717980000003,7.472784979799999,5.74277424,1353
105642,183581,227100,-2.9431717980000003,7.472784979799999,5.74277424,1354
105924,183636,227061,-2.9431717980000003,7.472784979799999,5.74277424,1355
106262,183677,227151,-2.9431717980000003,7.472784979799999,5.74277424,1356
106626,183695,227179,-2.9431717980000003,7.472784979799999,5.74277424,1357
106963,183752,227190,-2.9431717980000003,7.472784979799999,5.74277424,1358
107289,183815,227192,-2.9431717980000003,7.472784979799999,5.74277424,1359
107363,183804,227221,-2.9431717980000003,7.472784979799999,5.74277424,1360
106878,183766,227216,-2.9431717980000003,7.472784979799999,5.74277424,1361
105967,183659,227177,-2.9431717980000003,7.472784979799999,5.74277424,1362
105071,183524,227077,-2.9431717980000003,7.472784979799999,5.74277424,1363
104419,183452,227006,-2.9431717980000003,7.472784979799999,5.74277424,1364
104099,183400,226956,-2.9431717980000003,7.472784979799999,5.74277424,1365
104172,183362,226952,-2.9431717980000003,7.472784979799999,5.74277424,1366
104476,183386,226979,-2.9431717980000003,7.472784979799999,5.74277424,1367
104792,183407,226951,-2.9431717980000003,7.472784979799999,5.74277424,1368
105037,183434,226979,-2.9431717980000003,7.472784979799999,5.74277424,1369
105286,183477,226980,-2.9431717980000003,7.472784979799999,5.74277424,1370
105510,183498,227033,-2.9431717980000003,7.472784979799999,5.74277424,1371
105784,183544,227056,-2.9431717980000003,7.472784979799999,5.74277424,1372
106108,183545,227086,-2.9431717980000003,7.472784979799999,5.74277424,1373
106433,183612,227084,-2.9431717980000003,7.472784979799999,5.74277424,1374
106788,183660,227161,-2.9431717980000003,7.472784979799999,5.74277424,1375
107170,183728,227157,-2.9431717980000003,7.472784979799999,5.74277424,1376
107502,183750,227183,-2.9431717980000003,7.472784979799999,5.74277424,1377
107798,183790,227247,-2.9431717980000003,7.472784979799999,5.74277424,1378
107779,183813,227243,-2.9431717980000003,7.472784979799999,5.74277424,1379
107200,183736,227199,-2.9431717980000003,7.472784979799999,5.74277424,1380
106257,183635,227136,-2.9431717980000003,7.472784979799999,5.74277424,1381
105432,183533,227055,-2.9431717980000003,7.472784979799999,5.74277424,1382
104879,183412,226975,-2.9431717980000003,7.472784979799999,5.74277424,1383
104728,183382,226957,-2.9623143788,7.526623488299999,5.8169517405999995,1384
104756,183391,226920,-2.9623143788,7.526623488299999,5.8169517405999995,1385
105053,183427,226956,-2.9623143788,7.526623488299999,5.8169517405999995,1386
105267,183398,226985,-2.9623143788,7.526623488299999,5.8169517405999995,1387
105512,183457,226982,-2.9623143788,7.526623488299999,5.8169517405999995,1388
105703,183464,227028,-2.9623143788,7.526623488299999,5.8169517405999995,1389
105923,183500,227013,-2.9623143788,7.526623488299999,5.8169517405999995,1390
106164,183529,227038,-2.9623143788,7.526623488299999,5.8169517405999995,1391
106451,183554,227077,-2.9623143788,7.526623488299999,5.8169517405999995,1392
106767,183644,227072,-2.9623143788,7.526623488299999,5.8169517405999995,1393
107117,183626,227124,-2.9623143788,7.526623488299999,5.8169517405999995,1394
107447,183692,227124,-2.9623143788,7.526623488299999,5.8169517405999995,1395
107776,183741,227175,-2.9623143788,7.526623488299999,5.8169517405999995,1396
108101,183773,227213,-2.9623143788,7.526623488299999,5.8169517405999995,1397
108413,183800,227219,-2.9623143788,7.526623488299999,5.8169517405999995,1398
108660,183864,227278,-2.9623143788,7.526623488299999,5.8169517405999995,1399
108597,183866,227290,-2.9623143788,7.526623488299999,5.8169517405999995,1400
107940,183813,227261,-2.9623143788,7.526623488299999,5.8169517405999995,1401
106912,183675,227196,-2.9623143788,7.526623488299999,5.8169517405999995,1402
105965,183537,227080,-2.9623143788,7.526623488299999,5.8169517405999995,1403
105276,183487,227040,-2.9623143788,7.526623488299999,5.8169517405999995,1404
104913,183394,226976,-2.9623143788,7.526623488299999,5.8169517405999995,1405
104941,183389,226969,-2.9623143788,7.526623488299999,5.8169517405999995,1406
105134,183389,226931,-2.9623143788,7.526623488299999,5.8169517405999995,1407
105361,183417,226962,-2.9623143788,7.526623488299999,5.8169517405999995,1408
105558,183411,226968,-2.9623143788,7.526623488299999,5.8169517405999995,1409
105722,183445,227024,-2.9623143788,7.526623488299999,5.8169517405999995,1410
105898,183500,227050,-2.9623143788,7.526623488299999,5.8169517405999995,1411
106109,183505,227072,-2.9623143788,7.526623488299999,5.8169517405999995,1412
106388,183530,227073,-2.9623143788,7.526623488299999,5.8169517405999995,1413
106667,183592,227105,-2.9623143788,7.526623488299999,5.8169517405999995,1414
107003,183630,227100,-2.9623143788,7.526623488299999,5.8169517405999995,1415
107306,183665,227144,-2.9503502657999996,7.5409804239,5.7403814174,1416
107207,183663,227162,-2.9503502657999996,7.5409804239,5.7403814174,1417
106594,183598,227129,-2.9503502657999996,7.5409804239,5.7403814174,1418
105701,183487,227063,-2.9503502657999996,7.5409804239,5.7403814174,1419
104873,183376,227011,-2.9503502657999996,7.5409804239,5.7403814174,1420
104252,183261,226893,-2.9503502657999996,7.5409804239,5.7403814174,1421
104042,183237,226904,-2.9503502657999996,7.5409804239,5.7403814174,1422
104203,183231,226905,-2.9503502657999996,7.5409804239,5.7403814174,1423
104513,183251,226937,-2.9503502657999996,7.5409804239,5.7403814174,1424
104787,183308,226931,-2.9503502657999996,7.5409804239,5.7403814174,1425
105041,183363,226958,-2.9503502657999996,7.5409804239,5.7403814174,1426
105318,183327,226961,-2.9503502657999996,7.5409804239,5.7403814174,1427
105506,183410,227005,-2.9503502657999996,7.5409804239,5.7403814174,1428
105871,183423,226998,-2.9503502657999996,7.5409804239,5.7403814174,1429
105830,183421,227012,-2.9503502657999996,7.5409804239,5.7403814174,1430
105645,183427,227018,-2.9503502657999996,7.5409804239,5.7403814174,1431
105370,183368,226964,-2.9503502657999996,7.5409804239,5.7403814174,1432
105353,183373,226965,-2.9503502657999996,7.5409804239,5.7403814174,1433
105642,183377,227001,-2.9503502657999996,7.5409804239,5.7403814174,1434
106061,183452,227003,-2.9503502657999996,7.5409804239,5.7403814174,1435
106458,183498,227041,-2.9503502657999996,7.5409804239,5.7403814174,1436
106778,183521,227108,-2.9503502657999996,7.5409804239,5.7403814174,1437
107056,183606,227071,-2.9503502657999996,7.5409804239,5.7403814174,1438
107316,183621,227125,-2.9503502657999996,7.5409804239,5.7403814174,1439
107589,183655,227154,-2.9503502657999996,7.5409804239,5.7403814174,1440
107869,183683,227174,-2.9503502657999996,7.5409804239,5.7403814174,1441
108166,183734,227189,-2.9503502657999996,7.5409804239,5.7403814174,1442
108458,183793,227253,-2.9503502657999996,7.5409804239,5.7403814174,1443
108747,183809,227255,-2.9503502657999996,7.5409804239,5.7403814174,1444
109044,183884,227312,-2.9503502657999996,7.5409804239,5.7403814174,1445
109326,183943,227341,-2.9503502657999996,7.5409804239,5.7403814174,1446
109647,183989,227407,-2.9503502657999996,7.5409804239,5.7403814174,1447
109717,184031,227369,-3.086741154,7.4907311493,5.9102718219999995,1448
108914,183957,227373,-3.086741154,7.4907311493,5.9102718219999995,1449
107639,183774,227287,-3.086741154,7.4907311493,5.9102718219999995,1450
106529,183661,227177,-3.086741154,7.4907311493,5.9102718219999995,1451
105735,183532,227132,-3.086741154,7.4907311493,5.9102718219999995,1452
105309,183446,227015,-3.086741154,7.4907311493,5.9102718219999995,1453
105242,183456,227051,-3.086741154,7.4907311493,5.9102718219999995,1454
105387,183449,227010,-3.086741154,7.4907311493,5.9102718219999995,1455
105525,183465,227038,-3.086741154,7.4907311493,5.9102718219999995,1456
105605,183512,227003,-3.086741154,7.4907311493,5.9102718219999995,1457
105729,183499,227084,-3.086741154,7.4907311493,5.9102718219999995,1458
105822,183544,227054,-3.086741154,7.4907311493,5.9102718219999995,1459
106048,183575,227062,-3.086741154,7.4907311493,5.9102718219999995,1460
106285,183586,227077,-3.086741154,7.4907311493,5.9102718219999995,1461
106547,183633,227151,-3.086741154,7.4907311493,5.9102718219999995,1462
106820,183690,227144,-3.086741154,7.4907311493,5.9102718219999995,1463
107135,183711,227178,-3.086741154,7.4907311493,5.9102718219999995,1464
107424,183744,227226,-3.086741154,7.4907311493,5.9102718219999995,1465
107720,183767,227221,-3.086741154,7.4907311493,5.9102718219999995,1466
107972,183786,227252,-3.086741154,7.4907311493,5.9102718219999995,1467
108259,183874,227275,-3.086741154,7.4907311493,5.9102718219999995,1468
108513,183915,227318,-3.086741154,7.4907311493,5.9102718219999995,1469
108902,183895,227352,-3.086741154,7.4907311493,5.9102718219999995,1470
108602,183926,227346,-3.086741154,7.4907311493,5.9102718219999995,1471
107746,183826,227324,-3.086741154,7.4907311493,5.9102718219999995,1472
106538,183709,227218,-2.9922246613000003,7.4392854634,5.7236316592000005,1473
105355,183567,227151,-2.9922246613000003,7.4392854634,5.7236316592000005,1474
104612,183442,227024,-2.9922246613000003,7.4392854634,5.7236316592000005,1475
104123,183372,227000,-2.9922246613000003,7.4392854634,5.7236316592000005,1476
104039,183373,226981,-2.9922246613000003,7.4392854634,5.7236316592000005,1477
104242,183339,226963,-2.9922246613000003,7.4392854634,5.7236316592000005,1478
104437,183405,226958,-2.9922246613000003,7.4392854634,5.7236316592000005,1479
104614,183398,226971,-2.9922246613000003,7.4392854634,5.7236316592000005,1480
104780,183412,226996,-2.9922246613000003,7.4392854634,5.7236316592000005,1481
104949,183426,226984,-2.9922246613000003,7.4392854634,5.7236316592000005,1482
105188,183460,226995,-2.9922246613000003,7.4392854634,5.7236316592000005,1483
105470,183484,227001,-2.9922246613000003,7.4392854634,5.7236316592000005,1484
105775,183524,227048,-2.9922246613000003,7.4392854634,5.7236316592000005,1485
106099,183598,227075,-2.9922246613000003,7.4392854634,5.7236316592000005,1486
106399,183617,227152,-2.9922246613000003,7.4392854634,5.7236316592000005,1487
106525,183636,227144,-2.9922246613000003,7.4392854634,5.7236316592000005,1488
106090,183579,227106,-2.9922246613000003,7.4392854634,5.7236316592000005,1489
105217,183490,227100,-2.9922246613000003,7.4392854634,5.7236316592000005,1490
104285,183350,226994,-2.9922246613000003,7.4392854634,5.7236316592000005,1491
103569,183262,226938,-3.0364918793999998,7.505088084900001,5.7583275869,1492
103159,183181,226882,-3.0364918793999998,7.505088084900001,5.7583275869,1493
103277,183177,226850,-3.0364918793999998,7.505088084900001,5.7583275869,1494
103602,183215,226859,-3.0364918793999998,7.505088084900001,5.7583275869,1495
103932,183221,226910,-3.0364918793999998,7.505088084900001,5.7583275869,1496
104177,183232,226908,-3.0364918793999998,7.505088084900001,5.7583275869,1497
104418,183284,226943,-3.0364918793999998,7.505088084900001,5.7583275869,1498
104643,183315,226953,-3.0364918793999998,7.505088084900001,5.7583275869,1499
104942,183366,226970,-3.0364918793999998,7.505088084900001,5.7583275869,1500
105259,183386,226998,-3.0364918793999998,7.505088084900001,5.7583275869,1501
105603,183450,227009,-3.0364918793999998,7.505088084900001,5.7583275869,1502
105975,183505,227060,-3.0364918793999998,7.505088084900001,5.7583275869,1503
106321,183533,227100,-3.0364918793999998,7.505088084900001,5.7583275869,1504
106716,183555,227136,-2.9718856692,7.488338326699999,5.9162538785,1505
107019,183686,227151,-3.0999016782999997,7.4679993346,5.8396835553,1506
107335,183678,227181,-2.8654050635,7.349554615900001,5.8337014988,1507
106835,183659,227184,-3.0340990568,7.4512495764,5.7834522241999995,1508
105838,183538,227094,-2.9551359109999997,7.4620172781,5.8073804502,1509
104725,183387,227009,-2.8666014748,7.477570625,5.9018969429000006,1510
103911,183287,226947,-2.9491538545,7.453642399,5.9054861768,1511
103405,183217,226897,-2.9682964353,7.4368926408,5.790630692000001,1512
103383,183198,226840,-2.9563323222999998,7.3627151402,5.8157553293,1513
103671,183078,226898,-2.9982067177999996,7.335197680299999,5.8695938378,1514
103898,183223,226876,-2.9802605483,7.4823562701999995,5.7858450468,1515
104082,183250,226896,-3.0604201053999995,7.378268487100001,5.826523031,1516
104318,183276,226928,-3.038884702,7.3555366724,5.8947184750999995,1517
104595,183336,226942,-3.0616165167,7.357929495,5.8145589179999995,1518
