green,red,IR,acc_x,acc_y,acc_z,sample_index
39100,149785,145383,-9.2554378168,-2.4179472373,2.1966111468,1
39038,149835,145384,-9.2051885422,-2.4598216327999998,2.1643080417,2
39017,149808,145402,-9.1070828156,-2.4059831243,2.1738793321000003,3
39038,149840,145407,-9.0125663229,-2.4203400599,2.081755662,4
39072,149850,145380,-9.0831545896,-2.3796620756999998,2.1224336462,5
39106,149885,145441,-9.1238325738,-2.3748764305,2.2085752598,6
39076,149877,145413,-9.0855474122,-2.4598216327999998,2.0662023151,7
39123,149865,145402,-9.1238325738,-2.2995025186,2.1571295739000003,8
39144,149861,145421,-9.2757768089,-2.4957139718,2.1128623558,9
39165,149878,145425,-8.9862452743,-2.4119651808,2.1152551784,10
39191,149867,145448,-9.2781696315,-2.3832513096,2.1343977592,11
39236,149873,145407,-9.0029950325,-2.3557338497,2.1990039694,12
39281,149885,145429,-9.0903330574,-2.5411776012,2.1272192914,13
39323,149889,145425,-9.1106720495,-2.4131615921,2.069791549,14
39348,149892,145446,-9.1058864043,-2.3186450994000003,2.0985054202,15
39415,149894,145447,-9.0293160811,-2.3988046565,2.1475582835,16
39433,149899,145452,-9.1728854371,-2.4777678023000003,2.1523439287,17
39471,149916,145450,-9.1034935817,-2.4382862294,2.141576227,18
39500,149922,145439,-9.1011007591,-2.3605194949,2.1870398563999998,19
39532,149895,145451,-9.1669033806,-2.5196421978,2.0195422744,20
39574,149888,145426,-9.0436730167,-2.5328027221,2.1631116304,21
39509,149843,145448,-9.0987079365,-2.4753749797,2.2325034857999997,22
39304,149750,145403,-9.2171526552,-2.3365912689,2.1571295739000003,23
39056,149739,145361,-9.1465643885,-2.488535504,2.1320049366,24
38891,149713,145348,-9.0532443071,-2.4275185276999998,2.0721843716,25
38788,149672,145364,-8.9910309195,-2.5316063108,2.0913269524,26
38734,149682,145348,-9.1549392676,-2.4693929232,2.2109680824,27
38696,149696,145335,-9.219545477799999,-2.5651058272,2.1152551784,28
38719,149659,145367,-9.1274218077,-2.4382862294,2.0769700168,29
38764,149681,145368,-9.1956172518,-2.3700907853,2.1343977592,30
38784,149687,145344,-9.1956172518,-2.5950161097,2.0721843716,31
38792,149650,145354,-9.1800639049,-2.4107687694999997,2.1140587671,32
38811,149671,145369,-9.1573320902,-2.3437697367,2.0327027987,33
38825,149678,145363,-9.1573320902,-2.4059831243,2.1583259852,34
38855,149671,145388,-9.0975115252,-2.3808584870000002,2.0315063874,35
38901,149676,145378,-9.1501536224,-2.5363919559999997,2.1320049366,36
38965,149707,145413,-9.0604227749,-2.5854448193,2.1547367513,37
38979,149703,145391,-9.050851484499999,-2.4897319153,2.0482561456,38
39053,149721,145406,-9.0735832992,-2.5651058272,2.0985054202,39
39087,149764,145409,-8.913264185,-2.4143580034,2.093719775,40
39152,149791,145449,-9.0532443071,-2.4179472373,2.1200408236,41
39188,149776,145417,-9.1740818484,-2.5076780847999998,2.1128623558,42
39239,149805,145430,-9.1704926145,-2.3617159062,2.0195422744,43
39274,149818,145431,-9.0771725331,-2.4107687694999997,2.2109680824,44
39334,149832,145456,-9.0676012427,-2.404786713,2.0673987264,45
39381,149845,145450,-9.152546445,-2.5196421978,2.1631116304,46
39285,149812,145463,-9.0771725331,-2.4634108667000003,2.0985054202,47
39070,149768,145420,-9.041280194099999,-2.4107687694999997,2.1511475174,48
38877,149732,145403,-9.0771725331,-2.4550359876,2.2815563491,49
38766,149712,145408,-9.2255275343,-2.4227328825,2.0829520733,50
38730,149767,145410,-9.2099741874,-2.4454646972,2.0051853388,51
38708,149719,145384,-9.1633141467,-2.4574288102,2.0865413072,52
38707,149750,145417,-9.044869428,-2.3988046565,2.2169501389,53
38785,149754,145406,-9.0999043478,-2.4502503424,2.1499511061,54
38844,149771,145418,-9.0245304359,-2.4717857458,2.1188444122999996,55
38900,149783,145439,-9.0341017263,-2.3988046565,2.1499511061,56
38941,149809,145457,-9.1812603162,-2.3772692530999997,2.1882362677000002,57
38981,149770,145435,-9.038887371500001,-2.4311077616,2.1631116304,58
39040,149814,145454,-9.0831545896,-2.4000010678,2.1678972756,59
39101,149811,145440,-9.2255275343,-2.4119651808,2.1320049366,60
39176,149873,145461,-9.200402897,-2.4179472373,2.0949161863,61
39247,149856,145467,-9.0723868879,-2.4753749797,2.0063817501,62
39328,149887,145476,-9.1322074529,-2.4358934068,2.1391834043999998,63
39401,149946,145485,-9.1381895094,-2.5447668351,2.0673987264,64
39496,149913,145472,-9.2051885422,-2.4741785684,2.1439690496,65
39475,149929,145494,-9.1573320902,-2.4813570362,2.2360927197000002,66
39625,149926,145465,-9.0341017263,-2.4981067944,2.1008982428,67
39698,149892,145471,-9.1465643885,-2.5902304645,2.1487546948,68
39769,149946,145463,-9.0269232585,-2.3964118339,2.1032910654,69
39853,149955,145477,-9.0891366461,-2.3940190112999997,2.0506489682,70
39927,149951,145489,-9.095118702599999,-2.4143580034,2.1607188078,71
39968,149983,145471,-9.0891366461,-2.476571391,2.1343977592,72
39892,149937,145443,-9.109475638200001,-2.5507488916,2.1320049366,73
39747,149878,145408,-9.1417787433,-2.4981067944,2.0985054202,74
39668,149859,145393,-9.0783689444,-2.3521446158,2.177468566,75
39632,149873,145414,-9.176474671,-2.3784656644,2.1690936869,76
39622,149876,145384,-9.1669033806,-2.3641087288000002,2.2408783649,77
39642,149873,145408,-9.1274218077,-2.3126630429,2.0398812665,78
39685,149847,145390,-9.104689993,-2.4909283265999997,2.1260228801,79
39761,149904,145427,-9.108279226899999,-2.4215364712,2.1367905818,80
39842,149890,145406,-9.1836531388,-2.5854448193,2.1607188078,81
39850,149908,145422,-9.1465643885,-2.3940190112999997,2.1523439287,82
39934,149888,145396,-9.162117735399999,-2.6165515131,2.1439690496,83
39989,149919,145395,-9.164510558,-2.5806591741,2.2528424779,84
40056,149923,145410,-9.1334038642,-2.3282163898,2.189432679,85
40131,149911,145399,-9.1908316066,-2.3521446158,2.1559331626,86
40210,149924,145392,-9.0664048314,-2.5339991334,2.1690936869,87
40288,149919,145406,-9.019744790699999,-2.4023938904,2.1128623558,88
40366,149942,145404,-9.1238325738,-2.5172493752,2.1104695332,89
40453,149947,145394,-8.9539421692,-2.4634108667000003,2.1810577999,90
40578,149971,145401,-9.1142612834,-2.4035903017,2.0841484846,91
40528,149969,145414,-9.2434737038,-2.5160529638999996,2.1200408236,92
40719,149984,145390,-9.1573320902,-2.4933211492,2.1858434451,93
40742,149952,145405,-9.1968136631,-2.3952154226,2.2336998971,94
40828,149963,145389,-9.0735832992,-2.5052852621999997,2.0769700168,95
40897,149953,145400,-9.1106720495,-2.4849462701,2.1822542112,96
40970,149982,145396,-9.128618219,-2.2648065909,2.1978075581,97
40695,149966,145394,-9.0317089037,-2.5268206656,2.1403798157,98
40650,149953,145362,-9.1692962032,-2.5064816735,2.093719775,99
40609,149929,145331,-9.117850517299999,-2.3712871966,2.1607188078,100
40574,149929,145328,-9.080761767,-2.488535504,2.1367905818,101
40591,149938,145362,-9.0652084201,-2.4813570362,2.093719775,102
40607,149975,145338,-9.0628155975,-2.3665015514,2.2229321954,103
40652,149961,145352,-9.0664048314,-2.4717857458,2.0745771942,104
40709,149975,145329,-9.0843510009,-2.3174486881,2.1607188078,105
40752,149985,145334,-9.1381895094,-2.2671994135,2.1104695332,106
40795,149989,145345,-9.1238325738,-2.5627130046,2.2671994135,107
40844,150003,145336,-9.0125663229,-2.4813570362,2.1631116304,108
40893,150014,145319,-9.0185483794,-2.4478575198,2.1583259852,109
40948,150013,145334,-9.0747797105,-2.4215364712,2.15354034,110
40990,150028,145353,-9.0281196698,-2.3748764305,2.1990039694,111
41061,150011,145355,-9.1597249128,-2.3820548983,2.1870398563999998,112
41111,150007,145343,-9.219545477799999,-2.4191436486,2.1750757434,113
41185,150029,145315,-8.9934237421,-2.4394826406999996,2.1104695332,114
41237,150017,145321,-9.081958178299999,-2.4478575198,2.1391834043999998,115
41305,150015,145328,-9.0771725331,-2.4670001006,2.1379869930999997,116
41364,150044,145323,-9.0771725331,-2.3318056236999998,2.1858434451,117
41421,150023,145326,-9.1501536224,-2.4382862294,2.1260228801,118
41482,150019,145333,-9.0484586619,-2.4466611085,2.0673987264,119
41535,150027,145317,-9.1106720495,-2.3581266723,2.177468566,120
41494,150054,145313,-9.1477607998,-2.3772692530999997,2.1343977592,121
41615,150002,145312,-9.1633141467,-2.404786713,2.2504496553,122
41586,150019,145307,-9.041280194099999,-2.4430718746,2.1762721547,123
41535,149994,145277,-9.1357966868,-2.5040888509,2.1487546948,124
41501,150004,145287,-8.9802632178,-2.3353948576,2.2097716711,125
41489,149975,145277,-9.1274218077,-2.3736800192,2.0889341298,126
41469,149956,145262,-9.1704926145,-2.3940190112999997,2.1786649773,127
41482,149951,145245,-9.1142612834,-2.4215364712,2.1200408236,128
41503,149965,145259,-9.1513500337,-2.4490539311,2.1379869930999997,129
41535,149948,145262,-9.041280194099999,-2.5998017549,2.0327027987,130
41557,149950,145238,-9.081958178299999,-2.4777678023000003,2.1846470338,131
41573,149891,145252,-9.1549392676,-2.5411776012,2.1678972756,132
41597,149905,145218,-9.1597249128,-2.5076780847999998,2.0865413072,133
41625,149897,145223,-9.0891366461,-2.4203400599,2.1008982428,134
41653,149892,145206,-9.095118702599999,-2.5184457865,2.021935097,135
41697,149872,145178,-9.0843510009,-2.488535504,2.0985054202,136
41745,149882,145179,-9.1238325738,-2.4454646972,2.1726829208,137
41766,149866,145186,-9.0903330574,-2.5100709074,2.0769700168,138
41810,149874,145202,-9.1118684608,-2.6213371583000002,2.1260228801,139
41849,149884,145185,-9.1238325738,-2.4000010678,2.081755662,140
41909,149853,145161,-9.0616191862,-2.5639094158999995,2.1020946541,141
41861,149827,145166,-9.1334038642,-2.4598216327999998,2.0877377184999997,142
41980,149847,145177,-9.1142612834,-2.5316063108,2.069791549,143
41988,149869,145122,-9.1322074529,-2.4993032057,2.1403798157,144
42028,149851,145151,-9.09272588,-2.3557338497,2.0793628394,145
42066,149844,145161,-9.1501536224,-2.488535504,2.1427726383,146
42103,149881,145140,-9.108279226899999,-2.4095723582,2.1080767106,147
42166,149889,145104,-9.0137627342,-2.4598216327999998,2.0769700168,148
42131,149884,145154,-9.0999043478,-2.3880369548,2.1032910654,149
42168,149862,145144,-9.1896351953,-2.4382862294,2.0626130812,150
42070,149899,145142,-9.0783689444,-2.5627130046,2.1080767106,151
42016,149876,145115,-9.140582332,-2.4729821571,2.1643080417,152
41958,149932,145138,-9.0149591455,-2.416750826,2.0913269524,153
41918,149920,145148,-9.1262253964,-2.5447668351,2.1343977592,154
41898,149888,145127,-9.0676012427,-2.5531417142,2.117648001,155
41896,149949,145137,-9.038887371500001,-2.3988046565,2.129612114,156
41871,149966,145120,-9.0053878551,-2.3928226,2.0985054202,157
41872,149964,145133,-9.1202433399,-2.4203400599,2.1367905818,158
41866,149961,145133,-9.1011007591,-2.4179472373,2.0889341298,159
41868,149931,145121,-9.1716890258,-2.4574288102,2.1643080417,160
41871,149970,145119,-9.0664048314,-2.2995025186,2.1080767106,161
41874,149975,145130,-9.1633141467,-2.3700907853,2.141576227,162
41870,149962,145117,-9.1932244292,-2.5447668351,2.1858434451,163
41886,149982,145141,-9.1250289851,-2.4155544147,2.1487546948,164
41908,149950,145101,-9.108279226899999,-2.4574288102,2.1248264688,165
41923,149958,145135,-9.0783689444,-2.3545374384,2.1391834043999998,166
41931,149967,145100,-9.1142612834,-2.4598216327999998,2.1439690496,167
41951,149971,145132,-9.0855474122,-2.4574288102,2.1104695332,168
41966,149966,145114,-9.232706002099999,-2.488535504,2.1008982428,169
42032,149979,145114,-9.1573320902,-2.4837498588,2.0841484846,170
41922,149980,145096,-9.178867493599999,-2.440679052,2.1786649773,171
42047,149940,145091,-9.1106720495,-2.3748764305,2.1559331626,172
42039,149979,145088,-9.1238325738,-2.3581266723,2.129612114,173
42055,149959,145093,-9.0915294687,-2.440679052,2.0841484846,174
42065,149962,145084,-9.1070828156,-2.6045874001,2.15354034,175
42086,149986,145095,-9.1585285015,-2.500499617,2.0961125976,176
42105,149942,145087,-8.9503529353,-2.4382862294,2.1499511061,177
42112,149949,145055,-9.121439751199999,-2.4215364712,2.105683888,178
42099,149951,145069,-8.998209387300001,-2.4693929232,2.0961125976,179
42008,149911,145033,-9.1262253964,-2.452643165,2.0865413072,180
41874,149876,145025,-9.0903330574,-2.3712871966,2.1583259852,181
41739,149868,145022,-9.0843510009,-2.5639094158999995,2.057827436,182
41646,149847,145012,-9.0735832992,-2.3916261887,2.129612114,183
41490,149872,145004,-9.2147598326,-2.3617159062,2.1750757434,184
41428,149867,145009,-9.0999043478,-2.3605194949,2.0961125976,185
41341,149840,144985,-9.0652084201,-2.3617159062,2.2193429615,186
41290,149831,144975,-9.1501536224,-2.4275185276999998,2.1403798157,187
41215,149826,144974,-9.152546445,-2.3676979627,2.2157537276,188
41164,149830,144981,-9.152546445,-2.3676979627,2.2157537276,189
41110,149834,144965,-9.152546445,-2.3676979627,2.2157537276,190
41055,149787,144953,-9.152546445,-2.3676979627,2.2157537276,191
41011,149793,144923,-9.152546445,-2.3676979627,2.2157537276,192
40975,149773,144941,-9.152546445,-2.3676979627,2.2157537276,193
40961,149769,144928,-9.152546445,-2.3676979627,2.2157537276,194
40941,149751,144935,-9.152546445,-2.3676979627,2.2157537276,195
40920,149808,144895,-9.152546445,-2.3676979627,2.2157537276,196
40910,149791,144931,-9.152546445,-2.3676979627,2.2157537276,197
40908,149777,144932,-9.152546445,-2.3676979627,2.2157537276,198
40899,149768,144921,-9.152546445,-2.3676979627,2.2157537276,199
40894,149758,144899,-9.152546445,-2.3676979627,2.2157537276,200
40886,149777,144862,-9.152546445,-2.3676979627,2.2157537276,201
40886,149725,144882,-9.152546445,-2.3676979627,2.2157537276,202
40891,149731,144875,-9.152546445,-2.3676979627,2.2157537276,203
40885,149735,144857,-9.152546445,-2.3676979627,2.2157537276,204
40883,149702,144864,-9.152546445,-2.3676979627,2.2157537276,205
40888,149698,144852,-9.152546445,-2.3676979627,2.2157537276,206
40887,149671,144841,-9.152546445,-2.3676979627,2.2157537276,207
40830,149667,144833,-9.152546445,-2.3676979627,2.2157537276,208
40669,149604,144789,-9.152546445,-2.3676979627,2.2157537276,209
40487,149580,144796,-9.152546445,-2.3676979627,2.2157537276,210
40323,149550,144803,-9.152546445,-2.3676979627,2.2157537276,211
40213,149524,144749,-9.152546445,-2.3676979627,2.2157537276,212
40120,149560,144766,-9.152546445,-2.3676979627,2.2157537276,213
40059,149532,144752,-9.152546445,-2.3676979627,2.2157537276,214
40014,149547,144754,-9.152546445,-2.3676979627,2.2157537276,215
39989,149499,144772,-9.152546445,-2.3676979627,2.2157537276,216
39949,149521,144701,-9.152546445,-2.3676979627,2.2157537276,217
39912,149515,144741,-9.152546445,-2.3676979627,2.2157537276,218
39883,149483,144739,-9.152546445,-2.3676979627,2.2157537276,219
39859,149466,144722,-9.152546445,-2.3676979627,2.2157537276,220
39856,149480,144712,-9.152546445,-2.3676979627,2.2157537276,221
39867,149475,144737,-9.152546445,-2.3676979627,2.2157537276,222
39873,149498,144729,-9.152546445,-2.3676979627,2.2157537276,223
39898,149472,144716,-9.152546445,-2.3676979627,2.2157537276,224
39905,149455,144708,-9.152546445,-2.3676979627,2.2157537276,225
39929,149469,144736,-9.152546445,-2.3676979627,2.2157537276,226
39936,149433,144702,-9.152546445,-2.3676979627,2.2157537276,227
39963,149458,144724,-9.152546445,-2.3676979627,2.2157537276,228
39971,149477,144723,-9.152546445,-2.3676979627,2.2157537276,229
40074,149861,144936,-9.1501536224,-2.5782663514999995,2.1786649773,230
39943,149833,144942,-9.1501536224,-2.5782663514999995,2.1786649773,231
39866,149828,144937,-9.1501536224,-2.5782663514999995,2.1786649773,232
39816,149834,144924,-9.1501536224,-2.5782663514999995,2.1786649773,233
39790,149834,144944,-9.1501536224,-2.5782663514999995,2.1786649773,234
39791,149806,144970,-9.1501536224,-2.5782663514999995,2.1786649773,235
39801,149840,144946,-9.1501536224,-2.5782663514999995,2.1786649773,236
39818,149826,144945,-9.1501536224,-2.5782663514999995,2.1786649773,237
39818,149819,144995,-9.1501536224,-2.5782663514999995,2.1786649773,238
39812,149799,144973,-9.1501536224,-2.5782663514999995,2.1786649773,239
39828,149795,144966,-9.1501536224,-2.5782663514999995,2.1786649773,240
39854,149804,144964,-9.1501536224,-2.5782663514999995,2.1786649773,241
39877,149816,144972,-9.1501536224,-2.5782663514999995,2.1786649773,242
39915,149810,144963,-9.1501536224,-2.5782663514999995,2.1786649773,243
39958,149819,145012,-9.1501536224,-2.5782663514999995,2.1786649773,244
39996,149807,145003,-9.1501536224,-2.5782663514999995,2.1786649773,245
40019,149804,145005,-9.1501536224,-2.5782663514999995,2.1786649773,246
40049,149795,145003,-9.1501536224,-2.5782663514999995,2.1786649773,247
40085,149788,144976,-9.1501536224,-2.5782663514999995,2.1786649773,248
40119,149795,144989,-9.1501536224,-2.5782663514999995,2.1786649773,249
40151,149785,145022,-9.1501536224,-2.5782663514999995,2.1786649773,250
40176,149781,144983,-9.1501536224,-2.5782663514999995,2.1786649773,251
40207,149778,144990,-9.1501536224,-2.5782663514999995,2.1786649773,252
40233,149784,144965,-9.1501536224,-2.5782663514999995,2.1786649773,253
40248,149766,144992,-9.1501536224,-2.5782663514999995,2.1786649773,254
40162,149705,144946,-9.1501536224,-2.5782663514999995,2.1786649773,255
39993,149688,144957,-9.1501536224,-2.5782663514999995,2.1786649773,256
39833,149649,144904,-9.1501536224,-2.5782663514999995,2.1786649773,257
39729,149619,144935,-9.1501536224,-2.5782663514999995,2.1786649773,258
39640,149642,144944,-9.1501536224,-2.5782663514999995,2.1786649773,259
39599,149625,144948,-9.1501536224,-2.5782663514999995,2.1786649773,260
39577,149611,144942,-9.1501536224,-2.5782663514999995,2.1786649773,261
39583,149632,144961,-9.1501536224,-2.5782663514999995,2.1786649773,262
39584,149628,144956,-9.1501536224,-2.5782663514999995,2.1786649773,263
39595,149613,144960,-9.1501536224,-2.5782663514999995,2.1786649773,264
39588,149623,144959,-9.1501536224,-2.5782663514999995,2.1786649773,265
39590,149622,144977,-9.1501536224,-2.5782663514999995,2.1786649773,266
39595,149614,144968,-9.1501536224,-2.5782663514999995,2.1786649773,267
39621,149638,144938,-9.1501536224,-2.5782663514999995,2.1786649773,268
39644,149623,144988,-9.1501536224,-2.5782663514999995,2.1786649773,269
39675,149654,144996,-9.1501536224,-2.5782663514999995,2.1786649773,270
39719,149680,144987,-9.1501536224,-2.5782663514999995,2.1786649773,271
39303,149707,145100,-9.0472622506,-2.3892333661,2.081755662,272
39336,149737,145131,-9.0472622506,-2.3892333661,2.081755662,273
39386,149760,145147,-9.0472622506,-2.3892333661,2.081755662,274
39436,149779,145166,-9.0472622506,-2.3892333661,2.081755662,275
39452,149769,145144,-9.0472622506,-2.3892333661,2.081755662,276
39327,149750,145124,-9.0472622506,-2.3892333661,2.081755662,277
39102,149691,145128,-9.0472622506,-2.3892333661,2.081755662,278
38907,149667,145113,-9.0472622506,-2.3892333661,2.081755662,279
38802,149649,145103,-9.0472622506,-2.3892333661,2.081755662,280
38750,149644,145106,-9.0472622506,-2.3892333661,2.081755662,281
38733,149648,145116,-9.0472622506,-2.3892333661,2.081755662,282
38738,149654,145119,-9.0472622506,-2.3892333661,2.081755662,283
38780,149701,145131,-9.0472622506,-2.3892333661,2.081755662,284
38819,149699,145118,-9.0472622506,-2.3892333661,2.081755662,285
38847,149709,145130,-9.0472622506,-2.3892333661,2.081755662,286
38851,149701,145170,-9.0472622506,-2.3892333661,2.081755662,287
38884,149715,145164,-9.0472622506,-2.3892333661,2.081755662,288
38915,149734,145146,-9.0472622506,-2.3892333661,2.081755662,289
38966,149754,145185,-9.0472622506,-2.3892333661,2.081755662,290
39016,149733,145187,-9.0472622506,-2.3892333661,2.081755662,291
39063,149735,145203,-9.0472622506,-2.3892333661,2.081755662,292
39116,149747,145204,-9.0472622506,-2.3892333661,2.081755662,293
39165,149759,145196,-9.0472622506,-2.3892333661,2.081755662,294
39207,149793,145203,-9.0472622506,-2.3892333661,2.081755662,295
39263,149784,145227,-9.0472622506,-2.3892333661,2.081755662,296
39294,149768,145202,-9.0472622506,-2.3892333661,2.081755662,297
39336,149799,145208,-9.0472622506,-2.3892333661,2.081755662,298
39382,149824,145214,-9.0472622506,-2.3892333661,2.081755662,299
39417,149852,145245,-9.0472622506,-2.3892333661,2.081755662,300
39475,149817,145214,-9.0472622506,-2.3892333661,2.081755662,301
39514,149867,145247,-9.0472622506,-2.3892333661,2.081755662,302
39490,149801,145223,-9.0472622506,-2.3892333661,2.081755662,303
39323,149810,145213,-9.1513500337,-2.4131615921,2.1343977592,304
39117,149727,145172,-9.1513500337,-2.4131615921,2.1343977592,305
38984,149721,145172,-9.1513500337,-2.4131615921,2.1343977592,306
38908,149673,145140,-9.1513500337,-2.4131615921,2.1343977592,307
38885,149715,145157,-9.1513500337,-2.4131615921,2.1343977592,308
38892,149707,145179,-9.1513500337,-2.4131615921,2.1343977592,309
38925,149738,145170,-9.0999043478,-2.5028924396,2.0865413072,310
38973,149716,145157,-9.0999043478,-2.5028924396,2.0865413072,311
38990,149738,145186,-9.0999043478,-2.5028924396,2.0865413072,312
39007,149745,145184,-9.0999043478,-2.5028924396,2.0865413072,313
39013,149725,145186,-9.0999043478,-2.5028924396,2.0865413072,314
39039,149728,145184,-9.0999043478,-2.5028924396,2.0865413072,315
39063,149744,145180,-9.0999043478,-2.5028924396,2.0865413072,316
39107,149756,145210,-9.0999043478,-2.5028924396,2.0865413072,317
39157,149763,145226,-9.0999043478,-2.5028924396,2.0865413072,318
39207,149777,145222,-9.0999043478,-2.5028924396,2.0865413072,319
39244,149796,145253,-9.0999043478,-2.5028924396,2.0865413072,320
39296,149801,145244,-9.0999043478,-2.5028924396,2.0865413072,321
39339,149809,145259,-9.0999043478,-2.5028924396,2.0865413072,322
39376,149826,145248,-9.0999043478,-2.5028924396,2.0865413072,323
39404,149836,145279,-9.0999043478,-2.5028924396,2.0865413072,324
39445,149838,145262,-9.0999043478,-2.5028924396,2.0865413072,325
39487,149860,145298,-9.0999043478,-2.5028924396,2.0865413072,326
39518,149825,145269,-9.0999043478,-2.5028924396,2.0865413072,327
39467,149812,145248,-9.0999043478,-2.5028924396,2.0865413072,328
39287,149758,145225,-9.0999043478,-2.5028924396,2.0865413072,329
39075,149708,145206,-9.0999043478,-2.5028924396,2.0865413072,330
38939,149671,145195,-9.0999043478,-2.5028924396,2.0865413072,331
38890,149672,145186,-9.0999043478,-2.5028924396,2.0865413072,332
38861,149654,145180,-9.0999043478,-2.5028924396,2.0865413072,333
38855,149663,145214,-9.0999043478,-2.5028924396,2.0865413072,334
38896,149667,145210,-9.0999043478,-2.5028924396,2.0865413072,335
38946,149667,145247,-9.2267239456,-2.3892333661,2.0626130812,336
38967,149676,145210,-9.2267239456,-2.3892333661,2.0626130812,337
38980,149649,145266,-9.2267239456,-2.3892333661,2.0626130812,338
38993,149652,145238,-9.2267239456,-2.3892333661,2.0626130812,339
39014,149690,145229,-9.2267239456,-2.3892333661,2.0626130812,340
39048,149656,145267,-9.2267239456,-2.3892333661,2.0626130812,341
39098,149695,145238,-9.2267239456,-2.3892333661,2.0626130812,342
39154,149695,145275,-9.2267239456,-2.3892333661,2.0626130812,343
39196,149725,145277,-9.2267239456,-2.3892333661,2.0626130812,344
39247,149680,145295,-9.2267239456,-2.3892333661,2.0626130812,345
39293,149691,145310,-9.2267239456,-2.3892333661,2.0626130812,346
39328,149723,145274,-9.2267239456,-2.3892333661,2.0626130812,347
39371,149720,145310,-9.2267239456,-2.3892333661,2.0626130812,348
39402,149692,145295,-9.2267239456,-2.3892333661,2.0626130812,349
39435,149725,145301,-9.2267239456,-2.3892333661,2.0626130812,350
39492,149724,145302,-9.2267239456,-2.3892333661,2.0626130812,351
39531,149727,145307,-9.2267239456,-2.3892333661,2.0626130812,352
39574,149735,145308,-9.2267239456,-2.3892333661,2.0626130812,353
39528,149743,145311,-9.2267239456,-2.3892333661,2.0626130812,354
39336,149685,145267,-9.2267239456,-2.3892333661,2.0626130812,355
39106,149626,145273,-9.2267239456,-2.3892333661,2.0626130812,356
38951,149605,145246,-9.2267239456,-2.3892333661,2.0626130812,357
38863,149597,145228,-9.2267239456,-2.3892333661,2.0626130812,358
38832,149599,145249,-9.2267239456,-2.3892333661,2.0626130812,359
38805,149614,145291,-9.2267239456,-2.3892333661,2.0626130812,360
38815,149629,145287,-9.2267239456,-2.3892333661,2.0626130812,361
38872,149647,145322,-9.2267239456,-2.3892333661,2.0626130812,362
38900,149635,145309,-9.2267239456,-2.3892333661,2.0626130812,363
38911,149679,145320,-9.2267239456,-2.3892333661,2.0626130812,364
38922,149695,145314,-9.2267239456,-2.3892333661,2.0626130812,365
38947,149686,145316,-9.2267239456,-2.3892333661,2.0626130812,366
38985,149712,145336,-9.2267239456,-2.3892333661,2.0626130812,367
39026,149724,145354,-9.2267239456,-2.3892333661,2.0626130812,368
39076,149728,145370,-9.2267239456,-2.3892333661,2.0626130812,369
39131,149744,145385,-9.2267239456,-2.3892333661,2.0626130812,370
39175,149775,145364,-9.2267239456,-2.3892333661,2.0626130812,371
39219,149774,145383,-9.2267239456,-2.3892333661,2.0626130812,372
39271,149791,145398,-9.2267239456,-2.3892333661,2.0626130812,373
39309,149786,145399,-9.2267239456,-2.3892333661,2.0626130812,374
39353,149799,145388,-9.2267239456,-2.3892333661,2.0626130812,375
39393,149822,145402,-9.2267239456,-2.3892333661,2.0626130812,376
39437,149830,145412,-9.2267239456,-2.3892333661,2.0626130812,377
38932,149720,145406,-9.1908316066,-2.5172493752,2.1487546948,378
38971,149718,145386,-9.1908316066,-2.5172493752,2.1487546948,379
39013,149790,145406,-9.1908316066,-2.5172493752,2.1487546948,380
39060,149743,145412,-9.1908316066,-2.5172493752,2.1487546948,381
39105,149765,145420,-9.1908316066,-2.5172493752,2.1487546948,382
39166,149766,145450,-9.1908316066,-2.5172493752,2.1487546948,383
39203,149780,145447,-9.1908316066,-2.5172493752,2.1487546948,384
39254,149790,145443,-9.1908316066,-2.5172493752,2.1487546948,385
39287,149795,145449,-9.1908316066,-2.5172493752,2.1487546948,386
39340,149815,145464,-9.1908316066,-2.5172493752,2.1487546948,387
39367,149809,145473,-9.1908316066,-2.5172493752,2.1487546948,388
39422,149847,145488,-9.1908316066,-2.5172493752,2.1487546948,389
39460,149851,145500,-9.1908316066,-2.5172493752,2.1487546948,390
39485,149856,145482,-9.1908316066,-2.5172493752,2.1487546948,391
39541,149849,145504,-9.1908316066,-2.5172493752,2.1487546948,392
39573,149879,145506,-9.1908316066,-2.5172493752,2.1487546948,393
39535,149826,145462,-9.1908316066,-2.5172493752,2.1487546948,394
39346,149815,145414,-9.1908316066,-2.5172493752,2.1487546948,395
39101,149713,145414,-9.1908316066,-2.5172493752,2.1487546948,396
38940,149721,145404,-9.1908316066,-2.5172493752,2.1487546948,397
38859,149678,145387,-9.1908316066,-2.5172493752,2.1487546948,398
38815,149665,145380,-9.1908316066,-2.5172493752,2.1487546948,399
38811,149650,145384,-9.1908316066,-2.5172493752,2.1487546948,400
38826,149650,145439,-9.1908316066,-2.5172493752,2.1487546948,401
38859,149672,145411,-9.1908316066,-2.5172493752,2.1487546948,402
38871,149681,145448,-9.1908316066,-2.5172493752,2.1487546948,403
38880,149660,145423,-9.1908316066,-2.5172493752,2.1487546948,404
38886,149637,145426,-9.1908316066,-2.5172493752,2.1487546948,405
38913,149662,145403,-9.1908316066,-2.5172493752,2.1487546948,406
38940,149619,145409,-9.1908316066,-2.5172493752,2.1487546948,407
38979,149645,145417,-9.1908316066,-2.5172493752,2.1487546948,408
39036,149646,145420,-9.1908316066,-2.5172493752,2.1487546948,409
39072,149671,145454,-9.1908316066,-2.5172493752,2.1487546948,410
39123,149699,145478,-9.1908316066,-2.5172493752,2.1487546948,411
39160,149681,145459,-9.1908316066,-2.5172493752,2.1487546948,412
39222,149675,145466,-9.1908316066,-2.5172493752,2.1487546948,413
39235,149689,145470,-9.1908316066,-2.5172493752,2.1487546948,414
39289,149672,145455,-9.1908316066,-2.5172493752,2.1487546948,415
39325,149697,145473,-9.1908316066,-2.5172493752,2.1487546948,416
39375,149707,145483,-9.1908316066,-2.5172493752,2.1487546948,417
39416,149710,145492,-9.1908316066,-2.5172493752,2.1487546948,418
39455,149697,145501,-9.1908316066,-2.5172493752,2.1487546948,419
39386,149806,145651,-9.164510558,-2.4825534475,2.129612114,420
39432,149809,145657,-9.164510558,-2.4825534475,2.129612114,421
39472,149791,145667,-9.164510558,-2.4825534475,2.129612114,422
39407,149785,145639,-9.164510558,-2.4825534475,2.129612114,423
39175,149715,145592,-9.164510558,-2.4825534475,2.129612114,424
38944,149660,145581,-9.164510558,-2.4825534475,2.129612114,425
38793,149632,145548,-9.164510558,-2.4825534475,2.129612114,426
38706,149620,145577,-9.164510558,-2.4825534475,2.129612114,427
38670,149602,145562,-9.164510558,-2.4825534475,2.129612114,428
38636,149620,145573,-9.164510558,-2.4825534475,2.129612114,429
38659,149619,145561,-9.164510558,-2.4825534475,2.129612114,430
38696,149674,145596,-9.164510558,-2.4825534475,2.129612114,431
38732,149629,145596,-9.164510558,-2.4825534475,2.129612114,432
38732,149620,145581,-9.164510558,-2.4825534475,2.129612114,433
38749,149627,145607,-9.164510558,-2.4825534475,2.129612114,434
38773,149649,145603,-9.164510558,-2.4825534475,2.129612114,435
38822,149648,145615,-9.164510558,-2.4825534475,2.129612114,436
38854,149650,145625,-9.164510558,-2.4825534475,2.129612114,437
38913,149681,145654,-9.164510558,-2.4825534475,2.129612114,438
38963,149716,145651,-9.164510558,-2.4825534475,2.129612114,439
39006,149725,145658,-9.164510558,-2.4825534475,2.129612114,440
39047,149737,145683,-9.164510558,-2.4825534475,2.129612114,441
39099,149706,145685,-9.164510558,-2.4825534475,2.129612114,442
39136,149741,145699,-9.164510558,-2.4825534475,2.129612114,443
39177,149746,145672,-9.164510558,-2.4825534475,2.129612114,444
39224,149766,145694,-9.164510558,-2.4825534475,2.129612114,445
39262,149763,145691,-9.164510558,-2.4825534475,2.129612114,446
39310,149758,145700,-9.164510558,-2.4825534475,2.129612114,447
39348,149781,145705,-9.164510558,-2.4825534475,2.129612114,448
39303,149752,145695,-9.164510558,-2.4825534475,2.129612114,449
39093,149678,145642,-9.164510558,-2.4825534475,2.129612114,450
38862,149605,145615,-9.164510558,-2.4825534475,2.129612114,451
38707,149591,145575,-9.164510558,-2.4825534475,2.129612114,452
38633,149564,145602,-9.164510558,-2.4825534475,2.129612114,453
38610,149565,145616,-9.164510558,-2.4825534475,2.129612114,454
38595,149579,145616,-9.164510558,-2.4825534475,2.129612114,455
38624,149565,145625,-9.164510558,-2.4825534475,2.129612114,456
38671,149545,145601,-9.164510558,-2.4825534475,2.129612114,457
38689,149552,145650,-9.164510558,-2.4825534475,2.129612114,458
38707,149547,145603,-9.164510558,-2.4825534475,2.129612114,459
38737,149552,145630,-9.164510558,-2.4825534475,2.129612114,460
38762,149554,145655,-9.164510558,-2.4825534475,2.129612114,461
39050,149558,145665,-9.010173500299999,-2.428714939,2.069791549,462
38858,149570,145614,-9.010173500299999,-2.428714939,2.069791549,463
38747,149517,145647,-9.010173500299999,-2.428714939,2.069791549,464
38701,149535,145629,-9.010173500299999,-2.428714939,2.069791549,465
38687,149489,145630,-9.010173500299999,-2.428714939,2.069791549,466
38703,149528,145630,-9.010173500299999,-2.428714939,2.069791549,467
38756,149534,145668,-9.010173500299999,-2.428714939,2.069791549,468
38798,149563,145664,-9.010173500299999,-2.428714939,2.069791549,469
38816,149598,145644,-9.010173500299999,-2.428714939,2.069791549,470
38833,149551,145678,-9.010173500299999,-2.428714939,2.069791549,471
38858,149559,145649,-9.010173500299999,-2.428714939,2.069791549,472
38890,149581,145693,-9.010173500299999,-2.428714939,2.069791549,473
38921,149580,145687,-9.010173500299999,-2.428714939,2.069791549,474
38971,149604,145702,-9.010173500299999,-2.428714939,2.069791549,475
39019,149632,145708,-9.010173500299999,-2.428714939,2.069791549,476
39070,149651,145707,-9.010173500299999,-2.428714939,2.069791549,477
39116,149665,145708,-9.010173500299999,-2.428714939,2.069791549,478
39161,149680,145729,-9.010173500299999,-2.428714939,2.069791549,479
39207,149679,145717,-9.010173500299999,-2.428714939,2.069791549,480
39245,149684,145754,-9.010173500299999,-2.428714939,2.069791549,481
39295,149693,145726,-9.010173500299999,-2.428714939,2.069791549,482
39341,149718,145745,-9.010173500299999,-2.428714939,2.069791549,483
39373,149720,145755,-9.010173500299999,-2.428714939,2.069791549,484
39428,149750,145760,-9.010173500299999,-2.428714939,2.069791549,485
39403,149715,145745,-9.010173500299999,-2.428714939,2.069791549,486
39230,149668,145741,-9.010173500299999,-2.428714939,2.069791549,487
39029,149600,145683,-9.010173500299999,-2.428714939,2.069791549,488
38894,149589,145682,-9.010173500299999,-2.428714939,2.069791549,489
38834,149589,145681,-9.010173500299999,-2.428714939,2.069791549,490
38805,149583,145669,-9.010173500299999,-2.428714939,2.069791549,491
38818,149564,145689,-9.010173500299999,-2.428714939,2.069791549,492
38858,149609,145694,-9.010173500299999,-2.428714939,2.069791549,493
38895,149584,145700,-9.010173500299999,-2.428714939,2.069791549,494
38904,149602,145714,-9.010173500299999,-2.428714939,2.069791549,495
38916,149596,145701,-9.010173500299999,-2.428714939,2.069791549,496
38916,149603,145710,-9.010173500299999,-2.428714939,2.069791549,497
38936,149614,145728,-9.010173500299999,-2.428714939,2.069791549,498
38966,149630,145718,-9.010173500299999,-2.428714939,2.069791549,499
39003,149669,145718,-9.010173500299999,-2.428714939,2.069791549,500
39051,149654,145733,-9.010173500299999,-2.428714939,2.069791549,501
39105,149655,145744,-9.010173500299999,-2.428714939,2.069791549,502
39147,149691,145728,-9.010173500299999,-2.428714939,2.069791549,503
38658,149591,145757,-9.0903330574,-2.4574288102,2.0985054202,504
38675,149585,145746,-9.0903330574,-2.4574288102,2.0985054202,505
38706,149596,145751,-9.0903330574,-2.4574288102,2.0985054202,506
38752,149569,145743,-9.0903330574,-2.4574288102,2.0985054202,507
38797,149601,145767,-9.0903330574,-2.4574288102,2.0985054202,508
38850,149591,145743,-9.0903330574,-2.4574288102,2.0985054202,509
38901,149608,145763,-9.0903330574,-2.4574288102,2.0985054202,510
38933,149617,145768,-9.0903330574,-2.4574288102,2.0985054202,511
38983,149616,145762,-9.0903330574,-2.4574288102,2.0985054202,512
39033,149626,145745,-9.0903330574,-2.4574288102,2.0985054202,513
39066,149631,145769,-9.0903330574,-2.4574288102,2.0985054202,514
39107,149635,145750,-9.0903330574,-2.4574288102,2.0985054202,515
39159,149623,145760,-9.0903330574,-2.4574288102,2.0985054202,516
39194,149643,145761,-9.0903330574,-2.4574288102,2.0985054202,517
39249,149665,145763,-9.0903330574,-2.4574288102,2.0985054202,518
39288,149626,145758,-9.0903330574,-2.4574288102,2.0985054202,519
39270,149628,145741,-9.0903330574,-2.4574288102,2.0985054202,520
39101,149602,145712,-9.0903330574,-2.4574288102,2.0985054202,521
38880,149546,145696,-9.0903330574,-2.4574288102,2.0985054202,522
38715,149533,145691,-9.0903330574,-2.4574288102,2.0985054202,523
38624,149520,145678,-9.0903330574,-2.4574288102,2.0985054202,524
38581,149530,145651,-9.0903330574,-2.4574288102,2.0985054202,525
38563,149546,145657,-9.0903330574,-2.4574288102,2.0985054202,526
38597,149554,145682,-9.0903330574,-2.4574288102,2.0985054202,527
38640,149561,145713,-9.0903330574,-2.4574288102,2.0985054202,528
38681,149564,145691,-9.0903330574,-2.4574288102,2.0985054202,529
38710,149589,145713,-9.0903330574,-2.4574288102,2.0985054202,530
38736,149574,145706,-9.0903330574,-2.4574288102,2.0985054202,531
38777,149598,145714,-9.0903330574,-2.4574288102,2.0985054202,532
38811,149622,145733,-9.0903330574,-2.4574288102,2.0985054202,533
38869,149649,145724,-9.0903330574,-2.4574288102,2.0985054202,534
38917,149661,145730,-9.0903330574,-2.4574288102,2.0985054202,535
38973,149698,145734,-9.0903330574,-2.4574288102,2.0985054202,536
39031,149710,145758,-9.0903330574,-2.4574288102,2.0985054202,537
39079,149711,145757,-9.0903330574,-2.4574288102,2.0985054202,538
39133,149717,145763,-9.0903330574,-2.4574288102,2.0985054202,539
39179,149751,145785,-9.0903330574,-2.4574288102,2.0985054202,540
39225,149781,145779,-9.0903330574,-2.4574288102,2.0985054202,541
39278,149775,145740,-9.0903330574,-2.4574288102,2.0985054202,542
39319,149771,145725,-9.0903330574,-2.4574288102,2.0985054202,543
39365,149795,145767,-9.0903330574,-2.4574288102,2.0985054202,544
39416,149841,145764,-9.0903330574,-2.4574288102,2.0985054202,545
39317,149788,145672,-9.1381895094,-2.4837498588,2.1631116304,546
39362,149758,145654,-9.1381895094,-2.4837498588,2.1631116304,547
39387,149722,145669,-9.1381895094,-2.4837498588,2.1631116304,548
39430,149748,145667,-9.1381895094,-2.4837498588,2.1631116304,549
39464,149748,145666,-9.1381895094,-2.4837498588,2.1631116304,550
39501,149756,145649,-9.1381895094,-2.4837498588,2.1631116304,551
39539,149774,145641,-9.1381895094,-2.4837498588,2.1631116304,552
39587,149770,145658,-9.1381895094,-2.4837498588,2.1631116304,553
39604,149782,145652,-9.1381895094,-2.4837498588,2.1631116304,554
39500,149717,145621,-9.1381895094,-2.4837498588,2.1631116304,555
39303,149701,145618,-9.1381895094,-2.4837498588,2.1631116304,556
39133,149681,145577,-9.1381895094,-2.4837498588,2.1631116304,557
39025,149702,145562,-9.1381895094,-2.4837498588,2.1631116304,558
38975,149656,145588,-9.1381895094,-2.4837498588,2.1631116304,559
38948,149689,145573,-9.1381895094,-2.4837498588,2.1631116304,560
38949,149684,145564,-9.1381895094,-2.4837498588,2.1631116304,561
38976,149682,145587,-9.1381895094,-2.4837498588,2.1631116304,562
39002,149695,145576,-9.1381895094,-2.4837498588,2.1631116304,563
38999,149670,145555,-9.1381895094,-2.4837498588,2.1631116304,564
38991,149664,145563,-9.1381895094,-2.4837498588,2.1631116304,565
39001,149653,145580,-9.1381895094,-2.4837498588,2.1631116304,566
39015,149655,145548,-9.1381895094,-2.4837498588,2.1631116304,567
39045,149665,145536,-9.1381895094,-2.4837498588,2.1631116304,568
39082,149642,145524,-9.1381895094,-2.4837498588,2.1631116304,569
39117,149665,145561,-9.1381895094,-2.4837498588,2.1631116304,570
39153,149659,145544,-9.1381895094,-2.4837498588,2.1631116304,571
39193,149677,145580,-9.1381895094,-2.4837498588,2.1631116304,572
39219,149645,145552,-9.1381895094,-2.4837498588,2.1631116304,573
39247,149656,145516,-9.1381895094,-2.4837498588,2.1631116304,574
39275,149675,145545,-9.1381895094,-2.4837498588,2.1631116304,575
39305,149656,145527,-9.1381895094,-2.4837498588,2.1631116304,576
39337,149657,145513,-9.1381895094,-2.4837498588,2.1631116304,577
39377,149650,145551,-9.1381895094,-2.4837498588,2.1631116304,578
39393,149676,145513,-9.1381895094,-2.4837498588,2.1631116304,579
39320,149607,145514,-9.1381895094,-2.4837498588,2.1631116304,580
39122,149580,145507,-9.1381895094,-2.4837498588,2.1631116304,581
38930,149534,145499,-9.1381895094,-2.4837498588,2.1631116304,582
38800,149540,145480,-9.1381895094,-2.4837498588,2.1631116304,583
38738,149535,145464,-9.1381895094,-2.4837498588,2.1631116304,584
38702,149558,145458,-9.1381895094,-2.4837498588,2.1631116304,585
38700,149547,145450,-9.1381895094,-2.4837498588,2.1631116304,586
38737,149549,145463,-9.1381895094,-2.4837498588,2.1631116304,587
39534,149810,145510,-9.0915294687,-2.3892333661,2.165504453,588
39322,149779,145490,-9.0915294687,-2.3892333661,2.165504453,589
39121,149742,145466,-9.0915294687,-2.3892333661,2.165504453,590
39007,149721,145468,-9.0915294687,-2.3892333661,2.165504453,591
38953,149734,145457,-9.0915294687,-2.3892333661,2.165504453,592
38928,149681,145445,-9.0915294687,-2.3892333661,2.165504453,593
38928,149705,145462,-9.0915294687,-2.3892333661,2.165504453,594
38955,149715,145471,-9.0915294687,-2.3892333661,2.165504453,595
38997,149686,145448,-9.0915294687,-2.3892333661,2.165504453,596
39020,149688,145479,-9.0915294687,-2.3892333661,2.165504453,597
39027,149683,145488,-9.0915294687,-2.3892333661,2.165504453,598
39045,149686,145502,-9.0915294687,-2.3892333661,2.165504453,599
39073,149708,145487,-9.0915294687,-2.3892333661,2.165504453,600
39102,149689,145468,-9.0915294687,-2.3892333661,2.165504453,601
39144,149698,145478,-9.0915294687,-2.3892333661,2.165504453,602
39188,149715,145483,-9.0915294687,-2.3892333661,2.165504453,603
39237,149715,145484,-9.0915294687,-2.3892333661,2.165504453,604
39281,149704,145503,-9.0915294687,-2.3892333661,2.165504453,605
39316,149693,145508,-9.0915294687,-2.3892333661,2.165504453,606
39347,149731,145510,-9.0915294687,-2.3892333661,2.165504453,607
39395,149699,145485,-9.0915294687,-2.3892333661,2.165504453,608
39435,149724,145505,-9.0915294687,-2.3892333661,2.165504453,609
39463,149706,145516,-9.0915294687,-2.3892333661,2.165504453,610
39517,149717,145503,-9.0915294687,-2.3892333661,2.165504453,611
39552,149730,145510,-9.0915294687,-2.3892333661,2.165504453,612
39528,149693,145495,-9.0915294687,-2.3892333661,2.165504453,613
39377,149616,145478,-9.0915294687,-2.3892333661,2.165504453,614
39182,149601,145450,-9.0915294687,-2.3892333661,2.165504453,615
39043,149584,145426,-9.0915294687,-2.3892333661,2.165504453,616
38973,149580,145435,-9.0915294687,-2.3892333661,2.165504453,617
38950,149591,145434,-9.0915294687,-2.3892333661,2.165504453,618
38949,149598,145445,-9.0915294687,-2.3892333661,2.165504453,619
38977,149655,145456,-9.0915294687,-2.3892333661,2.165504453,620
39024,149626,145457,-9.0915294687,-2.3892333661,2.165504453,621
39022,149650,145475,-9.0915294687,-2.3892333661,2.165504453,622
39037,149664,145504,-9.0915294687,-2.3892333661,2.165504453,623
39051,149654,145499,-9.0915294687,-2.3892333661,2.165504453,624
39069,149661,145505,-9.0915294687,-2.3892333661,2.165504453,625
39094,149693,145526,-9.0915294687,-2.3892333661,2.165504453,626
39138,149721,145520,-9.0915294687,-2.3892333661,2.165504453,627
39178,149720,145542,-9.0915294687,-2.3892333661,2.165504453,628
39226,149722,145533,-9.0915294687,-2.3892333661,2.165504453,629
39237,149704,145651,-9.1070828156,-2.3784656644,2.1858434451,630
39287,149675,145650,-9.1070828156,-2.3784656644,2.1858434451,631
39333,149686,145652,-9.1070828156,-2.3784656644,2.1858434451,632
39295,149651,145670,-9.1070828156,-2.3784656644,2.1858434451,633
39110,149597,145585,-9.1070828156,-2.3784656644,2.1858434451,634
38905,149555,145596,-9.1070828156,-2.3784656644,2.1858434451,635
38777,149544,145592,-9.1070828156,-2.3784656644,2.1858434451,636
38729,149539,145574,-9.1070828156,-2.3784656644,2.1858434451,637
38706,149528,145577,-9.1070828156,-2.3784656644,2.1858434451,638
38718,149506,145560,-9.1070828156,-2.3784656644,2.1858434451,639
38762,149518,145567,-9.1070828156,-2.3784656644,2.1858434451,640
38815,149539,145619,-9.1070828156,-2.3784656644,2.1858434451,641
38838,149561,145610,-9.1070828156,-2.3784656644,2.1858434451,642
38839,149572,145615,-9.1070828156,-2.3784656644,2.1858434451,643
38868,149596,145606,-9.1070828156,-2.3784656644,2.1858434451,644
38902,149600,145642,-9.1070828156,-2.3784656644,2.1858434451,645
38941,149614,145640,-9.1070828156,-2.3784656644,2.1858434451,646
38997,149640,145645,-9.1070828156,-2.3784656644,2.1858434451,647
39046,149644,145646,-9.1070828156,-2.3784656644,2.1858434451,648
39106,149686,145652,-9.1070828156,-2.3784656644,2.1858434451,649
39149,149699,145671,-9.1070828156,-2.3784656644,2.1858434451,650
39193,149702,145664,-9.1070828156,-2.3784656644,2.1858434451,651
39249,149721,145681,-9.1070828156,-2.3784656644,2.1858434451,652
39287,149727,145682,-9.1070828156,-2.3784656644,2.1858434451,653
39331,149736,145700,-9.1070828156,-2.3784656644,2.1858434451,654
39377,149768,145700,-9.1070828156,-2.3784656644,2.1858434451,655
39431,149792,145715,-9.1070828156,-2.3784656644,2.1858434451,656
39420,149781,145706,-9.1070828156,-2.3784656644,2.1858434451,657
39291,149731,145710,-9.1070828156,-2.3784656644,2.1858434451,658
39082,149701,145647,-9.1070828156,-2.3784656644,2.1858434451,659
38938,149682,145630,-9.1070828156,-2.3784656644,2.1858434451,660
38851,149671,145660,-9.1070828156,-2.3784656644,2.1858434451,661
38815,149684,145659,-9.1070828156,-2.3784656644,2.1858434451,662
38810,149688,145660,-9.1070828156,-2.3784656644,2.1858434451,663
38834,149707,145644,-9.1070828156,-2.3784656644,2.1858434451,664
38890,149688,145671,-9.1070828156,-2.3784656644,2.1858434451,665
38922,149714,145690,-9.1070828156,-2.3784656644,2.1858434451,666
38937,149752,145672,-9.1070828156,-2.3784656644,2.1858434451,667
38956,149735,145684,-9.1070828156,-2.3784656644,2.1858434451,668
38989,149727,145680,-9.1070828156,-2.3784656644,2.1858434451,669
39026,149764,145709,-9.1070828156,-2.3784656644,2.1858434451,670
39071,149768,145677,-9.1070828156,-2.3784656644,2.1858434451,671
38821,149609,145629,-9.1860459614,-2.3030917525,2.1008982428,672
38839,149600,145635,-9.1860459614,-2.3030917525,2.1008982428,673
38853,149601,145649,-9.1860459614,-2.3030917525,2.1008982428,674
38889,149626,145633,-9.1860459614,-2.3030917525,2.1008982428,675
38920,149619,145638,-9.1860459614,-2.3030917525,2.1008982428,676
38970,149632,145626,-9.1860459614,-2.3030917525,2.1008982428,677
39031,149655,145658,-9.1860459614,-2.3030917525,2.1008982428,678
39069,149629,145677,-9.1860459614,-2.3030917525,2.1008982428,679
39119,149637,145630,-9.1860459614,-2.3030917525,2.1008982428,680
39160,149671,145675,-9.1860459614,-2.3030917525,2.1008982428,681
39203,149629,145659,-9.1860459614,-2.3030917525,2.1008982428,682
39250,149651,145647,-9.1860459614,-2.3030917525,2.1008982428,683
39290,149630,145638,-9.1860459614,-2.3030917525,2.1008982428,684
39324,149655,145652,-9.1860459614,-2.3030917525,2.1008982428,685
39359,149664,145655,-9.1860459614,-2.3030917525,2.1008982428,686
39407,149689,145643,-9.1860459614,-2.3030917525,2.1008982428,687
39456,149670,145649,-9.1860459614,-2.3030917525,2.1008982428,688
39467,149698,145645,-9.1860459614,-2.3030917525,2.1008982428,689
39333,149647,145623,-9.1860459614,-2.3030917525,2.1008982428,690
39102,149591,145594,-9.1860459614,-2.3030917525,2.1008982428,691
38916,149579,145608,-9.1860459614,-2.3030917525,2.1008982428,692
38813,149562,145606,-9.1860459614,-2.3030917525,2.1008982428,693
38750,149558,145593,-9.1860459614,-2.3030917525,2.1008982428,694
38735,149561,145578,-9.1860459614,-2.3030917525,2.1008982428,695
38753,149559,145627,-9.1860459614,-2.3030917525,2.1008982428,696
38787,149572,145606,-9.1860459614,-2.3030917525,2.1008982428,697
38825,149613,145641,-9.1860459614,-2.3030917525,2.1008982428,698
38831,149604,145614,-9.1860459614,-2.3030917525,2.1008982428,699
38837,149601,145642,-9.1860459614,-2.3030917525,2.1008982428,700
38860,149617,145632,-9.1860459614,-2.3030917525,2.1008982428,701
38891,149626,145637,-9.1860459614,-2.3030917525,2.1008982428,702
38928,149621,145637,-9.1860459614,-2.3030917525,2.1008982428,703
38968,149658,145662,-9.0699940653,-2.5220350203999997,2.1332013479,704
39023,149687,145647,-9.0699940653,-2.5220350203999997,2.1332013479,705
39064,149674,145672,-9.0699940653,-2.5220350203999997,2.1332013479,706
39110,149707,145658,-9.0699940653,-2.5220350203999997,2.1332013479,707
39150,149687,145678,-9.0699940653,-2.5220350203999997,2.1332013479,708
39188,149724,145666,-9.0699940653,-2.5220350203999997,2.1332013479,709
39238,149716,145672,-9.131011041599999,-2.3856441322,2.0805592507,710
39267,149747,145672,-9.131011041599999,-2.3856441322,2.0805592507,711
39312,149745,145684,-9.131011041599999,-2.3856441322,2.0805592507,712
39358,149740,145687,-9.131011041599999,-2.3856441322,2.0805592507,713
39400,149766,145675,-9.131011041599999,-2.3856441322,2.0805592507,714
39386,149741,145661,-9.131011041599999,-2.3856441322,2.0805592507,715
39222,149713,145665,-9.131011041599999,-2.3856441322,2.0805592507,716
39002,149619,145629,-9.131011041599999,-2.3856441322,2.0805592507,717
38846,149633,145607,-9.131011041599999,-2.3856441322,2.0805592507,718
38762,149620,145607,-9.131011041599999,-2.3856441322,2.0805592507,719
38734,149601,145616,-9.131011041599999,-2.3856441322,2.0805592507,720
38739,149617,145607,-9.131011041599999,-2.3856441322,2.0805592507,721
38770,149599,145604,-9.131011041599999,-2.3856441322,2.0805592507,722
38804,149644,145638,-9.131011041599999,-2.3856441322,2.0805592507,723
38824,149653,145622,-9.131011041599999,-2.3856441322,2.0805592507,724
38835,149649,145636,-9.131011041599999,-2.3856441322,2.0805592507,725
38836,149637,145640,-9.131011041599999,-2.3856441322,2.0805592507,726
38859,149685,145657,-9.131011041599999,-2.3856441322,2.0805592507,727
38894,149684,145633,-9.131011041599999,-2.3856441322,2.0805592507,728
38944,149663,145651,-9.131011041599999,-2.3856441322,2.0805592507,729
38992,149714,145669,-9.131011041599999,-2.3856441322,2.0805592507,730
39043,149727,145684,-9.131011041599999,-2.3856441322,2.0805592507,731
39089,149722,145680,-9.131011041599999,-2.3856441322,2.0805592507,732
39134,149781,145689,-9.131011041599999,-2.3856441322,2.0805592507,733
39172,149748,145690,-9.131011041599999,-2.3856441322,2.0805592507,734
39220,149757,145716,-9.131011041599999,-2.3856441322,2.0805592507,735
39259,149784,145680,-9.131011041599999,-2.3856441322,2.0805592507,736
39302,149759,145712,-9.131011041599999,-2.3856441322,2.0805592507,737
39341,149809,145720,-9.131011041599999,-2.3856441322,2.0805592507,738
39382,149790,145723,-9.131011041599999,-2.3856441322,2.0805592507,739
39350,149785,145710,-9.131011041599999,-2.3856441322,2.0805592507,740
39150,149730,145675,-9.131011041599999,-2.3856441322,2.0805592507,741
38905,149691,145653,-9.131011041599999,-2.3856441322,2.0805592507,742
38731,149627,145647,-9.131011041599999,-2.3856441322,2.0805592507,743
38634,149624,145647,-9.131011041599999,-2.3856441322,2.0805592507,744
38599,149639,145637,-9.131011041599999,-2.3856441322,2.0805592507,745
38578,149612,145642,-9.131011041599999,-2.3856441322,2.0805592507,746
38605,149645,145639,-9.131011041599999,-2.3856441322,2.0805592507,747
38647,149643,145660,-9.131011041599999,-2.3856441322,2.0805592507,748
38685,149648,145651,-9.131011041599999,-2.3856441322,2.0805592507,749
38689,149696,145661,-9.131011041599999,-2.3856441322,2.0805592507,750
38713,149656,145649,-9.131011041599999,-2.3856441322,2.0805592507,751
39055,149581,145698,-9.140582332,-2.4131615921,2.0554346134,752
39103,149584,145692,-9.140582332,-2.4131615921,2.0554346134,753
39149,149612,145721,-9.140582332,-2.4131615921,2.0554346134,754
39206,149650,145697,-9.140582332,-2.4131615921,2.0554346134,755
39222,149628,145731,-9.140582332,-2.4131615921,2.0554346134,756
39100,149598,145715,-9.140582332,-2.4131615921,2.0554346134,757
38871,149519,145672,-9.140582332,-2.4131615921,2.0554346134,758
38666,149483,145636,-9.140582332,-2.4131615921,2.0554346134,759
38540,149469,145622,-9.140582332,-2.4131615921,2.0554346134,760
38486,149462,145641,-9.140582332,-2.4131615921,2.0554346134,761
38469,149463,145640,-9.140582332,-2.4131615921,2.0554346134,762
38479,149480,145673,-9.140582332,-2.4131615921,2.0554346134,763
38522,149489,145669,-9.140582332,-2.4131615921,2.0554346134,764
38556,149537,145659,-9.140582332,-2.4131615921,2.0554346134,765
38581,149526,145672,-9.140582332,-2.4131615921,2.0554346134,766
38596,149527,145657,-9.140582332,-2.4131615921,2.0554346134,767
38612,149543,145669,-9.140582332,-2.4131615921,2.0554346134,768
38641,149568,145692,-9.140582332,-2.4131615921,2.0554346134,769
38688,149576,145689,-9.140582332,-2.4131615921,2.0554346134,770
38730,149600,145699,-9.140582332,-2.4131615921,2.0554346134,771
38783,149589,145723,-9.140582332,-2.4131615921,2.0554346134,772
38831,149610,145732,-9.140582332,-2.4131615921,2.0554346134,773
38884,149630,145715,-9.140582332,-2.4131615921,2.0554346134,774
38926,149636,145748,-9.140582332,-2.4131615921,2.0554346134,775
38971,149629,145728,-9.140582332,-2.4131615921,2.0554346134,776
39021,149662,145752,-9.140582332,-2.4131615921,2.0554346134,777
39064,149668,145760,-9.140582332,-2.4131615921,2.0554346134,778
39110,149654,145741,-9.140582332,-2.4131615921,2.0554346134,779
39162,149697,145755,-9.140582332,-2.4131615921,2.0554346134,780
39209,149708,145763,-9.140582332,-2.4131615921,2.0554346134,781
39233,149734,145759,-9.140582332,-2.4131615921,2.0554346134,782
39125,149656,145726,-9.140582332,-2.4131615921,2.0554346134,783
38911,149632,145708,-9.140582332,-2.4131615921,2.0554346134,784
38727,149604,145708,-9.140582332,-2.4131615921,2.0554346134,785
38633,149596,145675,-9.140582332,-2.4131615921,2.0554346134,786
38587,149575,145693,-9.140582332,-2.4131615921,2.0554346134,787
38585,149577,145692,-9.140582332,-2.4131615921,2.0554346134,788
38609,149585,145705,-9.140582332,-2.4131615921,2.0554346134,789
38655,149588,145699,-9.140582332,-2.4131615921,2.0554346134,790
38696,149601,145705,-9.140582332,-2.4131615921,2.0554346134,791
38707,149601,145695,-9.140582332,-2.4131615921,2.0554346134,792
38710,149596,145692,-9.140582332,-2.4131615921,2.0554346134,793
38548,149620,145677,-9.1130648721,-2.3078773977,2.105683888,794
38604,149635,145660,-9.1130648721,-2.3078773977,2.105683888,795
38640,149641,145686,-9.1130648721,-2.3078773977,2.105683888,796
38665,149651,145705,-9.1130648721,-2.3078773977,2.105683888,797
38679,149675,145702,-9.1130648721,-2.3078773977,2.105683888,798
38702,149662,145687,-9.1130648721,-2.3078773977,2.105683888,799
38738,149711,145694,-9.1130648721,-2.3078773977,2.105683888,800
38783,149683,145709,-9.1130648721,-2.3078773977,2.105683888,801
38834,149702,145728,-9.1130648721,-2.3078773977,2.105683888,802
38887,149700,145747,-9.1130648721,-2.3078773977,2.105683888,803
38936,149754,145698,-9.1130648721,-2.3078773977,2.105683888,804
38994,149736,145738,-9.1130648721,-2.3078773977,2.105683888,805
39038,149749,145735,-9.1130648721,-2.3078773977,2.105683888,806
39077,149759,145743,-9.1130648721,-2.3078773977,2.105683888,807
39116,149747,145753,-9.1130648721,-2.3078773977,2.105683888,808
39157,149770,145724,-9.1130648721,-2.3078773977,2.105683888,809
39209,149785,145734,-9.1130648721,-2.3078773977,2.105683888,810
39236,149792,145721,-9.1130648721,-2.3078773977,2.105683888,811
39291,149804,145748,-9.1130648721,-2.3078773977,2.105683888,812
39329,149797,145725,-9.1130648721,-2.3078773977,2.105683888,813
39370,149808,145741,-9.152546445,-2.4335005842,2.2085752598,814
39379,149819,145730,-9.152546445,-2.4335005842,2.2085752598,815
39240,149767,145718,-9.152546445,-2.4335005842,2.2085752598,816
39011,149720,145685,-9.0053878551,-2.4825534475,2.1487546948,817
38828,149693,145670,-8.9718883387,-2.3808584870000002,2.1487546948,818
38721,149664,145652,-9.1190469286,-2.3198415107,2.2121644937,819
38658,149653,145646,-9.1513500337,-2.4610180441000002,2.2265214293,820
38648,149657,145616,-8.9587278144,-2.464607278,2.1272192914,821
38657,149648,145637,-9.229116768199999,-2.5112673187,2.0745771942,822
38706,149674,145632,-9.0783689444,-2.4861426814,2.1738793321000003,823
38736,149708,145652,-9.2051885422,-2.3916261887,2.0303099761,824
38746,149684,145683,-9.0783689444,-2.4729821571,2.1547367513,825
38756,149660,145650,-9.019744790699999,-2.3916261887,2.0350956213,826
38771,149672,145671,-9.019744790699999,-2.3916261887,2.0350956213,827
38805,149691,145669,-9.019744790699999,-2.3916261887,2.0350956213,828
38850,149693,145649,-9.019744790699999,-2.3916261887,2.0350956213,829
38891,149718,145680,-9.019744790699999,-2.3916261887,2.0350956213,830
38942,149733,145691,-9.019744790699999,-2.3916261887,2.0350956213,831
38995,149738,145712,-9.019744790699999,-2.3916261887,2.0350956213,832
39034,149723,145684,-9.019744790699999,-2.3916261887,2.0350956213,833
39066,149758,145685,-9.019744790699999,-2.3916261887,2.0350956213,834
39113,149737,145679,-9.019744790699999,-2.3916261887,2.0350956213,835
39141,149710,145685,-9.019744790699999,-2.3916261887,2.0350956213,836
39187,149800,145694,-9.019744790699999,-2.3916261887,2.0350956213,837
39221,149782,145689,-9.019744790699999,-2.3916261887,2.0350956213,838
39265,149766,145709,-9.019744790699999,-2.3916261887,2.0350956213,839
39308,149790,145684,-9.019744790699999,-2.3916261887,2.0350956213,840
39295,149781,145691,-9.019744790699999,-2.3916261887,2.0350956213,841
39135,149713,145665,-9.019744790699999,-2.3916261887,2.0350956213,842
38935,149701,145636,-9.019744790699999,-2.3916261887,2.0350956213,843
38780,149662,145618,-9.019744790699999,-2.3916261887,2.0350956213,844
38705,149701,145628,-9.019744790699999,-2.3916261887,2.0350956213,845
38681,149675,145637,-9.019744790699999,-2.3916261887,2.0350956213,846
38684,149673,145670,-9.019744790699999,-2.3916261887,2.0350956213,847
38725,149690,145644,-9.019744790699999,-2.3916261887,2.0350956213,848
38774,149700,145668,-9.019744790699999,-2.3916261887,2.0350956213,849
38792,149727,145654,-9.019744790699999,-2.3916261887,2.0350956213,850
38796,149719,145663,-9.019744790699999,-2.3916261887,2.0350956213,851
38814,149708,145681,-9.019744790699999,-2.3916261887,2.0350956213,852
38828,149714,145696,-9.019744790699999,-2.3916261887,2.0350956213,853
38864,149728,145683,-9.019744790699999,-2.3916261887,2.0350956213,854
38897,149735,145676,-9.019744790699999,-2.3916261887,2.0350956213,855
38952,149742,145693,-9.019744790699999,-2.3916261887,2.0350956213,856
39000,149745,145700,-9.019744790699999,-2.3916261887,2.0350956213,857
39052,149764,145687,-9.019744790699999,-2.3916261887,2.0350956213,858
39089,149766,145681,-9.019744790699999,-2.3916261887,2.0350956213,859
39136,149754,145692,-9.019744790699999,-2.3916261887,2.0350956213,860
39166,149774,145682,-9.019744790699999,-2.3916261887,2.0350956213,861
39208,149788,145686,-9.019744790699999,-2.3916261887,2.0350956213,862
39245,149750,145719,-9.019744790699999,-2.3916261887,2.0350956213,863
39275,149755,145696,-9.019744790699999,-2.3916261887,2.0350956213,864
39314,149775,145724,-9.019744790699999,-2.3916261887,2.0350956213,865
39293,149760,145722,-9.019744790699999,-2.3916261887,2.0350956213,866
39119,149708,145666,-9.019744790699999,-2.3916261887,2.0350956213,867
38977,149638,145680,-9.0520478958,-2.3318056236999998,2.1320049366,868
39015,149661,145689,-9.0520478958,-2.3318056236999998,2.1320049366,869
39074,149695,145699,-9.0520478958,-2.3318056236999998,2.1320049366,870
39119,149674,145713,-9.0520478958,-2.3318056236999998,2.1320049366,871
39156,149696,145719,-9.0520478958,-2.3318056236999998,2.1320049366,872
39211,149728,145738,-9.0520478958,-2.3318056236999998,2.1320049366,873
39240,149755,145729,-9.0520478958,-2.3318056236999998,2.1320049366,874
39307,149771,145738,-9.0520478958,-2.3318056236999998,2.1320049366,875
39338,149760,145744,-9.0520478958,-2.3318056236999998,2.1320049366,876
39272,149780,145737,-9.0520478958,-2.3318056236999998,2.1320049366,877
39067,149706,145717,-9.0520478958,-2.3318056236999998,2.1320049366,878
38836,149672,145686,-9.1908316066,-2.5316063108,2.0913269524,879
38691,149648,145673,-9.050851484499999,-2.4227328825,2.0362920326,880
38616,149624,145704,-9.2027957196,-2.4598216327999998,2.0410776778,881
38583,149660,145684,-9.2027957196,-2.4598216327999998,2.0410776778,882
38577,149652,145692,-9.2027957196,-2.4598216327999998,2.0410776778,883
38619,149655,145691,-9.2027957196,-2.4598216327999998,2.0410776778,884
38661,149682,145691,-9.2027957196,-2.4598216327999998,2.0410776778,885
38694,149691,145743,-9.2027957196,-2.4598216327999998,2.0410776778,886
38719,149708,145736,-9.2027957196,-2.4598216327999998,2.0410776778,887
38743,149723,145736,-9.2027957196,-2.4598216327999998,2.0410776778,888
38771,149740,145738,-9.2027957196,-2.4598216327999998,2.0410776778,889
38811,149718,145747,-9.2027957196,-2.4598216327999998,2.0410776778,890
38850,149743,145760,-9.2027957196,-2.4598216327999998,2.0410776778,891
38903,149742,145765,-9.2027957196,-2.4598216327999998,2.0410776778,892
38960,149790,145790,-9.2027957196,-2.4598216327999998,2.0410776778,893
39005,149791,145783,-9.2027957196,-2.4598216327999998,2.0410776778,894
39043,149827,145785,-9.2027957196,-2.4598216327999998,2.0410776778,895
39097,149810,145778,-9.2027957196,-2.4598216327999998,2.0410776778,896
39138,149822,145789,-9.2027957196,-2.4598216327999998,2.0410776778,897
39191,149844,145797,-9.2027957196,-2.4598216327999998,2.0410776778,898
39227,149849,145805,-9.2027957196,-2.4598216327999998,2.0410776778,899
39282,149831,145784,-9.0879402348,-2.4454646972,2.2025932033,900
39311,149879,145802,-9.0879402348,-2.4454646972,2.2025932033,901
39364,149864,145816,-9.0879402348,-2.4454646972,2.2025932033,902
39405,149863,145783,-9.0879402348,-2.4454646972,2.2025932033,903
39369,149874,145789,-9.0879402348,-2.4454646972,2.2025932033,904
39177,149794,145790,-9.0879402348,-2.4454646972,2.2025932033,905
38940,149744,145727,-9.0879402348,-2.4454646972,2.2025932033,906
38771,149719,145722,-9.0436730167,-2.4622144554,2.1846470338,907
38689,149712,145729,-9.0747797105,-2.4909283265999997,2.1583259852,908
38674,149719,145727,-9.1944208405,-2.476571391,2.1906290903,909
38641,149709,145714,-9.095118702599999,-2.4239292938,2.1906290903,910
38659,149716,145736,-9.1597249128,-2.5136601413,2.1355941704999997,911
38713,149699,145757,-9.0711904766,-2.3808584870000002,2.1750757434,912
38740,149712,145760,-9.0628155975,-2.3880369548,2.1834506225,913
38775,149746,145772,-9.0460658393,-2.4011974791,2.1200408236,914
38785,149736,145779,-9.0580299523,-2.3868405435,2.105683888,915
38807,149728,145754,-9.1932244292,-2.4430718746,2.0745771942,916
38757,149726,145772,-9.080761767,-2.3473589706,2.081755662,917
38943,149754,145743,-9.1680997919,-2.3964118339,2.2169501389,918
38941,149775,145762,-9.2219383004,-2.4131615921,2.1834506225,919
38988,149807,145796,-9.09272588,-2.5938196984,2.1607188078,920
39037,149788,145782,-9.1740818484,-2.4275185276999998,2.0602202586000002,921
39066,149815,145769,-9.0496550732,-2.4191436486,2.1631116304,922
39121,149784,145786,-9.219545477799999,-2.4909283265999997,2.2013967919999997,923
39160,149807,145763,-9.0735832992,-2.3365912689,2.129612114,924
39205,149783,145813,-9.0293160811,-2.3617159062,1.9860427579999997,925
39244,149807,145800,-9.0293160811,-2.3617159062,1.9860427579999997,926
39283,149800,145779,-9.0293160811,-2.3617159062,1.9860427579999997,927
39331,149806,145788,-9.0293160811,-2.3617159062,1.9860427579999997,928
39361,149836,145777,-9.0293160811,-2.3617159062,1.9860427579999997,929
39396,149815,145783,-9.0293160811,-2.3617159062,1.9860427579999997,930
39318,149771,145783,-9.0293160811,-2.3617159062,1.9860427579999997,931
39102,149730,145747,-9.0293160811,-2.3617159062,1.9860427579999997,932
38899,149687,145737,-9.0293160811,-2.3617159062,1.9860427579999997,933
38770,149658,145696,-9.0293160811,-2.3617159062,1.9860427579999997,934
38713,149622,145710,-9.0293160811,-2.3617159062,1.9860427579999997,935
38683,149603,145718,-9.0293160811,-2.3617159062,1.9860427579999997,936
38709,149582,145713,-9.0293160811,-2.3617159062,1.9860427579999997,937
38754,149633,145731,-9.0293160811,-2.3617159062,1.9860427579999997,938
38784,149612,145704,-9.0293160811,-2.3617159062,1.9860427579999997,939
38793,149612,145724,-9.0293160811,-2.3617159062,1.9860427579999997,940
38792,149602,145703,-9.0293160811,-2.3617159062,1.9860427579999997,941
38808,149598,145719,-9.0293160811,-2.3617159062,1.9860427579999997,942
38826,149584,145704,-9.0293160811,-2.3617159062,1.9860427579999997,943
38865,149604,145719,-9.0293160811,-2.3617159062,1.9860427579999997,944
38895,149606,145746,-9.0293160811,-2.3617159062,1.9860427579999997,945
38938,149582,145729,-9.0293160811,-2.3617159062,1.9860427579999997,946
38994,149592,145718,-9.0293160811,-2.3617159062,1.9860427579999997,947
39040,149615,145761,-9.0293160811,-2.3617159062,1.9860427579999997,948
39081,149608,145736,-9.0293160811,-2.3617159062,1.9860427579999997,949
39112,149629,145748,-9.0293160811,-2.3617159062,1.9860427579999997,950
39155,149623,145751,-9.0293160811,-2.3617159062,1.9860427579999997,951
39187,149633,145771,-9.0293160811,-2.3617159062,1.9860427579999997,952
39226,149652,145753,-9.0293160811,-2.3617159062,1.9860427579999997,953
39263,149645,145753,-9.0293160811,-2.3617159062,1.9860427579999997,954
39286,149616,145769,-9.0293160811,-2.3617159062,1.9860427579999997,955
39188,149604,145742,-9.0293160811,-2.3617159062,1.9860427579999997,956
38973,149554,145725,-9.0293160811,-2.3617159062,1.9860427579999997,957
38782,149491,145683,-9.121439751199999,-2.5579273594000003,2.1343977592,958
38663,149484,145692,-9.121439751199999,-2.5579273594000003,2.1343977592,959
38613,149459,145674,-9.121439751199999,-2.5579273594000003,2.1343977592,960
38595,149479,145669,-9.121439751199999,-2.5579273594000003,2.1343977592,961
38596,149464,145686,-9.121439751199999,-2.5579273594000003,2.1343977592,962
38656,149451,145708,-9.121439751199999,-2.5579273594000003,2.1343977592,963
38695,149507,145714,-9.121439751199999,-2.5579273594000003,2.1343977592,964
38704,149498,145714,-9.121439751199999,-2.5579273594000003,2.1343977592,965
38723,149485,145705,-9.121439751199999,-2.5579273594000003,2.1343977592,966
38758,149515,145738,-9.121439751199999,-2.5579273594000003,2.1343977592,967
38792,149559,145749,-9.121439751199999,-2.5579273594000003,2.1343977592,968
38831,149569,145744,-9.121439751199999,-2.5579273594000003,2.1343977592,969
38885,149602,145773,-9.121439751199999,-2.5579273594000003,2.1343977592,970
38938,149619,145797,-9.121439751199999,-2.5579273594000003,2.1343977592,971
38994,149658,145791,-9.121439751199999,-2.5579273594000003,2.1343977592,972
39042,149683,145809,-9.121439751199999,-2.5579273594000003,2.1343977592,973
39085,149713,145823,-9.121439751199999,-2.5579273594000003,2.1343977592,974
39131,149711,145823,-9.121439751199999,-2.5579273594000003,2.1343977592,975
39180,149761,145810,-9.121439751199999,-2.5579273594000003,2.1343977592,976
39216,149776,145846,-9.121439751199999,-2.5579273594000003,2.1343977592,977
39265,149762,145851,-9.121439751199999,-2.5579273594000003,2.1343977592,978
39313,149826,145856,-9.121439751199999,-2.5579273594000003,2.1343977592,979
39351,149806,145877,-9.121439751199999,-2.5579273594000003,2.1343977592,980
39318,149789,145867,-9.121439751199999,-2.5579273594000003,2.1343977592,981
39129,149740,145830,-9.121439751199999,-2.5579273594000003,2.1343977592,982
38889,149735,145810,-9.121439751199999,-2.5579273594000003,2.1343977592,983
38711,149663,145774,-9.121439751199999,-2.5579273594000003,2.1343977592,984
38608,149646,145762,-9.121439751199999,-2.5579273594000003,2.1343977592,985
38547,149628,145807,-9.121439751199999,-2.5579273594000003,2.1343977592,986
38526,149635,145770,-9.121439751199999,-2.5579273594000003,2.1343977592,987
38526,149652,145809,-9.121439751199999,-2.5579273594000003,2.1343977592,988
38588,149659,145800,-9.121439751199999,-2.5579273594000003,2.1343977592,989
38621,149659,145803,-9.121439751199999,-2.5579273594000003,2.1343977592,990
38640,149693,145806,-9.121439751199999,-2.5579273594000003,2.1343977592,991
38652,149689,145828,-9.121439751199999,-2.5579273594000003,2.1343977592,992
38685,149674,145823,-9.121439751199999,-2.5579273594000003,2.1343977592,993
38714,149710,145839,-9.121439751199999,-2.5579273594000003,2.1343977592,994
38754,149736,145850,-9.121439751199999,-2.5579273594000003,2.1343977592,995
38806,149733,145837,-9.121439751199999,-2.5579273594000003,2.1343977592,996
38866,149763,145855,-9.121439751199999,-2.5579273594000003,2.1343977592,997
38915,149757,145890,-9.121439751199999,-2.5579273594000003,2.1343977592,998
38960,149793,145886,-9.121439751199999,-2.5579273594000003,2.1343977592,999
38914,149716,145873,-9.1262253964,-2.4562323989,2.0673987264,1000
38964,149698,145883,-9.1262253964,-2.4562323989,2.0673987264,1001
39011,149752,145897,-9.1262253964,-2.4562323989,2.0673987264,1002
39055,149723,145922,-9.1262253964,-2.4562323989,2.0673987264,1003
39104,149736,145923,-9.1262253964,-2.4562323989,2.0673987264,1004
39143,149730,145904,-9.1262253964,-2.4562323989,2.0673987264,1005
39181,149744,145923,-9.1262253964,-2.4562323989,2.0673987264,1006
39213,149744,145907,-9.1262253964,-2.4562323989,2.0673987264,1007
39252,149780,145914,-9.1262253964,-2.4562323989,2.0673987264,1008
39302,149761,145952,-9.1262253964,-2.4562323989,2.0673987264,1009
39346,149752,145915,-9.1262253964,-2.4562323989,2.0673987264,1010
39319,149761,145920,-9.1262253964,-2.4562323989,2.0673987264,1011
39161,149707,145889,-9.1262253964,-2.4562323989,2.0673987264,1012
38948,149670,145880,-9.1262253964,-2.4562323989,2.0673987264,1013
38794,149608,145854,-9.1262253964,-2.4562323989,2.0673987264,1014
38727,149602,145845,-9.140582332,-2.4071795356,2.1068802992999998,1015
38684,149595,145844,-9.140582332,-2.4071795356,2.1068802992999998,1016
38678,149611,145845,-9.140582332,-2.4071795356,2.1068802992999998,1017
38716,149587,145828,-9.140582332,-2.4071795356,2.1068802992999998,1018
38766,149624,145874,-9.140582332,-2.4071795356,2.1068802992999998,1019
38788,149610,145863,-9.140582332,-2.4071795356,2.1068802992999998,1020
38800,149598,145847,-9.140582332,-2.4071795356,2.1068802992999998,1021
38810,149602,145855,-9.140582332,-2.4071795356,2.1068802992999998,1022
38822,149622,145877,-9.140582332,-2.4071795356,2.1068802992999998,1023
38858,149627,145864,-9.140582332,-2.4071795356,2.1068802992999998,1024
38904,149634,145859,-9.140582332,-2.4071795356,2.1068802992999998,1025
38960,149654,145860,-9.140582332,-2.4071795356,2.1068802992999998,1026
38994,149676,145880,-9.140582332,-2.4071795356,2.1068802992999998,1027
39040,149671,145880,-9.140582332,-2.4071795356,2.1068802992999998,1028
39087,149663,145871,-9.140582332,-2.4071795356,2.1068802992999998,1029
39136,149699,145888,-9.140582332,-2.4071795356,2.1068802992999998,1030
39170,149716,145908,-9.140582332,-2.4071795356,2.1068802992999998,1031
39216,149719,145919,-9.2027957196,-2.3629123174999997,2.141576227,1032
39257,149774,145910,-9.2027957196,-2.3629123174999997,2.141576227,1033
39300,149809,145944,-9.2027957196,-2.3629123174999997,2.141576227,1034
39318,149779,145954,-9.121439751199999,-2.4430718746,2.1128623558,1035
39183,149750,145919,-9.121439751199999,-2.4430718746,2.1128623558,1036
38946,149686,145907,-9.121439751199999,-2.4430718746,2.1128623558,1037
38766,149672,145906,-9.121439751199999,-2.4430718746,2.1128623558,1038
38655,149680,145897,-9.121439751199999,-2.4430718746,2.1128623558,1039
38597,149664,145862,-9.121439751199999,-2.4430718746,2.1128623558,1040
38582,149680,145884,-9.121439751199999,-2.4430718746,2.1128623558,1041
38603,149707,145895,-9.121439751199999,-2.4430718746,2.1128623558,1042
38654,149700,145883,-9.121439751199999,-2.4430718746,2.1128623558,1043
38697,149749,145910,-9.121439751199999,-2.4430718746,2.1128623558,1044
38713,149740,145908,-9.121439751199999,-2.4430718746,2.1128623558,1045
38734,149764,145911,-9.121439751199999,-2.4430718746,2.1128623558,1046
38772,149758,145901,-9.121439751199999,-2.4430718746,2.1128623558,1047
38816,149778,145914,-9.121439751199999,-2.4430718746,2.1128623558,1048
38852,149774,145933,-9.121439751199999,-2.4430718746,2.1128623558,1049
38910,149812,145951,-9.121439751199999,-2.4430718746,2.1128623558,1050
38966,149819,145948,-9.121439751199999,-2.4430718746,2.1128623558,1051
39012,149839,145965,-9.121439751199999,-2.4430718746,2.1128623558,1052
39063,149820,145973,-9.121439751199999,-2.4430718746,2.1128623558,1053
39106,149832,145974,-9.121439751199999,-2.4430718746,2.1128623558,1054
39159,149861,145977,-9.121439751199999,-2.4430718746,2.1128623558,1055
39198,149875,145971,-9.121439751199999,-2.4430718746,2.1128623558,1056
39239,149879,145985,-9.121439751199999,-2.4430718746,2.1128623558,1057
39281,149876,145959,-9.121439751199999,-2.4430718746,2.1128623558,1058
39338,149919,145968,-9.121439751199999,-2.4430718746,2.1128623558,1059
39366,149913,145994,-9.121439751199999,-2.4430718746,2.1128623558,1060
39417,149914,145992,-9.121439751199999,-2.4430718746,2.1128623558,1061
39456,149931,146013,-9.121439751199999,-2.4430718746,2.1128623558,1062
39375,149909,145983,-9.121439751199999,-2.4430718746,2.1128623558,1063
39147,149844,145935,-9.121439751199999,-2.4430718746,2.1128623558,1064
38923,149781,145912,-9.121439751199999,-2.4430718746,2.1128623558,1065
38773,149793,145929,-9.121439751199999,-2.4430718746,2.1128623558,1066
38699,149752,145892,-9.121439751199999,-2.4430718746,2.1128623558,1067
38655,149757,145902,-9.121439751199999,-2.4430718746,2.1128623558,1068
38643,149744,145902,-9.121439751199999,-2.4430718746,2.1128623558,1069
38683,149775,145928,-9.121439751199999,-2.4430718746,2.1128623558,1070
38744,149778,145907,-9.121439751199999,-2.4430718746,2.1128623558,1071
38771,149776,145929,-9.121439751199999,-2.4430718746,2.1128623558,1072
38786,149760,145922,-9.121439751199999,-2.4430718746,2.1128623558,1073
38814,149760,145914,-9.121439751199999,-2.4430718746,2.1128623558,1074
38841,149786,145913,-9.121439751199999,-2.4430718746,2.1128623558,1075
38886,149798,145934,-9.121439751199999,-2.4430718746,2.1128623558,1076
39556,149939,145973,-9.2039921309,-2.4023938904,2.0709879603,1077
39477,149922,145978,-9.2039921309,-2.4023938904,2.0709879603,1078
39273,149853,145947,-9.2039921309,-2.4023938904,2.0709879603,1079
39038,149789,145927,-9.2039921309,-2.4023938904,2.0709879603,1080
38900,149743,145898,-9.2039921309,-2.4023938904,2.0709879603,1081
38816,149736,145879,-9.2039921309,-2.4023938904,2.0709879603,1082
38793,149728,145885,-9.2039921309,-2.4023938904,2.0709879603,1083
38780,149746,145890,-9.2039921309,-2.4023938904,2.0709879603,1084
38823,149712,145911,-9.2039921309,-2.4023938904,2.0709879603,1085
38856,149727,145895,-9.2039921309,-2.4023938904,2.0709879603,1086
38886,149706,145861,-9.2039921309,-2.4023938904,2.0709879603,1087
38896,149716,145908,-9.2039921309,-2.4023938904,2.0709879603,1088
38922,149733,145887,-9.2039921309,-2.4023938904,2.0709879603,1089
38951,149741,145882,-9.2039921309,-2.4023938904,2.0709879603,1090
38994,149729,145874,-9.2039921309,-2.4023938904,2.0709879603,1091
39038,149704,145896,-9.2039921309,-2.4023938904,2.0709879603,1092
39093,149707,145909,-9.2039921309,-2.4023938904,2.0709879603,1093
39143,149733,145900,-9.2039921309,-2.4023938904,2.0709879603,1094
39191,149742,145900,-9.2039921309,-2.4023938904,2.0709879603,1095
39233,149735,145890,-9.2039921309,-2.4023938904,2.0709879603,1096
39287,149744,145924,-9.2039921309,-2.4023938904,2.0709879603,1097
39325,149732,145904,-9.2039921309,-2.4023938904,2.0709879603,1098
39362,149747,145907,-9.2039921309,-2.4023938904,2.0709879603,1099
39403,149735,145919,-9.2039921309,-2.4023938904,2.0709879603,1100
39444,149769,145917,-9.2039921309,-2.4023938904,2.0709879603,1101
39483,149733,145905,-9.2039921309,-2.4023938904,2.0709879603,1102
39524,149774,145915,-9.2039921309,-2.4023938904,2.0709879603,1103
39574,149776,145903,-9.2039921309,-2.4023938904,2.0709879603,1104
39603,149803,145882,-9.2039921309,-2.4023938904,2.0709879603,1105
39532,149755,145915,-9.2039921309,-2.4023938904,2.0709879603,1106
39335,149734,145885,-9.2039921309,-2.4023938904,2.0709879603,1107
39120,149721,145876,-9.2039921309,-2.4023938904,2.0709879603,1108
38974,149717,145844,-9.109475638200001,-2.4825534475,2.2193429615,1109
38921,149706,145849,-9.109475638200001,-2.4825534475,2.2193429615,1110
38897,149696,145896,-9.109475638200001,-2.4825534475,2.2193429615,1111
38907,149725,145859,-9.109475638200001,-2.4825534475,2.2193429615,1112
38951,149726,145891,-9.109475638200001,-2.4825534475,2.2193429615,1113
38990,149757,145888,-9.109475638200001,-2.4825534475,2.2193429615,1114
38995,149748,145887,-9.109475638200001,-2.4825534475,2.2193429615,1115
39005,149792,145894,-9.109475638200001,-2.4825534475,2.2193429615,1116
39005,149735,145902,-9.109475638200001,-2.4825534475,2.2193429615,1117
39039,149783,145925,-9.109475638200001,-2.4825534475,2.2193429615,1118
39051,149765,145906,-9.109475638200001,-2.4825534475,2.2193429615,1119
39102,149781,145885,-9.109475638200001,-2.4825534475,2.2193429615,1120
39150,149809,145908,-9.109475638200001,-2.4825534475,2.2193429615,1121
39200,149786,145912,-9.109475638200001,-2.4825534475,2.2193429615,1122
39236,149834,145909,-9.109475638200001,-2.4825534475,2.2193429615,1123
39288,149835,145935,-9.109475638200001,-2.4825534475,2.2193429615,1124
39317,149866,145944,-9.109475638200001,-2.4825534475,2.2193429615,1125
39359,149872,145938,-9.109475638200001,-2.4825534475,2.2193429615,1126
39389,149850,145920,-9.109475638200001,-2.4825534475,2.2193429615,1127
39418,149865,145921,-9.109475638200001,-2.4825534475,2.2193429615,1128
39465,149872,145951,-9.109475638200001,-2.4825534475,2.2193429615,1129
39512,149907,145938,-9.109475638200001,-2.4825534475,2.2193429615,1130
39508,149907,145941,-9.109475638200001,-2.4825534475,2.2193429615,1131
39375,149852,145921,-9.109475638200001,-2.4825534475,2.2193429615,1132
39150,149786,145892,-9.109475638200001,-2.4825534475,2.2193429615,1133
38967,149781,145866,-9.109475638200001,-2.4825534475,2.2193429615,1134
38849,149766,145863,-9.0903330574,-2.3413769141,2.1224336462,1135
38825,149756,145871,-9.0903330574,-2.3413769141,2.1224336462,1136
38805,149750,145882,-9.0903330574,-2.3413769141,2.1224336462,1137
38831,149786,145921,-9.0903330574,-2.3413769141,2.1224336462,1138
38880,149805,145894,-9.0903330574,-2.3413769141,2.1224336462,1139
38918,149813,145900,-9.0903330574,-2.3413769141,2.1224336462,1140
38933,149813,145919,-9.1369930981,-2.3461625592999997,2.1463618722,1141
38956,149814,145893,-9.1716890258,-2.3784656644,2.0961125976,1142
38932,149796,145920,-9.178867493599999,-2.4729821571,2.1367905818,1143
39039,149807,145927,-9.037690960199999,-2.5136601413,2.1272192914,1144
39053,149819,145917,-9.116654106,-2.3461625592999997,2.117648001,1145
39100,149832,145933,-9.1369930981,-2.4227328825,2.0769700168,1146
39154,149856,145949,-9.1142612834,-2.4562323989,2.1379869930999997,1147
39205,149879,145946,-9.1477607998,-2.4335005842,2.15354034,1148
39282,149881,145953,-9.1154576947,-2.3724836079,2.1391834043999998,1149
39284,149889,145927,-9.080761767,-2.3653051401,2.1188444122999996,1150
39318,149873,145945,-9.1549392676,-2.4598216327999998,2.105683888,1151
39409,149912,145988,-9.09272588,-2.3916261887,2.1942183242,1152
39397,149925,145963,-9.055637129700001,-2.3294128011,2.1918255016,1153
39441,149954,145961,-9.0496550732,-2.464607278,2.0985054202,1154
39494,149952,145975,-9.1262253964,-2.5387847786,2.2121644937,1155
39538,149980,145973,-9.044869428,-2.4430718746,2.1678972756,1156
39528,149962,145947,-9.1118684608,-2.4251257050999997,2.1714865095,1157
39347,149907,145912,-9.0496550732,-2.440679052,2.1714865095,1158
39085,149819,145889,-9.050851484499999,-2.5268206656,2.093719775,1159
38894,149780,145896,-9.1417787433,-2.5387847786,2.2313070745,1160
38774,149772,145865,-9.081958178299999,-2.4059831243,2.1272192914,1161
38710,149769,145873,-9.1190469286,-2.4693929232,2.1559331626,1162
38680,149755,145880,-9.050851484499999,-2.4454646972,2.1583259852,1163
38691,149769,145866,-9.1692962032,-2.428714939,2.1224336462,1164
38720,149799,145888,-9.247062937699999,-2.500499617,2.1702900981999997,1165
38766,149793,145909,-9.128618219,-2.5938196984,2.1224336462,1166
38772,149785,145867,-9.020941202,-2.5543381254999997,2.0482561456,1167
38797,149778,145895,-9.020941202,-2.5543381254999997,2.0482561456,1168
38801,149817,145910,-9.020941202,-2.5543381254999997,2.0482561456,1169
38841,149780,145906,-9.020941202,-2.5543381254999997,2.0482561456,1170
38877,149798,145906,-9.020941202,-2.5543381254999997,2.0482561456,1171
38922,149795,145909,-9.020941202,-2.5543381254999997,2.0482561456,1172
38963,149780,145922,-9.020941202,-2.5543381254999997,2.0482561456,1173
39011,149808,145923,-9.020941202,-2.5543381254999997,2.0482561456,1174
39051,149811,145947,-9.020941202,-2.5543381254999997,2.0482561456,1175
39097,149811,145938,-9.020941202,-2.5543381254999997,2.0482561456,1176
39149,149833,145944,-9.020941202,-2.5543381254999997,2.0482561456,1177
39182,149812,145950,-9.020941202,-2.5543381254999997,2.0482561456,1178
39222,149830,145939,-9.020941202,-2.5543381254999997,2.0482561456,1179
39259,149830,145945,-9.020941202,-2.5543381254999997,2.0482561456,1180
39297,149842,145953,-9.020941202,-2.5543381254999997,2.0482561456,1181
39338,149819,145945,-9.020941202,-2.5543381254999997,2.0482561456,1182
39348,149815,145937,-9.020941202,-2.5543381254999997,2.0482561456,1183
39222,149755,145896,-9.020941202,-2.5543381254999997,2.0482561456,1184
38963,149718,145876,-9.020941202,-2.5543381254999997,2.0482561456,1185
38744,149635,145858,-9.020941202,-2.5543381254999997,2.0482561456,1186
38626,149624,145840,-9.020941202,-2.5543381254999997,2.0482561456,1187
38567,149599,145825,-9.020941202,-2.5543381254999997,2.0482561456,1188
38543,149602,145830,-9.020941202,-2.5543381254999997,2.0482561456,1189
38548,149574,145852,-9.020941202,-2.5543381254999997,2.0482561456,1190
38594,149582,145840,-9.020941202,-2.5543381254999997,2.0482561456,1191
38656,149623,145842,-9.0604227749,-2.3988046565,1.998006871,1192
38657,149593,145873,-9.0604227749,-2.3988046565,1.998006871,1193
38672,149593,145852,-9.0604227749,-2.3988046565,1.998006871,1194
38690,149587,145847,-9.0604227749,-2.3988046565,1.998006871,1195
38717,149588,145856,-9.0604227749,-2.3988046565,1.998006871,1196
38762,149587,145850,-9.0604227749,-2.3988046565,1.998006871,1197
38814,149600,145841,-9.0604227749,-2.3988046565,1.998006871,1198
38866,149651,145878,-9.0604227749,-2.3988046565,1.998006871,1199
38914,149664,145890,-9.0604227749,-2.3988046565,1.998006871,1200
38974,149653,145926,-9.0604227749,-2.3988046565,1.998006871,1201
39010,149667,145887,-9.0604227749,-2.3988046565,1.998006871,1202
39064,149697,145911,-9.0604227749,-2.3988046565,1.998006871,1203
39114,149742,145934,-9.0604227749,-2.3988046565,1.998006871,1204
39149,149752,145918,-9.0604227749,-2.3988046565,1.998006871,1205
39190,149767,145914,-9.0604227749,-2.3988046565,1.998006871,1206
39238,149794,145947,-9.0604227749,-2.3988046565,1.998006871,1207
39276,149820,145951,-9.0604227749,-2.3988046565,1.998006871,1208
39327,149816,145951,-9.0604227749,-2.3988046565,1.998006871,1209
39347,149795,145946,-9.0604227749,-2.3988046565,1.998006871,1210
39250,149807,145921,-9.0604227749,-2.3988046565,1.998006871,1211
39013,149712,145913,-9.0604227749,-2.3988046565,1.998006871,1212
38776,149663,145862,-9.0604227749,-2.3988046565,1.998006871,1213
38650,149672,145838,-9.0604227749,-2.3988046565,1.998006871,1214
38580,149663,145885,-9.0604227749,-2.3988046565,1.998006871,1215
38554,149654,145845,-9.0604227749,-2.3988046565,1.998006871,1216
38563,149658,145861,-9.0604227749,-2.3988046565,1.998006871,1217
38601,149675,145886,-9.0604227749,-2.3988046565,1.998006871,1218
38658,149680,145880,-9.0604227749,-2.3988046565,1.998006871,1219
38674,149718,145882,-9.0604227749,-2.3988046565,1.998006871,1220
38696,149705,145876,-9.0604227749,-2.3988046565,1.998006871,1221
38704,149673,145859,-9.0604227749,-2.3988046565,1.998006871,1222
38731,149705,145900,-9.0604227749,-2.3988046565,1.998006871,1223
38776,149693,145889,-9.0604227749,-2.3988046565,1.998006871,1224
38820,149722,145903,-9.0604227749,-2.3988046565,1.998006871,1225
38874,149729,145912,-9.0604227749,-2.3988046565,1.998006871,1226
38922,149739,145904,-9.0604227749,-2.3988046565,1.998006871,1227
38953,149749,145911,-9.0604227749,-2.3988046565,1.998006871,1228
39008,149779,145901,-9.0604227749,-2.3988046565,1.998006871,1229
39051,149773,145917,-9.0604227749,-2.3988046565,1.998006871,1230
39090,149777,145912,-9.0604227749,-2.3988046565,1.998006871,1231
39128,149780,145884,-9.0604227749,-2.3988046565,1.998006871,1232
39163,149792,145895,-9.0604227749,-2.3988046565,1.998006871,1233
39154,149709,145863,-9.165706969299999,-2.4693929232,2.1978075581,1234
39195,149719,145857,-9.165706969299999,-2.4693929232,2.1978075581,1235
39227,149730,145871,-9.165706969299999,-2.4693929232,2.1978075581,1236
39247,149706,145878,-9.165706969299999,-2.4693929232,2.1978075581,1237
39115,149676,145836,-9.165706969299999,-2.4693929232,2.1978075581,1238
38865,149588,145834,-9.165706969299999,-2.4693929232,2.1978075581,1239
38660,149545,145787,-9.165706969299999,-2.4693929232,2.1978075581,1240
38527,149525,145759,-9.165706969299999,-2.4693929232,2.1978075581,1241
38463,149523,145771,-9.165706969299999,-2.4693929232,2.1978075581,1242
38437,149485,145770,-9.165706969299999,-2.4693929232,2.1978075581,1243
38445,149478,145747,-9.165706969299999,-2.4693929232,2.1978075581,1244
38482,149498,145794,-9.165706969299999,-2.4693929232,2.1978075581,1245
38533,149518,145800,-9.165706969299999,-2.4693929232,2.1978075581,1246
38559,149509,145787,-9.165706969299999,-2.4693929232,2.1978075581,1247
38586,149540,145777,-9.165706969299999,-2.4693929232,2.1978075581,1248
38612,149547,145799,-9.165706969299999,-2.4693929232,2.1978075581,1249
38645,149540,145794,-9.165706969299999,-2.4693929232,2.1978075581,1250
38689,149590,145792,-9.165706969299999,-2.4693929232,2.1978075581,1251
38745,149575,145822,-9.165706969299999,-2.4693929232,2.1978075581,1252
38802,149608,145824,-9.165706969299999,-2.4693929232,2.1978075581,1253
38862,149630,145827,-9.165706969299999,-2.4693929232,2.1978075581,1254
38914,149657,145866,-9.165706969299999,-2.4693929232,2.1978075581,1255
38978,149681,145867,-9.165706969299999,-2.4693929232,2.1978075581,1256
39021,149712,145863,-9.165706969299999,-2.4693929232,2.1978075581,1257
39067,149741,145883,-9.165706969299999,-2.4693929232,2.1978075581,1258
39116,149728,145884,-9.165706969299999,-2.4693929232,2.1978075581,1259
39164,149780,145875,-9.165706969299999,-2.4693929232,2.1978075581,1260
39219,149761,145900,-9.165706969299999,-2.4693929232,2.1978075581,1261
39265,149778,145886,-9.165706969299999,-2.4693929232,2.1978075581,1262
39282,149787,145885,-9.165706969299999,-2.4693929232,2.1978075581,1263
39181,149756,145878,-9.165706969299999,-2.4693929232,2.1978075581,1264
38941,149727,145826,-9.165706969299999,-2.4693929232,2.1978075581,1265
38748,149650,145832,-9.165706969299999,-2.4693929232,2.1978075581,1266
38622,149614,145812,-9.165706969299999,-2.4693929232,2.1978075581,1267
38571,149612,145821,-9.165706969299999,-2.4693929232,2.1978075581,1268
38539,149621,145822,-9.165706969299999,-2.4693929232,2.1978075581,1269
38545,149651,145812,-9.165706969299999,-2.4693929232,2.1978075581,1270
38603,149664,145831,-9.165706969299999,-2.4693929232,2.1978075581,1271
38656,149675,145847,-9.165706969299999,-2.4693929232,2.1978075581,1272
38688,149685,145844,-9.165706969299999,-2.4693929232,2.1978075581,1273
38716,149673,145821,-9.165706969299999,-2.4693929232,2.1978075581,1274
38750,149672,145858,-9.165706969299999,-2.4693929232,2.1978075581,1275
39228,149754,145853,-9.371489712899999,-2.4873390927,2.069791549,1276
39274,149758,145860,-9.371489712899999,-2.4873390927,2.069791549,1277
39321,149754,145861,-9.371489712899999,-2.4873390927,2.069791549,1278
39352,149771,145868,-9.371489712899999,-2.4873390927,2.069791549,1279
39388,149780,145864,-9.371489712899999,-2.4873390927,2.069791549,1280
39328,149733,145865,-9.371489712899999,-2.4873390927,2.069791549,1281
39136,149707,145812,-9.371489712899999,-2.4873390927,2.069791549,1282
38918,149618,145761,-9.371489712899999,-2.4873390927,2.069791549,1283
38778,149639,145790,-9.371489712899999,-2.4873390927,2.069791549,1284
38692,149589,145789,-9.371489712899999,-2.4873390927,2.069791549,1285
38655,149593,145763,-9.371489712899999,-2.4873390927,2.069791549,1286
38639,149567,145767,-9.371489712899999,-2.4873390927,2.069791549,1287
38681,149582,145775,-9.371489712899999,-2.4873390927,2.069791549,1288
38720,149587,145772,-9.371489712899999,-2.4873390927,2.069791549,1289
38759,149602,145787,-9.371489712899999,-2.4873390927,2.069791549,1290
38785,149592,145782,-9.371489712899999,-2.4873390927,2.069791549,1291
38807,149567,145760,-9.371489712899999,-2.4873390927,2.069791549,1292
38841,149591,145777,-9.371489712899999,-2.4873390927,2.069791549,1293
38865,149593,145812,-9.371489712899999,-2.4873390927,2.069791549,1294
38931,149583,145785,-9.371489712899999,-2.4873390927,2.069791549,1295
38984,149606,145799,-9.371489712899999,-2.4873390927,2.069791549,1296
39025,149633,145814,-9.371489712899999,-2.4873390927,2.069791549,1297
39087,149661,145812,-9.371489712899999,-2.4873390927,2.069791549,1298
39130,149614,145791,-9.371489712899999,-2.4873390927,2.069791549,1299
39174,149645,145805,-9.371489712899999,-2.4873390927,2.069791549,1300
39213,149640,145812,-9.371489712899999,-2.4873390927,2.069791549,1301
39260,149668,145821,-9.371489712899999,-2.4873390927,2.069791549,1302
39300,149707,145807,-9.371489712899999,-2.4873390927,2.069791549,1303
39353,149685,145839,-9.371489712899999,-2.4873390927,2.069791549,1304
39397,149698,145797,-9.371489712899999,-2.4873390927,2.069791549,1305
39350,149686,145825,-9.371489712899999,-2.4873390927,2.069791549,1306
39163,149674,145793,-9.371489712899999,-2.4873390927,2.069791549,1307
38958,149608,145758,-9.371489712899999,-2.4873390927,2.069791549,1308
38822,149643,145767,-9.371489712899999,-2.4873390927,2.069791549,1309
38760,149617,145762,-9.371489712899999,-2.4873390927,2.069791549,1310
38721,149607,145775,-9.371489712899999,-2.4873390927,2.069791549,1311
38718,149617,145746,-9.371489712899999,-2.4873390927,2.069791549,1312
38754,149657,145801,-9.371489712899999,-2.4873390927,2.069791549,1313
38813,149656,145781,-9.371489712899999,-2.4873390927,2.069791549,1314
38855,149672,145807,-9.371489712899999,-2.4873390927,2.069791549,1315
38881,149690,145809,-9.371489712899999,-2.4873390927,2.069791549,1316
38920,149729,145786,-9.371489712899999,-2.4873390927,2.069791549,1317
40286,149911,145745,-9.1381895094,-2.4299113503,2.0733807828999997,1318
40312,149907,145738,-9.1381895094,-2.4299113503,2.0733807828999997,1319
40238,149868,145714,-9.1381895094,-2.4299113503,2.0733807828999997,1320
40091,149831,145685,-9.1381895094,-2.4299113503,2.0733807828999997,1321
39951,149784,145656,-9.1381895094,-2.4299113503,2.0733807828999997,1322
39866,149786,145640,-9.1381895094,-2.4299113503,2.0733807828999997,1323
39824,149804,145659,-9.1381895094,-2.4299113503,2.0733807828999997,1324
39798,149774,145624,-9.1381895094,-2.4299113503,2.0733807828999997,1325
39798,149783,145654,-9.1381895094,-2.4299113503,2.0733807828999997,1326
39832,149785,145623,-9.1381895094,-2.4299113503,2.0733807828999997,1327
39841,149748,145613,-9.1381895094,-2.4299113503,2.0733807828999997,1328
39860,149793,145635,-9.1381895094,-2.4299113503,2.0733807828999997,1329
39857,149791,145638,-9.1381895094,-2.4299113503,2.0733807828999997,1330
39864,149753,145614,-9.1381895094,-2.4299113503,2.0733807828999997,1331
39894,149774,145625,-9.1381895094,-2.4299113503,2.0733807828999997,1332
39919,149731,145626,-9.1381895094,-2.4299113503,2.0733807828999997,1333
39955,149768,145618,-9.1381895094,-2.4299113503,2.0733807828999997,1334
39998,149739,145630,-9.1381895094,-2.4299113503,2.0733807828999997,1335
40042,149744,145641,-9.1381895094,-2.4299113503,2.0733807828999997,1336
40079,149723,145623,-9.1381895094,-2.4299113503,2.0733807828999997,1337
40118,149747,145605,-9.1381895094,-2.4299113503,2.0733807828999997,1338
40149,149750,145623,-9.1381895094,-2.4299113503,2.0733807828999997,1339
40190,149750,145585,-9.1381895094,-2.4299113503,2.0733807828999997,1340
40220,149722,145594,-9.1381895094,-2.4299113503,2.0733807828999997,1341
40261,149742,145608,-9.1381895094,-2.4299113503,2.0733807828999997,1342
40298,149722,145580,-9.1381895094,-2.4299113503,2.0733807828999997,1343
40317,149749,145555,-9.1381895094,-2.4299113503,2.0733807828999997,1344
40251,149704,145553,-9.1381895094,-2.4299113503,2.0733807828999997,1345
40109,149689,145535,-9.1381895094,-2.4299113503,2.0733807828999997,1346
39961,149631,145544,-9.1381895094,-2.4299113503,2.0733807828999997,1347
39866,149650,145520,-9.1381895094,-2.4299113503,2.0733807828999997,1348
39804,149639,145504,-9.1381895094,-2.4299113503,2.0733807828999997,1349
39781,149664,145533,-9.1381895094,-2.4299113503,2.0733807828999997,1350
39784,149667,145550,-9.1381895094,-2.4299113503,2.0733807828999997,1351
39797,149683,145551,-9.1381895094,-2.4299113503,2.0733807828999997,1352
39810,149717,145551,-9.1381895094,-2.4299113503,2.0733807828999997,1353
39810,149716,145552,-9.1381895094,-2.4299113503,2.0733807828999997,1354
39829,149750,145560,-9.1381895094,-2.4299113503,2.0733807828999997,1355
39830,149770,145556,-9.1381895094,-2.4299113503,2.0733807828999997,1356
39855,149770,145560,-9.1381895094,-2.4299113503,2.0733807828999997,1357
39883,149776,145555,-9.1381895094,-2.4299113503,2.0733807828999997,1358
39921,149799,145552,-9.1381895094,-2.4299113503,2.0733807828999997,1359
39337,149612,145372,-9.2087777761,-2.5316063108,2.093719775,1360
39375,149616,145373,-9.2087777761,-2.5316063108,2.093719775,1361
39419,149620,145369,-9.2087777761,-2.5316063108,2.093719775,1362
39469,149646,145375,-9.2087777761,-2.5316063108,2.093719775,1363
39513,149661,145400,-9.2087777761,-2.5316063108,2.093719775,1364
39544,149636,145395,-9.2087777761,-2.5316063108,2.093719775,1365
39597,149663,145402,-9.2087777761,-2.5316063108,2.093719775,1366
39626,149683,145394,-9.2087777761,-2.5316063108,2.093719775,1367
39680,149706,145370,-9.2087777761,-2.5316063108,2.093719775,1368
39722,149719,145384,-9.2087777761,-2.5316063108,2.093719775,1369
39767,149756,145409,-9.2087777761,-2.5316063108,2.093719775,1370
39817,149719,145396,-9.2087777761,-2.5316063108,2.093719775,1371
39816,149747,145418,-9.2087777761,-2.5316063108,2.093719775,1372
39691,149710,145384,-9.2087777761,-2.5316063108,2.093719775,1373
39524,149710,145366,-9.2087777761,-2.5316063108,2.093719775,1374
39396,149679,145388,-9.2087777761,-2.5316063108,2.093719775,1375
39333,149702,145389,-9.2087777761,-2.5316063108,2.093719775,1376
39304,149709,145392,-9.2087777761,-2.5316063108,2.093719775,1377
39299,149713,145376,-9.2087777761,-2.5316063108,2.093719775,1378
39332,149753,145423,-9.2087777761,-2.5316063108,2.093719775,1379
39375,149765,145422,-9.2087777761,-2.5316063108,2.093719775,1380
39382,149764,145445,-9.2087777761,-2.5316063108,2.093719775,1381
39391,149752,145403,-9.2087777761,-2.5316063108,2.093719775,1382
39397,149798,145404,-9.2087777761,-2.5316063108,2.093719775,1383
39426,149786,145443,-9.2087777761,-2.5316063108,2.093719775,1384
39461,149793,145433,-9.2087777761,-2.5316063108,2.093719775,1385
39483,149812,145428,-9.2087777761,-2.5316063108,2.093719775,1386
39532,149843,145458,-9.2087777761,-2.5316063108,2.093719775,1387
39580,149854,145450,-9.2087777761,-2.5316063108,2.093719775,1388
39618,149848,145480,-9.2087777761,-2.5316063108,2.093719775,1389
39661,149892,145471,-9.2087777761,-2.5316063108,2.093719775,1390
39700,149910,145461,-9.2087777761,-2.5316063108,2.093719775,1391
39740,149932,145497,-9.2087777761,-2.5316063108,2.093719775,1392
39778,149922,145460,-9.2087777761,-2.5316063108,2.093719775,1393
39817,149931,145485,-9.2087777761,-2.5316063108,2.093719775,1394
39846,149949,145475,-9.2087777761,-2.5316063108,2.093719775,1395
39890,149913,145483,-9.2087777761,-2.5316063108,2.093719775,1396
39855,149917,145465,-9.2087777761,-2.5316063108,2.093719775,1397
39699,149886,145433,-9.2087777761,-2.5316063108,2.093719775,1398
39504,149870,145431,-9.2087777761,-2.5316063108,2.093719775,1399
39362,149842,145415,-9.2087777761,-2.5316063108,2.093719775,1400
39266,149840,145434,-9.2087777761,-2.5316063108,2.093719775,1401
39024,149739,145470,-9.148957211099999,-2.4933211492,2.1463618722,1402
39003,149750,145484,-9.148957211099999,-2.4933211492,2.1463618722,1403
38998,149733,145475,-9.148957211099999,-2.4933211492,2.1463618722,1404
39028,149755,145495,-9.148957211099999,-2.4933211492,2.1463618722,1405
39072,149757,145502,-9.148957211099999,-2.4933211492,2.1463618722,1406
39090,149777,145503,-9.148957211099999,-2.4933211492,2.1463618722,1407
39102,149748,145536,-9.148957211099999,-2.4933211492,2.1463618722,1408
39112,149772,145538,-9.148957211099999,-2.4933211492,2.1463618722,1409
39141,149804,145526,-9.148957211099999,-2.4933211492,2.1463618722,1410
39179,149791,145520,-9.148957211099999,-2.4933211492,2.1463618722,1411
39211,149804,145519,-9.148957211099999,-2.4933211492,2.1463618722,1412
39261,149826,145560,-9.148957211099999,-2.4933211492,2.1463618722,1413
39300,149812,145563,-9.148957211099999,-2.4933211492,2.1463618722,1414
39346,149831,145543,-9.148957211099999,-2.4933211492,2.1463618722,1415
39390,149818,145554,-9.148957211099999,-2.4933211492,2.1463618722,1416
39418,149868,145551,-9.148957211099999,-2.4933211492,2.1463618722,1417
39475,149843,145532,-9.148957211099999,-2.4933211492,2.1463618722,1418
39501,149860,145578,-9.148957211099999,-2.4933211492,2.1463618722,1419
39543,149875,145593,-9.148957211099999,-2.4933211492,2.1463618722,1420
39569,149893,145592,-9.148957211099999,-2.4933211492,2.1463618722,1421
39623,149872,145576,-9.148957211099999,-2.4933211492,2.1463618722,1422
39654,149869,145606,-9.148957211099999,-2.4933211492,2.1463618722,1423
39617,149861,145599,-9.148957211099999,-2.4933211492,2.1463618722,1424
39454,149808,145546,-9.148957211099999,-2.4933211492,2.1463618722,1425
39266,149765,145531,-9.148957211099999,-2.4933211492,2.1463618722,1426
39127,149758,145513,-9.148957211099999,-2.4933211492,2.1463618722,1427
39056,149770,145490,-9.148957211099999,-2.4933211492,2.1463618722,1428
39025,149738,145523,-9.148957211099999,-2.4933211492,2.1463618722,1429
39027,149758,145520,-9.148957211099999,-2.4933211492,2.1463618722,1430
39064,149783,145513,-9.148957211099999,-2.4933211492,2.1463618722,1431
39105,149788,145508,-9.148957211099999,-2.4933211492,2.1463618722,1432
39111,149754,145547,-9.148957211099999,-2.4933211492,2.1463618722,1433
39114,149781,145544,-9.148957211099999,-2.4933211492,2.1463618722,1434
39126,149786,145533,-9.148957211099999,-2.4933211492,2.1463618722,1435
39160,149771,145562,-9.148957211099999,-2.4933211492,2.1463618722,1436
39192,149794,145551,-9.148957211099999,-2.4933211492,2.1463618722,1437
39232,149806,145579,-9.148957211099999,-2.4933211492,2.1463618722,1438
39285,149816,145562,-9.148957211099999,-2.4933211492,2.1463618722,1439
39316,149853,145580,-9.148957211099999,-2.4933211492,2.1463618722,1440
39362,149865,145563,-9.148957211099999,-2.4933211492,2.1463618722,1441
39393,149840,145587,-9.148957211099999,-2.4933211492,2.1463618722,1442
39446,149847,145597,-9.148957211099999,-2.4933211492,2.1463618722,1443
38941,149764,145589,-9.128618219,-2.4251257050999997,2.0985054202,1444
38926,149807,145574,-9.128618219,-2.4251257050999997,2.0985054202,1445
38925,149792,145585,-9.128618219,-2.4251257050999997,2.0985054202,1446
38977,149803,145610,-9.128618219,-2.4251257050999997,2.0985054202,1447
39017,149845,145593,-9.128618219,-2.4251257050999997,2.0985054202,1448
39023,149831,145620,-9.128618219,-2.4251257050999997,2.0985054202,1449
39038,149825,145608,-9.128618219,-2.4251257050999997,2.0985054202,1450
39052,149819,145642,-9.128618219,-2.4251257050999997,2.0985054202,1451
39086,149833,145628,-9.128618219,-2.4251257050999997,2.0985054202,1452
39125,149855,145616,-9.1740818484,-2.6321048599999997,2.1547367513,1453
39176,149868,145638,-9.1740818484,-2.6321048599999997,2.1547367513,1454
39226,149889,145621,-9.1740818484,-2.6321048599999997,2.1547367513,1455
39278,149897,145644,-9.1740818484,-2.6321048599999997,2.1547367513,1456
39320,149852,145658,-9.1740818484,-2.6321048599999997,2.1547367513,1457
39362,149888,145643,-9.1740818484,-2.6321048599999997,2.1547367513,1458
39407,149875,145680,-9.1740818484,-2.6321048599999997,2.1547367513,1459
39434,149903,145662,-9.1740818484,-2.6321048599999997,2.1547367513,1460
39479,149885,145678,-9.1740818484,-2.6321048599999997,2.1547367513,1461
39519,149869,145662,-9.1740818484,-2.6321048599999997,2.1547367513,1462
39562,149890,145656,-9.1740818484,-2.6321048599999997,2.1547367513,1463
39598,149878,145685,-9.1740818484,-2.6321048599999997,2.1547367513,1464
39629,149875,145672,-9.1740818484,-2.6321048599999997,2.1547367513,1465
39555,149854,145642,-9.1740818484,-2.6321048599999997,2.1547367513,1466
39344,149802,145610,-9.1740818484,-2.6321048599999997,2.1547367513,1467
39137,149738,145612,-9.1740818484,-2.6321048599999997,2.1547367513,1468
38991,149711,145555,-9.1740818484,-2.6321048599999997,2.1547367513,1469
38915,149704,145589,-9.1740818484,-2.6321048599999997,2.1547367513,1470
38863,149698,145561,-9.1740818484,-2.6321048599999997,2.1547367513,1471
38852,149712,145597,-9.1740818484,-2.6321048599999997,2.1547367513,1472
38878,149681,145570,-9.1740818484,-2.6321048599999997,2.1547367513,1473
38915,149700,145598,-9.1740818484,-2.6321048599999997,2.1547367513,1474
38939,149710,145621,-9.1740818484,-2.6321048599999997,2.1547367513,1475
38962,149673,145582,-9.1740818484,-2.6321048599999997,2.1547367513,1476
38987,149703,145601,-9.1740818484,-2.6321048599999997,2.1547367513,1477
39005,149683,145617,-9.1740818484,-2.6321048599999997,2.1547367513,1478
39048,149689,145614,-9.1740818484,-2.6321048599999997,2.1547367513,1479
39099,149697,145644,-9.1740818484,-2.6321048599999997,2.1547367513,1480
39142,149697,145627,-9.1740818484,-2.6321048599999997,2.1547367513,1481
39195,149709,145645,-9.1740818484,-2.6321048599999997,2.1547367513,1482
39238,149741,145640,-9.1190469286,-2.3330020350000003,2.1128623558,1483
39275,149731,145650,-9.1190469286,-2.3330020350000003,2.1128623558,1484
39325,149739,145656,-9.1190469286,-2.3330020350000003,2.1128623558,1485
39366,149725,145627,-9.1190469286,-2.3330020350000003,2.1128623558,1486
39398,149735,145646,-9.1190469286,-2.3330020350000003,2.1128623558,1487
39444,149775,145674,-9.1190469286,-2.3330020350000003,2.1128623558,1488
39481,149773,145657,-9.1190469286,-2.3330020350000003,2.1128623558,1489
39537,149787,145656,-9.1190469286,-2.3330020350000003,2.1128623558,1490
39581,149798,145662,-9.1190469286,-2.3330020350000003,2.1128623558,1491
39583,149803,145684,-9.1190469286,-2.3330020350000003,2.1128623558,1492
39440,149769,145662,-9.1190469286,-2.3330020350000003,2.1128623558,1493
39226,149697,145619,-9.1190469286,-2.3330020350000003,2.1128623558,1494
39051,149728,145622,-9.1190469286,-2.3330020350000003,2.1128623558,1495
38966,149689,145627,-9.1190469286,-2.3330020350000003,2.1128623558,1496
38905,149708,145642,-9.1190469286,-2.3330020350000003,2.1128623558,1497
38889,149707,145633,-9.1190469286,-2.3330020350000003,2.1128623558,1498
38904,149695,145639,-9.1190469286,-2.3330020350000003,2.1128623558,1499
38946,149715,145679,-9.1190469286,-2.3330020350000003,2.1128623558,1500
38991,149710,145653,-9.1190469286,-2.3330020350000003,2.1128623558,1501
38994,149753,145669,-9.1190469286,-2.3330020350000003,2.1128623558,1502
39008,149741,145685,-9.1190469286,-2.3330020350000003,2.1128623558,1503
39037,149758,145666,-9.1190469286,-2.3330020350000003,2.1128623558,1504
39071,149757,145678,-9.1190469286,-2.3330020350000003,2.1128623558,1505
39117,149756,145680,-9.1190469286,-2.3330020350000003,2.1128623558,1506
39167,149754,145685,-9.1190469286,-2.3330020350000003,2.1128623558,1507
39208,149776,145705,-9.0364945489,-2.428714939,2.0985054202,1508
39265,149792,145674,-9.0364945489,-2.428714939,2.0985054202,1509
39302,149808,145707,-9.0364945489,-2.428714939,2.0985054202,1510
39351,149813,145715,-9.0364945489,-2.428714939,2.0985054202,1511
39386,149814,145736,-9.0364945489,-2.428714939,2.0985054202,1512
39431,149822,145707,-9.0364945489,-2.428714939,2.0985054202,1513
39462,149832,145725,-9.0364945489,-2.428714939,2.0985054202,1514
39510,149822,145705,-9.0364945489,-2.428714939,2.0985054202,1515
39545,149841,145705,-9.0364945489,-2.428714939,2.0985054202,1516
39603,149855,145708,-9.0364945489,-2.428714939,2.0985054202,1517
39627,149850,145721,-9.0364945489,-2.428714939,2.0985054202,1518
39567,149815,145716,-9.0364945489,-2.428714939,2.0985054202,1519
39379,149747,145675,-9.0364945489,-2.428714939,2.0985054202,1520
39173,149708,145666,-9.0364945489,-2.428714939,2.0985054202,1521
39041,149703,145647,-9.0364945489,-2.428714939,2.0985054202,1522
38971,149714,145660,-9.0364945489,-2.428714939,2.0985054202,1523
38949,149694,145655,-9.0364945489,-2.428714939,2.0985054202,1524
38939,149713,145646,-9.0364945489,-2.428714939,2.0985054202,1525
38984,149701,145670,-9.0364945489,-2.428714939,2.0985054202,1526
39008,149711,145667,-9.0364945489,-2.428714939,2.0985054202,1527
39016,149734,145669,-9.0364945489,-2.428714939,2.0985054202,1528
39024,149716,145679,-9.0364945489,-2.428714939,2.0985054202,1529
