green,red,IR,acc_x,acc_y,acc_z,sample_index
101099,202925,265644,4.2903309218,-0.7070790783,8.5758761984,1
99708,202790,265572,4.1108692268,-0.6891329087999999,8.6321075295,2
99111,202758,265531,4.2137605985999995,-0.7716852885,8.6392859973,3
98864,202693,265482,4.2388852359,-0.6197410534,8.6356967634,4
98872,202673,265553,4.1659041466,-0.6352944003,8.605786480899999,5
99250,202698,265518,4.1431723319,-0.729810893,8.5208412786,6
99792,202765,265597,4.115654872,-0.7477570625,8.5651084967,7
100237,202814,265598,4.3082770913,-0.5790630692000001,8.5926259566,8
100522,202832,265580,4.2987058009,-0.6484549246,8.4921274074,9
100785,202906,265594,4.115654872,-0.6113661743,8.638089586,10
101097,202894,265615,4.163511324,-0.6723831506,8.4777704718,11
101479,202902,265682,4.211367776,-0.6508477471999999,8.5854474888,12
101888,202956,265661,4.2125641873,-0.6903293201,8.583054666199999,13
102312,203040,265684,4.1898323726,-0.6723831506,8.6273218843,14
102733,203102,265743,4.1324046302,-0.7836494015,8.542376681999999,15
103186,203128,265742,4.1539400336,-0.6257231099,8.484948939599999,16
103632,203170,265753,4.2556349941,-0.5288137946,8.583054666199999,17
103628,203142,265805,4.223331889,-0.5647061336,8.636893174699999,18
102147,202995,265705,4.237688824599999,-0.8195417405,8.5531443837,19
100205,202848,265578,4.1898323726,-0.7621139981,8.6189470052,20
99053,202735,265495,4.1706897918,-0.6915257314000001,8.542376681999999,21
98611,202655,265470,4.211367776,-0.5826523031,8.574679787100001,22
98469,202651,265480,4.175475436999999,-0.6963113766000001,8.554340795,23
98600,202644,265503,4.2532421715,-0.5587240770999999,8.556733617599999,24
99063,202685,265543,4.1682969692,-0.6532405698,8.6081793035,25
99524,202730,265570,4.0785661217,-0.5467599640999999,8.5351982142,26
99846,202776,265575,4.2305103568,-0.5826523031,8.4801632944,27
100037,202812,265517,4.2556349941,-0.6269195211999999,8.554340795,28
100284,202845,265558,4.1048871703,-0.6340979889999999,8.518448456,29
100621,202838,265595,4.1371902754,-0.6340979889999999,8.628518295600001,30
100975,202884,265588,4.1611185014,-0.6556333924,8.7026957962,31
101351,202940,265624,4.2305103568,-0.6843472636,8.6321075295,32
101733,202965,265650,4.0450666053,-0.7465606512,8.5806618436,33
102145,203017,265651,4.1958144290999995,-0.6364908116,8.5328053916,34
102561,203064,265731,4.2006000743,-0.6484549246,8.6345003521,35
102425,203035,265707,4.2041893082,-0.7465606512,8.5854474888,36
100795,202870,265602,4.175475436999999,-0.7740781111,8.525626923799999,37
98847,202696,265465,4.0905302347,-0.6568298037,8.5495551498,38
97769,202580,265402,4.2041893082,-0.6556333924,8.5890367227,39
97269,202492,265378,4.237688824599999,-0.6807580296999999,8.6177505939,40
97015,202484,265384,4.342973019,-0.6388836341999999,8.654839344200001,41
97069,202455,265357,4.2795632201,-0.6687939167,8.554340795,42
97514,202477,265394,4.127618985,-0.6640082715,8.5244305125,43
98086,202542,265388,4.1958144290999995,-0.5946164161,8.5076807543,44
98488,202624,265462,4.1802610821999995,-0.7334001269,8.554340795,45
98752,202635,265505,4.2675991071,-0.6687939167,8.5974116018,46
99052,202669,265526,4.1324046302,-0.6352944003,8.7326060787,47
99412,202680,265514,4.211367776,-0.6293123438,8.6967137397,48
99823,202745,265554,4.146761565799999,-0.6281159325,8.6045900696,49
100248,202808,265523,4.1898323726,-0.7286144817,8.5555372063,50
100715,202820,265603,4.1659041466,-0.5503491979999999,8.5926259566,51
101202,202898,265579,4.3010986235,-0.6879364975,8.6081793035,52
101613,202923,265618,4.2843488653,-0.7525427077,8.6081793035,53
100947,202893,265539,4.1108692268,-0.7070790783,8.5974116018,54
99054,202690,265492,4.237688824599999,-0.6855436748999999,8.49452023,55
97451,202488,265356,4.175475436999999,-0.46540399569999996,8.5040915204,56
96893,202399,265329,4.2496529376,-0.6041877065,8.5686977306,57
96630,202418,265316,4.2161534212,-0.6891329087999999,8.5232341012,58
96533,202394,265290,4.223331889,-0.5946164161,8.5088771656,59
96808,202399,265297,4.2041893082,-0.6161518195,8.506484343,60
97405,202443,265372,4.0965122912,-0.705882667,8.5447695046,61
97939,202539,265441,4.2759739861999995,-0.7034898444000001,8.470592004,62
98307,202545,265483,4.1838503161,-0.6233302873,8.5495551498,63
98594,202614,265424,4.1982072517,-0.6652046827999999,8.6045900696,64
98926,202653,265462,4.2281175342,-0.7453642399,8.5375910368,65
99298,202568,265492,4.2723847523,-0.6580262149999999,8.6117685374,66
99738,202717,265531,4.1682969692,-0.7489534738,8.6010008357,67
100211,202772,265535,4.2221354777,-0.7214360139,8.5878403114,68
100710,202826,265598,4.1491543884,-0.6987041992,8.6919280945,69
101198,202859,265585,4.1419759206,-0.5084748025,8.4514494232,70
101571,202886,265574,4.175475436999999,-0.6855436748999999,8.6117685374,71
100841,202849,265553,4.1898323726,-0.6041877065,8.5399838594,72
98958,202613,265404,4.1611185014,-0.7106683122,8.5854474888,73
97610,202423,265363,4.1814574935,-0.6293123438,8.5878403114,74
97096,202429,265279,4.1288153963,-0.7214360139,8.5351982142,75
96930,202400,265282,4.2448672924,-0.6269195211999999,8.6967137397,76
96960,202400,265314,4.2819560427,-0.7585247642,8.5615192628,77
97353,202438,265301,4.2556349941,-0.7405785947,8.445467366699999,78
97970,202492,265351,4.2305103568,-0.6711867393,8.5208412786,79
98435,202561,265420,4.2783668087999995,-0.6305087550999999,8.5208412786,80
98792,202583,265414,4.223331889,-0.6975077879,8.4897345848,81
99108,202636,265438,4.1706897918,-0.5623133109999999,8.5794654323,82
99469,202643,265454,4.3441694303,-0.7334001269,8.602197247,83
99907,202655,265555,4.1898323726,-0.6041877065,8.605786480899999,84
100394,202751,265513,4.199403663,-0.8386843212999999,8.482556117,85
100911,202781,265556,4.2065821308,-0.7633104094,8.543573093300001,86
101411,202859,265573,4.1826539048,-0.8099704500999999,8.5950187792,87
101947,202903,265589,4.1443687432,-0.6149554081999999,8.4921274074,88
102382,202943,265639,4.2699919297,-0.5958128274,8.518448456,89
101866,202900,265533,4.2771703975,-0.7106683122,8.5591264402,90
100166,202672,265426,4.1922251952,-0.6053841178,8.5950187792,91
98837,202525,265361,4.1706897918,-0.7226324252,8.5591264402,92
98342,202484,265354,4.2496529376,-0.7920242806,8.6045900696,93
98229,202510,265356,4.3274196721000004,-0.6460621019999999,8.5208412786,94
98345,202468,265380,4.2173498325,-0.6352944003,8.596215190499999,95
98789,202529,265426,4.2257247116,-0.6305087550999999,8.5136628108,96
99380,202639,265445,4.2496529376,-0.6771687957999999,8.6799639815,97
99804,202608,265440,4.3130627365,-0.5754738353000001,8.641678819900001,98
100087,202634,265452,4.2544385828,-0.6879364975,8.596215190499999,99
100380,202678,265455,4.2843488653,-0.6388836341999999,8.4574314797,100
100723,202700,265480,4.1694933805000005,-0.5168496816,8.518448456,101
101145,202744,265509,4.2496529376,-0.7561319416,8.4023965599,102
101577,202778,265527,4.1922251952,-0.7154539574000001,8.584251077500001,103
102028,202827,265553,4.2616170506,-0.8315058535,8.5639120854,104
102511,202814,265584,4.0654055974,-0.7405785947,8.516055633399999,105
102997,202913,265629,4.3262232608,-0.6628118601999999,8.49452023,106
103150,202923,265575,4.199403663,-0.6281159325,8.5471623272,107
102006,202786,265496,4.1587256788,-0.7154539574000001,8.4969130526,108
100337,202614,265438,4.208974953399999,-0.7094719009,8.626125473,109
99383,202465,265378,4.3597227772,-0.7788637562999999,8.4430745441,110
98999,202462,265386,4.0689948312999995,-0.6867400861999999,8.5639120854,111
98869,202454,265346,4.1886359613,-0.7130611348,8.5854474888,112
98937,202455,265339,4.353740720699999,-0.6843472636,8.484948939599999,113
99387,202475,265342,4.1946180178,-0.5563312545,8.590233134,114
99931,202534,265391,4.2209390664,-0.6652046827999999,8.6345003521,115
100312,202586,265428,4.2783668087999995,-0.6604190376,8.5328053916,116
100556,202645,265498,4.092923057299999,-0.6149554081999999,8.5950187792,117
100844,202618,265454,4.211367776,-0.7405785947,8.459824302300001,118
101202,202638,265451,4.2006000743,-0.6831508522999999,8.5675013193,119
101571,202658,265473,4.1228333398,-0.6293123438,8.6189470052,120
101985,202708,265496,4.175475436999999,-0.6472585133,8.471788415299999,121
102389,202792,265526,4.2616170506,-0.7166503687,8.506484343,122
102845,202827,265573,4.1312082188999995,-0.6604190376,8.6656070459,123
102915,202857,265571,4.146761565799999,-0.5778666579,8.5447695046,124
101748,202706,265507,4.151547211,-0.6017948839,8.5232341012,125
100101,202524,265345,4.1850467274,-0.6017948839,8.663214223299999,126
99148,202432,265344,4.0869410008000004,-0.6065805291,8.5495551498,127
98693,202378,265298,4.0773697104,-0.6233302873,8.6201434165,128
98450,202378,265258,4.1790646709,-0.6747759731999999,8.641678819900001,129
98478,202339,265219,4.2963129783,-0.6005984726,8.5399838594,130
98898,202370,265307,4.4398823343,-0.6089733517,8.5447695046,131
99458,202445,265299,4.1946180178,-0.6628118601999999,8.6069828922,132
99873,202515,265365,4.1252261624,-0.6675975054,8.5998044244,133
100113,202527,265359,4.1347974528,-0.6640082715,8.602197247,134
100378,202505,265427,4.258027816699999,-0.7130611348,8.5088771656,135
100703,202604,265367,4.1647077353,-0.6484549246,8.5866439001,136
101078,202663,265474,4.2855452766,-0.6520441585,8.5232341012,137
101496,202635,265464,4.1527436223,-0.5539384319,8.4921274074,138
101902,202707,265453,4.211367776,-0.7477570625,8.556733617599999,139
102366,202699,265518,4.2568314054,-0.6173482308,8.6751783363,140
102422,202760,265502,4.1898323726,-0.6963113766000001,8.6464644651,141
101162,202643,265399,4.3226340269,-0.6987041992,8.4382888989,142
99450,202463,265272,4.2628134618999995,-0.753739119,8.5734833758,143
98432,202350,265299,4.151547211,-0.7226324252,8.5399838594,144
97959,202322,265239,4.0390845488,-0.6831508522999999,8.554340795,145
97747,202284,265126,4.208974953399999,-0.5539384319,8.6392859973,146
97763,202315,265170,4.079762533,-0.7034898444000001,8.5974116018,147
98197,202354,265258,4.2101713647,-0.6257231099,8.6249290617,148
98743,202445,265276,4.2041893082,-0.5204389155,8.6165541826,149
99127,202444,265330,4.1527436223,-0.610169763,8.5758761984,150
99408,202400,265280,4.2364924133,-0.5910271822000001,8.6081793035,151
99691,202519,265357,4.2664026958,-0.6388836341999999,8.5112699882,152
100061,202571,265354,4.2448672924,-0.6269195211999999,8.5196448673,153
100444,202627,265394,4.2975093896,-0.7429714173,8.6440716425,154
100887,202657,265439,4.0725840652,-0.7680960546,8.4873417622,155
101341,202681,265454,4.2675991071,-0.6137589969,8.6225362391,156
101844,202745,265496,4.1706897918,-0.6460621019999999,8.5998044244,157
102235,202801,265511,4.2185462438,-0.5850451257,8.5016986978,158
102022,202706,265519,4.175475436999999,-0.6448656907,8.638089586,159
100381,202580,265366,4.3058842687,-0.8255237969999999,8.5399838594,160
98727,202529,265288,4.2017964856,-0.6783652070999999,8.6488572877,161
97872,202352,265210,4.2723847523,-0.7489534738,8.4969130526,162
97566,202301,265213,4.258027816699999,-0.6568298037,8.663214223299999,163
97490,202326,265200,4.2317067681000005,-0.6915257314000001,8.4562350684,164
97726,202315,265242,4.2508493489,-0.6412764568,8.516055633399999,165
98281,202355,265270,4.2460637037,-0.6161518195,8.5244305125,166
98737,202425,265252,4.3274196721000004,-0.6496513358999999,8.566304908,167
99053,202450,265285,4.1491543884,-0.6364908116,8.475377649199999,168
99303,202484,265372,4.1826539048,-0.6329015777,8.542376681999999,169
99579,202528,265328,4.2675991071,-0.7334001269,8.6045900696,170
99950,202599,265378,4.1539400336,-0.6819544409999999,8.6799639815,171
100389,202580,265409,4.1958144290999995,-0.6616154488999999,8.6345003521,172
100869,202671,265442,4.3130627365,-0.6544369810999999,8.6153577713,173
101387,202743,265468,4.0618163635,-0.6257231099,8.566304908,174
101856,202739,265464,4.2508493489,-0.6077769404,8.556733617599999,175
102333,202740,265489,4.1790646709,-0.6245266986,8.5818582549,176
102706,202879,265564,4.1982072517,-0.7501498851,8.5016986978,177
102113,202769,265455,4.1982072517,-0.7501498851,8.5016986978,178
100268,202617,265354,4.1982072517,-0.7501498851,8.5016986978,179
98864,202480,265302,4.1982072517,-0.7501498851,8.5016986978,180
98325,202384,265311,4.1982072517,-0.7501498851,8.5016986978,181
98198,202367,265218,4.1982072517,-0.7501498851,8.5016986978,182
98293,202380,265205,4.1982072517,-0.7501498851,8.5016986978,183
98724,202441,265270,4.1982072517,-0.7501498851,8.5016986978,184
99272,202469,265350,4.1982072517,-0.7501498851,8.5016986978,185
99674,202489,265364,4.1982072517,-0.7501498851,8.5016986978,186
99930,202535,265377,4.1982072517,-0.7501498851,8.5016986978,187
100172,202566,265356,4.1982072517,-0.7501498851,8.5016986978,188
100501,202598,265416,4.1982072517,-0.7501498851,8.5016986978,189
100889,202636,265474,4.1982072517,-0.7501498851,8.5016986978,190
101297,202650,265463,4.1982072517,-0.7501498851,8.5016986978,191
101738,202729,265455,4.1982072517,-0.7501498851,8.5016986978,192
102151,202787,265513,4.1982072517,-0.7501498851,8.5016986978,193
102588,202813,265523,4.1982072517,-0.7501498851,8.5016986978,194
103048,202873,265550,4.1982072517,-0.7501498851,8.5016986978,195
102835,202812,265525,4.1982072517,-0.7501498851,8.5016986978,196
101220,202662,265419,4.1982072517,-0.7501498851,8.5016986978,197
99588,202531,265301,4.1982072517,-0.7501498851,8.5016986978,198
98786,202423,265298,4.1982072517,-0.7501498851,8.5016986978,199
98433,202356,265273,4.1982072517,-0.7501498851,8.5016986978,200
98325,202379,265213,4.1982072517,-0.7501498851,8.5016986978,201
98485,202350,265243,4.1982072517,-0.7501498851,8.5016986978,202
98999,202405,265287,4.1982072517,-0.7501498851,8.5016986978,203
99468,202478,265296,4.2269211229,-0.7010970218,8.4729848266,204
99764,202475,265321,4.2269211229,-0.7010970218,8.4729848266,205
100002,202510,265376,4.2269211229,-0.7010970218,8.4729848266,206
100289,202567,265392,4.2269211229,-0.7010970218,8.4729848266,207
100640,202562,265401,4.2269211229,-0.7010970218,8.4729848266,208
101062,202625,265419,4.2269211229,-0.7010970218,8.4729848266,209
101478,202660,265438,4.2269211229,-0.7010970218,8.4729848266,210
101885,202706,265449,4.2269211229,-0.7010970218,8.4729848266,211
102346,202759,265518,4.2269211229,-0.7010970218,8.4729848266,212
102725,202786,265490,4.2269211229,-0.7010970218,8.4729848266,213
102101,202734,265445,4.2269211229,-0.7010970218,8.4729848266,214
100365,202529,265358,4.2269211229,-0.7010970218,8.4729848266,215
99076,202398,265254,4.2269211229,-0.7010970218,8.4729848266,216
98452,202359,265230,4.208974953399999,-0.7130611348,8.5136628108,217
98195,202332,265320,4.208974953399999,-0.7130611348,8.5136628108,218
98119,202291,265239,4.146761565799999,-0.6137589969,8.4789668831,219
98425,202318,265269,4.1898323726,-0.6771687957999999,8.6297147069,220
98946,202352,265301,4.0666020087,-0.7142575461,8.6045900696,221
99464,202407,265333,4.2723847523,-0.6867400861999999,8.4993058752,222
99815,202432,265364,4.2137605985999995,-0.6233302873,8.6309111182,223
100126,202487,265325,4.1778682596,-0.7286144817,8.5722869645,224
100469,202532,265319,4.2508493489,-0.7142575461,8.6105721261,225
100851,202575,265412,4.2281175342,-0.6460621019999999,8.6608214007,226
101312,202601,265424,4.0618163635,-0.6436692794,8.5758761984,227
101722,202659,265387,4.1431723319,-0.7525427077,8.4442709554,228
102175,202756,265480,4.2891345105,-0.5994020613,8.518448456,229
102629,202782,265487,4.1946180178,-0.6867400861999999,8.4155570842,230
103083,202791,265535,4.2927237444,-0.6460621019999999,8.6572321668,231
102893,202735,265476,4.0630127748,-0.6903293201,8.602197247,232
101332,202588,265392,4.1012979364,-0.7154539574000001,8.551947972399999,233
99755,202445,265270,4.1694933805000005,-0.7369893608,8.5232341012,234
99016,202393,265206,4.1790646709,-0.6987041992,8.5686977306,235
98714,202337,265258,4.1814574935,-0.5563312545,8.5399838594,236
98618,202309,265194,4.2652062845000005,-0.6628118601999999,8.5926259566,237
98776,202331,265253,4.1898323726,-0.6149554081999999,8.5447695046,238
99317,202365,265274,4.1012979364,-0.6496513358999999,8.5758761984,239
99858,202422,265303,4.1072799929,-0.6616154488999999,8.566304908,240
100230,202463,265356,4.1706897918,-0.7274180704000001,8.5016986978,241
100497,202471,265340,4.1659041466,-0.6340979889999999,8.578269021,242
100820,202538,265377,4.2963129783,-0.6568298037,8.5734833758,243
101199,202516,265380,4.2508493489,-0.7453642399,8.556733617599999,244
101665,202625,265439,4.208974953399999,-0.705882667,8.6297147069,245
102138,202690,265429,4.0689948312999995,-0.6293123438,8.5531443837,246
102642,202740,265492,4.3082770913,-0.5754738353000001,8.5088771656,247
103114,202766,265453,4.2699919297,-0.6400800455,8.636893174699999,248
103614,202829,265571,4.2281175342,-0.7034898444000001,8.5399838594,249
104103,202875,265498,4.2652062845000005,-0.6149554081999999,8.6225362391,250
104353,202877,265550,4.2029928969000006,-0.6185446421,8.6010008357,251
103295,202792,265486,4.1192441059,-0.7226324252,8.554340795,252
101514,202619,265351,4.2807596314,-0.7680960546,8.551947972399999,253
100458,202517,265326,4.1922251952,-0.7106683122,8.6153577713,254
100114,202502,265302,4.3513478981,-0.6029912952,8.4921274074,255
100007,202472,265344,4.1910287839,-0.6388836341999999,8.5340018029,256
100091,202463,265306,4.208974953399999,-0.7836494015,8.5351982142,257
100507,202502,265312,4.1455651545,-0.6077769404,8.5591264402,258
101019,202532,265378,4.2568314054,-0.7250252478,8.6345003521,259
101427,202625,265403,4.2412780585,-0.7250252478,8.4897345848,260
101673,202613,265408,4.2137605985999995,-0.59820565,8.5328053916,261
101948,202641,265417,4.2065821308,-0.753739119,8.5794654323,262
102273,202707,265411,4.2987058009,-0.7369893608,8.6093757148,263
102698,202755,265502,4.2197426551,-0.6616154488999999,8.628518295600001,264
103158,202766,265503,4.2041893082,-0.7369893608,8.551947972399999,265
103590,202817,265519,4.2484565263,-0.7429714173,8.5447695046,266
104034,202905,265563,4.2161534212,-0.693918554,8.525626923799999,267
104479,202954,265556,4.3752761241,-0.6209374647,8.516055633399999,268
104914,202948,265561,4.1336010414999995,-0.5670989562,8.5639120854,269
105334,202985,265610,4.1730826144,-0.5527420206,8.4729848266,270
105727,203007,265640,4.1479579771,-0.5898307709,8.6476608764,271
105269,202973,265535,4.2508493489,-0.7836494015,8.556733617599999,272
103509,202815,265523,4.1419759206,-0.7022934331,8.4765740605,273
102002,202615,265415,4.2819560427,-0.6412764568,8.5806618436,274
101310,202597,265364,4.1431723319,-0.6987041992,8.578269021,275
101019,202594,265332,4.0737804765,-0.7034898444000001,8.6560357555,276
100896,202599,265329,4.2388852359,-0.6687939167,8.6081793035,277
101111,202589,265372,4.2675991071,-0.6843472636,8.506484343,278
101559,202627,265417,4.2735811636,-0.502492746,8.5447695046,279
101978,202690,265412,4.2520457602,-0.5730810127,8.569894141899999,280
102223,202695,265413,4.1970108404,-0.6448656907,8.5878403114,281
102443,202717,265427,4.2855452766,-0.6747759731999999,8.4909309961,282
102767,202730,265454,4.2281175342,-0.693918554,8.5112699882,283
103125,202781,265474,4.2161534212,-0.7010970218,8.5280197464,284
103531,202836,265436,4.2149570099,-0.7752745223999999,8.602197247,285
103970,202880,265499,4.1048871703,-0.7082754896000001,8.5710905532,286
104380,202919,265513,4.0498522505,-0.6329015777,8.4993058752,287
104793,202944,265539,4.0498522505,-0.6329015777,8.4993058752,288
105193,202984,265574,4.0498522505,-0.6329015777,8.4993058752,289
105536,203010,265561,4.2065821308,-0.6065805291,8.556733617599999,290
105434,203015,265569,4.1587256788,-0.6197410534,8.5148592221,291
104021,202865,265463,4.2568314054,-0.6424728680999999,8.6069828922,292
102470,202691,265382,4.2269211229,-0.5970092387,8.5088771656,293
101614,202649,265359,4.1371902754,-0.6197410534,8.525626923799999,294
101218,202542,265345,4.1898323726,-0.6556333924,8.530412569000001,295
101047,202565,265313,4.0510486617999995,-0.5826523031,8.6356967634,296
101162,202591,265370,4.146761565799999,-0.6975077879,8.556733617599999,297
101550,202652,265337,4.1970108404,-0.6592226263,8.5328053916,298
102055,202664,265387,4.0965122912,-0.6089733517,8.5794654323,299
102418,202705,265370,4.2340995907,-0.5754738353000001,8.518448456,300
102727,202768,265426,4.1814574935,-0.705882667,8.5675013193,301
103034,202834,265437,4.127618985,-0.6604190376,8.4957166413,302
103415,202780,265400,4.1970108404,-0.6628118601999999,8.6010008357,303
103820,202860,265471,4.18743955,-0.610169763,8.5639120854,304
104303,202914,265486,4.18743955,-0.6819544409999999,8.5734833758,305
104757,202939,265562,4.1778682596,-0.6388836341999999,8.542376681999999,306
105253,203000,265541,4.2340995907,-0.7680960546,8.518448456,307
105731,203069,265573,4.2305103568,-0.6735795618999999,8.5148592221,308
105987,203037,265536,4.1551364449,-0.5730810127,8.61416136,309
105093,202955,265553,4.3058842687,-0.7322037156,8.4610207136,310
103637,202821,265452,4.1730826144,-0.6891329087999999,8.5447695046,311
102686,202669,265369,4.2975093896,-0.705882667,8.5818582549,312
102240,202670,265332,4.163511324,-0.6771687957999999,8.5076807543,313
102081,202674,265383,4.2628134618999995,-0.7549355303,8.5938223679,314
102092,202687,265321,4.2101713647,-0.7728816998,8.6129649487,315
102440,202710,265413,4.2675991071,-0.729810893,8.518448456,316
102966,202767,265367,4.0857445895,-0.7082754896000001,8.484948939599999,317
103400,202777,265454,4.1096728155,-0.7357929495000001,8.6237326504,318
103737,202797,265418,4.2939201557,-0.5922235935,8.525626923799999,319
104049,202840,265463,4.2364924133,-0.7106683122,8.5328053916,320
104430,202874,265460,4.2017964856,-0.6245266986,8.5591264402,321
104803,202906,265495,4.208974953399999,-0.7513462964000001,8.5938223679,322
105260,202889,265521,4.1706897918,-0.7369893608,8.5280197464,323
105734,203031,265555,4.2939201557,-0.7561319416,8.5806618436,324
106185,203041,265565,4.1443687432,-0.6400800455,8.6297147069,325
106583,203093,265608,4.2520457602,-0.6329015777,8.525626923799999,326
106905,203130,265609,4.2400816472,-0.6496513358999999,8.5866439001,327
106581,203012,265592,4.0737804765,-0.6293123438,8.525626923799999,328
105266,202974,265455,4.2496529376,-0.7501498851,8.5974116018,329
104110,202903,265442,4.1252261624,-0.7561319416,8.5710905532,330
103565,202840,265388,4.2065821308,-0.6388836341999999,8.518448456,331
103348,202809,265373,4.3142591478000005,-0.7082754896000001,8.5447695046,332
103278,202782,265409,4.3238304382,-0.7226324252,8.5375910368,333
103512,202800,265390,4.092923057299999,-0.7082754896000001,8.6249290617,334
103923,202838,265414,4.208974953399999,-0.6640082715,8.5136628108,335
104342,202875,265434,4.2448672924,-0.7154539574000001,8.5328053916,336
104645,202913,265436,4.140779509300001,-0.7202396026000001,8.542376681999999,337
104906,202946,265460,4.1419759206,-0.6891329087999999,8.626125473,338
105232,202967,265490,4.2209390664,-0.7130611348,8.5447695046,339
105610,203003,265533,4.2293139454999995,-0.6245266986,8.6069828922,340
106013,203043,265552,4.1671005579,-0.71784678,8.5854474888,341
106462,203114,265550,4.1970108404,-0.7118647235000001,8.569894141899999,342
106893,203119,265576,4.1970108404,-0.7118647235000001,8.569894141899999,343
107318,203191,265555,4.1970108404,-0.7118647235000001,8.569894141899999,344
107773,203222,265642,4.1970108404,-0.7118647235000001,8.569894141899999,345
108051,203204,265659,4.1970108404,-0.7118647235000001,8.569894141899999,346
107272,203127,265572,4.1970108404,-0.7118647235000001,8.569894141899999,347
105776,203037,265494,4.1970108404,-0.7118647235000001,8.569894141899999,348
104765,202931,265439,4.1970108404,-0.7118647235000001,8.569894141899999,349
104313,202867,265424,4.1970108404,-0.7118647235000001,8.569894141899999,350
104117,202863,265372,4.1970108404,-0.7118647235000001,8.569894141899999,351
104082,202854,265406,4.1970108404,-0.7118647235000001,8.569894141899999,352
104404,202888,265408,4.1970108404,-0.7118647235000001,8.569894141899999,353
104769,202932,265425,4.1970108404,-0.7118647235000001,8.569894141899999,354
105015,202952,265413,4.1970108404,-0.7118647235000001,8.569894141899999,355
105182,202943,265483,4.1970108404,-0.7118647235000001,8.569894141899999,356
105383,202989,265460,4.1970108404,-0.7118647235000001,8.569894141899999,357
105648,203009,265474,4.1970108404,-0.7118647235000001,8.569894141899999,358
105941,203034,265461,4.1970108404,-0.7118647235000001,8.569894141899999,359
106335,203098,265517,4.1970108404,-0.7118647235000001,8.569894141899999,360
106693,203149,265558,4.1970108404,-0.7118647235000001,8.569894141899999,361
107088,203174,265537,4.1970108404,-0.7118647235000001,8.569894141899999,362
107464,203237,265540,4.1970108404,-0.7118647235000001,8.569894141899999,363
107784,203230,265558,4.1970108404,-0.7118647235000001,8.569894141899999,364
107314,203196,265564,4.1970108404,-0.7118647235000001,8.569894141899999,365
105694,203028,265451,4.1970108404,-0.7118647235000001,8.569894141899999,366
104139,202892,265414,4.1970108404,-0.7118647235000001,8.569894141899999,367
103199,202828,265307,4.1970108404,-0.7118647235000001,8.569894141899999,368
102672,202768,265310,4.1970108404,-0.7118647235000001,8.569894141899999,369
102311,202719,265268,4.1970108404,-0.7118647235000001,8.569894141899999,370
102265,202720,265271,4.1970108404,-0.7118647235000001,8.569894141899999,371
102575,202738,265346,4.1970108404,-0.7118647235000001,8.569894141899999,372
102905,202788,265341,4.1970108404,-0.7118647235000001,8.569894141899999,373
103092,202791,265277,4.1970108404,-0.7118647235000001,8.569894141899999,374
103252,202825,265349,4.1970108404,-0.7118647235000001,8.569894141899999,375
103471,202847,265351,4.1970108404,-0.7118647235000001,8.569894141899999,376
103758,202906,265385,4.1970108404,-0.7118647235000001,8.569894141899999,377
104106,202912,265418,4.1970108404,-0.7118647235000001,8.569894141899999,378
104410,202944,265389,4.1970108404,-0.7118647235000001,8.569894141899999,379
104761,202974,265460,4.1970108404,-0.7118647235000001,8.569894141899999,380
105127,203033,265450,4.1970108404,-0.7118647235000001,8.569894141899999,381
105305,203015,265466,4.1970108404,-0.7118647235000001,8.569894141899999,382
104353,202949,265364,4.1970108404,-0.7118647235000001,8.569894141899999,383
104086,202813,265325,4.2675991071,-0.5694917788,8.5998044244,384
104502,202852,265377,4.2675991071,-0.5694917788,8.5998044244,385
104800,202880,265398,4.2675991071,-0.5694917788,8.5998044244,386
105083,202909,265392,4.2675991071,-0.5694917788,8.5998044244,387
105384,202927,265431,4.2675991071,-0.5694917788,8.5998044244,388
105769,202958,265411,4.2675991071,-0.5694917788,8.5998044244,389
106213,203017,265457,4.2675991071,-0.5694917788,8.5998044244,390
106620,203065,265455,4.2675991071,-0.5694917788,8.5998044244,391
107060,203108,265431,4.2675991071,-0.5694917788,8.5998044244,392
107500,203150,265574,4.2675991071,-0.5694917788,8.5998044244,393
107958,203205,265529,4.2675991071,-0.5694917788,8.5998044244,394
108319,203258,265565,4.2675991071,-0.5694917788,8.5998044244,395
107869,203140,265544,4.2675991071,-0.5694917788,8.5998044244,396
106612,203034,265467,4.2675991071,-0.5694917788,8.5998044244,397
105585,202982,265356,4.2675991071,-0.5694917788,8.5998044244,398
105097,202902,265381,4.2675991071,-0.5694917788,8.5998044244,399
104833,202864,265351,4.2675991071,-0.5694917788,8.5998044244,400
104706,202899,265356,4.2675991071,-0.5694917788,8.5998044244,401
104869,202887,265351,4.2675991071,-0.5694917788,8.5998044244,402
105278,202957,265409,4.2675991071,-0.5694917788,8.5998044244,403
105700,202967,265441,4.2675991071,-0.5694917788,8.5998044244,404
106006,203016,265410,4.2675991071,-0.5694917788,8.5998044244,405
106317,203004,265449,4.2675991071,-0.5694917788,8.5998044244,406
106618,203075,265448,4.2675991071,-0.5694917788,8.5998044244,407
106968,203090,265453,4.2675991071,-0.5694917788,8.5998044244,408
107367,203150,265526,4.2675991071,-0.5694917788,8.5998044244,409
107766,203164,265531,4.2675991071,-0.5694917788,8.5998044244,410
108184,203224,265503,4.2675991071,-0.5694917788,8.5998044244,411
108587,203248,265555,4.2675991071,-0.5694917788,8.5998044244,412
108995,203279,265561,4.2675991071,-0.5694917788,8.5998044244,413
109412,203347,265594,4.2675991071,-0.5694917788,8.5998044244,414
109627,203338,265601,4.2675991071,-0.5694917788,8.5998044244,415
108834,203275,265527,4.2675991071,-0.5694917788,8.5998044244,416
107411,203195,265473,4.2675991071,-0.5694917788,8.5998044244,417
106474,203094,265408,4.2675991071,-0.5694917788,8.5998044244,418
106008,203064,265409,4.2675991071,-0.5694917788,8.5998044244,419
105710,202994,265351,4.2675991071,-0.5694917788,8.5998044244,420
105615,202984,265398,4.2675991071,-0.5694917788,8.5998044244,421
105825,203056,265372,4.2675991071,-0.5694917788,8.5998044244,422
106176,203098,265425,4.2675991071,-0.5694917788,8.5998044244,423
106501,203115,265422,4.2664026958,-0.5443671415,8.4670027701,424
106736,203138,265481,4.2664026958,-0.5443671415,8.4670027701,425
107006,203135,265468,4.2664026958,-0.5443671415,8.4670027701,426
107313,203174,265463,4.2664026958,-0.5443671415,8.4670027701,427
107658,203218,265515,4.2664026958,-0.5443671415,8.4670027701,428
108032,203248,265513,4.2664026958,-0.5443671415,8.4670027701,429
108426,203285,265527,4.2664026958,-0.5443671415,8.4670027701,430
108823,203351,265551,4.2664026958,-0.5443671415,8.4670027701,431
109190,203361,265571,4.2664026958,-0.5443671415,8.4670027701,432
109555,203404,265565,4.2664026958,-0.5443671415,8.4670027701,433
109954,203484,265597,4.2664026958,-0.5443671415,8.4670027701,434
110330,203459,265608,4.2664026958,-0.5443671415,8.4670027701,435
110293,203473,265621,4.2664026958,-0.5443671415,8.4670027701,436
109110,203347,265525,4.2664026958,-0.5443671415,8.4670027701,437
107627,203264,265444,4.2664026958,-0.5443671415,8.4670027701,438
106727,203181,265387,4.2664026958,-0.5443671415,8.4670027701,439
106256,203139,265386,4.2664026958,-0.5443671415,8.4670027701,440
106000,203110,265339,4.2664026958,-0.5443671415,8.4670027701,441
105964,203109,265408,4.2664026958,-0.5443671415,8.4670027701,442
106177,203181,265415,4.2664026958,-0.5443671415,8.4670027701,443
106404,203186,265444,4.2664026958,-0.5443671415,8.4670027701,444
106546,203191,265433,4.2664026958,-0.5443671415,8.4670027701,445
106662,203174,265391,4.2664026958,-0.5443671415,8.4670027701,446
106848,203224,265424,4.2664026958,-0.5443671415,8.4670027701,447
107121,203239,265434,4.2664026958,-0.5443671415,8.4670027701,448
107365,203273,265452,4.2664026958,-0.5443671415,8.4670027701,449
107685,203306,265472,4.2664026958,-0.5443671415,8.4670027701,450
108016,203326,265494,4.2664026958,-0.5443671415,8.4670027701,451
108345,203406,265502,4.2664026958,-0.5443671415,8.4670027701,452
108683,203386,265499,4.2664026958,-0.5443671415,8.4670027701,453
108981,203440,265511,4.2664026958,-0.5443671415,8.4670027701,454
109337,203460,265534,4.2664026958,-0.5443671415,8.4670027701,455
109204,203424,265521,4.2664026958,-0.5443671415,8.4670027701,456
107854,203312,265473,4.2867416879,-0.6759723845,8.4897345848,457
106262,203204,265365,4.2867416879,-0.6759723845,8.4897345848,458
105227,203140,265337,4.2867416879,-0.6759723845,8.4897345848,459
104651,203033,265309,4.2867416879,-0.6759723845,8.4897345848,460
104221,203043,265265,4.2867416879,-0.6759723845,8.4897345848,461
104034,203013,265263,4.2867416879,-0.6759723845,8.4897345848,462
104216,203049,265246,4.2867416879,-0.6759723845,8.4897345848,463
104499,203074,265283,4.2867416879,-0.6759723845,8.4897345848,464
104714,203055,265296,4.2867416879,-0.6759723845,8.4897345848,465
104838,203115,265292,4.2867416879,-0.6759723845,8.4897345848,466
105011,203149,265291,4.2867416879,-0.6759723845,8.4897345848,467
105239,203156,265319,4.2867416879,-0.6759723845,8.4897345848,468
105518,203153,265352,4.2867416879,-0.6759723845,8.4897345848,469
105856,203205,265325,4.2747775749,-0.7154539574000001,8.5100735769,470
106160,203208,265355,4.2747775749,-0.7154539574000001,8.5100735769,471
106495,203260,265413,4.2747775749,-0.7154539574000001,8.5100735769,472
106837,203294,265422,4.1084764042,-0.6149554081999999,8.6321075295,473
107200,203347,265444,4.3645084224,-0.6711867393,8.5794654323,474
107410,203361,265376,4.1898323726,-0.6484549246,8.6560357555,475
106568,203258,265427,4.1934216065,-0.6723831506,8.5686977306,476
105018,203132,265287,4.1982072517,-0.6963113766000001,8.5136628108,477
103872,203054,265291,4.1252261624,-0.6017948839,8.578269021,478
103301,202974,265215,4.2017964856,-0.6460621019999999,8.5986080131,479
102967,202981,265223,4.271188340999999,-0.6664010940999999,8.6010008357,480
102787,202956,265186,4.2329031794,-0.6771687957999999,8.542376681999999,481
102913,202970,265191,4.208974953399999,-0.7106683122,8.6895352719,482
103306,203010,265276,4.1838503161,-0.6723831506,8.506484343,483
103677,203017,265294,4.2293139454999995,-0.6436692794,8.6345003521,484
103951,203029,265309,4.175475436999999,-0.7501498851,8.5722869645,485
104206,203026,265296,4.1587256788,-0.5850451257,8.4693955927,486
104457,203064,265318,4.2687955184,-0.6113661743,8.542376681999999,487
104792,203144,265289,4.2221354777,-0.7429714173,8.574679787100001,488
105158,203165,265346,4.199403663,-0.6185446421,8.530412569000001,489
105578,203180,265339,4.3322053173,-0.7154539574000001,8.5112699882,490
105992,203165,265383,4.1647077353,-0.6771687957999999,8.4957166413,491
106367,203240,265410,4.2604206393,-0.6903293201,8.5627156741,492
106731,203271,265419,4.1946180178,-0.6209374647,8.530412569000001,493
107121,203354,265432,4.1312082188999995,-0.6089733517,8.569894141899999,494
107501,203353,265432,4.2125641873,-0.6197410534,8.5399838594,495
107325,203336,265479,4.2340995907,-0.6532405698,8.6081793035,496
105944,203157,265340,4.2340995907,-0.6532405698,8.6081793035,497
104482,203086,265262,4.2340995907,-0.6532405698,8.6081793035,498
103734,203021,265251,4.2340995907,-0.6532405698,8.6081793035,499
103418,202990,265189,4.2340995907,-0.6532405698,8.6081793035,500
103256,202980,265231,4.2340995907,-0.6532405698,8.6081793035,501
103299,202955,265202,4.2340995907,-0.6532405698,8.6081793035,502
103621,203000,265229,4.2340995907,-0.6532405698,8.6081793035,503
104025,203022,265246,4.2340995907,-0.6532405698,8.6081793035,504
104327,203063,265333,4.2340995907,-0.6532405698,8.6081793035,505
104570,203085,265255,4.2340995907,-0.6532405698,8.6081793035,506
104842,203082,265319,4.2340995907,-0.6532405698,8.6081793035,507
105167,203144,265322,4.2340995907,-0.6532405698,8.6081793035,508
105517,203152,265324,4.2340995907,-0.6532405698,8.6081793035,509
105919,203205,265378,4.2340995907,-0.6532405698,8.6081793035,510
106332,203201,265388,4.2340995907,-0.6532405698,8.6081793035,511
106746,203260,265388,4.2340995907,-0.6532405698,8.6081793035,512
107169,203285,265393,4.2340995907,-0.6532405698,8.6081793035,513
107532,203334,265392,4.2340995907,-0.6532405698,8.6081793035,514
107944,203381,265446,4.2340995907,-0.6532405698,8.6081793035,515
108338,203403,265456,4.2340995907,-0.6532405698,8.6081793035,516
108716,203458,265472,4.1347974528,-0.741775006,8.6225362391,517
108555,203419,265423,4.1347974528,-0.741775006,8.6225362391,518
107227,203307,265442,4.1347974528,-0.741775006,8.6225362391,519
105821,203203,265334,4.1347974528,-0.741775006,8.6225362391,520
105078,203104,265336,4.1347974528,-0.741775006,8.6225362391,521
104768,203099,265268,4.1347974528,-0.741775006,8.6225362391,522
104643,203080,265239,4.1347974528,-0.741775006,8.6225362391,523
104721,203078,265271,4.1347974528,-0.741775006,8.6225362391,524
105035,203096,265299,4.1347974528,-0.741775006,8.6225362391,525
105350,203142,265299,4.1347974528,-0.741775006,8.6225362391,526
105541,203145,265309,4.1347974528,-0.741775006,8.6225362391,527
105692,203164,265293,4.1347974528,-0.741775006,8.6225362391,528
105884,203187,265353,4.1347974528,-0.741775006,8.6225362391,529
106142,203200,265338,4.1347974528,-0.741775006,8.6225362391,530
106466,203235,265338,4.1347974528,-0.741775006,8.6225362391,531
106795,203241,265364,4.1347974528,-0.741775006,8.6225362391,532
107134,203281,265390,4.1347974528,-0.741775006,8.6225362391,533
107463,203343,265404,4.1347974528,-0.741775006,8.6225362391,534
107785,203373,265428,4.1347974528,-0.741775006,8.6225362391,535
108097,203375,265455,4.1347974528,-0.741775006,8.6225362391,536
108442,203409,265444,4.1347974528,-0.741775006,8.6225362391,537
108217,203369,265439,4.1347974528,-0.741775006,8.6225362391,538
106833,203247,265352,4.1347974528,-0.741775006,8.6225362391,539
105298,203129,265271,4.1347974528,-0.741775006,8.6225362391,540
104375,203043,265243,4.1347974528,-0.741775006,8.6225362391,541
103828,203014,265230,4.1347974528,-0.741775006,8.6225362391,542
103445,202982,265191,4.1347974528,-0.741775006,8.6225362391,543
103310,202958,265184,4.1347974528,-0.741775006,8.6225362391,544
103528,202977,265169,4.1347974528,-0.741775006,8.6225362391,545
103879,203004,265169,4.1347974528,-0.741775006,8.6225362391,546
104123,203026,265257,4.1347974528,-0.741775006,8.6225362391,547
104304,203063,265265,4.1347974528,-0.741775006,8.6225362391,548
104453,203031,265238,4.1347974528,-0.741775006,8.6225362391,549
104661,203092,265241,4.1347974528,-0.741775006,8.6225362391,550
104948,203104,265320,4.1347974528,-0.741775006,8.6225362391,551
105293,203168,265298,4.1347974528,-0.741775006,8.6225362391,552
105625,203146,265314,4.1347974528,-0.741775006,8.6225362391,553
105965,203181,265363,4.1347974528,-0.741775006,8.6225362391,554
106324,203200,265351,4.1347974528,-0.741775006,8.6225362391,555
106665,203288,265341,4.3106699139,-0.6065805291,8.5028951091,556
106532,203267,265332,4.3106699139,-0.6065805291,8.5028951091,557
105133,203100,265291,4.3106699139,-0.6065805291,8.5028951091,558
103547,202986,265239,4.3106699139,-0.6065805291,8.5028951091,559
102607,202882,265165,4.3106699139,-0.6065805291,8.5028951091,560
102096,202845,265113,4.3106699139,-0.6065805291,8.5028951091,561
101742,202803,265139,4.3106699139,-0.6065805291,8.5028951091,562
101616,202803,265108,4.3106699139,-0.6065805291,8.5028951091,563
101875,202795,265136,4.3106699139,-0.6065805291,8.5028951091,564
102279,202867,265189,4.3106699139,-0.6065805291,8.5028951091,565
102582,202863,265160,4.3106699139,-0.6065805291,8.5028951091,566
102785,202896,265179,4.3106699139,-0.6065805291,8.5028951091,567
102983,202907,265168,4.3106699139,-0.6065805291,8.5028951091,568
103278,202934,265110,4.3106699139,-0.6065805291,8.5028951091,569
103612,202940,265236,4.3106699139,-0.6065805291,8.5028951091,570
103939,202999,265248,4.3106699139,-0.6065805291,8.5028951091,571
104348,203018,265228,4.3106699139,-0.6065805291,8.5028951091,572
104740,203034,265271,4.3106699139,-0.6065805291,8.5028951091,573
105098,203100,265269,4.3106699139,-0.6065805291,8.5028951091,574
105467,203129,265276,4.3106699139,-0.6065805291,8.5028951091,575
105802,203174,265321,4.3106699139,-0.6065805291,8.5028951091,576
105735,203134,265282,4.3106699139,-0.6065805291,8.5028951091,577
104361,203011,265215,4.3106699139,-0.6065805291,8.5028951091,578
102782,202864,265121,4.3106699139,-0.6065805291,8.5028951091,579
101942,202847,265077,4.3106699139,-0.6065805291,8.5028951091,580
101605,202792,265082,4.3106699139,-0.6065805291,8.5028951091,581
101452,202768,265125,4.3106699139,-0.6065805291,8.5028951091,582
101432,202776,265085,4.3106699139,-0.6065805291,8.5028951091,583
101761,202799,265086,4.3106699139,-0.6065805291,8.5028951091,584
102243,202854,265111,4.3106699139,-0.6065805291,8.5028951091,585
102583,202856,265170,4.3106699139,-0.6065805291,8.5028951091,586
102808,202865,265096,4.3106699139,-0.6065805291,8.5028951091,587
103086,202903,265189,4.3106699139,-0.6065805291,8.5028951091,588
103417,202937,265185,4.3106699139,-0.6065805291,8.5028951091,589
103787,202979,265203,4.3106699139,-0.6065805291,8.5028951091,590
104187,203022,265243,4.3106699139,-0.6065805291,8.5028951091,591
104631,203041,265241,4.3106699139,-0.6065805291,8.5028951091,592
105034,203092,265249,4.3106699139,-0.6065805291,8.5028951091,593
105453,203105,265307,4.3106699139,-0.6065805291,8.5028951091,594
105869,203143,265273,4.3106699139,-0.6065805291,8.5028951091,595
106263,203191,265319,4.3106699139,-0.6065805291,8.5028951091,596
106648,203233,265326,4.3106699139,-0.6065805291,8.5028951091,597
105538,203050,265180,4.2101713647,-0.6293123438,8.530412569000001,598
105833,203060,265229,4.2101713647,-0.6293123438,8.530412569000001,599
106159,203083,265212,4.2101713647,-0.6293123438,8.530412569000001,600
106549,203154,265236,4.2101713647,-0.6293123438,8.530412569000001,601
106953,203186,265264,4.2101713647,-0.6293123438,8.530412569000001,602
107402,203236,265277,4.2101713647,-0.6293123438,8.530412569000001,603
107851,203299,265298,4.2101713647,-0.6293123438,8.530412569000001,604
108298,203329,265336,4.2101713647,-0.6293123438,8.530412569000001,605
108715,203344,265360,4.2101713647,-0.6293123438,8.530412569000001,606
109144,203371,265354,4.2101713647,-0.6293123438,8.530412569000001,607
109572,203415,265414,4.2101713647,-0.6293123438,8.530412569000001,608
109984,203490,265432,4.2101713647,-0.6293123438,8.530412569000001,609
110389,203510,265378,4.2101713647,-0.6293123438,8.530412569000001,610
110119,203451,265370,4.2101713647,-0.6293123438,8.530412569000001,611
108879,203372,265328,4.2101713647,-0.6293123438,8.530412569000001,612
107843,203287,265274,4.2101713647,-0.6293123438,8.530412569000001,613
107396,203287,265244,4.2101713647,-0.6293123438,8.530412569000001,614
107207,203263,265216,4.2101713647,-0.6293123438,8.530412569000001,615
107127,203223,265209,4.2101713647,-0.6293123438,8.530412569000001,616
107238,203233,265252,4.2101713647,-0.6293123438,8.530412569000001,617
107564,203291,265259,4.2101713647,-0.6293123438,8.530412569000001,618
107891,203308,265276,4.2101713647,-0.6293123438,8.530412569000001,619
108056,203316,265286,4.2101713647,-0.6293123438,8.530412569000001,620
108245,203338,265259,4.2101713647,-0.6293123438,8.530412569000001,621
108492,203379,265309,4.2101713647,-0.6293123438,8.530412569000001,622
108777,203359,265264,4.2101713647,-0.6293123438,8.530412569000001,623
109080,203403,265323,4.2101713647,-0.6293123438,8.530412569000001,624
109417,203398,265293,4.2101713647,-0.6293123438,8.530412569000001,625
109740,203479,265319,4.2101713647,-0.6293123438,8.530412569000001,626
110059,203501,265366,4.2101713647,-0.6293123438,8.530412569000001,627
110377,203540,265306,4.2101713647,-0.6293123438,8.530412569000001,628
110691,203569,265355,4.2101713647,-0.6293123438,8.530412569000001,629
111049,203592,265374,4.2101713647,-0.6293123438,8.530412569000001,630
111132,203595,265389,4.2101713647,-0.6293123438,8.530412569000001,631
110221,203516,265315,4.2101713647,-0.6293123438,8.530412569000001,632
108893,203395,265303,4.2101713647,-0.6293123438,8.530412569000001,633
108027,203347,265231,4.2101713647,-0.6293123438,8.530412569000001,634
107549,203300,265210,4.2101713647,-0.6293123438,8.530412569000001,635
107236,203271,265245,4.2101713647,-0.6293123438,8.530412569000001,636
107078,203278,265237,4.2101713647,-0.6293123438,8.530412569000001,637
107166,203266,265216,4.2101713647,-0.6293123438,8.530412569000001,638
107434,203286,265226,4.2101713647,-0.6293123438,8.530412569000001,639
107589,203381,265227,4.163511324,-0.6963113766000001,8.516055633399999,640
107819,203396,265208,4.163511324,-0.6963113766000001,8.516055633399999,641
108078,203419,265195,4.163511324,-0.6963113766000001,8.516055633399999,642
108417,203447,265179,4.163511324,-0.6963113766000001,8.516055633399999,643
108768,203476,265223,4.163511324,-0.6963113766000001,8.516055633399999,644
109117,203515,265220,4.163511324,-0.6963113766000001,8.516055633399999,645
109520,203536,265232,4.163511324,-0.6963113766000001,8.516055633399999,646
109903,203553,265287,4.163511324,-0.6963113766000001,8.516055633399999,647
110312,203600,265290,4.163511324,-0.6963113766000001,8.516055633399999,648
110717,203644,265284,4.163511324,-0.6963113766000001,8.516055633399999,649
111133,203662,265301,4.163511324,-0.6963113766000001,8.516055633399999,650
111541,203695,265272,4.163511324,-0.6963113766000001,8.516055633399999,651
111651,203696,265256,4.163511324,-0.6963113766000001,8.516055633399999,652
110877,203580,265232,4.163511324,-0.6963113766000001,8.516055633399999,653
109882,203543,265218,4.163511324,-0.6963113766000001,8.516055633399999,654
109280,203514,265202,4.163511324,-0.6963113766000001,8.516055633399999,655
109012,203450,265145,4.163511324,-0.6963113766000001,8.516055633399999,656
108888,203452,265144,4.163511324,-0.6963113766000001,8.516055633399999,657
108889,203483,265159,4.163511324,-0.6963113766000001,8.516055633399999,658
109065,203472,265167,4.163511324,-0.6963113766000001,8.516055633399999,659
109343,203469,265181,4.163511324,-0.6963113766000001,8.516055633399999,660
109601,203496,265160,4.163511324,-0.6963113766000001,8.516055633399999,661
109805,203497,265144,4.163511324,-0.6963113766000001,8.516055633399999,662
109995,203531,265135,4.163511324,-0.6963113766000001,8.516055633399999,663
110227,203551,265184,4.163511324,-0.6963113766000001,8.516055633399999,664
110542,203558,265172,4.163511324,-0.6963113766000001,8.516055633399999,665
110876,203588,265213,4.163511324,-0.6963113766000001,8.516055633399999,666
111221,203630,265200,4.163511324,-0.6963113766000001,8.516055633399999,667
111552,203665,265244,4.163511324,-0.6963113766000001,8.516055633399999,668
111879,203659,265236,4.163511324,-0.6963113766000001,8.516055633399999,669
112211,203728,265311,4.163511324,-0.6963113766000001,8.516055633399999,670
112562,203720,265275,4.163511324,-0.6963113766000001,8.516055633399999,671
112702,203741,265322,4.163511324,-0.6963113766000001,8.516055633399999,672
112088,203681,265225,4.163511324,-0.6963113766000001,8.516055633399999,673
111164,203533,265168,4.163511324,-0.6963113766000001,8.516055633399999,674
110587,203506,265170,4.163511324,-0.6963113766000001,8.516055633399999,675
110262,203507,265160,4.163511324,-0.6963113766000001,8.516055633399999,676
110014,203493,265144,4.163511324,-0.6963113766000001,8.516055633399999,677
109890,203464,265076,4.163511324,-0.6963113766000001,8.516055633399999,678
109987,203446,265124,4.163511324,-0.6963113766000001,8.516055633399999,679
110231,203492,265096,4.163511324,-0.6963113766000001,8.516055633399999,680
110458,203502,265135,4.163511324,-0.6963113766000001,8.516055633399999,681
111627,203568,265184,4.1862431387,-0.6245266986,8.6895352719,682
111970,203601,265203,4.1862431387,-0.6245266986,8.6895352719,683
112291,203652,265222,4.1862431387,-0.6245266986,8.6895352719,684
112646,203643,265214,4.1862431387,-0.6245266986,8.6895352719,685
112939,203687,265218,4.1862431387,-0.6245266986,8.6895352719,686
113278,203720,265275,4.1862431387,-0.6245266986,8.6895352719,687
113606,203713,265218,4.1862431387,-0.6245266986,8.6895352719,688
113541,203711,265240,4.1862431387,-0.6245266986,8.6895352719,689
112729,203647,265185,4.1862431387,-0.6245266986,8.6895352719,690
111796,203550,265142,4.1862431387,-0.6245266986,8.6895352719,691
111249,203549,265107,4.1862431387,-0.6245266986,8.6895352719,692
110889,203509,265080,4.1862431387,-0.6245266986,8.6895352719,693
110637,203508,265063,4.1862431387,-0.6245266986,8.6895352719,694
110530,203496,265080,4.1862431387,-0.6245266986,8.6895352719,695
110671,203509,265071,4.1862431387,-0.6245266986,8.6895352719,696
110885,203524,265089,4.1862431387,-0.6245266986,8.6895352719,697
111041,203516,265084,4.1862431387,-0.6245266986,8.6895352719,698
111140,203554,265120,4.1862431387,-0.6245266986,8.6895352719,699
111282,203528,265094,4.1862431387,-0.6245266986,8.6895352719,700
111493,203554,265077,4.1862431387,-0.6245266986,8.6895352719,701
111705,203608,265090,4.1862431387,-0.6245266986,8.6895352719,702
111965,203609,265118,4.1862431387,-0.6245266986,8.6895352719,703
112256,203610,265152,4.1862431387,-0.6245266986,8.6895352719,704
112542,203665,265162,4.1862431387,-0.6245266986,8.6895352719,705
112838,203690,265177,4.1862431387,-0.6245266986,8.6895352719,706
113147,203690,265183,4.1862431387,-0.6245266986,8.6895352719,707
113430,203753,265205,4.1862431387,-0.6245266986,8.6895352719,708
113729,203787,265161,4.1862431387,-0.6245266986,8.6895352719,709
114005,203773,265234,4.1862431387,-0.6245266986,8.6895352719,710
114310,203794,265206,4.1862431387,-0.6245266986,8.6895352719,711
114578,203815,265230,4.1862431387,-0.6245266986,8.6895352719,712
114862,203848,265217,4.1862431387,-0.6245266986,8.6895352719,713
114790,203815,265238,4.1862431387,-0.6245266986,8.6895352719,714
113849,203734,265166,4.1862431387,-0.6245266986,8.6895352719,715
112600,203635,265115,4.1862431387,-0.6245266986,8.6895352719,716
111786,203594,265101,4.1862431387,-0.6245266986,8.6895352719,717
111283,203558,265085,4.1862431387,-0.6245266986,8.6895352719,718
110906,203535,265031,4.1862431387,-0.6245266986,8.6895352719,719
110703,203545,265021,4.1862431387,-0.6245266986,8.6895352719,720
110699,203573,265021,4.1862431387,-0.6245266986,8.6895352719,721
110704,203548,265027,4.1862431387,-0.6245266986,8.6895352719,722
110650,203532,264999,4.1862431387,-0.6245266986,8.6895352719,723
107887,203348,264901,4.2077785421,-0.7154539574000001,8.5591264402,724
108053,203334,264875,4.2077785421,-0.7154539574000001,8.5591264402,725
108202,203341,264875,4.2077785421,-0.7154539574000001,8.5591264402,726
108382,203392,264888,4.2077785421,-0.7154539574000001,8.5591264402,727
108636,203384,264950,4.2077785421,-0.7154539574000001,8.5591264402,728
108923,203415,264918,4.2077785421,-0.7154539574000001,8.5591264402,729
109242,203420,265003,4.2077785421,-0.7154539574000001,8.5591264402,730
109606,203460,264928,4.2077785421,-0.7154539574000001,8.5591264402,731
109975,203464,265023,4.2077785421,-0.7154539574000001,8.5591264402,732
110342,203483,265018,4.2077785421,-0.7154539574000001,8.5591264402,733
110698,203523,265017,4.2077785421,-0.7154539574000001,8.5591264402,734
111044,203531,265037,4.2077785421,-0.7154539574000001,8.5591264402,735
111384,203594,265078,4.2077785421,-0.7154539574000001,8.5591264402,736
111743,203599,265090,4.2077785421,-0.7154539574000001,8.5591264402,737
112103,203636,265064,4.2077785421,-0.7154539574000001,8.5591264402,738
112423,203685,265137,4.2077785421,-0.7154539574000001,8.5591264402,739
112767,203713,265119,4.2077785421,-0.7154539574000001,8.5591264402,740
113121,203752,265140,4.2077785421,-0.7154539574000001,8.5591264402,741
113102,203700,265112,4.2077785421,-0.7154539574000001,8.5591264402,742
112134,203613,264996,4.2077785421,-0.7154539574000001,8.5591264402,743
110959,203545,265015,4.2077785421,-0.7154539574000001,8.5591264402,744
110266,203469,264951,4.2077785421,-0.7154539574000001,8.5591264402,745
109915,203452,264916,4.2077785421,-0.7154539574000001,8.5591264402,746
109725,203441,264903,4.2077785421,-0.7154539574000001,8.5591264402,747
109644,203435,264927,4.2077785421,-0.7154539574000001,8.5591264402,748
109792,203440,264925,4.2077785421,-0.7154539574000001,8.5591264402,749
110000,203425,264983,4.2077785421,-0.7154539574000001,8.5591264402,750
110117,203437,264934,4.2077785421,-0.7154539574000001,8.5591264402,751
110222,203502,264929,4.2077785421,-0.7154539574000001,8.5591264402,752
110345,203457,264972,4.2077785421,-0.7154539574000001,8.5591264402,753
110535,203479,264986,4.2077785421,-0.7154539574000001,8.5591264402,754
110791,203516,264976,4.2077785421,-0.7154539574000001,8.5591264402,755
111061,203547,264994,4.2077785421,-0.7154539574000001,8.5591264402,756
111357,203541,264978,4.2077785421,-0.7154539574000001,8.5591264402,757
111669,203575,265039,4.2077785421,-0.7154539574000001,8.5591264402,758
111951,203597,265020,4.2077785421,-0.7154539574000001,8.5591264402,759
112232,203591,265059,4.2077785421,-0.7154539574000001,8.5591264402,760
112530,203640,265064,4.2077785421,-0.7154539574000001,8.5591264402,761
112825,203686,265017,4.2077785421,-0.7154539574000001,8.5591264402,762
112958,203642,265060,4.2077785421,-0.7154539574000001,8.5591264402,763
112280,203597,264990,4.2077785421,-0.7154539574000001,8.5591264402,764
111112,203529,264969,4.2077785421,-0.7154539574000001,8.5591264402,765
112230,203607,265005,4.0618163635,-0.5635097223,8.6560357555,766
112238,203629,265033,4.0618163635,-0.5635097223,8.6560357555,767
111287,203535,264936,4.0618163635,-0.5635097223,8.6560357555,768
110025,203414,264912,4.0618163635,-0.5635097223,8.6560357555,769
109121,203383,264918,4.0618163635,-0.5635097223,8.6560357555,770
108562,203349,264889,4.0618163635,-0.5635097223,8.6560357555,771
108089,203296,264810,4.0618163635,-0.5635097223,8.6560357555,772
107774,203269,264798,4.0618163635,-0.5635097223,8.6560357555,773
107750,203262,264783,4.0618163635,-0.5635097223,8.6560357555,774
107963,203298,264855,4.0618163635,-0.5635097223,8.6560357555,775
108134,203297,264846,4.0618163635,-0.5635097223,8.6560357555,776
108258,203328,264875,4.0618163635,-0.5635097223,8.6560357555,777
108374,203319,264880,4.0618163635,-0.5635097223,8.6560357555,778
108529,203338,264849,4.0618163635,-0.5635097223,8.6560357555,779
108758,203328,264902,4.0618163635,-0.5635097223,8.6560357555,780
109008,203374,264881,4.0618163635,-0.5635097223,8.6560357555,781
109311,203403,264881,4.0618163635,-0.5635097223,8.6560357555,782
109574,203412,264920,4.0618163635,-0.5635097223,8.6560357555,783
109901,203425,264915,4.0618163635,-0.5635097223,8.6560357555,784
110175,203450,264885,4.0618163635,-0.5635097223,8.6560357555,785
110448,203477,265015,4.0618163635,-0.5635097223,8.6560357555,786
110725,203488,264963,4.0618163635,-0.5635097223,8.6560357555,787
111022,203524,265002,4.0618163635,-0.5635097223,8.6560357555,788
110734,203499,265008,4.0618163635,-0.5635097223,8.6560357555,789
109435,203364,264880,4.0618163635,-0.5635097223,8.6560357555,790
108087,203294,264797,4.0618163635,-0.5635097223,8.6560357555,791
107245,203199,264777,4.0618163635,-0.5635097223,8.6560357555,792
106732,203168,264798,4.0618163635,-0.5635097223,8.6560357555,793
106319,203127,264752,4.0618163635,-0.5635097223,8.6560357555,794
106117,203114,264769,4.0618163635,-0.5635097223,8.6560357555,795
106200,203144,264814,4.0618163635,-0.5635097223,8.6560357555,796
106473,203131,264788,4.0618163635,-0.5635097223,8.6560357555,797
106649,203171,264785,4.0618163635,-0.5635097223,8.6560357555,798
106785,203161,264913,4.0618163635,-0.5635097223,8.6560357555,799
106931,203192,264855,4.0618163635,-0.5635097223,8.6560357555,800
107112,203208,264835,4.0618163635,-0.5635097223,8.6560357555,801
107379,203236,264863,4.0618163635,-0.5635097223,8.6560357555,802
107672,203243,264844,4.0618163635,-0.5635097223,8.6560357555,803
108007,203264,264888,4.0618163635,-0.5635097223,8.6560357555,804
108337,203309,264880,4.0618163635,-0.5635097223,8.6560357555,805
108661,203355,264883,4.0618163635,-0.5635097223,8.6560357555,806
108973,203362,264931,4.0618163635,-0.5635097223,8.6560357555,807
104405,202791,264802,4.3034914461,-0.6017948839,8.525626923799999,808
104776,202793,264806,4.3034914461,-0.6017948839,8.525626923799999,809
105162,202870,264849,4.3034914461,-0.6017948839,8.525626923799999,810
105501,202875,264850,4.3034914461,-0.6017948839,8.525626923799999,811
105835,202932,264818,4.3034914461,-0.6017948839,8.525626923799999,812
106182,202950,264859,4.3034914461,-0.6017948839,8.525626923799999,813
106491,202971,264893,4.3034914461,-0.6017948839,8.525626923799999,814
105985,202927,264820,4.3034914461,-0.6017948839,8.525626923799999,815
104110,202772,264784,4.3034914461,-0.6017948839,8.525626923799999,816
102444,202630,264698,4.3034914461,-0.6017948839,8.525626923799999,817
101618,202519,264639,4.3034914461,-0.6017948839,8.525626923799999,818
101192,202491,264606,4.3034914461,-0.6017948839,8.525626923799999,819
100932,202451,264623,4.3034914461,-0.6017948839,8.525626923799999,820
100919,202463,264628,4.3034914461,-0.6017948839,8.525626923799999,821
101274,202476,264648,4.3034914461,-0.6017948839,8.525626923799999,822
101723,202531,264625,4.3034914461,-0.6017948839,8.525626923799999,823
102023,202562,264737,4.3034914461,-0.6017948839,8.525626923799999,824
102236,202559,264719,4.3034914461,-0.6017948839,8.525626923799999,825
102492,202546,264716,4.3034914461,-0.6017948839,8.525626923799999,826
102814,202620,264732,4.3034914461,-0.6017948839,8.525626923799999,827
103207,202626,264711,4.3034914461,-0.6017948839,8.525626923799999,828
103626,202708,264749,4.3034914461,-0.6017948839,8.525626923799999,829
104053,202732,264798,4.3034914461,-0.6017948839,8.525626923799999,830
104481,202771,264827,4.3034914461,-0.6017948839,8.525626923799999,831
104905,202791,264798,4.3034914461,-0.6017948839,8.525626923799999,832
105339,202857,264855,4.3034914461,-0.6017948839,8.525626923799999,833
105768,202902,264862,4.3034914461,-0.6017948839,8.525626923799999,834
106185,202930,264908,4.3034914461,-0.6017948839,8.525626923799999,835
106576,202979,264930,4.3034914461,-0.6017948839,8.525626923799999,836
106981,203026,264986,4.3034914461,-0.6017948839,8.525626923799999,837
107337,203048,264950,4.3034914461,-0.6017948839,8.525626923799999,838
106961,203002,264941,4.3034914461,-0.6017948839,8.525626923799999,839
105190,202848,264787,4.3034914461,-0.6017948839,8.525626923799999,840
103619,202701,264759,4.3034914461,-0.6017948839,8.525626923799999,841
102938,202653,264699,4.3034914461,-0.6017948839,8.525626923799999,842
102686,202615,264704,4.3034914461,-0.6017948839,8.525626923799999,843
102590,202625,264657,4.3034914461,-0.6017948839,8.525626923799999,844
102663,202634,264685,4.3034914461,-0.6017948839,8.525626923799999,845
103046,202637,264701,4.3034914461,-0.6017948839,8.525626923799999,846
103410,202680,264759,4.3034914461,-0.6017948839,8.525626923799999,847
103618,202678,264746,4.3034914461,-0.6017948839,8.525626923799999,848
103756,202692,264782,4.3034914461,-0.6017948839,8.525626923799999,849
107471,203027,264952,4.2987058009,-0.6580262149999999,8.4969130526,850
107727,203024,264951,4.2987058009,-0.6580262149999999,8.4969130526,851
106954,202931,264875,4.2987058009,-0.6580262149999999,8.4969130526,852
105209,202797,264836,4.2987058009,-0.6580262149999999,8.4969130526,853
103916,202682,264737,4.2987058009,-0.6580262149999999,8.4969130526,854
103296,202629,264747,4.2987058009,-0.6580262149999999,8.4969130526,855
102931,202567,264688,4.2987058009,-0.6580262149999999,8.4969130526,856
102701,202526,264713,4.2987058009,-0.6580262149999999,8.4969130526,857
102675,202558,264708,4.2987058009,-0.6580262149999999,8.4969130526,858
103003,202571,264694,4.2987058009,-0.6580262149999999,8.4969130526,859
103398,202593,264717,4.2987058009,-0.6580262149999999,8.4969130526,860
103635,202617,264760,4.2987058009,-0.6580262149999999,8.4969130526,861
103881,202632,264771,4.2987058009,-0.6580262149999999,8.4969130526,862
104111,202643,264742,4.139583098,-0.5778666579,8.5579300289,863
104369,202670,264732,4.139583098,-0.5778666579,8.5579300289,864
104715,202719,264818,4.139583098,-0.5778666579,8.5579300289,865
105026,202760,264816,4.2340995907,-0.6329015777,8.5890367227,866
105476,202794,264812,4.2640098732,-0.7154539574000001,8.6081793035,867
105917,202862,264842,4.2915273330999995,-0.6652046827999999,8.5794654323,868
106296,202847,264863,4.1108692268,-0.6843472636,8.5351982142,869
106740,202879,264840,4.3274196721000004,-0.6735795618999999,8.554340795,870
107123,202918,264910,4.2448672924,-0.6412764568,8.4921274074,871
107513,202965,264932,4.1826539048,-0.5706881900999999,8.538787448099999,872
107938,203029,264950,4.3776689467,-0.6963113766000001,8.5375910368,873
108349,203041,264996,4.208974953399999,-0.7154539574000001,8.6081793035,874
108439,203034,264981,4.2759739861999995,-0.5730810127,8.5040915204,875
107212,202907,264903,4.2903309218,-0.6412764568,8.5316089803,876
105401,202824,264763,4.2544385828,-0.6795616184,8.5890367227,877
104279,202690,264780,4.2556349941,-0.5611168997,8.551947972399999,878
103760,202630,264744,4.2496529376,-0.6197410534,8.5603228515,879
103494,202621,264715,4.242474469799999,-0.5563312545,8.5459659159,880
103297,202604,264697,4.3322053173,-0.6137589969,8.5447695046,881
103453,202604,264720,4.3322053173,-0.6137589969,8.5447695046,882
103849,202626,264717,4.3322053173,-0.6137589969,8.5447695046,883
104165,202656,264741,4.3322053173,-0.6137589969,8.5447695046,884
104328,202656,264769,4.3322053173,-0.6137589969,8.5447695046,885
104495,202707,264803,4.3322053173,-0.6137589969,8.5447695046,886
104745,202709,264780,4.3322053173,-0.6137589969,8.5447695046,887
105045,202742,264805,4.3322053173,-0.6137589969,8.5447695046,888
105402,202809,264829,4.3322053173,-0.6137589969,8.5447695046,889
105771,202811,264858,4.2556349941,-0.59820565,8.5016986978,890
106166,202856,264891,4.1682969692,-0.6604190376,8.6560357555,891
106557,202861,264849,4.1922251952,-0.7668996433,8.590233134,892
106964,202932,264836,4.3441694303,-0.5419743189,8.554340795,893
107323,202937,264913,4.2747775749,-0.7633104094,8.605786480899999,894
107651,203015,264902,4.3441694303,-0.7010970218,8.5088771656,895
107990,203045,264924,4.1898323726,-0.6436692794,8.5950187792,896
108287,203073,264950,4.235296002,-0.7812565789,8.6333039408,897
107642,202979,264929,4.2939201557,-0.693918554,8.5005022865,898
105888,202824,264811,4.2664026958,-0.6508477471999999,8.5112699882,899
104483,202718,264746,4.2281175342,-0.5204389155,8.6069828922,900
103782,202663,264723,4.1671005579,-0.5874379483000001,8.6488572877,901
103381,202648,264735,4.151547211,-0.5802594805,8.551947972399999,902
103131,202595,264707,4.1730826144,-0.6317051664,8.5591264402,903
103103,202587,264777,4.1730826144,-0.6317051664,8.5591264402,904
103407,202638,264748,4.1730826144,-0.6317051664,8.5591264402,905
103759,202628,264798,4.1730826144,-0.6317051664,8.5591264402,906
103967,202653,264757,4.1730826144,-0.6317051664,8.5591264402,907
104109,202652,264794,4.1730826144,-0.6317051664,8.5591264402,908
104267,202682,264824,4.1730826144,-0.6317051664,8.5591264402,909
104553,202697,264776,4.1730826144,-0.6317051664,8.5591264402,910
104891,202769,264798,4.1730826144,-0.6317051664,8.5591264402,911
105222,202843,264876,4.1730826144,-0.6317051664,8.5591264402,912
105619,202822,264839,4.1730826144,-0.6317051664,8.5591264402,913
105975,202853,264859,4.1730826144,-0.6317051664,8.5591264402,914
106305,202886,264879,4.1730826144,-0.6317051664,8.5591264402,915
106649,202921,264930,4.1730826144,-0.6317051664,8.5591264402,916
106954,202944,264905,4.1730826144,-0.6317051664,8.5591264402,917
107324,202989,264961,4.1730826144,-0.6317051664,8.5591264402,918
107354,202992,264901,4.1730826144,-0.6317051664,8.5591264402,919
105981,202842,264865,4.1730826144,-0.6317051664,8.5591264402,920
104214,202685,264800,4.1730826144,-0.6317051664,8.5591264402,921
103137,202611,264696,4.1730826144,-0.6317051664,8.5591264402,922
102578,202572,264688,4.1730826144,-0.6317051664,8.5591264402,923
102186,202528,264682,4.1730826144,-0.6317051664,8.5591264402,924
101969,202484,264681,4.1730826144,-0.6317051664,8.5591264402,925
102108,202491,264660,4.1730826144,-0.6317051664,8.5591264402,926
102511,202552,264727,4.1730826144,-0.6317051664,8.5591264402,927
102862,202567,264729,4.1730826144,-0.6317051664,8.5591264402,928
103071,202576,264723,4.1730826144,-0.6317051664,8.5591264402,929
103266,202592,264777,4.1730826144,-0.6317051664,8.5591264402,930
103501,202608,264769,4.1730826144,-0.6317051664,8.5591264402,931
103796,202624,264784,4.1730826144,-0.6317051664,8.5591264402,932
104150,202650,264806,4.1730826144,-0.6317051664,8.5591264402,933
104517,202711,264839,4.1730826144,-0.6317051664,8.5591264402,934
104913,202761,264808,4.1730826144,-0.6317051664,8.5591264402,935
105273,202772,264835,4.1730826144,-0.6317051664,8.5591264402,936
105613,202811,264886,4.1730826144,-0.6317051664,8.5591264402,937
106003,202832,264848,4.1730826144,-0.6317051664,8.5591264402,938
106381,202870,264913,4.1730826144,-0.6317051664,8.5591264402,939
106750,202911,264944,4.1730826144,-0.6317051664,8.5591264402,940
106759,202893,264962,4.1730826144,-0.6317051664,8.5591264402,941
105369,202784,264839,4.1730826144,-0.6317051664,8.5591264402,942
103728,202608,264725,4.1730826144,-0.6317051664,8.5591264402,943
102861,202531,264756,4.1730826144,-0.6317051664,8.5591264402,944
103307,202518,264712,4.3609191885,-0.6652046827999999,8.5722869645,945
103734,202591,264770,4.3609191885,-0.6652046827999999,8.5722869645,946
104051,202632,264799,4.3609191885,-0.6652046827999999,8.5722869645,947
104394,202641,264818,4.3609191885,-0.6652046827999999,8.5722869645,948
104826,202689,264868,4.3609191885,-0.6652046827999999,8.5722869645,949
105279,202695,264885,4.3609191885,-0.6652046827999999,8.5722869645,950
105665,202708,264905,4.3609191885,-0.6652046827999999,8.5722869645,951
105752,202737,264876,4.3609191885,-0.6652046827999999,8.5722869645,952
105810,202759,264867,4.3609191885,-0.6652046827999999,8.5722869645,953
106270,202839,264920,4.3609191885,-0.6652046827999999,8.5722869645,954
106968,202895,264927,4.3609191885,-0.6652046827999999,8.5722869645,955
107633,202952,264981,4.3609191885,-0.6652046827999999,8.5722869645,956
108153,202993,265013,4.3609191885,-0.6652046827999999,8.5722869645,957
109074,203079,265028,4.1922251952,-0.7393821834000001,8.5280197464,958
109551,203096,265022,4.1922251952,-0.7393821834000001,8.5280197464,959
110032,203148,265128,4.1922251952,-0.7393821834000001,8.5280197464,960
110523,203192,265109,4.1922251952,-0.7393821834000001,8.5280197464,961
111059,203255,265119,4.1922251952,-0.7393821834000001,8.5280197464,962
111572,203293,265171,4.1922251952,-0.7393821834000001,8.5280197464,963
112056,203278,265176,4.1922251952,-0.7393821834000001,8.5280197464,964
112535,203342,265170,4.1922251952,-0.7393821834000001,8.5280197464,965
113046,203393,265180,4.1922251952,-0.7393821834000001,8.5280197464,966
113523,203442,265212,4.1922251952,-0.7393821834000001,8.5280197464,967
114013,203465,265230,4.1922251952,-0.7393821834000001,8.5280197464,968
114482,203488,265237,4.1922251952,-0.7393821834000001,8.5280197464,969
114947,203553,265177,4.1922251952,-0.7393821834000001,8.5280197464,970
115412,203601,265232,4.1922251952,-0.7393821834000001,8.5280197464,971
115867,203606,265290,4.1922251952,-0.7393821834000001,8.5280197464,972
116321,203651,265264,4.1922251952,-0.7393821834000001,8.5280197464,973
116747,203676,265321,4.1922251952,-0.7393821834000001,8.5280197464,974
117192,203709,265293,4.1922251952,-0.7393821834000001,8.5280197464,975
117612,203755,265280,4.1922251952,-0.7393821834000001,8.5280197464,976
118044,203740,265277,4.1922251952,-0.7393821834000001,8.5280197464,977
118482,203824,265348,4.1922251952,-0.7393821834000001,8.5280197464,978
118842,203843,265293,4.1922251952,-0.7393821834000001,8.5280197464,979
118710,203818,265293,4.1922251952,-0.7393821834000001,8.5280197464,980
117891,203700,265241,4.1922251952,-0.7393821834000001,8.5280197464,981
117159,203667,265223,4.1922251952,-0.7393821834000001,8.5280197464,982
116820,203649,265207,4.1922251952,-0.7393821834000001,8.5280197464,983
116700,203657,265246,4.1922251952,-0.7393821834000001,8.5280197464,984
116735,203654,265189,4.1922251952,-0.7393821834000001,8.5280197464,985
116879,203667,265206,4.1922251952,-0.7393821834000001,8.5280197464,986
117093,203675,265205,4.1922251952,-0.7393821834000001,8.5280197464,987
117241,203703,265223,4.1922251952,-0.7393821834000001,8.5280197464,988
117368,203699,265179,4.1922251952,-0.7393821834000001,8.5280197464,989
117502,203689,265214,4.1922251952,-0.7393821834000001,8.5280197464,990
117682,203724,265179,4.1922251952,-0.7393821834000001,8.5280197464,991
117885,203777,265227,4.1922251952,-0.7393821834000001,8.5280197464,992
118114,203757,265198,4.1922251952,-0.7393821834000001,8.5280197464,993
118375,203739,265216,4.1922251952,-0.7393821834000001,8.5280197464,994
118648,203802,265237,4.1922251952,-0.7393821834000001,8.5280197464,995
118925,203817,265220,4.1922251952,-0.7393821834000001,8.5280197464,996
119233,203829,265207,4.1922251952,-0.7393821834000001,8.5280197464,997
119524,203837,265255,4.1922251952,-0.7393821834000001,8.5280197464,998
119829,203888,265215,4.1922251952,-0.7393821834000001,8.5280197464,999
118719,203767,265117,4.259224228,-0.7645068207,8.4957166413,1000
118982,203790,265099,4.259224228,-0.7645068207,8.4957166413,1001
119232,203811,265105,4.259224228,-0.7645068207,8.4957166413,1002
119465,203833,265142,4.259224228,-0.7645068207,8.4957166413,1003
119417,203797,265111,4.259224228,-0.7645068207,8.4957166413,1004
118646,203732,265079,4.259224228,-0.7645068207,8.4957166413,1005
117697,203681,265000,4.259224228,-0.7645068207,8.4957166413,1006
116954,203595,264969,4.259224228,-0.7645068207,8.4957166413,1007
116356,203587,264972,4.259224228,-0.7645068207,8.4957166413,1008
115862,203559,264921,4.259224228,-0.7645068207,8.4957166413,1009
115465,203529,264901,4.259224228,-0.7645068207,8.4957166413,1010
115345,203530,264852,4.259224228,-0.7645068207,8.4957166413,1011
115341,203550,264950,4.259224228,-0.7645068207,8.4957166413,1012
115350,203570,264890,4.259224228,-0.7645068207,8.4957166413,1013
115333,203547,264863,4.259224228,-0.7645068207,8.4957166413,1014
115317,203541,264858,4.259224228,-0.7645068207,8.4957166413,1015
115363,203561,264919,4.259224228,-0.7645068207,8.4957166413,1016
115449,203563,264894,4.259224228,-0.7645068207,8.4957166413,1017
115586,203570,264906,4.259224228,-0.7645068207,8.4957166413,1018
115762,203604,264895,4.259224228,-0.7645068207,8.4957166413,1019
115923,203611,264912,4.259224228,-0.7645068207,8.4957166413,1020
116098,203638,264905,4.259224228,-0.7645068207,8.4957166413,1021
116279,203622,264864,4.259224228,-0.7645068207,8.4957166413,1022
116478,203664,264878,4.259224228,-0.7645068207,8.4957166413,1023
116530,203657,264902,4.259224228,-0.7645068207,8.4957166413,1024
115749,203549,264849,4.259224228,-0.7645068207,8.4957166413,1025
114496,203521,264790,4.259224228,-0.7645068207,8.4957166413,1026
113482,203473,264740,4.259224228,-0.7645068207,8.4957166413,1027
112714,203392,264729,4.259224228,-0.7645068207,8.4957166413,1028
112129,203375,264698,4.259224228,-0.7645068207,8.4957166413,1029
111677,203307,264697,4.259224228,-0.7645068207,8.4957166413,1030
111471,203342,264691,4.259224228,-0.7645068207,8.4957166413,1031
111496,203346,264649,4.259224228,-0.7645068207,8.4957166413,1032
111514,203311,264694,4.259224228,-0.7645068207,8.4957166413,1033
111465,203320,264681,4.259224228,-0.7645068207,8.4957166413,1034
111440,203356,264655,4.259224228,-0.7645068207,8.4957166413,1035
111435,203366,264682,4.259224228,-0.7645068207,8.4957166413,1036
111525,203350,264672,4.259224228,-0.7645068207,8.4957166413,1037
111658,203320,264717,4.259224228,-0.7645068207,8.4957166413,1038
111850,203386,264714,4.259224228,-0.7645068207,8.4957166413,1039
112030,203413,264692,4.259224228,-0.7645068207,8.4957166413,1040
112214,203413,264730,4.259224228,-0.7645068207,8.4957166413,1041
108638,203010,264655,4.1922251952,-0.59820565,8.6033936583,1042
108911,203030,264642,4.1922251952,-0.59820565,8.6033936583,1043
109155,203057,264664,4.1922251952,-0.59820565,8.6033936583,1044
109342,203054,264654,4.1922251952,-0.59820565,8.6033936583,1045
109589,203075,264619,4.1922251952,-0.59820565,8.6033936583,1046
109907,203137,264652,4.1922251952,-0.59820565,8.6033936583,1047
110288,203146,264702,4.1922251952,-0.59820565,8.6033936583,1048
110658,203153,264715,4.1922251952,-0.59820565,8.6033936583,1049
111037,203177,264734,4.1922251952,-0.59820565,8.6033936583,1050
111436,203204,264757,4.1922251952,-0.59820565,8.6033936583,1051
111817,203223,264755,4.1922251952,-0.59820565,8.6033936583,1052
112203,203239,264803,4.1922251952,-0.59820565,8.6033936583,1053
112573,203297,264792,4.1922251952,-0.59820565,8.6033936583,1054
112915,203343,264803,4.1922251952,-0.59820565,8.6033936583,1055
113304,203346,264800,4.1922251952,-0.59820565,8.6033936583,1056
113566,203391,264846,4.1922251952,-0.59820565,8.6033936583,1057
113243,203316,264808,4.1922251952,-0.59820565,8.6033936583,1058
112288,203237,264713,4.3118663252,-0.7106683122,8.5112699882,1059
111586,203190,264710,4.3118663252,-0.7106683122,8.5112699882,1060
111195,203155,264672,4.3118663252,-0.7106683122,8.5112699882,1061
110932,203122,264683,4.3118663252,-0.7106683122,8.5112699882,1062
110744,203114,264704,4.3118663252,-0.7106683122,8.5112699882,1063
110748,203136,264709,4.3118663252,-0.7106683122,8.5112699882,1064
110991,203125,264702,4.3118663252,-0.7106683122,8.5112699882,1065
111295,203161,264700,4.3118663252,-0.7106683122,8.5112699882,1066
111517,203178,264736,4.3118663252,-0.7106683122,8.5112699882,1067
111708,203214,264723,4.3118663252,-0.7106683122,8.5112699882,1068
111924,203202,264723,4.3118663252,-0.7106683122,8.5112699882,1069
112168,203231,264759,4.3118663252,-0.7106683122,8.5112699882,1070
112497,203261,264783,4.3118663252,-0.7106683122,8.5112699882,1071
112834,203280,264763,4.3118663252,-0.7106683122,8.5112699882,1072
113198,203324,264766,4.3118663252,-0.7106683122,8.5112699882,1073
113525,203353,264832,4.3118663252,-0.7106683122,8.5112699882,1074
113888,203352,264814,4.3118663252,-0.7106683122,8.5112699882,1075
114221,203379,264828,4.3118663252,-0.7106683122,8.5112699882,1076
114561,203398,264828,4.3118663252,-0.7106683122,8.5112699882,1077
114852,203456,264928,4.3118663252,-0.7106683122,8.5112699882,1078
115178,203480,264862,4.3118663252,-0.7106683122,8.5112699882,1079
115491,203515,264863,4.3118663252,-0.7106683122,8.5112699882,1080
115413,203473,264908,4.3118663252,-0.7106683122,8.5112699882,1081
114499,203382,264786,4.3118663252,-0.7106683122,8.5112699882,1082
113477,203328,264762,4.3118663252,-0.7106683122,8.5112699882,1083
112812,203267,264737,4.3118663252,-0.7106683122,8.5112699882,1084
112302,203236,264748,4.3118663252,-0.7106683122,8.5112699882,1085
111871,203215,264722,4.3118663252,-0.7106683122,8.5112699882,1086
111568,203184,264698,4.3118663252,-0.7106683122,8.5112699882,1087
111557,203190,264693,4.3118663252,-0.7106683122,8.5112699882,1088
111693,203212,264706,4.3118663252,-0.7106683122,8.5112699882,1089
111799,203229,264693,4.3118663252,-0.7106683122,8.5112699882,1090
111880,203255,264672,4.3118663252,-0.7106683122,8.5112699882,1091
111934,203215,264718,4.3118663252,-0.7106683122,8.5112699882,1092
112042,203228,264746,4.3118663252,-0.7106683122,8.5112699882,1093
112254,203230,264739,4.3118663252,-0.7106683122,8.5112699882,1094
112490,203310,264772,4.3118663252,-0.7106683122,8.5112699882,1095
112762,203324,264744,4.3118663252,-0.7106683122,8.5112699882,1096
113042,203342,264779,4.3118663252,-0.7106683122,8.5112699882,1097
113307,203382,264737,4.3118663252,-0.7106683122,8.5112699882,1098
113593,203401,264769,4.3118663252,-0.7106683122,8.5112699882,1099
113886,203396,264771,4.3118663252,-0.7106683122,8.5112699882,1100
110422,203231,264580,4.1970108404,-0.5922235935,8.5866439001,1101
110398,203231,264655,4.1970108404,-0.5922235935,8.5866439001,1102
110426,203222,264620,4.1970108404,-0.5922235935,8.5866439001,1103
110541,203233,264639,4.1970108404,-0.5922235935,8.5866439001,1104
110694,203242,264617,4.1970108404,-0.5922235935,8.5866439001,1105
110902,203234,264615,4.1970108404,-0.5922235935,8.5866439001,1106
111124,203322,264656,4.1970108404,-0.5922235935,8.5866439001,1107
111347,203316,264662,4.1970108404,-0.5922235935,8.5866439001,1108
111563,203324,264691,4.1970108404,-0.5922235935,8.5866439001,1109
111775,203346,264674,4.1970108404,-0.5922235935,8.5866439001,1110
112007,203368,264699,4.2795632201,-0.7166503687,8.5136628108,1111
112255,203363,264691,4.2795632201,-0.7166503687,8.5136628108,1112
112440,203391,264678,4.2664026958,-0.6747759731999999,8.5399838594,1113
112650,203410,264738,4.0857445895,-0.6305087550999999,8.5914295453,1114
112878,203453,264750,4.3393837851,-0.5754738353000001,8.5328053916,1115
112697,203433,264698,4.1599220901,-0.6065805291,8.551947972399999,1116
111498,203308,264655,4.043870194,-0.6340979889999999,8.6153577713,1117
109989,203224,264624,4.2400816472,-0.6915257314000001,8.5375910368,1118
108959,203162,264553,4.2723847523,-0.6388836341999999,8.6189470052,1119
108290,203095,264537,4.1802610821999995,-0.6089733517,8.5591264402,1120
107735,203060,264464,4.1431723319,-0.6592226263,8.5615192628,1121
107354,202976,264498,4.2963129783,-0.5539384319,8.5016986978,1122
107290,203024,264514,4.1336010414999995,-0.7381857721,8.4394853102,1123
107464,203029,264507,4.1336010414999995,-0.7381857721,8.4394853102,1124
107610,203058,264540,4.1336010414999995,-0.7381857721,8.4394853102,1125
107694,203055,264574,4.1336010414999995,-0.7381857721,8.4394853102,1126
107782,203045,264485,4.1336010414999995,-0.7381857721,8.4394853102,1127
107951,203045,264553,4.1336010414999995,-0.7381857721,8.4394853102,1128
108176,203086,264580,4.1336010414999995,-0.7381857721,8.4394853102,1129
108486,203105,264578,4.1336010414999995,-0.7381857721,8.4394853102,1130
108784,203124,264592,4.1336010414999995,-0.7381857721,8.4394853102,1131
109098,203152,264633,4.1336010414999995,-0.7381857721,8.4394853102,1132
109423,203180,264598,4.1336010414999995,-0.7381857721,8.4394853102,1133
109760,203222,264675,4.1336010414999995,-0.7381857721,8.4394853102,1134
110077,203208,264684,4.1336010414999995,-0.7381857721,8.4394853102,1135
110386,203218,264685,4.1336010414999995,-0.7381857721,8.4394853102,1136
110690,203295,264713,4.1336010414999995,-0.7381857721,8.4394853102,1137
111003,203308,264694,4.1336010414999995,-0.7381857721,8.4394853102,1138
111247,203309,264725,4.1336010414999995,-0.7381857721,8.4394853102,1139
110627,203240,264651,4.1336010414999995,-0.7381857721,8.4394853102,1140
109106,203110,264610,4.1336010414999995,-0.7381857721,8.4394853102,1141
107940,203020,264552,4.1336010414999995,-0.7381857721,8.4394853102,1142
107321,203002,264517,4.1336010414999995,-0.7381857721,8.4394853102,1143
106944,202936,264484,4.1336010414999995,-0.7381857721,8.4394853102,1144
106640,202891,264462,4.1336010414999995,-0.7381857721,8.4394853102,1145
106574,202902,264486,4.1336010414999995,-0.7381857721,8.4394853102,1146
106809,202934,264519,4.1336010414999995,-0.7381857721,8.4394853102,1147
107169,202951,264507,4.1336010414999995,-0.7381857721,8.4394853102,1148
107423,202930,264536,4.1336010414999995,-0.7381857721,8.4394853102,1149
107637,202988,264506,4.1336010414999995,-0.7381857721,8.4394853102,1150
107878,202957,264565,4.1336010414999995,-0.7381857721,8.4394853102,1151
108187,202971,264606,4.1336010414999995,-0.7381857721,8.4394853102,1152
108573,203007,264599,4.1336010414999995,-0.7381857721,8.4394853102,1153
108983,203035,264584,4.1336010414999995,-0.7381857721,8.4394853102,1154
109420,203056,264575,4.1336010414999995,-0.7381857721,8.4394853102,1155
109869,203109,264659,4.1336010414999995,-0.7381857721,8.4394853102,1156
110310,203118,264615,4.1336010414999995,-0.7381857721,8.4394853102,1157
110753,203171,264675,4.1336010414999995,-0.7381857721,8.4394853102,1158
111181,203215,264728,4.1336010414999995,-0.7381857721,8.4394853102,1159
111621,203229,264723,4.1336010414999995,-0.7381857721,8.4394853102,1160
112083,203298,264717,4.1336010414999995,-0.7381857721,8.4394853102,1161
112556,203332,264793,4.1336010414999995,-0.7381857721,8.4394853102,1162
112990,203337,264788,4.1336010414999995,-0.7381857721,8.4394853102,1163
113422,203395,264819,4.1336010414999995,-0.7381857721,8.4394853102,1164
111556,203224,264665,4.2879380992,-0.5838487144,8.5244305125,1165
111783,203224,264689,4.2879380992,-0.5838487144,8.5244305125,1166
112036,203259,264716,4.2879380992,-0.5838487144,8.5244305125,1167
112338,203298,264705,4.2879380992,-0.5838487144,8.5244305125,1168
112663,203299,264724,4.2879380992,-0.5838487144,8.5244305125,1169
113040,203323,264708,4.2879380992,-0.5838487144,8.5244305125,1170
113373,203356,264746,4.2879380992,-0.5838487144,8.5244305125,1171
113775,203397,264753,4.2879380992,-0.5838487144,8.5244305125,1172
114183,203408,264765,4.2879380992,-0.5838487144,8.5244305125,1173
114588,203453,264807,4.2879380992,-0.5838487144,8.5244305125,1174
114977,203470,264792,4.2879380992,-0.5838487144,8.5244305125,1175
115338,203533,264829,4.2879380992,-0.5838487144,8.5244305125,1176
115711,203504,264830,4.2879380992,-0.5838487144,8.5244305125,1177
116070,203526,264825,4.1946180178,-0.6532405698,8.5794654323,1178
116423,203595,264836,4.1946180178,-0.6532405698,8.5794654323,1179
116171,203567,264808,4.1946180178,-0.6532405698,8.5794654323,1180
115240,203439,264783,4.1946180178,-0.6532405698,8.5794654323,1181
114412,203396,264739,4.1946180178,-0.6532405698,8.5794654323,1182
113887,203398,264713,4.1946180178,-0.6532405698,8.5794654323,1183
113612,203353,264737,4.1946180178,-0.6532405698,8.5794654323,1184
113394,203350,264721,4.1946180178,-0.6532405698,8.5794654323,1185
113318,203318,264704,4.1946180178,-0.6532405698,8.5794654323,1186
113461,203372,264721,4.1946180178,-0.6532405698,8.5794654323,1187
113668,203431,264671,4.1946180178,-0.6532405698,8.5794654323,1188
113769,203356,264711,4.1946180178,-0.6532405698,8.5794654323,1189
113870,203385,264733,4.1946180178,-0.6532405698,8.5794654323,1190
113982,203428,264754,4.1946180178,-0.6532405698,8.5794654323,1191
114146,203449,264742,4.1946180178,-0.6532405698,8.5794654323,1192
114367,203436,264733,4.1946180178,-0.6532405698,8.5794654323,1193
114605,203455,264758,4.1946180178,-0.6532405698,8.5794654323,1194
114849,203499,264806,4.1946180178,-0.6532405698,8.5794654323,1195
115132,203490,264711,4.1946180178,-0.6532405698,8.5794654323,1196
115417,203509,264806,4.1946180178,-0.6532405698,8.5794654323,1197
115666,203533,264799,4.1946180178,-0.6532405698,8.5794654323,1198
115927,203545,264791,4.1946180178,-0.6532405698,8.5794654323,1199
116178,203611,264789,4.1946180178,-0.6532405698,8.5794654323,1200
116392,203576,264787,4.1946180178,-0.6532405698,8.5794654323,1201
115930,203509,264761,4.1946180178,-0.6532405698,8.5794654323,1202
114599,203444,264719,4.1946180178,-0.6532405698,8.5794654323,1203
113300,203371,264655,4.1946180178,-0.6532405698,8.5794654323,1204
112467,203288,264593,4.1946180178,-0.6532405698,8.5794654323,1205
111831,203262,264592,4.1946180178,-0.6532405698,8.5794654323,1206
111302,203247,264588,4.1946180178,-0.6532405698,8.5794654323,1207
110976,203207,264551,4.1946180178,-0.6532405698,8.5794654323,1208
110988,203244,264561,4.1946180178,-0.6532405698,8.5794654323,1209
111097,203206,264585,4.1946180178,-0.6532405698,8.5794654323,1210
111165,203233,264616,4.1946180178,-0.6532405698,8.5794654323,1211
111206,203231,264590,4.1946180178,-0.6532405698,8.5794654323,1212
111275,203226,264587,4.1946180178,-0.6532405698,8.5794654323,1213
111383,203282,264612,4.1946180178,-0.6532405698,8.5794654323,1214
111566,203286,264580,4.1946180178,-0.6532405698,8.5794654323,1215
111797,203274,264631,4.1946180178,-0.6532405698,8.5794654323,1216
112073,203294,264645,4.1946180178,-0.6532405698,8.5794654323,1217
112345,203339,264637,4.1946180178,-0.6532405698,8.5794654323,1218
112614,203309,264690,4.1946180178,-0.6532405698,8.5794654323,1219
108855,203077,264467,4.2747775749,-0.6891329087999999,8.5016986978,1220
108465,203042,264506,4.2747775749,-0.6891329087999999,8.5016986978,1221
108191,203032,264458,4.2747775749,-0.6891329087999999,8.5016986978,1222
108126,202979,264480,4.2747775749,-0.6891329087999999,8.5016986978,1223
108314,203043,264492,4.2747775749,-0.6891329087999999,8.5016986978,1224
108518,203036,264519,4.2747775749,-0.6891329087999999,8.5016986978,1225
108602,203040,264531,4.2747775749,-0.6891329087999999,8.5016986978,1226
108671,203056,264523,4.2747775749,-0.6891329087999999,8.5016986978,1227
108765,203033,264548,4.2747775749,-0.6891329087999999,8.5016986978,1228
108963,203100,264523,4.2747775749,-0.6891329087999999,8.5016986978,1229
109205,203085,264519,4.2747775749,-0.6891329087999999,8.5016986978,1230
109503,203115,264592,4.2747775749,-0.6891329087999999,8.5016986978,1231
109760,203144,264561,4.2759739861999995,-0.6197410534,8.5040915204,1232
110076,203150,264548,4.2759739861999995,-0.6197410534,8.5040915204,1233
110366,203157,264577,4.223331889,-0.6915257314000001,8.5579300289,1234
110656,203186,264555,4.1682969692,-0.6400800455,8.596215190499999,1235
110926,203237,264677,4.1347974528,-0.6352944003,8.4921274074,1236
111210,203242,264602,4.2568314054,-0.6376872229,8.578269021,1237
111217,203245,264572,4.18743955,-0.5048855686,8.530412569000001,1238
110150,203132,264545,4.2484565263,-0.6245266986,8.5363946255,1239
108588,203036,264530,4.043870194,-0.5886343596,8.6153577713,1240
107611,202873,264458,4.2807596314,-0.5802594805,8.5088771656,1241
107072,202895,264415,4.113262049399999,-0.6568298037,8.5196448673,1242
106728,202860,264411,4.2556349941,-0.6209374647,8.5938223679,1243
106477,202849,264443,4.2843488653,-0.6628118601999999,8.5447695046,1244
106531,202835,264408,4.2843488653,-0.6628118601999999,8.5447695046,1245
106871,202848,264452,4.2843488653,-0.6628118601999999,8.5447695046,1246
107150,202883,264428,4.2843488653,-0.6628118601999999,8.5447695046,1247
107331,202854,264495,4.2843488653,-0.6628118601999999,8.5447695046,1248
107513,202871,264450,4.2843488653,-0.6628118601999999,8.5447695046,1249
107737,202897,264501,4.2843488653,-0.6628118601999999,8.5447695046,1250
108013,202930,264453,4.2843488653,-0.6628118601999999,8.5447695046,1251
108333,202957,264514,4.2843488653,-0.6628118601999999,8.5447695046,1252
108713,202987,264520,4.2843488653,-0.6628118601999999,8.5447695046,1253
109112,203014,264527,4.2843488653,-0.6628118601999999,8.5447695046,1254
109502,203017,264552,4.2843488653,-0.6628118601999999,8.5447695046,1255
109866,203080,264562,4.2843488653,-0.6628118601999999,8.5447695046,1256
110215,203101,264625,4.2843488653,-0.6628118601999999,8.5447695046,1257
110570,203108,264615,4.2843488653,-0.6628118601999999,8.5447695046,1258
110932,203154,264601,4.2843488653,-0.6628118601999999,8.5447695046,1259
111097,203169,264591,4.2843488653,-0.6628118601999999,8.5447695046,1260
110198,203071,264530,4.2843488653,-0.6628118601999999,8.5447695046,1261
108658,202928,264457,4.2843488653,-0.6628118601999999,8.5447695046,1262
107644,202884,264426,4.2843488653,-0.6628118601999999,8.5447695046,1263
107119,202818,264443,4.2843488653,-0.6628118601999999,8.5447695046,1264
106769,202783,264419,4.2843488653,-0.6628118601999999,8.5447695046,1265
106543,202745,264407,4.2843488653,-0.6628118601999999,8.5447695046,1266
106569,202740,264467,4.2843488653,-0.6628118601999999,8.5447695046,1267
106906,202769,264448,4.2843488653,-0.6628118601999999,8.5447695046,1268
107256,202788,264485,4.2843488653,-0.6628118601999999,8.5447695046,1269
107481,202814,264468,4.2843488653,-0.6628118601999999,8.5447695046,1270
107700,202815,264442,4.2843488653,-0.6628118601999999,8.5447695046,1271
107962,202875,264449,4.2843488653,-0.6628118601999999,8.5447695046,1272
108271,202878,264478,4.2843488653,-0.6628118601999999,8.5447695046,1273
108630,202904,264529,4.2843488653,-0.6628118601999999,8.5447695046,1274
109044,202906,264539,4.2843488653,-0.6628118601999999,8.5447695046,1275
109443,202963,264544,4.2843488653,-0.6628118601999999,8.5447695046,1276
109871,202985,264626,4.2843488653,-0.6628118601999999,8.5447695046,1277
110308,203035,264605,4.2843488653,-0.6628118601999999,8.5447695046,1278
110706,203090,264638,4.2843488653,-0.6628118601999999,8.5447695046,1279
111137,203116,264591,4.2843488653,-0.6628118601999999,8.5447695046,1280
111509,203152,264624,4.2843488653,-0.6628118601999999,8.5447695046,1281
111925,203172,264672,4.2843488653,-0.6628118601999999,8.5447695046,1282
112034,203194,264651,4.2843488653,-0.6628118601999999,8.5447695046,1283
111061,203111,264604,4.2843488653,-0.6628118601999999,8.5447695046,1284
109659,203000,264570,4.2843488653,-0.6628118601999999,8.5447695046,1285
112293,203206,264690,4.146761565799999,-0.6604190376,8.6033936583,1286
110813,203087,264579,4.146761565799999,-0.6604190376,8.6033936583,1287
109563,202995,264538,4.146761565799999,-0.6604190376,8.6033936583,1288
108906,202932,264493,4.146761565799999,-0.6604190376,8.6033936583,1289
108498,202927,264489,4.146761565799999,-0.6604190376,8.6033936583,1290
108171,202901,264486,4.146761565799999,-0.6604190376,8.6033936583,1291
108015,202881,264497,4.146761565799999,-0.6604190376,8.6033936583,1292
108217,202893,264534,4.146761565799999,-0.6604190376,8.6033936583,1293
108499,202923,264511,4.146761565799999,-0.6604190376,8.6033936583,1294
108657,202919,264601,4.146761565799999,-0.6604190376,8.6033936583,1295
108785,202935,264518,4.146761565799999,-0.6604190376,8.6033936583,1296
108956,202937,264573,4.146761565799999,-0.6604190376,8.6033936583,1297
109186,202973,264570,4.146761565799999,-0.6604190376,8.6033936583,1298
109449,203004,264559,4.1216369285,-0.6652046827999999,8.516055633399999,1299
109778,203024,264568,4.1216369285,-0.6652046827999999,8.516055633399999,1300
110127,203024,264636,4.1216369285,-0.6652046827999999,8.516055633399999,1301
110473,203068,264598,4.1216369285,-0.6652046827999999,8.516055633399999,1302
110788,203116,264677,4.1216369285,-0.6652046827999999,8.516055633399999,1303
111147,203104,264672,4.1216369285,-0.6652046827999999,8.516055633399999,1304
111453,203135,264667,4.1216369285,-0.6652046827999999,8.516055633399999,1305
111787,203151,264704,4.1216369285,-0.6652046827999999,8.516055633399999,1306
112077,203226,264720,4.1216369285,-0.6652046827999999,8.516055633399999,1307
112052,203159,264665,4.1216369285,-0.6652046827999999,8.516055633399999,1308
110803,203070,264637,4.1216369285,-0.6652046827999999,8.516055633399999,1309
109122,202939,264556,4.1216369285,-0.6652046827999999,8.516055633399999,1310
108041,202897,264517,4.1216369285,-0.6652046827999999,8.516055633399999,1311
107386,202829,264478,4.1216369285,-0.6652046827999999,8.516055633399999,1312
106878,202750,264469,4.1216369285,-0.6652046827999999,8.516055633399999,1313
106493,202748,264450,4.1216369285,-0.6652046827999999,8.516055633399999,1314
106511,202717,264447,4.1216369285,-0.6652046827999999,8.516055633399999,1315
106774,202733,264497,4.1216369285,-0.6652046827999999,8.516055633399999,1316
107020,202741,264483,4.1216369285,-0.6652046827999999,8.516055633399999,1317
107168,202742,264509,4.1216369285,-0.6652046827999999,8.516055633399999,1318
107319,202774,264509,4.1216369285,-0.6652046827999999,8.516055633399999,1319
107498,202793,264526,4.1216369285,-0.6652046827999999,8.516055633399999,1320
107749,202801,264591,4.1216369285,-0.6652046827999999,8.516055633399999,1321
108052,202806,264571,4.1216369285,-0.6652046827999999,8.516055633399999,1322
108386,202870,264574,4.1216369285,-0.6652046827999999,8.516055633399999,1323
108747,202855,264585,4.1216369285,-0.6652046827999999,8.516055633399999,1324
109096,202894,264590,4.1216369285,-0.6652046827999999,8.516055633399999,1325
109450,202932,264573,4.1216369285,-0.6652046827999999,8.516055633399999,1326
109760,202941,264617,4.1216369285,-0.6652046827999999,8.516055633399999,1327
110115,202959,264655,4.1216369285,-0.6652046827999999,8.516055633399999,1328
110461,202993,264633,4.1216369285,-0.6652046827999999,8.516055633399999,1329
110770,203066,264613,4.1216369285,-0.6652046827999999,8.516055633399999,1330
111103,203063,264692,4.1216369285,-0.6652046827999999,8.516055633399999,1331
111356,203120,264720,4.1216369285,-0.6652046827999999,8.516055633399999,1332
110638,203030,264644,4.1216369285,-0.6652046827999999,8.516055633399999,1333
108888,202902,264531,4.1216369285,-0.6652046827999999,8.516055633399999,1334
107470,202761,264509,4.1216369285,-0.6652046827999999,8.516055633399999,1335
106771,202739,264497,4.1216369285,-0.6652046827999999,8.516055633399999,1336
106359,202719,264465,4.1216369285,-0.6652046827999999,8.516055633399999,1337
106075,202669,264445,4.1216369285,-0.6652046827999999,8.516055633399999,1338
106015,202664,264428,4.1216369285,-0.6652046827999999,8.516055633399999,1339
106286,202707,264486,4.1216369285,-0.6652046827999999,8.516055633399999,1340
109590,202895,264634,4.1288153963,-0.6293123438,8.5890367227,1341
109932,202900,264608,4.1288153963,-0.6293123438,8.5890367227,1342
110062,202895,264622,4.1288153963,-0.6293123438,8.5890367227,1343
109010,202815,264570,4.1288153963,-0.6293123438,8.5890367227,1344
107355,202663,264466,4.1288153963,-0.6293123438,8.5890367227,1345
106296,202605,264455,4.1288153963,-0.6293123438,8.5890367227,1346
105781,202537,264442,4.1288153963,-0.6293123438,8.5890367227,1347
105441,202510,264422,4.1288153963,-0.6293123438,8.5890367227,1348
105256,202488,264430,4.1288153963,-0.6293123438,8.5890367227,1349
105383,202502,264418,4.1288153963,-0.6293123438,8.5890367227,1350
105771,202529,264409,4.1288153963,-0.6293123438,8.5890367227,1351
106136,202560,264463,4.1288153963,-0.6293123438,8.5890367227,1352
106372,202574,264436,4.1288153963,-0.6293123438,8.5890367227,1353
106598,202579,264479,4.1288153963,-0.6293123438,8.5890367227,1354
106845,202611,264468,4.1288153963,-0.6293123438,8.5890367227,1355
107151,202632,264542,4.1288153963,-0.6293123438,8.5890367227,1356
107512,202656,264502,4.1288153963,-0.6293123438,8.5890367227,1357
107909,202718,264534,4.1288153963,-0.6293123438,8.5890367227,1358
108311,202741,264475,4.1288153963,-0.6293123438,8.5890367227,1359
108690,202806,264591,4.1288153963,-0.6293123438,8.5890367227,1360
109078,202803,264561,4.1288153963,-0.6293123438,8.5890367227,1361
109474,202838,264586,4.1288153963,-0.6293123438,8.5890367227,1362
109855,202866,264601,4.1288153963,-0.6293123438,8.5890367227,1363
110219,202912,264622,4.1288153963,-0.6293123438,8.5890367227,1364
110590,202929,264652,4.1288153963,-0.6293123438,8.5890367227,1365
110928,202962,264651,4.1288153963,-0.6293123438,8.5890367227,1366
110604,202919,264610,4.1288153963,-0.6293123438,8.5890367227,1367
109081,202807,264544,4.1288153963,-0.6293123438,8.5890367227,1368
107637,202704,264492,4.1288153963,-0.6293123438,8.5890367227,1369
106958,202653,264455,4.1288153963,-0.6293123438,8.5890367227,1370
106560,202611,264460,4.1288153963,-0.6293123438,8.5890367227,1371
106302,202586,264438,4.1288153963,-0.6293123438,8.5890367227,1372
106235,202542,264464,4.1288153963,-0.6293123438,8.5890367227,1373
106502,202602,264439,4.1288153963,-0.6293123438,8.5890367227,1374
106824,202630,264462,4.1288153963,-0.6293123438,8.5890367227,1375
107001,202627,264521,4.1288153963,-0.6293123438,8.5890367227,1376
107131,202601,264474,4.1288153963,-0.6293123438,8.5890367227,1377
107309,202669,264451,4.1288153963,-0.6293123438,8.5890367227,1378
107537,202667,264493,4.1288153963,-0.6293123438,8.5890367227,1379
107829,202681,264523,4.1288153963,-0.6293123438,8.5890367227,1380
108125,202717,264526,4.1288153963,-0.6293123438,8.5890367227,1381
108469,202749,264559,4.1288153963,-0.6293123438,8.5890367227,1382
110014,202909,264592,4.2041893082,-0.7034898444000001,8.5411802707,1383
110280,202957,264606,4.2041893082,-0.7034898444000001,8.5411802707,1384
109841,202879,264635,4.2041893082,-0.7034898444000001,8.5411802707,1385
108181,202747,264517,4.2041893082,-0.7034898444000001,8.5411802707,1386
106620,202613,264444,4.2041893082,-0.7034898444000001,8.5411802707,1387
105746,202545,264373,4.2041893082,-0.7034898444000001,8.5411802707,1388
105199,202513,264365,4.2041893082,-0.7034898444000001,8.5411802707,1389
104820,202458,264362,4.2041893082,-0.7034898444000001,8.5411802707,1390
104642,202420,264379,4.2041893082,-0.7034898444000001,8.5411802707,1391
104859,202441,264362,4.2041893082,-0.7034898444000001,8.5411802707,1392
105245,202489,264434,4.2041893082,-0.7034898444000001,8.5411802707,1393
105478,202476,264409,4.2041893082,-0.7034898444000001,8.5411802707,1394
105623,202522,264419,4.2041893082,-0.7034898444000001,8.5411802707,1395
105789,202508,264392,4.2041893082,-0.7034898444000001,8.5411802707,1396
106030,202511,264378,4.2041893082,-0.7034898444000001,8.5411802707,1397
106312,202531,264454,4.2041893082,-0.7034898444000001,8.5411802707,1398
106647,202583,264466,4.2041893082,-0.7034898444000001,8.5411802707,1399
106979,202604,264483,4.2041893082,-0.7034898444000001,8.5411802707,1400
107314,202607,264477,4.2041893082,-0.7034898444000001,8.5411802707,1401
107680,202643,264493,4.2041893082,-0.7034898444000001,8.5411802707,1402
108002,202700,264502,4.2041893082,-0.7034898444000001,8.5411802707,1403
108327,202719,264546,4.2041893082,-0.7034898444000001,8.5411802707,1404
108676,202706,264606,4.2041893082,-0.7034898444000001,8.5411802707,1405
108980,202799,264530,4.2041893082,-0.7034898444000001,8.5411802707,1406
108643,202742,264509,4.2041893082,-0.7034898444000001,8.5411802707,1407
107018,202614,264459,4.2041893082,-0.7034898444000001,8.5411802707,1408
105389,202462,264372,4.2041893082,-0.7034898444000001,8.5411802707,1409
104524,202337,264402,4.2041893082,-0.7034898444000001,8.5411802707,1410
104003,202324,264320,4.2041893082,-0.7034898444000001,8.5411802707,1411
103694,202304,264317,4.2041893082,-0.7034898444000001,8.5411802707,1412
103583,202263,264272,4.2041893082,-0.7034898444000001,8.5411802707,1413
103818,202279,264326,4.2041893082,-0.7034898444000001,8.5411802707,1414
104233,202309,264336,4.2041893082,-0.7034898444000001,8.5411802707,1415
104557,202352,264382,4.2041893082,-0.7034898444000001,8.5411802707,1416
104777,202352,264311,4.2041893082,-0.7034898444000001,8.5411802707,1417
105005,202345,264369,4.2041893082,-0.7034898444000001,8.5411802707,1418
105289,202382,264369,4.2041893082,-0.7034898444000001,8.5411802707,1419
105648,202445,264430,4.2041893082,-0.7034898444000001,8.5411802707,1420
106028,202441,264445,4.2041893082,-0.7034898444000001,8.5411802707,1421
106429,202468,264445,4.2041893082,-0.7034898444000001,8.5411802707,1422
106840,202509,264450,4.2041893082,-0.7034898444000001,8.5411802707,1423
107256,202565,264505,4.2041893082,-0.7034898444000001,8.5411802707,1424
108971,202697,264516,4.2460637037,-0.6532405698,8.5878403114,1425
109332,202708,264522,4.2460637037,-0.6532405698,8.5878403114,1426
109734,202726,264586,4.2460637037,-0.6532405698,8.5878403114,1427
110099,202768,264560,4.2460637037,-0.6532405698,8.5878403114,1428
110480,202810,264589,4.2460637037,-0.6532405698,8.5878403114,1429
110883,202807,264587,4.2460637037,-0.6532405698,8.5878403114,1430
110958,202843,264628,4.2460637037,-0.6532405698,8.5878403114,1431
109850,202754,264549,4.2460637037,-0.6532405698,8.5878403114,1432
108225,202628,264507,4.2460637037,-0.6532405698,8.5878403114,1433
107186,202532,264417,4.2460637037,-0.6532405698,8.5878403114,1434
106678,202483,264397,4.2460637037,-0.6532405698,8.5878403114,1435
106329,202450,264399,4.2460637037,-0.6532405698,8.5878403114,1436
106147,202440,264378,4.2460637037,-0.6532405698,8.5878403114,1437
106261,202447,264371,4.2460637037,-0.6532405698,8.5878403114,1438
106674,202472,264401,4.2460637037,-0.6532405698,8.5878403114,1439
107042,202509,264399,4.2460637037,-0.6532405698,8.5878403114,1440
107337,202510,264428,4.2460637037,-0.6532405698,8.5878403114,1441
107521,202517,264451,4.2460637037,-0.6532405698,8.5878403114,1442
107773,202533,264466,4.2460637037,-0.6532405698,8.5878403114,1443
108047,202554,264471,4.2460637037,-0.6532405698,8.5878403114,1444
108362,202588,264462,4.2460637037,-0.6532405698,8.5878403114,1445
108719,202621,264506,4.2460637037,-0.6532405698,8.5878403114,1446
109092,202653,264524,4.2460637037,-0.6532405698,8.5878403114,1447
109447,202658,264523,4.2460637037,-0.6532405698,8.5878403114,1448
109855,202703,264527,4.2460637037,-0.6532405698,8.5878403114,1449
110223,202707,264583,4.2460637037,-0.6532405698,8.5878403114,1450
110585,202738,264564,4.2460637037,-0.6532405698,8.5878403114,1451
110918,202783,264568,4.2460637037,-0.6532405698,8.5878403114,1452
111263,202818,264609,4.2460637037,-0.6532405698,8.5878403114,1453
111400,202817,264572,4.2460637037,-0.6532405698,8.5878403114,1454
110341,202722,264524,4.2460637037,-0.6532405698,8.5878403114,1455
108505,202557,264443,4.2460637037,-0.6532405698,8.5878403114,1456
107150,202449,264373,4.2460637037,-0.6532405698,8.5878403114,1457
106431,202407,264386,4.2460637037,-0.6532405698,8.5878403114,1458
106001,202369,264349,4.2460637037,-0.6532405698,8.5878403114,1459
105740,202357,264338,4.2460637037,-0.6532405698,8.5878403114,1460
105771,202346,264348,4.2460637037,-0.6532405698,8.5878403114,1461
106095,202367,264400,4.2460637037,-0.6532405698,8.5878403114,1462
106456,202430,264379,4.2460637037,-0.6532405698,8.5878403114,1463
106647,202409,264383,4.2460637037,-0.6532405698,8.5878403114,1464
106860,202440,264409,4.2460637037,-0.6532405698,8.5878403114,1465
107080,202464,264399,4.2460637037,-0.6532405698,8.5878403114,1466
110434,202812,264558,4.2460637037,-0.6305087550999999,8.5675013193,1467
110758,202835,264571,4.2460637037,-0.6305087550999999,8.5675013193,1468
111085,202844,264586,4.2460637037,-0.6305087550999999,8.5675013193,1469
111149,202824,264600,4.2460637037,-0.6305087550999999,8.5675013193,1470
109952,202747,264509,4.2460637037,-0.6305087550999999,8.5675013193,1471
108078,202623,264439,4.2460637037,-0.6305087550999999,8.5675013193,1472
106843,202508,264375,4.2460637037,-0.6305087550999999,8.5675013193,1473
106212,202448,264352,4.2460637037,-0.6305087550999999,8.5675013193,1474
105887,202450,264328,4.2460637037,-0.6305087550999999,8.5675013193,1475
105679,202389,264294,4.2460637037,-0.6305087550999999,8.5675013193,1476
105769,202412,264308,4.2460637037,-0.6305087550999999,8.5675013193,1477
106123,202401,264369,4.2460637037,-0.6305087550999999,8.5675013193,1478
106473,202456,264350,4.2460637037,-0.6305087550999999,8.5675013193,1479
106668,202414,264348,4.2460637037,-0.6305087550999999,8.5675013193,1480
106803,202440,264371,4.2460637037,-0.6305087550999999,8.5675013193,1481
107008,202455,264402,4.2460637037,-0.6305087550999999,8.5675013193,1482
107289,202480,264427,4.2460637037,-0.6305087550999999,8.5675013193,1483
107596,202465,264413,4.2460637037,-0.6305087550999999,8.5675013193,1484
107979,202508,264401,4.2460637037,-0.6305087550999999,8.5675013193,1485
108328,202549,264444,4.2460637037,-0.6305087550999999,8.5675013193,1486
108717,202604,264444,4.2460637037,-0.6305087550999999,8.5675013193,1487
109088,202622,264511,4.2460637037,-0.6305087550999999,8.5675013193,1488
109450,202640,264506,4.2460637037,-0.6305087550999999,8.5675013193,1489
109818,202671,264530,4.2460637037,-0.6305087550999999,8.5675013193,1490
110160,202724,264469,4.2460637037,-0.6305087550999999,8.5675013193,1491
110479,202709,264559,4.2460637037,-0.6305087550999999,8.5675013193,1492
110435,202738,264503,4.2460637037,-0.6305087550999999,8.5675013193,1493
109085,202583,264424,4.2460637037,-0.6305087550999999,8.5675013193,1494
107256,202455,264379,4.2460637037,-0.6305087550999999,8.5675013193,1495
106156,202360,264301,4.2460637037,-0.6305087550999999,8.5675013193,1496
105644,202314,264309,4.2460637037,-0.6305087550999999,8.5675013193,1497
105356,202290,264292,4.2460637037,-0.6305087550999999,8.5675013193,1498
105269,202296,264298,4.2460637037,-0.6305087550999999,8.5675013193,1499
105450,202280,264307,4.2460637037,-0.6305087550999999,8.5675013193,1500
105905,202336,264332,4.2460637037,-0.6305087550999999,8.5675013193,1501
106291,202359,264356,4.2460637037,-0.6305087550999999,8.5675013193,1502
106551,202400,264342,4.2460637037,-0.6305087550999999,8.5675013193,1503
106813,202404,264364,4.2460637037,-0.6305087550999999,8.5675013193,1504
107072,202397,264379,4.2460637037,-0.6305087550999999,8.5675013193,1505
107430,202445,264427,4.2460637037,-0.6305087550999999,8.5675013193,1506
107839,202493,264439,4.2460637037,-0.6305087550999999,8.5675013193,1507
108255,202541,264435,4.2460637037,-0.6305087550999999,8.5675013193,1508
109446,202697,264498,4.3130627365,-0.5419743189,8.530412569000001,1509
107470,202571,264355,4.3130627365,-0.5419743189,8.530412569000001,1510
106177,202436,264330,4.3130627365,-0.5419743189,8.530412569000001,1511
105520,202403,264277,4.3130627365,-0.5419743189,8.530412569000001,1512
105104,202364,264313,4.3130627365,-0.5419743189,8.530412569000001,1513
104860,202326,264274,4.3130627365,-0.5419743189,8.530412569000001,1514
104952,202326,264337,4.3130627365,-0.5419743189,8.530412569000001,1515
105329,202361,264359,4.3130627365,-0.5419743189,8.530412569000001,1516
105663,202363,264340,4.3130627365,-0.5419743189,8.530412569000001,1517
105864,202423,264336,4.3130627365,-0.5419743189,8.530412569000001,1518
106047,202425,264359,4.3130627365,-0.5419743189,8.530412569000001,1519
106244,202427,264399,4.3130627365,-0.5419743189,8.530412569000001,1520
106507,202451,264412,4.3130627365,-0.5419743189,8.530412569000001,1521
106838,202509,264383,4.3130627365,-0.5419743189,8.530412569000001,1522
107201,202519,264425,4.3130627365,-0.5419743189,8.530412569000001,1523
107580,202550,264472,4.3130627365,-0.5419743189,8.530412569000001,1524
107999,202597,264406,4.3130627365,-0.5419743189,8.530412569000001,1525
108372,202597,264511,4.3130627365,-0.5419743189,8.530412569000001,1526
108724,202620,264471,4.3130627365,-0.5419743189,8.530412569000001,1527
109085,202682,264520,4.3130627365,-0.5419743189,8.530412569000001,1528
109458,202694,264564,4.3130627365,-0.5419743189,8.530412569000001,1529
109184,202669,264488,4.3130627365,-0.5419743189,8.530412569000001,1530
107486,202536,264372,4.3130627365,-0.5419743189,8.530412569000001,1531
105657,202383,264289,4.3130627365,-0.5419743189,8.530412569000001,1532
104664,202280,264288,4.3130627365,-0.5419743189,8.530412569000001,1533
104119,202240,264283,4.3130627365,-0.5419743189,8.530412569000001,1534
103775,202195,264212,4.3130627365,-0.5419743189,8.530412569000001,1535
103641,202164,264251,4.3130627365,-0.5419743189,8.530412569000001,1536
103893,202179,264276,4.3130627365,-0.5419743189,8.530412569000001,1537
104355,202231,264268,4.3130627365,-0.5419743189,8.530412569000001,1538
104663,202204,264323,4.3130627365,-0.5419743189,8.530412569000001,1539
104858,202265,264323,4.3130627365,-0.5419743189,8.530412569000001,1540
