green,red,IR,acc_x,acc_y,acc_z,sample_index
83225,198464,232946,-2.8654050635,9.054440718399999,2.0853448959,1
83380,198514,232963,-2.8331019584000003,9.2027957196,2.0662023151,2
83527,198536,232982,-2.8151557889,9.0975115252,2.0769700168,3
83694,198573,233005,-2.7625136916999997,9.0125663229,2.0805592507,4
83828,198655,233019,-2.9144579268,9.1357966868,2.1571295739000003,5
83951,198671,233092,-2.8283163132,9.0113699116,2.0051853388,6
84088,198718,233111,-2.7242285301,9.1154576947,2.1092731219,7
84230,198741,233139,-2.8342983697,9.0317089037,1.9489540077,8
84041,198731,233101,-2.9611179675,9.0592263636,2.0865413072,9
83358,198482,232948,-2.8199414341,9.0592263636,2.0051853388,10
82592,198238,232797,-2.8905297008,9.1597249128,2.0051853388,11
82085,198001,232709,-2.9001009912,9.1549392676,2.0147566292,12
81794,197888,232614,-2.6907290137,9.0783689444,1.9908284031999999,13
81613,197767,232569,-2.6572294973,9.1585285015,2.0470597343,14
81482,197713,232541,-2.7720849821,9.1202433399,2.0805592507,15
81471,197711,232507,-2.7912275628999996,9.1549392676,2.0901305410999997,16
81586,197760,232514,-2.8378876036,9.0257268472,2.1619152191,17
81695,197811,232551,-2.8809584104000003,8.9216390641,2.0805592507,18
81713,197879,232586,-2.6943182475999996,9.1106720495,2.0769700168,19
81729,197876,232580,-2.8043880872,9.050851484499999,1.9537396529,20
81780,197892,232633,-2.9706892578999997,9.1250289851,2.057827436,21
81855,197935,232559,-3.0532416376,9.096315113900001,2.0709879603,22
81989,197993,232674,-2.9754749031,9.1262253964,1.9824535241,23
82119,198001,232675,-2.7672993369,9.0831545896,2.0566310246999997,24
82286,198073,232668,-2.7960132080999998,8.9922273308,2.1523439287,25
82417,198135,232702,-2.8761727652,9.0400837828,2.1810577999,26
82573,198188,232720,-2.7948167968,9.0173519681,2.0865413072,27
82723,198242,232779,-2.9706892578999997,9.0496550732,2.0147566292,28
82861,198279,232778,-2.9132615155,9.0723868879,2.0709879603,29
83009,198323,232824,-2.8510481279,9.0352981376,2.129612114,30
83157,198369,232862,-2.8319055471,9.064012008799999,2.0386848552,31
83271,198399,232870,-2.7672993369,9.1872423727,2.0841484846,32
83377,198503,232940,-2.7720849821,9.153742856300001,1.9872391693,33
83530,198487,232952,-2.6608187311999996,9.1058864043,2.081755662,34
83655,198552,232968,-2.7074787719,9.0783689444,2.0015961049,35
83773,198584,233025,-2.7960132080999998,9.0496550732,2.1188444122999996,36
83904,198614,233042,-2.8091737324,8.930013943199999,2.1092731219,37
84031,198668,233042,-2.8953153460000003,9.064012008799999,2.0183458631,38
84072,198674,233045,-2.7613172804,9.068797654,2.0243279196,39
83624,198518,232980,-2.7672993369,9.0221376133,2.0673987264,40
82821,198294,232851,-2.7768706272999997,8.9886380969,1.9728822337,41
82255,198057,232756,-2.8666014748,9.1932244292,1.9298114269,42
81946,197858,232619,-2.7577280465,8.9407816449,2.0721843716,43
81769,197763,232578,-2.9802605483,9.2051885422,2.1248264688,44
81712,197748,232523,-2.7529424013,9.0317089037,2.03389921,45
81688,197725,232490,-2.8426732488,9.041280194099999,2.1367905818,46
81772,197754,232546,-2.8522445392,9.0592263636,2.0901305410999997,47
81887,197841,232557,-2.8809584104000003,9.0496550732,2.0422740890999997,48
81962,197877,232608,-2.8941189347,8.9455672901,2.0291135648000003,49
81993,197888,232577,-2.8773691765,9.1680997919,2.0147566292,50
82056,197892,232573,-2.8474588940000003,9.0735832992,2.0291135648000003,51
82132,197949,232609,-2.8809584104000003,9.248259349,2.0051853388,52
82208,197952,232613,-2.9240292172,9.2255275343,2.0662023151,53
82347,198016,232661,-2.8043880872,9.0017986212,2.0231315083,54
82519,198044,232707,-2.8666014748,9.1058864043,1.9716858223999998,55
82669,198109,232715,-2.8857440556,9.219545477799999,2.0003996936,56
82825,198154,232759,-2.967100024,8.97308475,2.0865413072,57
82957,198200,232793,-2.87138712,9.064012008799999,1.9764714676,58
83109,198237,232775,-2.8618158296000002,9.1597249128,2.0901305410999997,59
83243,198306,232799,-2.7768706272999997,9.0077806777,2.0709879603,60
83373,198342,232842,-2.8749763539,9.1022971704,2.0961125976,61
83509,198381,232858,-2.9144579268,9.188438784,2.0482561456,62
83646,198428,232950,-2.6584259086,9.006584266399999,1.9669001771999999,63
83788,198442,232909,-2.9132615155,9.131011041599999,2.009970984,64
83931,198504,232987,-2.7720849821,9.1680997919,2.0518453795,65
84057,198589,232989,-2.7242285301,9.0592263636,1.9872391693,66
84203,198577,233011,-2.7529424013,9.0293160811,2.0422740890999997,67
84286,198621,232987,-2.8438696600999998,8.998209387300001,2.03389921,68
84095,198576,232997,-2.9479574432,9.1106720495,2.105683888,69
83312,198323,232849,-2.7864419177,9.1202433399,2.0470597343,70
82583,198039,232686,-2.8857440556,9.0783689444,2.0482561456,71
82153,197828,232554,-2.8331019584000003,9.020941202,2.1284157027,72
81887,197656,232466,-2.8007988533,9.0831545896,1.9920248145,73
81684,197550,232419,-2.8247270792999997,9.207581364800001,2.1008982428,74
81544,197494,232406,-2.7672993369,9.1106720495,1.9956140484,75
81518,197528,232393,-2.8618158296000002,9.153742856300001,2.129612114,76
81628,197587,232400,-2.7421746995999996,9.2027957196,2.0769700168,77
81763,197643,232441,-2.8331019584000003,9.1346002755,2.0231315083,78
81849,197723,232446,-2.8199414341,9.0592263636,2.009970984,79
81924,197715,232464,-2.7290141752999997,9.0257268472,2.1092731219,80
81991,197754,232519,-2.8905297008,9.1968136631,2.0434705004000002,81
82061,197783,232494,-2.7625136916999997,9.140582332,2.1200408236,82
82180,197785,232549,-2.8043880872,9.1118684608,2.009970984,83
82326,197850,232555,-2.8857440556,9.1920280179,2.0434705004000002,84
82466,197899,232571,-2.8845476443,9.1501536224,2.0422740890999997,85
82641,197961,232650,-2.9371897415,9.0592263636,2.1583259852,86
82802,198035,232653,-2.8331019584000003,9.0161555568,1.8915262653,87
82882,198102,232673,-2.8139593776000003,9.0592263636,1.9968104597,88
83151,198148,232748,-2.8103701436999997,9.1154576947,1.9956140484,89
83269,198221,232800,-2.919243572,9.0496550732,2.0949161863,90
83386,198244,232762,-2.9240292172,9.0233340246,2.0243279196,91
83543,198300,232864,-2.7672993369,9.153742856300001,1.9716858223999998,92
83688,198325,232853,-2.7625136916999997,9.1262253964,2.0482561456,93
83841,198386,232865,-2.8091737324,9.0783689444,1.9429719511999999,94
83983,198433,232915,-2.8761727652,9.0496550732,2.03389921,95
84112,198441,232943,-2.8953153460000003,9.1585285015,2.0434705004000002,96
84235,198516,232961,-2.8043880872,9.1106720495,2.0566310246999997,97
84384,198561,233018,-2.87138712,9.1680997919,2.0997018315,98
84495,198573,232968,-2.7003003040999998,9.044869428,2.0147566292,99
84255,198540,232990,-2.87138712,9.1633141467,2.1272192914,100
83482,198277,232878,-2.9252256285000002,9.0735832992,2.0291135648000003,101
82775,198023,232678,-2.775674216,9.1346002755,2.1188444122999996,102
82327,197819,232580,-2.6955146589,9.006584266399999,1.9860427579999997,103
82085,197677,232500,-2.8522445392,9.148957211099999,2.081755662,104
81903,197575,232514,-2.7529424013,9.006584266399999,2.0626130812,105
81781,197555,232433,-2.9994031291,9.1501536224,2.0721843716,106
81770,197497,232383,-2.7086751831999996,9.064012008799999,2.0147566292,107
81867,197563,232423,-2.8701907087,9.1633141467,2.0901305410999997,108
81965,197636,232422,-2.7684957482,9.1011007591,1.9489540077,109
82026,197680,232502,-2.7912275628999996,9.1154576947,2.1858434451,110
82093,197731,232500,-2.8043880872,9.148957211099999,2.1954147355,111
82143,197736,232530,-2.7720849821,9.09272588,2.1092731219,112
82194,197791,232543,-2.9814569596,8.998209387300001,2.1188444122999996,113
82290,197833,232544,-2.8965117573,9.0831545896,2.0949161863,114
82436,197858,232610,-2.7385854657,9.0592263636,2.0243279196,115
82573,197942,232617,-2.8378876036,8.997012975999999,2.0051853388,116
82734,197999,232640,-2.775674216,9.148957211099999,2.1092731219,117
82911,198037,232693,-2.7864419177,9.131011041599999,1.9896319919,118
83042,198105,232699,-2.7469603447999997,9.0879402348,1.9908284031999999,119
83190,198178,232788,-2.7242285301,9.064012008799999,2.1200408236,120
83338,198204,232753,-2.9240292172,9.0987079365,2.0769700168,121
83474,198243,232822,-2.7864419177,9.0257268472,2.0434705004000002,122
83610,198305,232802,-2.8031916759,9.0783689444,2.1200408236,123
83745,198342,232867,-2.7385854657,9.054440718399999,2.0422740890999997,124
83893,198413,232917,-2.775674216,9.0257268472,1.9908284031999999,125
84017,198421,232893,-2.9144579268,9.1202433399,1.9956140484,126
84132,198482,232952,-2.9048866364,9.0305124924,1.9860427579999997,127
84261,198542,232994,-3.0137600647,9.0735832992,2.0614166699,128
84407,198576,233021,-2.9898318387,9.1585285015,1.9956140484,129
84406,198554,233038,-2.8989045799,8.926424709299999,2.0530417908,130
83880,198426,232948,-2.8953153460000003,9.2027957196,2.0614166699,131
83075,198131,232787,-2.7960132080999998,9.1202433399,2.1248264688,132
82468,197913,232611,-2.8654050635,9.148957211099999,2.0291135648000003,133
82147,197734,232582,-2.7672993369,9.1022971704,2.03389921,134
81938,197650,232462,-2.8666014748,9.0125663229,2.0434705004000002,135
81816,197588,232440,-2.9132615155,9.0496550732,1.9812571127999998,136
81743,197575,232437,-2.8618158296000002,9.1585285015,2.1248264688,137
81838,197635,232451,-2.7900311516,9.020941202,2.0614166699,138
81936,197726,232471,-2.7768706272999997,9.0699940653,1.9812571127999998,139
81994,197732,232484,-3.0711878071,9.0975115252,2.1044874766999997,140
82036,197783,232486,-2.8941189347,9.044869428,1.9573288867999998,141
82044,197763,232516,-2.8151557889,9.1597249128,1.9968104597,142
82105,197808,232525,-2.7529424013,9.0173519681,2.0003996936,143
82195,197828,232499,-2.823530668,9.0592263636,2.0721843716,144
82286,197850,232587,-2.7948167968,9.0783689444,1.8867406201,145
82394,197963,232605,-2.8366911923,9.044869428,2.0243279196,146
82550,197988,232635,-2.9467610319,9.09272588,2.0721843716,147
82706,197993,232670,-2.8474588940000003,9.0975115252,1.9956140484,148
82844,198088,232710,-2.8199414341,9.0795653557,1.9860427579999997,149
82990,198137,232733,-2.7996024420000003,9.09272588,2.1439690496,150
83105,198197,232752,-2.9383861528,9.1692962032,2.0626130812,151
83251,198208,232764,-2.9096722816000002,9.1968136631,2.0614166699,152
83405,198284,232825,-2.8043880872,9.140582332,2.0626130812,153
83562,198317,232830,-2.8857440556,9.2386880586,2.1559331626,154
83689,198357,232841,-2.8151557889,9.0305124924,1.9238293703999998,155
83815,198365,232917,-2.8151557889,9.2111705987,2.0243279196,156
83940,198446,232948,-2.8905297008,9.0939222913,1.9250257817,157
83886,198417,232941,-2.8175486115,9.1501536224,1.9298114269,158
83293,198224,232855,-2.8103701436999997,9.1680997919,2.0374884439,159
82477,197930,232698,-2.7541388126,9.1011007591,2.0422740890999997,160
81949,197723,232538,-2.9144579268,9.1202433399,1.9489540077,161
81657,197596,232421,-2.8426732488,9.1561356789,2.0757736055,162
81443,197457,232344,-2.8857440556,9.153742856300001,2.1140587671,163
81307,197434,232337,-2.8869404668999996,9.116654106,2.0386848552,164
81271,197452,232328,-2.8091737324,9.1118684608,2.0673987264,165
81356,197478,232368,-2.7948167968,9.0257268472,2.0865413072,166
81477,197575,232310,-2.7948167968,9.0257268472,2.0865413072,167
81542,197584,232363,-2.7948167968,9.0257268472,2.0865413072,168
81597,197631,232438,-2.7948167968,9.0257268472,2.0865413072,169
81631,197668,232462,-2.7948167968,9.0257268472,2.0865413072,170
81711,197654,232447,-2.7948167968,9.0257268472,2.0865413072,171
81806,197724,232479,-2.7948167968,9.0257268472,2.0865413072,172
81958,197774,232480,-2.7948167968,9.0257268472,2.0865413072,173
82099,197824,232573,-2.7948167968,9.0257268472,2.0865413072,174
82252,197867,232606,-2.7948167968,9.0257268472,2.0865413072,175
82436,197917,232634,-2.7948167968,9.0257268472,2.0865413072,176
82590,197982,232670,-2.7948167968,9.0257268472,2.0865413072,177
82728,198060,232704,-2.7948167968,9.0257268472,2.0865413072,178
82872,198127,232756,-2.8522445392,9.0771725331,1.9908284031999999,179
83006,198179,232784,-2.8522445392,9.0771725331,1.9908284031999999,180
83156,198179,232818,-2.8522445392,9.0771725331,1.9908284031999999,181
83296,198224,232792,-2.8809584104000003,9.0161555568,2.0327027987,182
83429,198318,232860,-2.8091737324,9.0400837828,1.9920248145,183
83572,198338,232876,-2.8331019584000003,9.1357966868,1.9860427579999997,184
83689,198362,232908,-2.9395825641,9.0676012427,2.0865413072,185
83862,198412,232957,-2.8570301844,9.1250289851,2.0279171535,186
83945,198431,232937,-2.8247270792999997,9.1357966868,2.1379869930999997,187
83995,198464,232919,-2.7086751831999996,9.0879402348,2.0626130812,188
83536,198353,232889,-2.7086751831999996,9.0879402348,2.0626130812,189
82681,198060,232707,-2.7086751831999996,9.0879402348,2.0626130812,190
82029,197750,232577,-2.7086751831999996,9.0879402348,2.0626130812,191
81649,197577,232466,-2.7086751831999996,9.0879402348,2.0626130812,192
81410,197462,232394,-2.7086751831999996,9.0879402348,2.0626130812,193
81245,197379,232308,-2.7086751831999996,9.0879402348,2.0626130812,194
81148,197319,232275,-2.7086751831999996,9.0879402348,2.0626130812,195
81181,197391,232345,-2.7086751831999996,9.0879402348,2.0626130812,196
81304,197463,232385,-2.7086751831999996,9.0879402348,2.0626130812,197
81391,197496,232369,-2.7086751831999996,9.0879402348,2.0626130812,198
81455,197575,232370,-2.7086751831999996,9.0879402348,2.0626130812,199
81526,197567,232422,-2.7086751831999996,9.0879402348,2.0626130812,200
81601,197630,232392,-2.7086751831999996,9.0879402348,2.0626130812,201
81692,197632,232443,-2.7086751831999996,9.0879402348,2.0626130812,202
81818,197672,232473,-2.7086751831999996,9.0879402348,2.0626130812,203
81965,197778,232473,-2.7086751831999996,9.0879402348,2.0626130812,204
82123,197786,232538,-2.7086751831999996,9.0879402348,2.0626130812,205
82291,197848,232592,-2.7086751831999996,9.0879402348,2.0626130812,206
82452,197908,232600,-2.7086751831999996,9.0879402348,2.0626130812,207
82615,197975,232635,-2.7086751831999996,9.0879402348,2.0626130812,208
82772,198005,232686,-2.7086751831999996,9.0879402348,2.0626130812,209
82920,198037,232681,-2.7086751831999996,9.0879402348,2.0626130812,210
83053,198095,232763,-2.7086751831999996,9.0879402348,2.0626130812,211
83206,198143,232785,-2.7086751831999996,9.0879402348,2.0626130812,212
83335,198192,232766,-2.7086751831999996,9.0879402348,2.0626130812,213
83473,198219,232850,-2.7086751831999996,9.0879402348,2.0626130812,214
83606,198292,232851,-2.7086751831999996,9.0879402348,2.0626130812,215
83738,198335,232889,-2.7086751831999996,9.0879402348,2.0626130812,216
83867,198372,232893,-2.7086751831999996,9.0879402348,2.0626130812,217
83968,198385,232901,-2.7086751831999996,9.0879402348,2.0626130812,218
83739,198313,232885,-2.7086751831999996,9.0879402348,2.0626130812,219
82967,198105,232784,-2.7086751831999996,9.0879402348,2.0626130812,220
82223,197761,232587,-2.7086751831999996,9.0879402348,2.0626130812,221
81759,197616,232501,-2.7086751831999996,9.0879402348,2.0626130812,222
81502,197449,232416,-2.7086751831999996,9.0879402348,2.0626130812,223
81318,197399,232348,-2.7086751831999996,9.0879402348,2.0626130812,224
81220,197339,232334,-2.7086751831999996,9.0879402348,2.0626130812,225
81213,197339,232268,-2.7086751831999996,9.0879402348,2.0626130812,226
81322,197387,232309,-2.7086751831999996,9.0879402348,2.0626130812,227
81411,197468,232354,-2.7086751831999996,9.0879402348,2.0626130812,228
81471,197544,232379,-2.7086751831999996,9.0879402348,2.0626130812,229
81574,197589,232405,-2.8295127245,9.0017986212,2.0183458631,230
81675,197622,232441,-2.8295127245,9.0017986212,2.0183458631,231
81795,197702,232444,-2.8295127245,9.0017986212,2.0183458631,232
81940,197747,232500,-2.8295127245,9.0017986212,2.0183458631,233
82102,197789,232552,-2.8295127245,9.0017986212,2.0183458631,234
82250,197845,232566,-2.8295127245,9.0017986212,2.0183458631,235
82416,197871,232618,-2.8295127245,9.0017986212,2.0183458631,236
82558,197932,232597,-2.8295127245,9.0017986212,2.0183458631,237
82720,198005,232712,-2.8295127245,9.0017986212,2.0183458631,238
82863,198004,232713,-2.8295127245,9.0017986212,2.0183458631,239
83005,198093,232750,-2.8295127245,9.0017986212,2.0183458631,240
83143,198110,232795,-2.8295127245,9.0017986212,2.0183458631,241
83265,198174,232821,-2.8295127245,9.0017986212,2.0183458631,242
83397,198195,232812,-2.8295127245,9.0017986212,2.0183458631,243
83533,198275,232834,-2.8295127245,9.0017986212,2.0183458631,244
83673,198327,232906,-2.8295127245,9.0017986212,2.0183458631,245
83782,198344,232918,-2.8295127245,9.0017986212,2.0183458631,246
83630,198322,232909,-2.8295127245,9.0017986212,2.0183458631,247
82927,198101,232799,-2.8295127245,9.0017986212,2.0183458631,248
82194,197818,232606,-2.8295127245,9.0017986212,2.0183458631,249
81752,197603,232507,-2.8295127245,9.0017986212,2.0183458631,250
81497,197469,232407,-2.8295127245,9.0017986212,2.0183458631,251
81339,197414,232373,-2.8295127245,9.0017986212,2.0183458631,252
81263,197384,232322,-2.8295127245,9.0017986212,2.0183458631,253
81282,197424,232370,-2.8295127245,9.0017986212,2.0183458631,254
81408,197486,232382,-2.8295127245,9.0017986212,2.0183458631,255
81502,197502,232401,-2.8295127245,9.0017986212,2.0183458631,256
81561,197561,232429,-2.8295127245,9.0017986212,2.0183458631,257
81571,197572,232484,-2.8295127245,9.0017986212,2.0183458631,258
81612,197590,232454,-2.8295127245,9.0017986212,2.0183458631,259
81696,197640,232448,-2.8295127245,9.0017986212,2.0183458631,260
81804,197640,232485,-2.8295127245,9.0017986212,2.0183458631,261
81950,197700,232543,-2.8809584104000003,9.1118684608,2.0757736055,262
82085,197778,232581,-2.8809584104000003,9.1118684608,2.0757736055,263
82238,197788,232631,-2.8809584104000003,9.1118684608,2.0757736055,264
82399,197873,232629,-2.8809584104000003,9.1118684608,2.0757736055,265
82534,197887,232637,-2.8809584104000003,9.1118684608,2.0757736055,266
82695,197961,232692,-2.8809584104000003,9.1118684608,2.0757736055,267
82815,198027,232701,-2.8809584104000003,9.1118684608,2.0757736055,268
82951,198053,232749,-2.8809584104000003,9.1118684608,2.0757736055,269
83073,198101,232754,-2.8809584104000003,9.1118684608,2.0757736055,270
83194,198116,232776,-2.8809584104000003,9.1118684608,2.0757736055,271
83338,198200,232819,-2.8809584104000003,9.1118684608,2.0757736055,272
83411,198197,232818,-2.8809584104000003,9.1118684608,2.0757736055,273
83122,198105,232788,-2.8809584104000003,9.1118684608,2.0757736055,274
82306,197824,232681,-2.8809584104000003,9.1118684608,2.0757736055,275
81646,197560,232495,-2.8809584104000003,9.1118684608,2.0757736055,276
81250,197386,232381,-2.8809584104000003,9.1118684608,2.0757736055,277
81005,197248,232329,-2.8809584104000003,9.1118684608,2.0757736055,278
80818,197194,232274,-2.8809584104000003,9.1118684608,2.0757736055,279
80722,197170,232191,-2.8809584104000003,9.1118684608,2.0757736055,280
80771,197178,232201,-2.8809584104000003,9.1118684608,2.0757736055,281
80877,197263,232252,-2.8809584104000003,9.1118684608,2.0757736055,282
80964,197320,232311,-2.8809584104000003,9.1118684608,2.0757736055,283
81024,197354,232345,-2.8809584104000003,9.1118684608,2.0757736055,284
81079,197412,232319,-2.8809584104000003,9.1118684608,2.0757736055,285
81166,197442,232371,-2.8809584104000003,9.1118684608,2.0757736055,286
81274,197475,232364,-2.8809584104000003,9.1118684608,2.0757736055,287
81403,197518,232385,-2.8809584104000003,9.1118684608,2.0757736055,288
81562,197539,232426,-2.8809584104000003,9.1118684608,2.0757736055,289
81725,197620,232473,-2.8809584104000003,9.1118684608,2.0757736055,290
81884,197657,232551,-2.8809584104000003,9.1118684608,2.0757736055,291
82067,197719,232567,-2.8809584104000003,9.1118684608,2.0757736055,292
82236,197792,232611,-2.8809584104000003,9.1118684608,2.0757736055,293
82415,197828,232604,-2.8809584104000003,9.1118684608,2.0757736055,294
82546,197903,232698,-2.8809584104000003,9.1118684608,2.0757736055,295
82691,197949,232683,-2.8809584104000003,9.1118684608,2.0757736055,296
82834,197998,232734,-2.8809584104000003,9.1118684608,2.0757736055,297
82992,198047,232731,-2.8809584104000003,9.1118684608,2.0757736055,298
83135,198099,232812,-2.8809584104000003,9.1118684608,2.0757736055,299
83279,198153,232839,-2.8809584104000003,9.1118684608,2.0757736055,300
83437,198156,232867,-2.8809584104000003,9.1118684608,2.0757736055,301
83564,198239,232841,-2.8809584104000003,9.1118684608,2.0757736055,302
83549,198244,232870,-2.8809584104000003,9.1118684608,2.0757736055,303
83489,198096,232819,-2.8007988533,9.1070828156,2.1966111468,304
83595,198151,232833,-2.8007988533,9.1070828156,2.1966111468,305
83743,198227,232871,-2.8007988533,9.1070828156,2.1966111468,306
83847,198233,232884,-2.8007988533,9.1070828156,2.1966111468,307
83791,198223,232889,-2.8007988533,9.1070828156,2.1966111468,308
83168,198046,232743,-2.8007988533,9.1070828156,2.1966111468,309
82355,197759,232561,-2.8007988533,9.1070828156,2.1966111468,310
81816,197501,232515,-2.8007988533,9.1070828156,2.1966111468,311
81529,197395,232389,-2.8007988533,9.1070828156,2.1966111468,312
81348,197337,232360,-2.8007988533,9.1070828156,2.1966111468,313
81226,197281,232296,-2.8007988533,9.1070828156,2.1966111468,314
81242,197289,232324,-2.8007988533,9.1070828156,2.1966111468,315
81318,197354,232376,-2.8007988533,9.1070828156,2.1966111468,316
81378,197407,232353,-2.8007988533,9.1070828156,2.1966111468,317
81399,197464,232409,-2.8007988533,9.1070828156,2.1966111468,318
81424,197471,232390,-2.8007988533,9.1070828156,2.1966111468,319
81463,197527,232418,-2.8007988533,9.1070828156,2.1966111468,320
81520,197520,232414,-2.8007988533,9.1070828156,2.1966111468,321
81625,197564,232457,-2.8007988533,9.1070828156,2.1966111468,322
81733,197614,232498,-2.8007988533,9.1070828156,2.1966111468,323
81867,197652,232556,-2.8007988533,9.1070828156,2.1966111468,324
82028,197725,232573,-2.8007988533,9.1070828156,2.1966111468,325
82171,197750,232579,-2.8007988533,9.1070828156,2.1966111468,326
82326,197783,232616,-2.8007988533,9.1070828156,2.1966111468,327
82462,197857,232649,-2.8007988533,9.1070828156,2.1966111468,328
82602,197889,232653,-2.8007988533,9.1070828156,2.1966111468,329
82739,197950,232688,-2.8007988533,9.1070828156,2.1966111468,330
82862,197999,232715,-2.8007988533,9.1070828156,2.1966111468,331
83002,198046,232733,-2.8007988533,9.1070828156,2.1966111468,332
83148,198055,232785,-2.8007988533,9.1070828156,2.1966111468,333
83285,198091,232806,-2.8007988533,9.1070828156,2.1966111468,334
83316,198130,232794,-2.8007988533,9.1070828156,2.1966111468,335
82808,198011,232725,-2.8007988533,9.1070828156,2.1966111468,336
81937,197686,232570,-2.8007988533,9.1070828156,2.1966111468,337
81297,197393,232456,-2.8007988533,9.1070828156,2.1966111468,338
80892,197169,232287,-2.8007988533,9.1070828156,2.1966111468,339
80593,197071,232195,-2.8007988533,9.1070828156,2.1966111468,340
80365,196973,232143,-2.8007988533,9.1070828156,2.1966111468,341
80251,196944,232104,-2.8007988533,9.1070828156,2.1966111468,342
80271,196981,232149,-2.8007988533,9.1070828156,2.1966111468,343
80369,197070,232192,-2.8007988533,9.1070828156,2.1966111468,344
80423,197139,232174,-2.8007988533,9.1070828156,2.1966111468,345
81309,197428,232284,-2.9802605483,9.1872423727,1.9298114269,346
81454,197498,232340,-2.9802605483,9.1872423727,1.9298114269,347
81602,197534,232321,-2.9802605483,9.1872423727,1.9298114269,348
81740,197596,232350,-2.9802605483,9.1872423727,1.9298114269,349
81890,197647,232415,-2.9802605483,9.1872423727,1.9298114269,350
82045,197710,232438,-2.9802605483,9.1872423727,1.9298114269,351
82191,197734,232471,-2.9802605483,9.1872423727,1.9298114269,352
82328,197773,232509,-2.9802605483,9.1872423727,1.9298114269,353
82493,197854,232585,-2.9802605483,9.1872423727,1.9298114269,354
82638,197890,232568,-2.9802605483,9.1872423727,1.9298114269,355
82564,197905,232521,-2.9802605483,9.1872423727,1.9298114269,356
82012,197661,232414,-2.9802605483,9.1872423727,1.9298114269,357
81356,197415,232283,-2.9802605483,9.1872423727,1.9298114269,358
80963,197227,232165,-2.9802605483,9.1872423727,1.9298114269,359
80766,197129,232118,-2.9802605483,9.1872423727,1.9298114269,360
80631,197068,232067,-2.9802605483,9.1872423727,1.9298114269,361
80603,197031,232046,-2.9802605483,9.1872423727,1.9298114269,362
80669,197042,232036,-2.9802605483,9.1872423727,1.9298114269,363
80825,197156,232085,-2.9802605483,9.1872423727,1.9298114269,364
80942,197213,232153,-2.9802605483,9.1872423727,1.9298114269,365
80995,197249,232167,-2.9802605483,9.1872423727,1.9298114269,366
81067,197278,232139,-2.9802605483,9.1872423727,1.9298114269,367
81119,197299,232213,-2.9802605483,9.1872423727,1.9298114269,368
81198,197351,232186,-2.9802605483,9.1872423727,1.9298114269,369
81314,197339,232242,-2.9802605483,9.1872423727,1.9298114269,370
81432,197383,232225,-2.9802605483,9.1872423727,1.9298114269,371
81572,197466,232271,-2.9802605483,9.1872423727,1.9298114269,372
81730,197486,232292,-2.9802605483,9.1872423727,1.9298114269,373
81872,197528,232352,-2.9802605483,9.1872423727,1.9298114269,374
82036,197570,232408,-2.9802605483,9.1872423727,1.9298114269,375
82188,197651,232424,-2.9802605483,9.1872423727,1.9298114269,376
82320,197711,232422,-2.9802605483,9.1872423727,1.9298114269,377
82472,197734,232469,-2.9802605483,9.1872423727,1.9298114269,378
82614,197833,232536,-2.9802605483,9.1872423727,1.9298114269,379
82748,197854,232516,-2.9802605483,9.1872423727,1.9298114269,380
82881,197904,232569,-2.9802605483,9.1872423727,1.9298114269,381
83033,197958,232562,-2.9802605483,9.1872423727,1.9298114269,382
83158,197982,232615,-2.9802605483,9.1872423727,1.9298114269,383
83041,197956,232621,-2.9802605483,9.1872423727,1.9298114269,384
82413,197723,232452,-2.9802605483,9.1872423727,1.9298114269,385
81666,197459,232330,-2.9802605483,9.1872423727,1.9298114269,386
81177,197217,232195,-2.9802605483,9.1872423727,1.9298114269,387
82103,197628,232438,-2.8438696600999998,9.0735832992,1.962114532,388
82264,197659,232451,-2.8438696600999998,9.0735832992,1.962114532,389
82424,197746,232417,-2.8438696600999998,9.0735832992,1.962114532,390
82561,197768,232490,-2.8438696600999998,9.0735832992,1.962114532,391
82720,197832,232523,-2.8438696600999998,9.0735832992,1.962114532,392
82862,197918,232528,-2.8438696600999998,9.0735832992,1.962114532,393
83018,197932,232574,-2.8438696600999998,9.0735832992,1.962114532,394
83153,198015,232615,-2.8438696600999998,9.0735832992,1.962114532,395
83295,198042,232599,-2.8438696600999998,9.0735832992,1.962114532,396
83271,198007,232602,-2.8438696600999998,9.0735832992,1.962114532,397
82739,197865,232512,-2.8438696600999998,9.0735832992,1.962114532,398
81987,197588,232394,-2.8438696600999998,9.0735832992,1.962114532,399
81495,197346,232228,-2.8438696600999998,9.0735832992,1.962114532,400
81215,197210,232137,-2.8438696600999998,9.0735832992,1.962114532,401
81037,197102,232077,-2.8438696600999998,9.0735832992,1.962114532,402
80978,197084,232089,-2.8438696600999998,9.0735832992,1.962114532,403
81026,197059,232044,-2.8438696600999998,9.0735832992,1.962114532,404
81144,197138,232084,-2.8438696600999998,9.0735832992,1.962114532,405
81297,197206,232118,-2.8438696600999998,9.0735832992,1.962114532,406
81367,197241,232181,-2.8438696600999998,9.0735832992,1.962114532,407
81430,197323,232175,-2.8438696600999998,9.0735832992,1.962114532,408
81491,197333,232240,-2.8438696600999998,9.0735832992,1.962114532,409
81600,197339,232190,-2.8438696600999998,9.0735832992,1.962114532,410
81695,197370,232258,-2.8438696600999998,9.0735832992,1.962114532,411
81839,197455,232308,-2.8438696600999998,9.0735832992,1.962114532,412
81995,197507,232309,-2.8438696600999998,9.0735832992,1.962114532,413
82158,197534,232283,-2.8438696600999998,9.0735832992,1.962114532,414
82327,197601,232373,-2.8438696600999998,9.0735832992,1.962114532,415
82495,197642,232451,-2.8438696600999998,9.0735832992,1.962114532,416
82655,197707,232476,-2.8438696600999998,9.0735832992,1.962114532,417
82822,197764,232503,-2.8438696600999998,9.0735832992,1.962114532,418
82983,197818,232557,-2.8438696600999998,9.0735832992,1.962114532,419
83122,197906,232570,-2.8438696600999998,9.0735832992,1.962114532,420
83263,197951,232604,-2.8438696600999998,9.0735832992,1.962114532,421
83390,197998,232630,-2.8438696600999998,9.0735832992,1.962114532,422
83524,198015,232612,-2.8438696600999998,9.0735832992,1.962114532,423
83587,198074,232640,-2.8438696600999998,9.0735832992,1.962114532,424
83228,197959,232621,-2.8438696600999998,9.0735832992,1.962114532,425
82482,197719,232435,-2.8438696600999998,9.0735832992,1.962114532,426
81924,197472,232313,-2.8438696600999998,9.0735832992,1.962114532,427
81646,197274,232207,-2.8438696600999998,9.0735832992,1.962114532,428
81508,197169,232193,-2.8438696600999998,9.0735832992,1.962114532,429
83743,197995,232682,-2.75174599,9.1549392676,2.0147566292,430
82995,197728,232479,-2.75174599,9.1549392676,2.0147566292,431
82401,197469,232347,-2.75174599,9.1549392676,2.0147566292,432
82092,197312,232262,-2.75174599,9.1549392676,2.0147566292,433
81884,197218,232221,-2.75174599,9.1549392676,2.0147566292,434
81812,197170,232192,-2.75174599,9.1549392676,2.0147566292,435
81803,197186,232194,-2.75174599,9.1549392676,2.0147566292,436
81907,197283,232190,-2.75174599,9.1549392676,2.0147566292,437
82017,197311,232221,-2.75174599,9.1549392676,2.0147566292,438
82076,197390,232258,-2.75174599,9.1549392676,2.0147566292,439
82079,197377,232293,-2.75174599,9.1549392676,2.0147566292,440
82139,197425,232259,-2.75174599,9.1549392676,2.0147566292,441
82189,197436,232301,-2.75174599,9.1549392676,2.0147566292,442
82268,197465,232356,-2.75174599,9.1549392676,2.0147566292,443
82381,197492,232363,-2.75174599,9.1549392676,2.0147566292,444
82500,197552,232414,-2.75174599,9.1549392676,2.0147566292,445
82637,197610,232377,-2.75174599,9.1549392676,2.0147566292,446
82809,197676,232424,-2.75174599,9.1549392676,2.0147566292,447
82945,197680,232451,-2.75174599,9.1549392676,2.0147566292,448
83098,197771,232496,-2.75174599,9.1549392676,2.0147566292,449
83242,197829,232543,-2.75174599,9.1549392676,2.0147566292,450
83363,197850,232538,-2.75174599,9.1549392676,2.0147566292,451
83498,197885,232589,-2.75174599,9.1549392676,2.0147566292,452
83611,197915,232615,-2.75174599,9.1549392676,2.0147566292,453
83413,197862,232596,-2.75174599,9.1549392676,2.0147566292,454
82697,197598,232463,-2.75174599,9.1549392676,2.0147566292,455
81991,197348,232248,-2.75174599,9.1549392676,2.0147566292,456
81558,197142,232157,-2.75174599,9.1549392676,2.0147566292,457
81257,197029,232040,-2.75174599,9.1549392676,2.0147566292,458
81076,196953,232066,-2.75174599,9.1549392676,2.0147566292,459
80950,196935,232036,-2.75174599,9.1549392676,2.0147566292,460
80964,196962,232036,-2.75174599,9.1549392676,2.0147566292,461
81087,197009,232056,-2.75174599,9.1549392676,2.0147566292,462
81192,197083,232120,-2.75174599,9.1549392676,2.0147566292,463
81247,197141,232132,-2.75174599,9.1549392676,2.0147566292,464
81289,197168,232205,-2.75174599,9.1549392676,2.0147566292,465
81355,197183,232181,-2.75174599,9.1549392676,2.0147566292,466
81432,197217,232185,-2.75174599,9.1549392676,2.0147566292,467
81556,197259,232152,-2.75174599,9.1549392676,2.0147566292,468
81702,197295,232274,-2.75174599,9.1549392676,2.0147566292,469
81840,197374,232254,-2.75174599,9.1549392676,2.0147566292,470
81956,197440,232339,-2.75174599,9.1549392676,2.0147566292,471
85009,200060,233488,-2.7948167968,9.1118684608,2.1379869930999997,472
85105,200057,233459,-2.7948167968,9.1118684608,2.1379869930999997,473
85210,200087,233474,-2.7948167968,9.1118684608,2.1379869930999997,474
85331,200140,233505,-2.7948167968,9.1118684608,2.1379869930999997,475
85386,200144,233485,-2.7948167968,9.1118684608,2.1379869930999997,476
85140,200125,233486,-2.7948167968,9.1118684608,2.1379869930999997,477
84364,199976,233461,-2.7948167968,9.1118684608,2.1379869930999997,478
83629,199812,233352,-2.7948167968,9.1118684608,2.1379869930999997,479
83191,199719,233262,-2.7948167968,9.1118684608,2.1379869930999997,480
82979,199602,233209,-2.7948167968,9.1118684608,2.1379869930999997,481
82847,199561,233217,-2.7948167968,9.1118684608,2.1379869930999997,482
82816,199495,233162,-2.7948167968,9.1118684608,2.1379869930999997,483
82899,199498,233122,-2.7948167968,9.1118684608,2.1379869930999997,484
83060,199524,233152,-2.7948167968,9.1118684608,2.1379869930999997,485
83184,199535,233158,-2.7948167968,9.1118684608,2.1379869930999997,486
83219,199510,233138,-2.7948167968,9.1118684608,2.1379869930999997,487
83235,199499,233141,-2.7948167968,9.1118684608,2.1379869930999997,488
83262,199473,233137,-2.7948167968,9.1118684608,2.1379869930999997,489
83309,199490,233198,-2.7948167968,9.1118684608,2.1379869930999997,490
83393,199480,233156,-2.7948167968,9.1118684608,2.1379869930999997,491
83516,199490,233187,-2.7948167968,9.1118684608,2.1379869930999997,492
83644,199510,233209,-2.7948167968,9.1118684608,2.1379869930999997,493
83792,199602,233263,-2.7948167968,9.1118684608,2.1379869930999997,494
83905,199591,233257,-2.7948167968,9.1118684608,2.1379869930999997,495
84019,199632,233265,-2.7948167968,9.1118684608,2.1379869930999997,496
84143,199647,233240,-2.7948167968,9.1118684608,2.1379869930999997,497
84233,199674,233267,-2.7948167968,9.1118684608,2.1379869930999997,498
84370,199728,233294,-2.7948167968,9.1118684608,2.1379869930999997,499
84495,199752,233316,-2.7948167968,9.1118684608,2.1379869930999997,500
84598,199767,233310,-2.7948167968,9.1118684608,2.1379869930999997,501
84710,199770,233339,-2.7948167968,9.1118684608,2.1379869930999997,502
84782,199808,233322,-2.7948167968,9.1118684608,2.1379869930999997,503
84902,199829,233405,-2.7948167968,9.1118684608,2.1379869930999997,504
84986,199867,233384,-2.7948167968,9.1118684608,2.1379869930999997,505
84740,199820,233364,-2.7948167968,9.1118684608,2.1379869930999997,506
83980,199680,233283,-2.7948167968,9.1118684608,2.1379869930999997,507
83262,199529,233207,-2.7948167968,9.1118684608,2.1379869930999997,508
82834,199339,233110,-2.7948167968,9.1118684608,2.1379869930999997,509
82644,199202,233060,-2.7948167968,9.1118684608,2.1379869930999997,510
82554,199109,233002,-2.7948167968,9.1118684608,2.1379869930999997,511
82563,199036,232986,-2.7948167968,9.1118684608,2.1379869930999997,512
82680,199053,232981,-2.7948167968,9.1118684608,2.1379869930999997,513
83376,198277,232609,-2.6237299809,9.1680997919,2.0147566292,514
83528,198345,232640,-2.6237299809,9.1680997919,2.0147566292,515
83668,198387,232680,-2.6237299809,9.1680997919,2.0147566292,516
83804,198421,232685,-2.6237299809,9.1680997919,2.0147566292,517
83935,198436,232684,-2.6237299809,9.1680997919,2.0147566292,518
84030,198468,232717,-2.6237299809,9.1680997919,2.0147566292,519
83705,198426,232687,-2.6237299809,9.1680997919,2.0147566292,520
82904,198150,232539,-2.6237299809,9.1680997919,2.0147566292,521
82219,197895,232393,-2.6237299809,9.1680997919,2.0147566292,522
81814,197677,232253,-2.6237299809,9.1680997919,2.0147566292,523
81585,197530,232167,-2.6237299809,9.1680997919,2.0147566292,524
81427,197475,232175,-2.6237299809,9.1680997919,2.0147566292,525
81367,197435,232101,-2.6237299809,9.1680997919,2.0147566292,526
81400,197429,232116,-2.6237299809,9.1680997919,2.0147566292,527
81527,197511,232138,-2.6237299809,9.1680997919,2.0147566292,528
81644,197543,232179,-2.6237299809,9.1680997919,2.0147566292,529
81710,197611,232200,-2.6237299809,9.1680997919,2.0147566292,530
81753,197622,232234,-2.6237299809,9.1680997919,2.0147566292,531
81832,197608,232193,-2.6237299809,9.1680997919,2.0147566292,532
81886,197657,232211,-2.6237299809,9.1680997919,2.0147566292,533
82008,197685,232258,-2.6237299809,9.1680997919,2.0147566292,534
82145,197724,232264,-2.6237299809,9.1680997919,2.0147566292,535
82302,197804,232282,-2.6237299809,9.1680997919,2.0147566292,536
82458,197850,232379,-2.6237299809,9.1680997919,2.0147566292,537
82622,197944,232362,-2.6237299809,9.1680997919,2.0147566292,538
82756,197935,232404,-2.6237299809,9.1680997919,2.0147566292,539
82870,197983,232451,-2.6237299809,9.1680997919,2.0147566292,540
83040,198065,232463,-2.6237299809,9.1680997919,2.0147566292,541
83182,198084,232498,-2.6237299809,9.1680997919,2.0147566292,542
83311,198181,232557,-2.6237299809,9.1680997919,2.0147566292,543
83461,198214,232571,-2.6237299809,9.1680997919,2.0147566292,544
83618,198249,232624,-2.6237299809,9.1680997919,2.0147566292,545
83760,198293,232645,-2.6237299809,9.1680997919,2.0147566292,546
83909,198323,232652,-2.6237299809,9.1680997919,2.0147566292,547
84052,198396,232680,-2.6237299809,9.1680997919,2.0147566292,548
84167,198421,232680,-2.6237299809,9.1680997919,2.0147566292,549
84014,198381,232697,-2.6237299809,9.1680997919,2.0147566292,550
83268,198160,232601,-2.6237299809,9.1680997919,2.0147566292,551
82477,197869,232425,-2.6237299809,9.1680997919,2.0147566292,552
82013,197643,232291,-2.6237299809,9.1680997919,2.0147566292,553
81743,197490,232144,-2.6237299809,9.1680997919,2.0147566292,554
81584,197372,232150,-2.6237299809,9.1680997919,2.0147566292,555
83397,198107,232537,-2.6907290137,9.1118684608,2.1379869930999997,556
83546,198143,232591,-2.6907290137,9.1118684608,2.1379869930999997,557
83681,198216,232632,-2.6907290137,9.1118684608,2.1379869930999997,558
83782,198278,232672,-2.6907290137,9.1118684608,2.1379869930999997,559
83921,198297,232665,-2.6907290137,9.1118684608,2.1379869930999997,560
83861,198298,232679,-2.6907290137,9.1118684608,2.1379869930999997,561
83260,198113,232551,-2.6907290137,9.1118684608,2.1379869930999997,562
82474,197810,232445,-2.6907290137,9.1118684608,2.1379869930999997,563
81969,197574,232269,-2.6907290137,9.1118684608,2.1379869930999997,564
81716,197463,232180,-2.6907290137,9.1118684608,2.1379869930999997,565
81594,197362,232186,-2.6907290137,9.1118684608,2.1379869930999997,566
81537,197369,232125,-2.6907290137,9.1118684608,2.1379869930999997,567
81561,197409,232156,-2.6907290137,9.1118684608,2.1379869930999997,568
81679,197457,232170,-2.6907290137,9.1118684608,2.1379869930999997,569
81789,197489,232243,-2.6907290137,9.1118684608,2.1379869930999997,570
81833,197550,232213,-2.6907290137,9.1118684608,2.1379869930999997,571
81856,197567,232241,-2.6907290137,9.1118684608,2.1379869930999997,572
81916,197594,232222,-2.6907290137,9.1118684608,2.1379869930999997,573
81989,197613,232269,-2.6907290137,9.1118684608,2.1379869930999997,574
82059,197638,232258,-2.6907290137,9.1118684608,2.1379869930999997,575
82178,197693,232318,-2.6907290137,9.1118684608,2.1379869930999997,576
82325,197742,232336,-2.6907290137,9.1118684608,2.1379869930999997,577
82466,197766,232378,-2.6907290137,9.1118684608,2.1379869930999997,578
82586,197799,232410,-2.6907290137,9.1118684608,2.1379869930999997,579
82715,197892,232440,-2.6907290137,9.1118684608,2.1379869930999997,580
82847,197914,232434,-2.6907290137,9.1118684608,2.1379869930999997,581
82963,197966,232513,-2.6907290137,9.1118684608,2.1379869930999997,582
83112,198021,232566,-2.6907290137,9.1118684608,2.1379869930999997,583
83226,198062,232555,-2.6907290137,9.1118684608,2.1379869930999997,584
83365,198088,232569,-2.6907290137,9.1118684608,2.1379869930999997,585
83490,198135,232607,-2.6907290137,9.1118684608,2.1379869930999997,586
83564,198184,232603,-2.6907290137,9.1118684608,2.1379869930999997,587
83244,198091,232557,-2.6907290137,9.1118684608,2.1379869930999997,588
82428,197840,232440,-2.6907290137,9.1118684608,2.1379869930999997,589
81705,197517,232266,-2.6907290137,9.1118684608,2.1379869930999997,590
81286,197318,232160,-2.6907290137,9.1118684608,2.1379869930999997,591
81013,197148,232012,-2.6907290137,9.1118684608,2.1379869930999997,592
80817,197089,232024,-2.6907290137,9.1118684608,2.1379869930999997,593
80690,197036,231965,-2.6907290137,9.1118684608,2.1379869930999997,594
80677,197055,231977,-2.6907290137,9.1118684608,2.1379869930999997,595
80771,197148,231977,-2.6907290137,9.1118684608,2.1379869930999997,596
80896,197170,232016,-2.6907290137,9.1118684608,2.1379869930999997,597
83066,197949,232515,-2.7098715945,9.1585285015,2.0434705004000002,598
82801,197907,232481,-2.7098715945,9.1585285015,2.0434705004000002,599
82054,197659,232344,-2.7098715945,9.1585285015,2.0434705004000002,600
81332,197391,232205,-2.7098715945,9.1585285015,2.0434705004000002,601
80890,197196,232047,-2.7098715945,9.1585285015,2.0434705004000002,602
80583,197084,232004,-2.7098715945,9.1585285015,2.0434705004000002,603
80357,197037,231954,-2.7098715945,9.1585285015,2.0434705004000002,604
80240,196998,231934,-2.7098715945,9.1585285015,2.0434705004000002,605
80194,197021,231988,-2.7098715945,9.1585285015,2.0434705004000002,606
80324,197121,231982,-2.7098715945,9.1585285015,2.0434705004000002,607
80422,197173,232021,-2.7098715945,9.1585285015,2.0434705004000002,608
80507,197215,232061,-2.7098715945,9.1585285015,2.0434705004000002,609
80563,197280,232078,-2.7098715945,9.1585285015,2.0434705004000002,610
80608,197290,232097,-2.7098715945,9.1585285015,2.0434705004000002,611
80685,197380,232120,-2.7098715945,9.1585285015,2.0434705004000002,612
80776,197415,232143,-2.7098715945,9.1585285015,2.0434705004000002,613
80880,197489,232169,-2.7098715945,9.1585285015,2.0434705004000002,614
81019,197552,232248,-2.7098715945,9.1585285015,2.0434705004000002,615
81167,197585,232233,-2.7098715945,9.1585285015,2.0434705004000002,616
81308,197683,232326,-2.7098715945,9.1585285015,2.0434705004000002,617
81448,197770,232385,-2.7098715945,9.1585285015,2.0434705004000002,618
81588,197838,232355,-2.7098715945,9.1585285015,2.0434705004000002,619
81751,197903,232423,-2.7098715945,9.1585285015,2.0434705004000002,620
81879,197977,232506,-2.7098715945,9.1585285015,2.0434705004000002,621
82026,198063,232502,-2.7098715945,9.1585285015,2.0434705004000002,622
82170,198117,232549,-2.7098715945,9.1585285015,2.0434705004000002,623
82317,198176,232586,-2.7098715945,9.1585285015,2.0434705004000002,624
82466,198258,232631,-2.7098715945,9.1585285015,2.0434705004000002,625
82563,198304,232646,-2.7098715945,9.1585285015,2.0434705004000002,626
82294,198285,232622,-2.7098715945,9.1585285015,2.0434705004000002,627
81550,198124,232484,-2.7098715945,9.1585285015,2.0434705004000002,628
80777,197961,232411,-2.7098715945,9.1585285015,2.0434705004000002,629
80311,197811,232320,-2.7098715945,9.1585285015,2.0434705004000002,630
80026,197726,232245,-2.7098715945,9.1585285015,2.0434705004000002,631
79853,197722,232237,-2.7098715945,9.1585285015,2.0434705004000002,632
79789,197732,232227,-2.7098715945,9.1585285015,2.0434705004000002,633
79857,197768,232260,-2.7098715945,9.1585285015,2.0434705004000002,634
79964,197900,232277,-2.7098715945,9.1585285015,2.0434705004000002,635
80059,197916,232298,-2.7098715945,9.1585285015,2.0434705004000002,636
80098,197955,232333,-2.7098715945,9.1585285015,2.0434705004000002,637
80109,198003,232355,-2.7098715945,9.1585285015,2.0434705004000002,638
80136,198037,232364,-2.7098715945,9.1585285015,2.0434705004000002,639
81630,199331,232948,-2.8331019584000003,9.0029950325,2.1188444122999996,640
81080,199232,232849,-2.8331019584000003,9.0029950325,2.1188444122999996,641
80707,199166,232826,-2.8331019584000003,9.0029950325,2.1188444122999996,642
80521,199079,232798,-2.8331019584000003,9.0029950325,2.1188444122999996,643
80435,199060,232811,-2.8331019584000003,9.0029950325,2.1188444122999996,644
80462,199064,232808,-2.8331019584000003,9.0029950325,2.1188444122999996,645
80602,199058,232793,-2.8331019584000003,9.0029950325,2.1188444122999996,646
80802,199108,232858,-2.8331019584000003,9.0029950325,2.1188444122999996,647
80960,199134,232762,-2.8331019584000003,9.0029950325,2.1188444122999996,648
81037,199171,232815,-2.8331019584000003,9.0029950325,2.1188444122999996,649
81132,199190,232799,-2.8331019584000003,9.0029950325,2.1188444122999996,650
81220,199208,232824,-2.8331019584000003,9.0029950325,2.1188444122999996,651
81317,199211,232828,-2.8331019584000003,9.0029950325,2.1188444122999996,652
81419,199260,232879,-2.8331019584000003,9.0029950325,2.1188444122999996,653
81553,199286,232915,-2.8331019584000003,9.0029950325,2.1188444122999996,654
81705,199313,232879,-2.8331019584000003,9.0029950325,2.1188444122999996,655
81856,199371,232958,-2.8331019584000003,9.0029950325,2.1188444122999996,656
82024,199416,232977,-2.8331019584000003,9.0029950325,2.1188444122999996,657
82156,199463,233010,-2.8331019584000003,9.0029950325,2.1188444122999996,658
82283,199496,233009,-2.8331019584000003,9.0029950325,2.1188444122999996,659
82414,199532,233026,-2.8331019584000003,9.0029950325,2.1188444122999996,660
82529,199577,233065,-2.8331019584000003,9.0029950325,2.1188444122999996,661
82675,199605,233072,-2.8331019584000003,9.0029950325,2.1188444122999996,662
82778,199654,233100,-2.8331019584000003,9.0029950325,2.1188444122999996,663
82895,199700,233132,-2.8331019584000003,9.0029950325,2.1188444122999996,664
83013,199695,233123,-2.8331019584000003,9.0029950325,2.1188444122999996,665
83130,199762,233110,-2.8331019584000003,9.0029950325,2.1188444122999996,666
83156,199786,233155,-2.8331019584000003,9.0029950325,2.1188444122999996,667
82737,199711,233090,-2.8331019584000003,9.0029950325,2.1188444122999996,668
82010,199620,233012,-2.8331019584000003,9.0029950325,2.1188444122999996,669
81395,199493,232990,-2.8331019584000003,9.0029950325,2.1188444122999996,670
80979,199365,232881,-2.8331019584000003,9.0029950325,2.1188444122999996,671
80808,199335,232868,-2.8331019584000003,9.0029950325,2.1188444122999996,672
80749,199298,232851,-2.8331019584000003,9.0029950325,2.1188444122999996,673
80815,199301,232884,-2.8331019584000003,9.0029950325,2.1188444122999996,674
81023,199310,232902,-2.8331019584000003,9.0029950325,2.1188444122999996,675
81241,199362,232870,-2.8331019584000003,9.0029950325,2.1188444122999996,676
81406,199340,232889,-2.8331019584000003,9.0029950325,2.1188444122999996,677
81504,199399,232899,-2.8331019584000003,9.0029950325,2.1188444122999996,678
81571,199384,232898,-2.8331019584000003,9.0029950325,2.1188444122999996,679
81643,199408,232943,-2.8331019584000003,9.0029950325,2.1188444122999996,680
81738,199438,232921,-2.8331019584000003,9.0029950325,2.1188444122999996,681
82259,199518,233016,-2.7230321187999995,9.09272588,2.0901305410999997,682
82408,199569,233009,-2.7230321187999995,9.09272588,2.0901305410999997,683
82532,199605,233063,-2.7230321187999995,9.09272588,2.0901305410999997,684
82681,199660,233055,-2.7230321187999995,9.09272588,2.0901305410999997,685
82826,199722,233097,-2.7230321187999995,9.09272588,2.0901305410999997,686
82951,199727,233097,-2.7230321187999995,9.09272588,2.0901305410999997,687
83052,199775,233120,-2.7230321187999995,9.09272588,2.0901305410999997,688
83174,199777,233143,-2.7230321187999995,9.09272588,2.0901305410999997,689
83303,199831,233128,-2.7230321187999995,9.09272588,2.0901305410999997,690
83384,199884,233098,-2.7230321187999995,9.09272588,2.0901305410999997,691
83167,199879,233102,-2.7230321187999995,9.09272588,2.0901305410999997,692
82474,199784,233057,-2.7230321187999995,9.09272588,2.0901305410999997,693
81771,199622,233076,-2.7230321187999995,9.09272588,2.0901305410999997,694
81351,199548,232970,-2.7230321187999995,9.09272588,2.0901305410999997,695
81204,199467,232934,-2.7230321187999995,9.09272588,2.0901305410999997,696
81205,199448,232950,-2.7230321187999995,9.09272588,2.0901305410999997,697
81306,199472,232919,-2.7230321187999995,9.09272588,2.0901305410999997,698
81505,199491,232961,-2.7230321187999995,9.09272588,2.0901305410999997,699
81724,199521,232983,-2.7230321187999995,9.09272588,2.0901305410999997,700
81864,199515,233012,-2.7230321187999995,9.09272588,2.0901305410999997,701
81952,199583,232976,-2.7230321187999995,9.09272588,2.0901305410999997,702
82021,199594,233023,-2.7230321187999995,9.09272588,2.0901305410999997,703
82091,199601,233026,-2.7230321187999995,9.09272588,2.0901305410999997,704
82181,199642,233024,-2.7230321187999995,9.09272588,2.0901305410999997,705
82314,199636,233081,-2.7230321187999995,9.09272588,2.0901305410999997,706
82458,199682,233080,-2.7230321187999995,9.09272588,2.0901305410999997,707
82608,199734,233125,-2.7230321187999995,9.09272588,2.0901305410999997,708
82745,199750,233131,-2.7230321187999995,9.09272588,2.0901305410999997,709
82912,199773,233137,-2.7230321187999995,9.09272588,2.0901305410999997,710
83056,199818,233143,-2.7230321187999995,9.09272588,2.0901305410999997,711
83232,199872,233170,-2.7230321187999995,9.09272588,2.0901305410999997,712
83380,199922,233200,-2.7230321187999995,9.09272588,2.0901305410999997,713
83526,199928,233205,-2.7230321187999995,9.09272588,2.0901305410999997,714
83682,199964,233183,-2.7230321187999995,9.09272588,2.0901305410999997,715
83819,200027,233223,-2.7230321187999995,9.09272588,2.0901305410999997,716
83949,200039,233238,-2.7230321187999995,9.09272588,2.0901305410999997,717
84110,200091,233308,-2.7230321187999995,9.09272588,2.0901305410999997,718
84255,200108,233276,-2.7230321187999995,9.09272588,2.0901305410999997,719
84166,200082,233271,-2.7230321187999995,9.09272588,2.0901305410999997,720
83597,200041,233226,-2.7230321187999995,9.09272588,2.0901305410999997,721
82849,199914,233160,-2.7230321187999995,9.09272588,2.0901305410999997,722
82373,199794,233132,-2.7230321187999995,9.09272588,2.0901305410999997,723
86105,200161,233330,-2.8187450228000004,9.206384953499999,2.0051853388,724
86303,200204,233380,-2.8187450228000004,9.206384953499999,2.0051853388,725
86438,200242,233400,-2.8187450228000004,9.206384953499999,2.0051853388,726
86610,200294,233452,-2.8187450228000004,9.206384953499999,2.0051853388,727
86734,200316,233435,-2.8187450228000004,9.206384953499999,2.0051853388,728
86611,200324,233413,-2.8187450228000004,9.206384953499999,2.0051853388,729
86032,200257,233374,-2.8187450228000004,9.206384953499999,2.0051853388,730
85372,200122,233313,-2.8187450228000004,9.206384953499999,2.0051853388,731
84963,199971,233266,-2.8187450228000004,9.206384953499999,2.0051853388,732
84779,199858,233295,-2.8187450228000004,9.206384953499999,2.0051853388,733
84706,199801,233217,-2.8187450228000004,9.206384953499999,2.0051853388,734
84770,199783,233190,-2.8187450228000004,9.206384953499999,2.0051853388,735
84932,199722,233166,-2.8187450228000004,9.206384953499999,2.0051853388,736
85147,199768,233094,-2.8187450228000004,9.206384953499999,2.0051853388,737
85361,199792,233144,-2.8187450228000004,9.206384953499999,2.0051853388,738
85529,199753,233240,-2.8187450228000004,9.206384953499999,2.0051853388,739
85647,199766,233165,-2.8187450228000004,9.206384953499999,2.0051853388,740
85776,199799,233168,-2.8187450228000004,9.206384953499999,2.0051853388,741
85878,199791,233180,-2.8187450228000004,9.206384953499999,2.0051853388,742
86037,199799,233193,-2.8187450228000004,9.206384953499999,2.0051853388,743
86207,199811,233199,-2.8187450228000004,9.206384953499999,2.0051853388,744
86358,199807,233247,-2.8187450228000004,9.206384953499999,2.0051853388,745
86509,199868,233272,-2.8187450228000004,9.206384953499999,2.0051853388,746
86663,199910,233222,-2.8187450228000004,9.206384953499999,2.0051853388,747
86804,199977,233286,-2.8187450228000004,9.206384953499999,2.0051853388,748
86933,199996,233350,-2.8187450228000004,9.206384953499999,2.0051853388,749
87065,200017,233326,-2.8187450228000004,9.206384953499999,2.0051853388,750
87183,200046,233365,-2.8187450228000004,9.206384953499999,2.0051853388,751
87312,200065,233341,-2.8187450228000004,9.206384953499999,2.0051853388,752
87434,200057,233326,-2.8187450228000004,9.206384953499999,2.0051853388,753
87546,200121,233360,-2.8187450228000004,9.206384953499999,2.0051853388,754
87652,200164,233435,-2.8187450228000004,9.206384953499999,2.0051853388,755
87759,200172,233425,-2.8187450228000004,9.206384953499999,2.0051853388,756
87865,200201,233439,-2.8187450228000004,9.206384953499999,2.0051853388,757
87962,200223,233455,-2.8187450228000004,9.206384953499999,2.0051853388,758
88070,200266,233445,-2.8187450228000004,9.206384953499999,2.0051853388,759
87982,200231,233435,-2.8187450228000004,9.206384953499999,2.0051853388,760
87462,200164,233395,-2.8187450228000004,9.206384953499999,2.0051853388,761
86733,200041,233378,-2.8187450228000004,9.206384953499999,2.0051853388,762
86189,199884,233243,-2.8187450228000004,9.206384953499999,2.0051853388,763
85851,199735,233153,-2.8187450228000004,9.206384953499999,2.0051853388,764
85636,199619,233101,-2.8187450228000004,9.206384953499999,2.0051853388,765
83497,199003,232743,-2.8103701436999997,9.1968136631,1.9956140484,766
83333,198939,232719,-2.8103701436999997,9.1968136631,1.9956140484,767
83316,198911,232636,-2.8103701436999997,9.1968136631,1.9956140484,768
83386,198946,232643,-2.8103701436999997,9.1968136631,1.9956140484,769
83453,198896,232638,-2.8103701436999997,9.1968136631,1.9956140484,770
83483,198917,232588,-2.8103701436999997,9.1968136631,1.9956140484,771
83506,198915,232685,-2.8103701436999997,9.1968136631,1.9956140484,772
83518,198955,232683,-2.8103701436999997,9.1968136631,1.9956140484,773
83558,198958,232662,-2.8103701436999997,9.1968136631,1.9956140484,774
83619,198993,232681,-2.8103701436999997,9.1968136631,1.9956140484,775
83745,198999,232698,-2.8103701436999997,9.1968136631,1.9956140484,776
83850,199008,232695,-2.8103701436999997,9.1968136631,1.9956140484,777
83971,199050,232725,-2.8103701436999997,9.1968136631,1.9956140484,778
84103,199109,232756,-2.8103701436999997,9.1968136631,1.9956140484,779
84237,199131,232785,-2.8103701436999997,9.1968136631,1.9956140484,780
84383,199167,232788,-2.8103701436999997,9.1968136631,1.9956140484,781
84503,199187,232809,-2.8103701436999997,9.1968136631,1.9956140484,782
84626,199236,232822,-2.8103701436999997,9.1968136631,1.9956140484,783
84748,199293,232866,-2.8103701436999997,9.1968136631,1.9956140484,784
84885,199312,232917,-2.8103701436999997,9.1968136631,1.9956140484,785
85000,199369,232882,-2.8103701436999997,9.1968136631,1.9956140484,786
85122,199397,232929,-2.8103701436999997,9.1968136631,1.9956140484,787
85241,199419,232948,-2.8103701436999997,9.1968136631,1.9956140484,788
85392,199436,232979,-2.8103701436999997,9.1968136631,1.9956140484,789
85505,199478,233023,-2.8103701436999997,9.1968136631,1.9956140484,790
85631,199516,233021,-2.8103701436999997,9.1968136631,1.9956140484,791
85739,199603,233034,-2.8103701436999997,9.1968136631,1.9956140484,792
85798,199610,233084,-2.8103701436999997,9.1968136631,1.9956140484,793
85431,199508,232964,-2.8103701436999997,9.1968136631,1.9956140484,794
84606,199339,232910,-2.8103701436999997,9.1968136631,1.9956140484,795
83928,199069,232784,-2.8103701436999997,9.1968136631,1.9956140484,796
83585,198883,232680,-2.8103701436999997,9.1968136631,1.9956140484,797
83404,198743,232612,-2.8103701436999997,9.1968136631,1.9956140484,798
83299,198666,232524,-2.8103701436999997,9.1968136631,1.9956140484,799
83285,198612,232489,-2.8103701436999997,9.1968136631,1.9956140484,800
83395,198624,232472,-2.8103701436999997,9.1968136631,1.9956140484,801
83558,198624,232493,-2.8103701436999997,9.1968136631,1.9956140484,802
83705,198644,232524,-2.8103701436999997,9.1968136631,1.9956140484,803
83790,198662,232555,-2.8103701436999997,9.1968136631,1.9956140484,804
83827,198663,232554,-2.8103701436999997,9.1968136631,1.9956140484,805
83897,198696,232524,-2.8103701436999997,9.1968136631,1.9956140484,806
84000,198699,232560,-2.8103701436999997,9.1968136631,1.9956140484,807
84195,198682,232657,-2.6285156261,9.1597249128,2.009970984,808
84288,198695,232644,-2.6285156261,9.1597249128,2.009970984,809
84415,198790,232754,-2.6285156261,9.1597249128,2.009970984,810
84527,198780,232734,-2.6285156261,9.1597249128,2.009970984,811
84638,198844,232732,-2.6285156261,9.1597249128,2.009970984,812
84750,198876,232741,-2.6285156261,9.1597249128,2.009970984,813
84568,198831,232706,-2.6285156261,9.1597249128,2.009970984,814
83761,198633,232622,-2.6285156261,9.1597249128,2.009970984,815
82894,198314,232459,-2.6285156261,9.1597249128,2.009970984,816
82339,198086,232369,-2.6285156261,9.1597249128,2.009970984,817
81980,197933,232250,-2.6285156261,9.1597249128,2.009970984,818
81750,197764,232197,-2.6285156261,9.1597249128,2.009970984,819
81555,197691,232127,-2.6285156261,9.1597249128,2.009970984,820
81516,197713,232134,-2.6285156261,9.1597249128,2.009970984,821
81580,197748,232112,-2.6285156261,9.1597249128,2.009970984,822
81719,197822,232142,-2.6285156261,9.1597249128,2.009970984,823
81765,197812,232148,-2.6285156261,9.1597249128,2.009970984,824
81800,197836,232140,-2.6285156261,9.1597249128,2.009970984,825
81846,197856,232153,-2.6285156261,9.1597249128,2.009970984,826
81916,197861,232222,-2.6285156261,9.1597249128,2.009970984,827
82017,197905,232228,-2.6285156261,9.1597249128,2.009970984,828
82144,197928,232207,-2.6285156261,9.1597249128,2.009970984,829
82257,197967,232252,-2.6285156261,9.1597249128,2.009970984,830
82421,198014,232305,-2.6285156261,9.1597249128,2.009970984,831
82549,198063,232294,-2.6285156261,9.1597249128,2.009970984,832
82687,198084,232356,-2.6285156261,9.1597249128,2.009970984,833
82820,198145,232364,-2.6285156261,9.1597249128,2.009970984,834
82959,198199,232415,-2.6285156261,9.1597249128,2.009970984,835
83109,198261,232412,-2.6285156261,9.1597249128,2.009970984,836
83265,198330,232454,-2.6285156261,9.1597249128,2.009970984,837
83395,198347,232480,-2.6285156261,9.1597249128,2.009970984,838
83558,198417,232501,-2.6285156261,9.1597249128,2.009970984,839
83701,198425,232507,-2.6285156261,9.1597249128,2.009970984,840
83836,198465,232584,-2.6285156261,9.1597249128,2.009970984,841
83972,198511,232591,-2.6285156261,9.1597249128,2.009970984,842
84118,198577,232628,-2.6285156261,9.1597249128,2.009970984,843
84161,198590,232600,-2.6285156261,9.1597249128,2.009970984,844
83703,198450,232569,-2.6285156261,9.1597249128,2.009970984,845
82858,198199,232414,-2.7888347403,9.1154576947,2.0291135648000003,846
82217,197904,232252,-2.7888347403,9.1154576947,2.0291135648000003,847
81892,197720,232189,-2.7888347403,9.1154576947,2.0291135648000003,848
81626,197590,232116,-2.7888347403,9.1154576947,2.0291135648000003,849
81507,197545,232009,-2.7888347403,9.1154576947,2.0291135648000003,850
81469,197528,232050,-2.7888347403,9.1154576947,2.0291135648000003,851
81566,197518,232044,-2.7888347403,9.1154576947,2.0291135648000003,852
81715,197606,232118,-2.7888347403,9.1154576947,2.0291135648000003,853
81807,197674,232095,-2.7888347403,9.1154576947,2.0291135648000003,854
81896,197666,232109,-2.7888347403,9.1154576947,2.0291135648000003,855
81927,197688,232161,-2.7888347403,9.1154576947,2.0291135648000003,856
81988,197711,232120,-2.7888347403,9.1154576947,2.0291135648000003,857
82074,197741,232185,-2.7888347403,9.1154576947,2.0291135648000003,858
82230,197745,232151,-2.7888347403,9.1154576947,2.0291135648000003,859
82366,197850,232218,-2.7888347403,9.1154576947,2.0291135648000003,860
82546,197896,232199,-2.7888347403,9.1154576947,2.0291135648000003,861
82674,197952,232263,-2.7888347403,9.1154576947,2.0291135648000003,862
82844,197971,232321,-2.7888347403,9.1154576947,2.0291135648000003,863
82987,198036,232299,-2.7888347403,9.1154576947,2.0291135648000003,864
83141,198077,232339,-2.7888347403,9.1154576947,2.0291135648000003,865
83298,198116,232410,-2.7888347403,9.1154576947,2.0291135648000003,866
83432,198169,232413,-2.7888347403,9.1154576947,2.0291135648000003,867
83587,198246,232491,-2.7888347403,9.1154576947,2.0291135648000003,868
83745,198262,232486,-2.7888347403,9.1154576947,2.0291135648000003,869
83876,198295,232492,-2.7888347403,9.1154576947,2.0291135648000003,870
84021,198343,232566,-2.7888347403,9.1154576947,2.0291135648000003,871
84158,198361,232559,-2.7888347403,9.1154576947,2.0291135648000003,872
84279,198442,232554,-2.7888347403,9.1154576947,2.0291135648000003,873
84059,198376,232571,-2.7888347403,9.1154576947,2.0291135648000003,874
83299,198118,232450,-2.7888347403,9.1154576947,2.0291135648000003,875
82600,197859,232316,-2.7888347403,9.1154576947,2.0291135648000003,876
82213,197660,232193,-2.7888347403,9.1154576947,2.0291135648000003,877
82023,197569,232109,-2.7888347403,9.1154576947,2.0291135648000003,878
81885,197486,232088,-2.7888347403,9.1154576947,2.0291135648000003,879
81843,197461,232049,-2.7888347403,9.1154576947,2.0291135648000003,880
81909,197504,232064,-2.7888347403,9.1154576947,2.0291135648000003,881
82047,197574,232071,-2.7888347403,9.1154576947,2.0291135648000003,882
82108,197632,232124,-2.7888347403,9.1154576947,2.0291135648000003,883
82180,197644,232126,-2.7888347403,9.1154576947,2.0291135648000003,884
82206,197669,232128,-2.7888347403,9.1154576947,2.0291135648000003,885
82243,197665,232152,-2.7888347403,9.1154576947,2.0291135648000003,886
82318,197717,232125,-2.7888347403,9.1154576947,2.0291135648000003,887
83796,198208,232463,-2.7278177639999996,9.1453679772,1.8616159827999998,888
83964,198250,232549,-2.7278177639999996,9.1453679772,1.8616159827999998,889
84075,198269,232569,-2.7278177639999996,9.1453679772,1.8616159827999998,890
84193,198336,232536,-2.7278177639999996,9.1453679772,1.8616159827999998,891
84112,198335,232537,-2.7278177639999996,9.1453679772,1.8616159827999998,892
83445,198094,232482,-2.7278177639999996,9.1453679772,1.8616159827999998,893
82578,197808,232267,-2.7278177639999996,9.1453679772,1.8616159827999998,894
82043,197554,232152,-2.7278177639999996,9.1453679772,1.8616159827999998,895
81694,197417,232053,-2.7278177639999996,9.1453679772,1.8616159827999998,896
81457,197299,231983,-2.7278177639999996,9.1453679772,1.8616159827999998,897
81309,197251,231962,-2.7278177639999996,9.1453679772,1.8616159827999998,898
81254,197216,231965,-2.7278177639999996,9.1453679772,1.8616159827999998,899
81320,197261,231932,-2.7278177639999996,9.1453679772,1.8616159827999998,900
81460,197352,232018,-2.7278177639999996,9.1453679772,1.8616159827999998,901
81538,197393,232064,-2.7278177639999996,9.1453679772,1.8616159827999998,902
81580,197432,232031,-2.7278177639999996,9.1453679772,1.8616159827999998,903
81638,197445,232079,-2.7278177639999996,9.1453679772,1.8616159827999998,904
81687,197482,232059,-2.7278177639999996,9.1453679772,1.8616159827999998,905
81775,197483,232066,-2.7278177639999996,9.1453679772,1.8616159827999998,906
81902,197565,232112,-2.7278177639999996,9.1453679772,1.8616159827999998,907
82032,197610,232122,-2.7278177639999996,9.1453679772,1.8616159827999998,908
82196,197696,232189,-2.7278177639999996,9.1453679772,1.8616159827999998,909
82343,197723,232180,-2.7278177639999996,9.1453679772,1.8616159827999998,910
82510,197762,232240,-2.7278177639999996,9.1453679772,1.8616159827999998,911
82661,197830,232282,-2.7278177639999996,9.1453679772,1.8616159827999998,912
82820,197905,232291,-2.7278177639999996,9.1453679772,1.8616159827999998,913
82956,197924,232406,-2.7278177639999996,9.1453679772,1.8616159827999998,914
83084,197965,232375,-2.7278177639999996,9.1453679772,1.8616159827999998,915
83208,198041,232402,-2.7278177639999996,9.1453679772,1.8616159827999998,916
83354,198097,232476,-2.7278177639999996,9.1453679772,1.8616159827999998,917
83475,198121,232452,-2.7278177639999996,9.1453679772,1.8616159827999998,918
83601,198168,232511,-2.7278177639999996,9.1453679772,1.8616159827999998,919
83743,198242,232536,-2.8091737324,9.0496550732,1.9669001771999999,920
83861,198241,232588,-2.8091737324,9.0496550732,1.9669001771999999,921
83750,198246,232546,-2.8091737324,9.0496550732,1.9669001771999999,922
83020,198018,232406,-2.8091737324,9.0496550732,1.9669001771999999,923
82187,197695,232288,-2.8091737324,9.0496550732,1.9669001771999999,924
81679,197503,232161,-2.8091737324,9.0496550732,1.9669001771999999,925
81375,197355,232077,-2.8091737324,9.0496550732,1.9669001771999999,926
81155,197246,232004,-2.8091737324,9.0496550732,1.9669001771999999,927
81058,197211,231959,-2.8091737324,9.0496550732,1.9669001771999999,928
81039,197233,231936,-2.8091737324,9.0496550732,1.9669001771999999,929
81163,197300,231979,-2.8091737324,9.0496550732,1.9669001771999999,930
81282,197354,232020,-2.8091737324,9.0496550732,1.9669001771999999,931
81331,197379,232039,-2.8761727652,9.054440718399999,2.009970984,932
81369,197442,232047,-2.8761727652,9.054440718399999,2.009970984,933
81409,197456,232094,-2.8761727652,9.054440718399999,2.009970984,934
81480,197474,232137,-2.8761727652,9.054440718399999,2.009970984,935
81586,197491,232131,-2.8761727652,9.054440718399999,2.009970984,936
81716,197548,232126,-2.8761727652,9.054440718399999,2.009970984,937
81857,197607,232162,-2.8761727652,9.054440718399999,2.009970984,938
82020,197686,232202,-2.8761727652,9.054440718399999,2.009970984,939
82205,197737,232296,-2.8761727652,9.054440718399999,2.009970984,940
82346,197763,232251,-2.8761727652,9.054440718399999,2.009970984,941
82483,197849,232321,-2.8761727652,9.054440718399999,2.009970984,942
82635,197899,232377,-2.8761727652,9.054440718399999,2.009970984,943
82797,197946,232448,-2.8761727652,9.054440718399999,2.009970984,944
82941,198015,232459,-2.8761727652,9.054440718399999,2.009970984,945
83087,198041,232456,-2.8761727652,9.054440718399999,2.009970984,946
83232,198063,232510,-2.8761727652,9.054440718399999,2.009970984,947
83348,198126,232512,-2.8761727652,9.054440718399999,2.009970984,948
83503,198163,232555,-2.8761727652,9.054440718399999,2.009970984,949
83620,198209,232602,-2.8761727652,9.054440718399999,2.009970984,950
83496,198165,232576,-2.8761727652,9.054440718399999,2.009970984,951
82811,197933,232454,-2.8761727652,9.054440718399999,2.009970984,952
82054,197687,232310,-2.8761727652,9.054440718399999,2.009970984,953
81640,197433,232213,-2.8761727652,9.054440718399999,2.009970984,954
81429,197354,232096,-2.8761727652,9.054440718399999,2.009970984,955
81348,197273,232063,-2.8761727652,9.054440718399999,2.009970984,956
81317,197263,232035,-2.8761727652,9.054440718399999,2.009970984,957
81393,197314,232064,-2.8761727652,9.054440718399999,2.009970984,958
81543,197353,232066,-2.8761727652,9.054440718399999,2.009970984,959
81663,197447,232128,-2.8761727652,9.054440718399999,2.009970984,960
81741,197506,232176,-2.8761727652,9.054440718399999,2.009970984,961
81782,197501,232145,-2.8761727652,9.054440718399999,2.009970984,962
81844,197486,232177,-2.8761727652,9.054440718399999,2.009970984,963
81935,197508,232151,-2.8761727652,9.054440718399999,2.009970984,964
82052,197542,232196,-2.8761727652,9.054440718399999,2.009970984,965
82209,197578,232223,-2.8761727652,9.054440718399999,2.009970984,966
82369,197625,232246,-2.8761727652,9.054440718399999,2.009970984,967
82538,197725,232305,-2.8761727652,9.054440718399999,2.009970984,968
82687,197761,232324,-2.8761727652,9.054440718399999,2.009970984,969
82830,197793,232354,-2.8761727652,9.054440718399999,2.009970984,970
82995,197864,232434,-2.8761727652,9.054440718399999,2.009970984,971
83156,197924,232427,-2.8761727652,9.054440718399999,2.009970984,972
83319,197957,232479,-2.8761727652,9.054440718399999,2.009970984,973
82325,197499,232190,-2.7852455064000003,9.2590270507,2.0662023151,974
82459,197539,232181,-2.7852455064000003,9.2590270507,2.0662023151,975
82620,197602,232234,-2.7852455064000003,9.2590270507,2.0662023151,976
82765,197632,232267,-2.7852455064000003,9.2590270507,2.0662023151,977
82897,197616,232278,-2.7852455064000003,9.2590270507,2.0662023151,978
83009,197645,232261,-2.7852455064000003,9.2590270507,2.0662023151,979
83144,197639,232339,-2.7852455064000003,9.2590270507,2.0662023151,980
83253,197675,232316,-2.7852455064000003,9.2590270507,2.0662023151,981
83382,197729,232293,-2.7852455064000003,9.2590270507,2.0662023151,982
83513,197765,232362,-2.7852455064000003,9.2590270507,2.0662023151,983
83482,197780,232343,-2.7852455064000003,9.2590270507,2.0662023151,984
82916,197574,232270,-2.7852455064000003,9.2590270507,2.0662023151,985
82122,197280,232075,-2.7852455064000003,9.2590270507,2.0662023151,986
81589,197085,231921,-2.7852455064000003,9.2590270507,2.0662023151,987
81269,196885,231885,-2.7852455064000003,9.2590270507,2.0662023151,988
81098,196842,231815,-2.7852455064000003,9.2590270507,2.0662023151,989
80974,196781,231803,-2.7852455064000003,9.2590270507,2.0662023151,990
80955,196765,231805,-2.7852455064000003,9.2590270507,2.0662023151,991
81063,196863,231822,-2.7852455064000003,9.2590270507,2.0662023151,992
81190,196982,231871,-2.7852455064000003,9.2590270507,2.0662023151,993
81262,197064,231895,-2.7852455064000003,9.2590270507,2.0662023151,994
81322,197097,231940,-2.7852455064000003,9.2590270507,2.0662023151,995
81370,197125,231926,-2.7852455064000003,9.2590270507,2.0662023151,996
81450,197149,231959,-2.7852455064000003,9.2590270507,2.0662023151,997
81546,197194,231976,-2.7852455064000003,9.2590270507,2.0662023151,998
81681,197244,232026,-2.7852455064000003,9.2590270507,2.0662023151,999
81813,197370,232084,-2.7852455064000003,9.2590270507,2.0662023151,1000
81972,197402,232120,-2.7852455064000003,9.2590270507,2.0662023151,1001
82164,197493,232222,-2.7852455064000003,9.2590270507,2.0662023151,1002
82320,197572,232213,-2.7852455064000003,9.2590270507,2.0662023151,1003
82470,197578,232256,-2.7852455064000003,9.2590270507,2.0662023151,1004
82616,197632,232275,-2.7852455064000003,9.2590270507,2.0662023151,1005
82753,197740,232355,-2.87138712,9.2494557603,1.9633109433,1006
82838,197745,232339,-2.87138712,9.2494557603,1.9633109433,1007
82475,197648,232330,-2.87138712,9.2494557603,1.9633109433,1008
81742,197378,232156,-2.87138712,9.2494557603,1.9633109433,1009
81194,197136,232017,-2.87138712,9.2494557603,1.9633109433,1010
80896,196989,231919,-2.87138712,9.2494557603,1.9633109433,1011
80746,196872,231876,-2.87138712,9.2494557603,1.9633109433,1012
80646,196874,231848,-2.87138712,9.2494557603,1.9633109433,1013
80639,196876,231826,-2.87138712,9.2494557603,1.9633109433,1014
80750,196911,231882,-2.87138712,9.2494557603,1.9633109433,1015
80882,197042,231896,-2.87138712,9.2494557603,1.9633109433,1016
80970,197052,231972,-2.87138712,9.2494557603,1.9633109433,1017
81003,197066,231967,-2.87138712,9.2494557603,1.9633109433,1018
81061,197136,231915,-2.87138712,9.2494557603,1.9633109433,1019
81151,197096,232005,-2.87138712,9.2494557603,1.9633109433,1020
81249,197183,232015,-2.87138712,9.2494557603,1.9633109433,1021
81363,197246,232055,-2.87138712,9.2494557603,1.9633109433,1022
81505,197296,232063,-2.87138712,9.2494557603,1.9633109433,1023
81681,197375,232111,-2.87138712,9.2494557603,1.9633109433,1024
81821,197399,232139,-2.87138712,9.2494557603,1.9633109433,1025
81976,197455,232214,-2.87138712,9.2494557603,1.9633109433,1026
82101,197495,232219,-2.87138712,9.2494557603,1.9633109433,1027
82256,197597,232229,-2.87138712,9.2494557603,1.9633109433,1028
82336,197617,232296,-2.87138712,9.2494557603,1.9633109433,1029
81978,197544,232206,-2.87138712,9.2494557603,1.9633109433,1030
81260,197290,232086,-2.87138712,9.2494557603,1.9633109433,1031
80728,197113,231992,-2.87138712,9.2494557603,1.9633109433,1032
80464,196998,231881,-2.87138712,9.2494557603,1.9633109433,1033
80320,196928,231867,-2.87138712,9.2494557603,1.9633109433,1034
80268,196926,231861,-2.87138712,9.2494557603,1.9633109433,1035
80276,196975,231870,-2.87138712,9.2494557603,1.9633109433,1036
80436,197052,231925,-2.87138712,9.2494557603,1.9633109433,1037
80577,197111,231934,-2.87138712,9.2494557603,1.9633109433,1038
80671,197174,231968,-2.87138712,9.2494557603,1.9633109433,1039
80744,197216,231998,-2.87138712,9.2494557603,1.9633109433,1040
80839,197293,232042,-2.87138712,9.2494557603,1.9633109433,1041
80922,197335,232059,-2.87138712,9.2494557603,1.9633109433,1042
81058,197342,232064,-2.87138712,9.2494557603,1.9633109433,1043
81213,197449,232106,-2.87138712,9.2494557603,1.9633109433,1044
81379,197518,232142,-2.87138712,9.2494557603,1.9633109433,1045
81581,197587,232195,-2.87138712,9.2494557603,1.9633109433,1046
81771,197698,232232,-2.87138712,9.2494557603,1.9633109433,1047
80691,197533,232100,-2.7816562725,8.997012975999999,2.0853448959,1048
80905,197654,232164,-2.7816562725,8.997012975999999,2.0853448959,1049
81126,197755,232178,-2.7816562725,8.997012975999999,2.0853448959,1050
81328,197796,232251,-2.7816562725,8.997012975999999,2.0853448959,1051
81502,197901,232305,-2.7816562725,8.997012975999999,2.0853448959,1052
81663,197976,232315,-2.7816562725,8.997012975999999,2.0853448959,1053
81822,198023,232365,-2.7816562725,8.997012975999999,2.0853448959,1054
82012,198153,232408,-2.7816562725,8.997012975999999,2.0853448959,1055
82226,198201,232460,-2.7816562725,8.997012975999999,2.0853448959,1056
82464,198328,232488,-2.7816562725,8.997012975999999,2.0853448959,1057
82704,198384,232496,-2.7816562725,8.997012975999999,2.0853448959,1058
82988,198509,232623,-2.7816562725,8.997012975999999,2.0853448959,1059
83236,198607,232640,-2.7816562725,8.997012975999999,2.0853448959,1060
83497,198669,232692,-2.7816562725,8.997012975999999,2.0853448959,1061
83769,198791,232741,-2.7816562725,8.997012975999999,2.0853448959,1062
84033,198901,232785,-2.7816562725,8.997012975999999,2.0853448959,1063
84319,199011,232798,-2.7816562725,8.997012975999999,2.0853448959,1064
84584,199066,232894,-2.7816562725,8.997012975999999,2.0853448959,1065
84862,199192,232941,-2.7816562725,8.997012975999999,2.0853448959,1066
85130,199274,232976,-2.7816562725,8.997012975999999,2.0853448959,1067
85397,199341,233026,-2.7816562725,8.997012975999999,2.0853448959,1068
85490,199450,233013,-2.7816562725,8.997012975999999,2.0853448959,1069
85358,199431,233055,-2.7816562725,8.997012975999999,2.0853448959,1070
85173,199395,233021,-2.7816562725,8.997012975999999,2.0853448959,1071
85054,199362,232983,-2.7816562725,8.997012975999999,2.0853448959,1072
85031,199366,233035,-2.7816562725,8.997012975999999,2.0853448959,1073
85054,199348,232990,-2.7816562725,8.997012975999999,2.0853448959,1074
85137,199390,232958,-2.7816562725,8.997012975999999,2.0853448959,1075
85283,199437,232992,-2.7816562725,8.997012975999999,2.0853448959,1076
85486,199497,233026,-2.7816562725,8.997012975999999,2.0853448959,1077
85663,199513,233027,-2.7816562725,8.997012975999999,2.0853448959,1078
85873,199565,233063,-2.7816562725,8.997012975999999,2.0853448959,1079
86047,199645,233071,-2.7816562725,8.997012975999999,2.0853448959,1080
86214,199693,233105,-2.7816562725,8.997012975999999,2.0853448959,1081
86392,199722,233120,-2.7816562725,8.997012975999999,2.0853448959,1082
86583,199778,233138,-2.7816562725,8.997012975999999,2.0853448959,1083
86776,199824,233171,-2.7816562725,8.997012975999999,2.0853448959,1084
86955,199897,233169,-2.7816562725,8.997012975999999,2.0853448959,1085
87160,199957,233181,-2.7816562725,8.997012975999999,2.0853448959,1086
87350,199987,233232,-2.7816562725,8.997012975999999,2.0853448959,1087
87566,200058,233270,-2.7816562725,8.997012975999999,2.0853448959,1088
87744,200115,233293,-2.7816562725,8.997012975999999,2.0853448959,1089
89195,200505,233447,-2.8091737324,9.1549392676,2.0757736055,1090
89236,200508,233469,-2.8091737324,9.1549392676,2.0757736055,1091
89254,200503,233407,-2.8091737324,9.1549392676,2.0757736055,1092
89308,200520,233418,-2.8091737324,9.1549392676,2.0757736055,1093
89368,200531,233402,-2.8091737324,9.1549392676,2.0757736055,1094
89466,200555,233450,-2.8091737324,9.1549392676,2.0757736055,1095
89570,200564,233445,-2.8091737324,9.1549392676,2.0757736055,1096
89673,200589,233458,-2.8091737324,9.1549392676,2.0757736055,1097
89770,200600,233461,-2.8091737324,9.1549392676,2.0757736055,1098
89873,200666,233455,-2.8091737324,9.1549392676,2.0757736055,1099
89973,200685,233453,-2.8091737324,9.1549392676,2.0757736055,1100
90080,200713,233525,-2.8091737324,9.1549392676,2.0757736055,1101
90195,200716,233463,-2.8091737324,9.1549392676,2.0757736055,1102
90306,200745,233474,-2.8091737324,9.1549392676,2.0757736055,1103
90448,200780,233486,-2.8091737324,9.1549392676,2.0757736055,1104
90553,200804,233571,-2.8091737324,9.1549392676,2.0757736055,1105
90679,200817,233513,-2.8091737324,9.1549392676,2.0757736055,1106
90813,200885,233542,-2.8091737324,9.1549392676,2.0757736055,1107
90933,200924,233575,-2.8091737324,9.1549392676,2.0757736055,1108
91062,200931,233589,-2.8091737324,9.1549392676,2.0757736055,1109
91158,200959,233634,-2.8091737324,9.1549392676,2.0757736055,1110
91305,201015,233633,-2.8091737324,9.1549392676,2.0757736055,1111
91405,201082,233637,-2.8091737324,9.1549392676,2.0757736055,1112
91520,201099,233678,-2.8091737324,9.1549392676,2.0757736055,1113
91612,201119,233635,-2.8091737324,9.1549392676,2.0757736055,1114
91594,201158,233651,-2.8091737324,9.1549392676,2.0757736055,1115
91604,201147,233661,-2.7661029256000003,9.2973122123,2.0961125976,1116
91538,201169,233617,-2.7661029256000003,9.2973122123,2.0961125976,1117
91490,201159,233610,-2.7661029256000003,9.2973122123,2.0961125976,1118
91429,201161,233604,-2.7661029256000003,9.2973122123,2.0961125976,1119
91395,201172,233631,-2.7661029256000003,9.2973122123,2.0961125976,1120
91398,201152,233622,-2.7661029256000003,9.2973122123,2.0961125976,1121
91434,201182,233658,-2.7661029256000003,9.2973122123,2.0961125976,1122
91463,201211,233614,-2.7661029256000003,9.2973122123,2.0961125976,1123
91482,201225,233620,-2.7661029256000003,9.2973122123,2.0961125976,1124
91506,201195,233617,-2.7661029256000003,9.2973122123,2.0961125976,1125
91530,201206,233585,-2.7661029256000003,9.2973122123,2.0961125976,1126
91568,201217,233609,-2.7661029256000003,9.2973122123,2.0961125976,1127
91615,201240,233655,-2.7661029256000003,9.2973122123,2.0961125976,1128
91671,201234,233624,-2.7661029256000003,9.2973122123,2.0961125976,1129
91711,201295,233619,-2.7661029256000003,9.2973122123,2.0961125976,1130
91764,201287,233652,-2.7661029256000003,9.2973122123,2.0961125976,1131
91846,201314,233624,-2.7661029256000003,9.2973122123,2.0961125976,1132
91907,201351,233611,-2.7661029256000003,9.2973122123,2.0961125976,1133
91965,201343,233669,-2.7661029256000003,9.2973122123,2.0961125976,1134
92029,201371,233642,-2.7661029256000003,9.2973122123,2.0961125976,1135
92081,201405,233634,-2.7661029256000003,9.2973122123,2.0961125976,1136
92144,201406,233629,-2.7661029256000003,9.2973122123,2.0961125976,1137
92202,201425,233651,-2.7661029256000003,9.2973122123,2.0961125976,1138
92274,201464,233707,-2.7661029256000003,9.2973122123,2.0961125976,1139
92318,201450,233607,-2.7661029256000003,9.2973122123,2.0961125976,1140
92384,201460,233670,-2.7481567560999998,9.178867493599999,1.938186306,1141
92453,201481,233673,-2.7481567560999998,9.178867493599999,1.938186306,1142
92500,201526,233674,-2.7481567560999998,9.178867493599999,1.938186306,1143
92567,201573,233689,-2.7481567560999998,9.178867493599999,1.938186306,1144
92616,201549,233656,-2.7481567560999998,9.178867493599999,1.938186306,1145
92677,201564,233635,-2.7481567560999998,9.178867493599999,1.938186306,1146
92711,201578,233628,-2.7481567560999998,9.178867493599999,1.938186306,1147
92590,201601,233674,-2.7481567560999998,9.178867493599999,1.938186306,1148
92241,201623,233645,-2.7481567560999998,9.178867493599999,1.938186306,1149
91695,201556,233644,-2.7481567560999998,9.178867493599999,1.938186306,1150
91074,201516,233619,-2.7481567560999998,9.178867493599999,1.938186306,1151
90447,201424,233574,-2.7481567560999998,9.178867493599999,1.938186306,1152
89896,201413,233527,-2.7481567560999998,9.178867493599999,1.938186306,1153
89389,201365,233508,-2.7481567560999998,9.178867493599999,1.938186306,1154
89007,201326,233457,-2.7481567560999998,9.178867493599999,1.938186306,1155
88732,201328,233411,-2.7481567560999998,9.178867493599999,1.938186306,1156
88473,201303,233420,-2.7481567560999998,9.178867493599999,1.938186306,1157
88224,201255,233311,-2.7481567560999998,9.178867493599999,1.938186306,1158
87981,201241,233274,-2.7481567560999998,9.178867493599999,1.938186306,1159
87730,201195,233229,-2.7481567560999998,9.178867493599999,1.938186306,1160
87535,201182,233229,-2.7481567560999998,9.178867493599999,1.938186306,1161
87379,201129,233195,-2.7481567560999998,9.178867493599999,1.938186306,1162
87261,201142,233186,-2.7481567560999998,9.178867493599999,1.938186306,1163
87169,201113,233115,-2.7481567560999998,9.178867493599999,1.938186306,1164
87114,201131,233171,-2.7481567560999998,9.178867493599999,1.938186306,1165
87043,201127,233088,-2.7481567560999998,9.178867493599999,1.938186306,1166
87004,201115,233063,-2.7481567560999998,9.178867493599999,1.938186306,1167
86974,201127,233019,-2.7481567560999998,9.178867493599999,1.938186306,1168
86953,201133,233059,-2.7481567560999998,9.178867493599999,1.938186306,1169
86924,201098,233022,-2.7481567560999998,9.178867493599999,1.938186306,1170
86914,201110,232999,-2.7481567560999998,9.178867493599999,1.938186306,1171
86894,201089,232998,-2.7481567560999998,9.178867493599999,1.938186306,1172
86894,201130,232982,-2.7481567560999998,9.178867493599999,1.938186306,1173
86867,201137,232985,-2.7481567560999998,9.178867493599999,1.938186306,1174
86867,201123,232989,-2.7481567560999998,9.178867493599999,1.938186306,1175
86877,201124,232952,-2.7481567560999998,9.178867493599999,1.938186306,1176
86889,201165,232955,-2.7481567560999998,9.178867493599999,1.938186306,1177
86902,201154,232905,-2.7481567560999998,9.178867493599999,1.938186306,1178
86926,201162,232937,-2.7481567560999998,9.178867493599999,1.938186306,1179
86941,201166,232905,-2.7481567560999998,9.178867493599999,1.938186306,1180
86759,201182,232949,-2.7481567560999998,9.178867493599999,1.938186306,1181
86125,201111,232855,-2.7481567560999998,9.178867493599999,1.938186306,1182
85417,200891,232819,-2.7661029256000003,9.153742856300001,1.9334006607999998,1183
85543,200834,232828,-2.7661029256000003,9.153742856300001,1.9334006607999998,1184
85689,200882,232809,-2.7661029256000003,9.153742856300001,1.9334006607999998,1185
85841,200899,232865,-2.7661029256000003,9.153742856300001,1.9334006607999998,1186
85987,200886,232855,-2.7661029256000003,9.153742856300001,1.9334006607999998,1187
86129,200944,232894,-2.7661029256000003,9.153742856300001,1.9334006607999998,1188
86282,200976,232934,-2.7661029256000003,9.153742856300001,1.9334006607999998,1189
86296,200956,232908,-2.7661029256000003,9.153742856300001,1.9334006607999998,1190
85879,200916,232877,-2.7661029256000003,9.153742856300001,1.9334006607999998,1191
85223,200810,232815,-2.7661029256000003,9.153742856300001,1.9334006607999998,1192
84744,200693,232803,-2.7661029256000003,9.153742856300001,1.9334006607999998,1193
84500,200602,232753,-2.7661029256000003,9.153742856300001,1.9334006607999998,1194
84425,200539,232750,-2.7661029256000003,9.153742856300001,1.9334006607999998,1195
84426,200471,232695,-2.7661029256000003,9.153742856300001,1.9334006607999998,1196
84530,200423,232689,-2.7661029256000003,9.153742856300001,1.9334006607999998,1197
84765,200425,232754,-2.7661029256000003,9.153742856300001,1.9334006607999998,1198
85006,200421,232703,-2.7661029256000003,9.153742856300001,1.9334006607999998,1199
85205,200404,232701,-2.7661029256000003,9.153742856300001,1.9334006607999998,1200
85365,200424,232690,-2.7661029256000003,9.153742856300001,1.9334006607999998,1201
85510,200430,232683,-2.7661029256000003,9.153742856300001,1.9334006607999998,1202
85663,200429,232748,-2.7661029256000003,9.153742856300001,1.9334006607999998,1203
85842,200446,232732,-2.7661029256000003,9.153742856300001,1.9334006607999998,1204
86014,200413,232786,-2.7661029256000003,9.153742856300001,1.9334006607999998,1205
86237,200461,232773,-2.7661029256000003,9.153742856300001,1.9334006607999998,1206
86427,200443,232783,-2.7661029256000003,9.153742856300001,1.9334006607999998,1207
86629,200531,232798,-2.7661029256000003,9.153742856300001,1.9334006607999998,1208
86815,200528,232890,-2.7661029256000003,9.153742856300001,1.9334006607999998,1209
86957,200547,232851,-2.7661029256000003,9.153742856300001,1.9334006607999998,1210
87127,200567,232872,-2.7661029256000003,9.153742856300001,1.9334006607999998,1211
87312,200604,232896,-2.7661029256000003,9.153742856300001,1.9334006607999998,1212
87452,200622,232857,-2.7661029256000003,9.153742856300001,1.9334006607999998,1213
87594,200660,232964,-2.7661029256000003,9.153742856300001,1.9334006607999998,1214
87750,200647,232897,-2.7661029256000003,9.153742856300001,1.9334006607999998,1215
87880,200663,232968,-2.7661029256000003,9.153742856300001,1.9334006607999998,1216
88027,200714,232959,-2.7661029256000003,9.153742856300001,1.9334006607999998,1217
88196,200765,232980,-2.7661029256000003,9.153742856300001,1.9334006607999998,1218
88327,200781,233017,-2.7661029256000003,9.153742856300001,1.9334006607999998,1219
88475,200762,233028,-2.7661029256000003,9.153742856300001,1.9334006607999998,1220
88591,200792,233004,-2.7661029256000003,9.153742856300001,1.9334006607999998,1221
88712,200786,233070,-2.7661029256000003,9.153742856300001,1.9334006607999998,1222
88828,200822,233062,-2.7661029256000003,9.153742856300001,1.9334006607999998,1223
88741,200835,233041,-2.7661029256000003,9.153742856300001,1.9334006607999998,1224
83357,199375,232572,-2.7577280465,9.1298146303,1.9764714676,1225
83429,199349,232580,-2.7577280465,9.1298146303,1.9764714676,1226
83556,199378,232631,-2.7577280465,9.1298146303,1.9764714676,1227
83681,199394,232633,-2.7577280465,9.1298146303,1.9764714676,1228
83815,199465,232646,-2.7577280465,9.1298146303,1.9764714676,1229
83958,199469,232640,-2.7577280465,9.1298146303,1.9764714676,1230
84098,199534,232685,-2.7577280465,9.1298146303,1.9764714676,1231
84246,199580,232715,-2.7577280465,9.1298146303,1.9764714676,1232
84385,199589,232820,-2.7577280465,9.1298146303,1.9764714676,1233
84516,199661,232768,-2.7577280465,9.1298146303,1.9764714676,1234
84666,199715,232790,-2.7577280465,9.1298146303,1.9764714676,1235
84789,199697,232813,-2.7577280465,9.1298146303,1.9764714676,1236
84921,199733,232825,-2.7577280465,9.1298146303,1.9764714676,1237
85052,199775,232865,-2.7577280465,9.1298146303,1.9764714676,1238
85175,199807,232889,-2.7577280465,9.1298146303,1.9764714676,1239
85311,199848,232932,-2.7577280465,9.1298146303,1.9764714676,1240
85436,199865,233005,-2.7577280465,9.1298146303,1.9764714676,1241
85588,199921,232968,-2.7577280465,9.1298146303,1.9764714676,1242
85716,199935,232981,-2.7577280465,9.1298146303,1.9764714676,1243
85842,199941,233001,-2.7577280465,9.1298146303,1.9764714676,1244
85987,199978,233032,-2.7577280465,9.1298146303,1.9764714676,1245
85871,200013,233014,-2.7577280465,9.1298146303,1.9764714676,1246
85206,199860,232968,-2.7577280465,9.1298146303,1.9764714676,1247
84420,199655,232876,-2.7577280465,9.1298146303,1.9764714676,1248
83942,199498,232787,-2.7577280465,9.1298146303,1.9764714676,1249
83732,199394,232687,-2.7577280465,9.1298146303,1.9764714676,1250
83667,199278,232638,-2.7577280465,9.1298146303,1.9764714676,1251
83662,199188,232569,-2.7577280465,9.1298146303,1.9764714676,1252
83740,199167,232577,-2.7577280465,9.1298146303,1.9764714676,1253
83906,199168,232579,-2.7577280465,9.1298146303,1.9764714676,1254
84102,199241,232608,-2.7577280465,9.1298146303,1.9764714676,1255
84254,199227,232637,-2.7577280465,9.1298146303,1.9764714676,1256
84353,199241,232672,-2.7577280465,9.1298146303,1.9764714676,1257
84447,199255,232679,-2.7577280465,9.1298146303,1.9764714676,1258
84569,199300,232697,-2.7577280465,9.1298146303,1.9764714676,1259
84715,199324,232705,-2.7577280465,9.1298146303,1.9764714676,1260
84853,199312,232719,-2.7577280465,9.1298146303,1.9764714676,1261
85011,199366,232751,-2.7577280465,9.1298146303,1.9764714676,1262
85205,199402,232798,-2.6895326024,9.131011041599999,1.9764714676,1263
85370,199467,232779,-2.6895326024,9.131011041599999,1.9764714676,1264
85539,199493,232784,-2.6895326024,9.131011041599999,1.9764714676,1265
85703,199534,232851,-2.6895326024,9.131011041599999,1.9764714676,1266
85845,199553,232883,-2.6895326024,9.131011041599999,1.9764714676,1267
85981,199609,232898,-2.6895326024,9.131011041599999,1.9764714676,1268
86122,199620,232896,-2.6895326024,9.131011041599999,1.9764714676,1269
86247,199663,232928,-2.6895326024,9.131011041599999,1.9764714676,1270
86413,199713,232954,-2.6895326024,9.131011041599999,1.9764714676,1271
86532,199714,232938,-2.6895326024,9.131011041599999,1.9764714676,1272
86677,199758,232963,-2.6895326024,9.131011041599999,1.9764714676,1273
86832,199782,233006,-2.6895326024,9.131011041599999,1.9764714676,1274
86979,199816,233018,-2.6895326024,9.131011041599999,1.9764714676,1275
87095,199848,233102,-2.6895326024,9.131011041599999,1.9764714676,1276
87234,199884,233081,-2.6895326024,9.131011041599999,1.9764714676,1277
87289,199920,233095,-2.6895326024,9.131011041599999,1.9764714676,1278
86954,199822,233006,-2.6895326024,9.131011041599999,1.9764714676,1279
86202,199660,232954,-2.6895326024,9.131011041599999,1.9764714676,1280
85590,199500,232875,-2.6895326024,9.131011041599999,1.9764714676,1281
85277,199312,232784,-2.6895326024,9.131011041599999,1.9764714676,1282
85168,199211,232754,-2.6895326024,9.131011041599999,1.9764714676,1283
85143,199197,232626,-2.6895326024,9.131011041599999,1.9764714676,1284
85119,199117,232646,-2.6895326024,9.131011041599999,1.9764714676,1285
85208,199098,232665,-2.6895326024,9.131011041599999,1.9764714676,1286
85369,199167,232702,-2.6895326024,9.131011041599999,1.9764714676,1287
85476,199178,232680,-2.6895326024,9.131011041599999,1.9764714676,1288
85543,199172,232712,-2.6895326024,9.131011041599999,1.9764714676,1289
85570,199181,232714,-2.6895326024,9.131011041599999,1.9764714676,1290
85618,199160,232699,-2.6895326024,9.131011041599999,1.9764714676,1291
85701,199218,232709,-2.6895326024,9.131011041599999,1.9764714676,1292
85789,199253,232723,-2.6895326024,9.131011041599999,1.9764714676,1293
85907,199264,232740,-2.6895326024,9.131011041599999,1.9764714676,1294
86029,199312,232769,-2.6895326024,9.131011041599999,1.9764714676,1295
86175,199327,232733,-2.6895326024,9.131011041599999,1.9764714676,1296
86289,199380,232813,-2.6895326024,9.131011041599999,1.9764714676,1297
86416,199401,232840,-2.6895326024,9.131011041599999,1.9764714676,1298
86550,199467,232882,-2.6895326024,9.131011041599999,1.9764714676,1299
86679,199494,232886,-2.6895326024,9.131011041599999,1.9764714676,1300
86805,199513,232879,-2.6895326024,9.131011041599999,1.9764714676,1301
86921,199562,232921,-2.6895326024,9.131011041599999,1.9764714676,1302
87034,199593,232959,-2.6895326024,9.131011041599999,1.9764714676,1303
87144,199623,232947,-2.6895326024,9.131011041599999,1.9764714676,1304
84536,198909,232566,-2.6943182475999996,9.140582332,1.9812571127999998,1305
84582,198959,232530,-2.6943182475999996,9.140582332,1.9812571127999998,1306
84636,198954,232568,-2.6943182475999996,9.140582332,1.9812571127999998,1307
84712,198988,232555,-2.6943182475999996,9.140582332,1.9812571127999998,1308
84810,199051,232588,-2.6943182475999996,9.140582332,1.9812571127999998,1309
84926,199107,232584,-2.6943182475999996,9.140582332,1.9812571127999998,1310
85029,199125,232678,-2.6943182475999996,9.140582332,1.9812571127999998,1311
85134,199181,232682,-2.6943182475999996,9.140582332,1.9812571127999998,1312
85252,199200,232716,-2.6943182475999996,9.140582332,1.9812571127999998,1313
85373,199250,232721,-2.6943182475999996,9.140582332,1.9812571127999998,1314
85468,199281,232705,-2.6943182475999996,9.140582332,1.9812571127999998,1315
85577,199334,232754,-2.6943182475999996,9.140582332,1.9812571127999998,1316
85691,199342,232738,-2.6943182475999996,9.140582332,1.9812571127999998,1317
85786,199424,232805,-2.6943182475999996,9.140582332,1.9812571127999998,1318
85918,199429,232858,-2.6943182475999996,9.140582332,1.9812571127999998,1319
86020,199478,232847,-2.6943182475999996,9.140582332,1.9812571127999998,1320
86126,199499,232849,-2.6943182475999996,9.140582332,1.9812571127999998,1321
86224,199516,232884,-2.6943182475999996,9.140582332,1.9812571127999998,1322
86336,199554,232949,-2.6943182475999996,9.140582332,1.9812571127999998,1323
86272,199589,232927,-2.6943182475999996,9.140582332,1.9812571127999998,1324
85626,199437,232846,-2.6943182475999996,9.140582332,1.9812571127999998,1325
84727,199232,232729,-2.6943182475999996,9.140582332,1.9812571127999998,1326
84117,198947,232569,-2.6943182475999996,9.140582332,1.9812571127999998,1327
83737,198800,232532,-2.6943182475999996,9.140582332,1.9812571127999998,1328
83507,198707,232464,-2.6943182475999996,9.140582332,1.9812571127999998,1329
83355,198606,232411,-2.6943182475999996,9.140582332,1.9812571127999998,1330
83301,198552,232395,-2.6943182475999996,9.140582332,1.9812571127999998,1331
83338,198552,232382,-2.6943182475999996,9.140582332,1.9812571127999998,1332
83420,198648,232377,-2.6943182475999996,9.140582332,1.9812571127999998,1333
83455,198678,232399,-2.6943182475999996,9.140582332,1.9812571127999998,1334
83484,198684,232426,-2.6943182475999996,9.140582332,1.9812571127999998,1335
83489,198697,232424,-2.6943182475999996,9.140582332,1.9812571127999998,1336
83520,198703,232412,-2.6943182475999996,9.140582332,1.9812571127999998,1337
83572,198732,232471,-2.6943182475999996,9.140582332,1.9812571127999998,1338
83635,198742,232425,-2.6943182475999996,9.140582332,1.9812571127999998,1339
83747,198758,232496,-2.6943182475999996,9.140582332,1.9812571127999998,1340
83866,198808,232499,-2.6943182475999996,9.140582332,1.9812571127999998,1341
83987,198874,232528,-2.6943182475999996,9.140582332,1.9812571127999998,1342
84103,198902,232527,-2.6943182475999996,9.140582332,1.9812571127999998,1343
84241,198952,232565,-2.6943182475999996,9.140582332,1.9812571127999998,1344
84372,198987,232594,-2.6943182475999996,9.140582332,1.9812571127999998,1345
84483,199046,232631,-2.6943182475999996,9.140582332,1.9812571127999998,1346
82755,198194,232435,-2.9371897415,9.2171526552,1.9477575963999998,1347
82329,197973,232303,-2.9371897415,9.2171526552,1.9477575963999998,1348
82085,197866,232233,-2.9371897415,9.2171526552,1.9477575963999998,1349
81994,197770,232197,-2.9371897415,9.2171526552,1.9477575963999998,1350
81971,197773,232167,-2.9371897415,9.2171526552,1.9477575963999998,1351
82014,197810,232184,-2.9371897415,9.2171526552,1.9477575963999998,1352
82135,197798,232183,-2.9371897415,9.2171526552,1.9477575963999998,1353
82252,197892,232237,-2.9371897415,9.2171526552,1.9477575963999998,1354
82310,197872,232266,-2.9371897415,9.2171526552,1.9477575963999998,1355
82353,197944,232275,-2.9371897415,9.2171526552,1.9477575963999998,1356
82415,197967,232302,-2.9371897415,9.2171526552,1.9477575963999998,1357
82516,197964,232310,-2.9371897415,9.2171526552,1.9477575963999998,1358
82638,198013,232311,-2.9371897415,9.2171526552,1.9477575963999998,1359
82786,198024,232290,-2.9371897415,9.2171526552,1.9477575963999998,1360
82931,198057,232344,-2.9371897415,9.2171526552,1.9477575963999998,1361
83069,198102,232385,-2.9371897415,9.2171526552,1.9477575963999998,1362
83198,198163,232399,-2.9371897415,9.2171526552,1.9477575963999998,1363
83328,198185,232417,-2.9371897415,9.2171526552,1.9477575963999998,1364
83478,198219,232449,-2.9371897415,9.2171526552,1.9477575963999998,1365
83589,198265,232564,-2.9371897415,9.2171526552,1.9477575963999998,1366
83726,198328,232508,-2.9371897415,9.2171526552,1.9477575963999998,1367
83864,198373,232569,-2.9371897415,9.2171526552,1.9477575963999998,1368
83975,198396,232570,-2.9371897415,9.2171526552,1.9477575963999998,1369
84099,198446,232610,-2.9371897415,9.2171526552,1.9477575963999998,1370
84228,198467,232610,-2.9371897415,9.2171526552,1.9477575963999998,1371
83980,198417,232615,-2.9371897415,9.2171526552,1.9477575963999998,1372
83227,198190,232472,-2.9371897415,9.2171526552,1.9477575963999998,1373
82549,197936,232354,-2.9371897415,9.2171526552,1.9477575963999998,1374
82148,197728,232199,-2.9371897415,9.2171526552,1.9477575963999998,1375
81882,197613,232169,-2.9371897415,9.2171526552,1.9477575963999998,1376
81747,197525,232089,-2.9371897415,9.2171526552,1.9477575963999998,1377
81644,197468,232081,-2.9371897415,9.2171526552,1.9477575963999998,1378
81610,197511,232059,-2.9371897415,9.2171526552,1.9477575963999998,1379
81749,197521,232094,-2.9371897415,9.2171526552,1.9477575963999998,1380
81875,197608,232140,-2.9371897415,9.2171526552,1.9477575963999998,1381
81945,197645,232151,-2.9371897415,9.2171526552,1.9477575963999998,1382
81988,197655,232149,-2.9371897415,9.2171526552,1.9477575963999998,1383
82050,197698,232150,-2.9371897415,9.2171526552,1.9477575963999998,1384
82134,197714,232161,-2.9371897415,9.2171526552,1.9477575963999998,1385
82259,197760,232226,-2.9371897415,9.2171526552,1.9477575963999998,1386
82413,197775,232206,-2.9371897415,9.2171526552,1.9477575963999998,1387
82558,197860,232244,-2.9371897415,9.2171526552,1.9477575963999998,1388
83965,198301,232570,-2.7708885708000004,9.0604227749,1.9393827173,1389
84057,198339,232580,-2.7708885708000004,9.0604227749,1.9393827173,1390
83814,198287,232551,-2.7708885708000004,9.0604227749,1.9393827173,1391
83033,198052,232472,-2.7708885708000004,9.0604227749,1.9393827173,1392
82353,197759,232268,-2.7708885708000004,9.0604227749,1.9393827173,1393
81958,197580,232159,-2.7708885708000004,9.0604227749,1.9393827173,1394
81695,197423,232098,-2.7708885708000004,9.0604227749,1.9393827173,1395
81542,197364,232023,-2.7708885708000004,9.0604227749,1.9393827173,1396
81488,197341,231985,-2.7708885708000004,9.0604227749,1.9393827173,1397
81511,197348,232019,-2.7373890544,9.1585285015,1.9429719511999999,1398
81680,197419,232046,-2.7373890544,9.1585285015,1.9429719511999999,1399
81846,197471,232066,-2.7337998205,9.2685983411,2.0470597343,1400
81934,197531,232098,-2.8139593776000003,9.2781696315,1.9154544913,1401
81968,197538,232120,-2.823530668,9.116654106,1.9106688461,1402
82014,197572,232104,-2.8378876036,9.1597249128,2.0003996936,1403
82112,197611,232152,-2.7637101029999998,9.131011041599999,1.9860427579999997,1404
82259,197635,232159,-2.8893332895,9.1465643885,2.0901305410999997,1405
82421,197681,232193,-2.6668007876999997,9.1597249128,1.9094724347999998,1406
82577,197748,232278,-2.6943182475999996,9.0747797105,2.0757736055,1407
82760,197852,232259,-2.7804598612,9.1932244292,1.9525432416,1408
82925,197862,232304,-2.7625136916999997,9.1298146303,2.0530417908,1409
83088,197902,232306,-2.7625136916999997,9.1298146303,2.0530417908,1410
83234,197975,232360,-2.7625136916999997,9.1298146303,2.0530417908,1411
83397,198026,232394,-2.7625136916999997,9.1298146303,2.0530417908,1412
83546,198040,232450,-2.7625136916999997,9.1298146303,2.0530417908,1413
83699,198116,232442,-2.7625136916999997,9.1298146303,2.0530417908,1414
83837,198197,232493,-2.7625136916999997,9.1298146303,2.0530417908,1415
83988,198204,232595,-2.7625136916999997,9.1298146303,2.0530417908,1416
84118,198262,232560,-2.7625136916999997,9.1298146303,2.0530417908,1417
84270,198339,232618,-2.7625136916999997,9.1298146303,2.0530417908,1418
84247,198271,232606,-2.7625136916999997,9.1298146303,2.0530417908,1419
83710,198131,232467,-2.7625136916999997,9.1298146303,2.0530417908,1420
82937,197884,232328,-2.7625136916999997,9.1298146303,2.0530417908,1421
82416,197676,232249,-2.7625136916999997,9.1298146303,2.0530417908,1422
82186,197500,232129,-2.7625136916999997,9.1298146303,2.0530417908,1423
82061,197403,232084,-2.7625136916999997,9.1298146303,2.0530417908,1424
81959,197377,232105,-2.7625136916999997,9.1298146303,2.0530417908,1425
81966,197382,232067,-2.7625136916999997,9.1298146303,2.0530417908,1426
82089,197443,232082,-2.8331019584000003,9.0113699116,1.9896319919,1427
82238,197513,232137,-2.8331019584000003,9.0113699116,1.9896319919,1428
82323,197558,232180,-2.8331019584000003,9.0113699116,1.9896319919,1429
82390,197596,232165,-2.8331019584000003,9.0113699116,1.9896319919,1430
82459,197623,232192,-2.8331019584000003,9.0113699116,1.9896319919,1431
82537,197651,232208,-2.8331019584000003,9.0113699116,1.9896319919,1432
82681,197671,232233,-2.8331019584000003,9.0113699116,1.9896319919,1433
82783,197726,232229,-2.8331019584000003,9.0113699116,1.9896319919,1434
82967,197789,232267,-2.8331019584000003,9.0113699116,1.9896319919,1435
83137,197847,232312,-2.8331019584000003,9.0113699116,1.9896319919,1436
83297,197899,232361,-2.8331019584000003,9.0113699116,1.9896319919,1437
83454,197950,232393,-2.8331019584000003,9.0113699116,1.9896319919,1438
83595,198027,232420,-2.8331019584000003,9.0113699116,1.9896319919,1439
83727,198044,232442,-2.7625136916999997,9.248259349,2.0566310246999997,1440
83884,198082,232477,-2.7625136916999997,9.248259349,2.0566310246999997,1441
84017,198155,232547,-2.7625136916999997,9.248259349,2.0566310246999997,1442
84165,198200,232559,-2.7625136916999997,9.248259349,2.0566310246999997,1443
84280,198190,232590,-2.7625136916999997,9.248259349,2.0566310246999997,1444
84421,198250,232606,-2.7625136916999997,9.248259349,2.0566310246999997,1445
84457,198285,232643,-2.7625136916999997,9.248259349,2.0566310246999997,1446
84010,198177,232534,-2.7625136916999997,9.248259349,2.0566310246999997,1447
83272,197899,232451,-2.7625136916999997,9.248259349,2.0566310246999997,1448
82779,197645,232318,-2.7625136916999997,9.248259349,2.0566310246999997,1449
82550,197511,232196,-2.7625136916999997,9.248259349,2.0566310246999997,1450
82430,197434,232154,-2.7625136916999997,9.248259349,2.0566310246999997,1451
82379,197429,232155,-2.7625136916999997,9.248259349,2.0566310246999997,1452
82395,197476,232147,-2.7625136916999997,9.248259349,2.0566310246999997,1453
82537,197477,232135,-2.7625136916999997,9.248259349,2.0566310246999997,1454
82657,197582,232189,-2.7625136916999997,9.248259349,2.0566310246999997,1455
82721,197642,232237,-2.7625136916999997,9.248259349,2.0566310246999997,1456
82762,197637,232262,-2.7625136916999997,9.248259349,2.0566310246999997,1457
82788,197677,232277,-2.7625136916999997,9.248259349,2.0566310246999997,1458
82879,197742,232261,-2.7625136916999997,9.248259349,2.0566310246999997,1459
82977,197711,232276,-2.7625136916999997,9.248259349,2.0566310246999997,1460
83103,197777,232298,-2.7625136916999997,9.248259349,2.0566310246999997,1461
83264,197805,232326,-2.7625136916999997,9.248259349,2.0566310246999997,1462
83428,197866,232364,-2.7625136916999997,9.248259349,2.0566310246999997,1463
83596,197931,232433,-2.7625136916999997,9.248259349,2.0566310246999997,1464
83731,197999,232438,-2.7625136916999997,9.248259349,2.0566310246999997,1465
83875,198026,232488,-2.6859433685,9.2350988247,1.9908284031999999,1466
84022,198079,232531,-2.6859433685,9.2350988247,1.9908284031999999,1467
84166,198113,232569,-2.6859433685,9.2350988247,1.9908284031999999,1468
84285,198189,232539,-2.6859433685,9.2350988247,1.9908284031999999,1469
84438,198223,232638,-2.6859433685,9.2350988247,1.9908284031999999,1470
84565,198258,232628,-2.6859433685,9.2350988247,1.9908284031999999,1471
84682,198325,232681,-2.6859433685,9.2350988247,1.9908284031999999,1472
84771,198306,232702,-2.6859433685,9.2350988247,1.9908284031999999,1473
84517,198274,232662,-2.6859433685,9.2350988247,1.9908284031999999,1474
83740,198030,232518,-2.6859433685,9.2350988247,1.9908284031999999,1475
83009,197730,232340,-2.6859433685,9.2350988247,1.9908284031999999,1476
82586,197530,232277,-2.6859433685,9.2350988247,1.9908284031999999,1477
82313,197372,232155,-2.6859433685,9.2350988247,1.9908284031999999,1478
82147,197300,232114,-2.6859433685,9.2350988247,1.9908284031999999,1479
82046,197280,232077,-2.6859433685,9.2350988247,1.9908284031999999,1480
82017,197312,232061,-2.6859433685,9.2350988247,1.9908284031999999,1481
82115,197366,232086,-2.6859433685,9.2350988247,1.9908284031999999,1482
82222,197436,232155,-2.6859433685,9.2350988247,1.9908284031999999,1483
82259,197493,232196,-2.6859433685,9.2350988247,1.9908284031999999,1484
82294,197488,232230,-2.6859433685,9.2350988247,1.9908284031999999,1485
82322,197530,232231,-2.6859433685,9.2350988247,1.9908284031999999,1486
82407,197593,232212,-2.6859433685,9.2350988247,1.9908284031999999,1487
82519,197577,232221,-2.6859433685,9.2350988247,1.9908284031999999,1488
82616,197653,232284,-2.6859433685,9.2350988247,1.9908284031999999,1489
82748,197694,232278,-2.6859433685,9.2350988247,1.9908284031999999,1490
82910,197766,232294,-2.6859433685,9.2350988247,1.9908284031999999,1491
83080,197857,232323,-2.6859433685,9.2350988247,1.9908284031999999,1492
83230,197897,232378,-2.6859433685,9.2350988247,1.9908284031999999,1493
83376,197930,232454,-2.6859433685,9.2350988247,1.9908284031999999,1494
83516,197990,232491,-2.6859433685,9.2350988247,1.9908284031999999,1495
83629,198034,232529,-2.6859433685,9.2350988247,1.9908284031999999,1496
83771,198089,232545,-2.6859433685,9.2350988247,1.9908284031999999,1497
83910,198139,232595,-2.6859433685,9.2350988247,1.9908284031999999,1498
84029,198145,232606,-2.6859433685,9.2350988247,1.9908284031999999,1499
84170,198204,232620,-2.6859433685,9.2350988247,1.9908284031999999,1500
84290,198247,232707,-2.6859433685,9.2350988247,1.9908284031999999,1501
84394,198272,232676,-2.6859433685,9.2350988247,1.9908284031999999,1502
84160,198257,232664,-2.6859433685,9.2350988247,1.9908284031999999,1503
83369,198017,232545,-2.6859433685,9.2350988247,1.9908284031999999,1504
82635,197698,232333,-2.6859433685,9.2350988247,1.9908284031999999,1505
82176,197487,232264,-2.6859433685,9.2350988247,1.9908284031999999,1506
81873,197331,232148,-2.6859433685,9.2350988247,1.9908284031999999,1507
83368,198018,232498,-2.8378876036,9.1022971704,2.0673987264,1508
83506,198051,232558,-2.8378876036,9.1022971704,2.0673987264,1509
83644,198069,232570,-2.8378876036,9.1022971704,2.0673987264,1510
83791,198125,232599,-2.8378876036,9.1022971704,2.0673987264,1511
83949,198199,232638,-2.8378876036,9.1022971704,2.0673987264,1512
84079,198217,232698,-2.8378876036,9.1022971704,2.0673987264,1513
84220,198308,232654,-2.8378876036,9.1022971704,2.0673987264,1514
84377,198354,232701,-2.8378876036,9.1022971704,2.0673987264,1515
84322,198316,232698,-2.8378876036,9.1022971704,2.0673987264,1516
83700,198164,232638,-2.8378876036,9.1022971704,2.0673987264,1517
82876,197871,232439,-2.8378876036,9.1022971704,2.0673987264,1518
82320,197594,232306,-2.8378876036,9.1022971704,2.0673987264,1519
82039,197471,232241,-2.8378876036,9.1022971704,2.0673987264,1520
81882,197383,232174,-2.8378876036,9.1022971704,2.0673987264,1521
81776,197358,232140,-2.8378876036,9.1022971704,2.0673987264,1522
81770,197350,232141,-2.8378876036,9.1022971704,2.0673987264,1523
81845,197426,232198,-2.8378876036,9.1022971704,2.0673987264,1524
81994,197471,232190,-2.8378876036,9.1022971704,2.0673987264,1525
82082,197546,232223,-2.8378876036,9.1022971704,2.0673987264,1526
82129,197577,232213,-2.8378876036,9.1022971704,2.0673987264,1527
82183,197610,232247,-2.8378876036,9.1022971704,2.0673987264,1528
82268,197660,232282,-2.8378876036,9.1022971704,2.0673987264,1529
82350,197660,232309,-2.8378876036,9.1022971704,2.0673987264,1530
82484,197727,232325,-2.8378876036,9.1022971704,2.0673987264,1531
82633,197778,232388,-2.8378876036,9.1022971704,2.0673987264,1532
82782,197839,232390,-2.8378876036,9.1022971704,2.0673987264,1533
82939,197911,232444,-2.8378876036,9.1022971704,2.0673987264,1534
83101,197939,232508,-2.8378876036,9.1022971704,2.0673987264,1535
83249,198009,232520,-2.8378876036,9.1022971704,2.0673987264,1536
83397,198011,232530,-2.8378876036,9.1022971704,2.0673987264,1537
83534,198078,232596,-2.8378876036,9.1022971704,2.0673987264,1538
83668,198155,232606,-2.8378876036,9.1022971704,2.0673987264,1539
83808,198173,232617,-2.8378876036,9.1022971704,2.0673987264,1540
