green,red,IR,acc_x,acc_y,acc_z,sample_index
77818,152750,204812,-8.0542408716,-5.0644090329,0.8745766603,1
77429,152658,204770,-8.124829138299999,-5.0380879843,0.7824529901999999,2
76893,152565,204644,-8.1188470818,-4.9471607255,0.7501498851,3
76305,152492,204588,-8.1511501869,-5.0500520973,0.9056833541,4
75822,152411,204552,-8.1774712355,-5.1314080657000005,0.8279166196,5
75450,152457,204540,-8.039883936,-5.166103993399999,0.8231309743999999,6
75257,152455,204540,-8.0422767586,-5.1302116544,0.8961120637,7
75255,152491,204594,-8.0721870411,-5.0691946781,0.7022934331,8
75439,152533,204635,-8.0650085733,-5.073980323300001,0.7788637562999999,9
75616,152597,204661,-8.0303126456,-4.9998028226999995,0.8279166196,10
75804,152622,204674,-8.1308111948,-5.1708896386,0.8638089586000001,11
76002,152644,204728,-8.1631142999,-5.012963347,0.861416136,12
76172,152642,204707,-8.183453292,-5.0895336702,0.789631458,13
76352,152663,204713,-8.111668614,-4.9830530645,0.7992027483999999,14
76499,152686,204737,-8.0183485326,-5.0775695572,0.7860422241,15
76658,152709,204758,-8.102097323599999,-5.1290152431000005,0.8303094421999999,16
76828,152713,204782,-8.044669581199999,-5.0943193154,0.8279166196,17
76998,152744,204792,-8.0470624038,-5.166103993399999,0.7633104094,18
77170,152735,204811,-8.1427753078,-5.1349972996,0.8638089586000001,19
77322,152777,204819,-8.0781690976,-5.0309095165,0.8123632727,20
77347,152717,204756,-8.0422767586,-5.060819799,0.8745766603,21
77057,152600,204678,-7.9932238953,-5.0201418148,0.8063812161999999,22
76587,152416,204565,-8.116454259200001,-5.0273202826,0.7824529901999999,23
76055,152393,204501,-8.0554372829,-5.1349972996,0.8566304908000001,24
75528,152345,204475,-8.2468630909,-5.0691946781,0.8303094421999999,25
75145,152356,204441,-7.9657064354,-5.2414779053,0.7920242806,26
74946,152339,204446,-7.9788669596999995,-4.9710889515,0.8350950873999999,27
74959,152393,204522,-8.2037922841,-4.990231532299999,0.7585247642,28
75064,152456,204569,-8.0602229281,-5.0620162103,0.885344362,29
75255,152465,204560,-8.0865439767,-5.0021956453,0.8327022648,30
75429,152516,204607,-8.1367932513,-5.073980323300001,0.861416136,31
75584,152510,204609,-8.1344004287,-5.1421757674,0.7561319416,32
75725,152506,204607,-8.1930245824,-5.0919264928,0.8039883936,33
75799,152510,204593,-7.9944203065999995,-5.0656054442,0.8590233134,34
75699,152454,204534,-8.0685978072,-5.0560341538,0.8422735552,35
75347,152321,204440,-8.1810604694,-5.0081777018,0.7752745223999999,36
74920,152248,204378,-8.0662049846,-5.0356951617,0.8745766603,37
74539,152214,204361,-7.969295669299999,-5.1050870171,0.7441678286,38
74299,152209,204379,-8.0386875247,-5.099104960599999,0.7752745223999999,39
74229,152216,204374,-8.147560953,-5.0380879843,0.765703232,40
74318,152242,204442,-8.061419339399999,-5.1302116544,0.8673981925,41
74499,152309,204461,-8.1212399044,-5.1469614126,0.7800601676,42
74777,152367,204490,-8.1451681304,-4.9435714916,0.8327022648,43
74972,152398,204504,-7.980063371,-5.1110690735999995,0.8877371846000001,44
75200,152411,204507,-8.0554372829,-5.096712138,0.7441678286,45
75394,152450,204545,-8.1882389372,-5.0380879843,0.8757730716000001,46
75591,152423,204580,-8.147560953,-5.0560341538,0.8889335959,47
75777,152423,204589,-7.9836526049,-5.0333023391000005,0.8051848049,48
75958,152515,204598,-8.0805619202,-5.060819799,0.8087740388,49
76165,152505,204617,-8.099704501,-5.1050870171,0.8135596839999999,50
76337,152528,204657,-8.1308111948,-5.137390122199999,0.8183453291999999,51
76553,152551,204673,-8.01595571,-5.0141597583,0.8434699665000001,52
76739,152583,204662,-8.1810604694,-5.0117669357,0.8566304908000001,53
76946,152578,204689,-8.171489179,-5.0428736295,0.8937192411,54
77135,152599,204690,-8.171489179,-5.156532702999999,0.8518448456000001,55
77328,152619,204739,-8.1224363157,-5.1385865335,0.8255237969999999,56
77528,152674,204751,-7.9525459111,-5.1110690735999995,0.9128618219,57
77707,152691,204747,-8.2683984943,-5.1314080657000005,0.8721838377000001,58
77854,152705,204758,-8.1032937349,-5.044070040799999,0.789631458,59
77993,152643,204717,-8.2109707519,-5.1732824612,0.8697910151,60
77767,152552,204613,-8.01595571,-5.1577291143,0.7848458128,61
77260,152404,204502,-8.147560953,-5.0189454035,0.7429714173,62
76593,152300,204409,-7.9956167179,-4.977071008,0.9272187574999999,63
75922,152210,204355,-8.1547394208,-5.120640364,0.8159525066,64
75353,152167,204329,-7.9597243789,-5.099104960599999,0.7944171031999999,65
74966,152145,204324,-8.0339018795,-5.087140847600001,0.8721838377000001,66
74770,152181,204305,-7.9645100241,-5.0751767346,0.849452023,67
74767,152224,204360,-8.0410803473,-4.9471607255,0.8027919822999999,68
74892,152251,204412,-8.0590265168,-4.9639104837,0.7728816998,69
75070,152287,204418,-7.942974620699999,-4.990231532299999,0.8159525066,70
75274,152340,204430,-8.1810604694,-5.1062834284,0.7070790783,71
75455,152393,204471,-8.0913296219,-5.156532702999999,0.7920242806,72
75648,152374,204492,-8.0554372829,-5.0285166938999994,0.8590233134,73
75602,152313,204443,-8.111668614,-5.168496815999999,0.849452023,74
75428,152257,204364,-8.0590265168,-5.0691946781,0.789631458,75
75208,152198,204374,-8.0985080897,-5.155336291699999,0.8303094421999999,76
75093,152226,204363,-8.147560953,-5.096712138,0.8793623055,77
75140,152263,204389,-8.0865439767,-5.0823552024,0.8506484343,78
75316,152341,204457,-8.1032937349,-5.044070040799999,0.8135596839999999,79
75538,152389,204492,-8.027919823,-4.9495535481,0.7992027483999999,80
75792,152378,204531,-8.051848049,-5.0763731459,0.8315058535,81
76049,152435,204507,-8.0243305891,-5.0919264928,0.801595571,82
76261,152444,204549,-8.123632727,-5.1254260092,0.8446663778000001,83
76486,152484,204572,-8.1176506705,-5.1732824612,0.8793623055,84
76663,152500,204606,-8.0291162343,-4.9830530645,0.8374879099999999,85
76864,152526,204615,-8.0291162343,-5.2007999211,0.7513462964000001,86
77079,152546,204616,-8.0219377665,-5.044070040799999,0.8458627891,87
77274,152568,204637,-8.044669581199999,-5.1038906058,0.789631458,88
77477,152649,204651,-8.0542408716,-5.180460929,0.8327022648,89
77695,152600,204686,-8.1044901462,-5.2247281471,0.8063812161999999,90
77900,152635,204701,-8.0470624038,-4.8705904022999995,0.8841479507000001,91
78022,152665,204716,-8.1918281711,-5.036891573,0.8279166196,92
78249,152676,204720,-8.0829547428,-5.0787659685,0.8039883936,93
78547,152694,204716,-8.1212399044,-5.02492746,0.8111668613999999,94
78698,152727,204772,-8.1080793801,-5.099104960599999,0.8327022648,95
78900,152736,204749,-8.087740388,-5.1601219369,0.9032905315,96
79096,152737,204793,-8.0195449439,-5.0309095165,0.8039883936,97
79279,152769,204783,-8.0410803473,-5.139782944799999,0.8327022648,98
79277,152734,204712,-8.1463645417,-5.060819799,0.7034898444000001,99
78989,152530,204592,-8.0590265168,-5.0536413312,0.849452023,100
78511,152409,204509,-8.1308111948,-5.2438707279,0.8087740388,101
77935,152322,204407,-7.944171031999999,-5.084748025,0.8386843212999999,102
77431,152287,204379,-8.0075808309,-5.070391089399999,0.8327022648,103
77061,152290,204409,-8.0674013959,-5.1266224204999995,0.8063812161999999,104
76839,152354,204411,-8.1140614366,-4.893322217,0.7944171031999999,105
76833,152358,204396,-8.0219377665,-5.010570524399999,0.861416136,106
76908,152411,204490,-8.0733834524,-5.0787659685,0.8183453291999999,107
77104,152443,204508,-8.0315090569,-5.0333023391000005,0.8398807326,108
77248,152477,204532,-8.1966138163,-5.0668018555,0.8697910151,109
77426,152528,204578,-8.1427753078,-5.0225346374,0.8769694829,110
77597,152551,204570,-8.049455226400001,-4.9746781854,0.8745766603,111
77759,152593,204575,-8.0482588151,-5.1158547188000005,0.8087740388,112
77937,152583,204596,-7.9884382501,-5.0931229041,0.8279166196,113
78095,152585,204585,-8.1080793801,-5.1361937109,0.8865407733,114
78272,152600,204606,-8.0685978072,-5.0632126216,0.7872386353999999,115
78423,152611,204636,-8.1032937349,-5.0464628634,0.8303094421999999,116
78570,152650,204642,-7.998009540499999,-5.1134618962,0.8039883936,117
78726,152656,204678,-8.1439717191,-4.9842494758,0.7609175868,118
78840,152632,204635,-8.185846114599999,-4.9926243549,0.8841479507000001,119
78780,152563,204546,-8.13559684,-5.0177489922000005,0.801595571,120
78505,152397,204442,-8.0554372829,-5.045266452099999,0.8063812161999999,121
78091,152308,204354,-8.1188470818,-5.0380879843,0.7381857721,122
77645,152242,204329,-8.0422767586,-5.0656054442,0.8327022648,123
77313,152220,204281,-8.0458659925,-5.1960142759,0.8327022648,124
77079,152214,204268,-7.9908310727,-5.0333023391000005,0.8709874264,125
76916,152255,204286,-8.183453292,-5.0153561695999995,0.7872386353999999,126
76955,152280,204315,-8.1188470818,-5.0668018555,0.8159525066,127
77076,152338,204336,-8.063812162,-5.1601219369,0.8518448456000001,128
77246,152386,204406,-8.159525066,-5.0763731459,0.8662017812,129
77419,152410,204421,-8.1140614366,-5.1014977832,0.8841479507000001,130
77621,152447,204418,-8.0374911134,-5.057230565099999,0.8590233134,131
77788,152445,204465,-8.0685978072,-4.9519463707,0.7944171031999999,132
77973,152486,204478,-8.0315090569,-5.0141597583,0.8829515394,133
78169,152504,204489,-8.1032937349,-5.0201418148,0.7345965382,134
78348,152520,204495,-8.2384882118,-5.044070040799999,0.7944171031999999,135
78528,152529,204528,-7.9908310727,-5.0943193154,0.8315058535,136
78695,152540,204551,-8.1619178886,-5.1840501629,0.8422735552,137
78892,152555,204545,-8.0183485326,-5.0596233877,0.8350950873999999,138
79064,152605,204538,-8.0769726863,-5.0273202826,0.765703232,139
79172,152579,204519,-8.0781690976,-5.0620162103,0.8877371846000001,140
79067,152475,204432,-8.239684623099999,-5.0344987504,0.8183453291999999,141
78802,152362,204357,-8.099704501,-5.096712138,0.8434699665000001,142
78448,152282,204281,-8.0147592987,-4.9974100001,0.8602197247000001,143
78106,152247,204300,-8.2588272039,-5.096712138,0.8602197247000001,144
77832,152255,204249,-8.1272219609,-5.0919264928,0.7585247642,145
77666,152255,204251,-8.0183485326,-5.0632126216,0.7704888772,146
77647,152292,204297,-8.0506516377,-5.1182475414,0.7944171031999999,147
77716,152367,204340,-8.1140614366,-5.0943193154,0.7968099258,148
77862,152392,204379,-8.099704501,-5.1613183482,0.7704888772,149
78047,152467,204457,-8.1044901462,-5.099104960599999,0.8578269021,150
78221,152504,204420,-8.0949188558,-5.0656054442,0.8841479507000001,151
78393,152514,204458,-8.0362947021,-5.044070040799999,0.801595571,152
78547,152491,204470,-8.2887374864,-4.9543391933,0.8338986760999999,153
78569,152439,204419,-8.195417404999999,-4.9519463707,0.873380249,154
78400,152358,204349,-8.1427753078,-5.0225346374,0.8626125473,155
78196,152285,204320,-8.0925260332,-5.0213382261,0.7848458128,156
77999,152330,204276,-8.13559684,-5.041677218199999,0.7680960546,157
77869,152330,204304,-8.1882389372,-5.139782944799999,0.6843472636,158
77891,152372,204329,-8.099704501,-4.9423750803,0.8159525066,159
78012,152435,204409,-8.1499537756,-5.0273202826,0.9487541609,160
78184,152471,204460,-7.9884382501,-5.0656054442,0.7944171031999999,161
78390,152522,204522,-7.9836526049,-5.1014977832,0.789631458,162
78595,152564,204527,-8.063812162,-5.1134618962,0.7800601676,163
78789,152583,204533,-8.0027951857,-5.0333023391000005,0.8111668613999999,164
78988,152641,204523,-8.0482588151,-5.1852465742,0.7633104094,165
79149,152655,204566,-8.0554372829,-5.2151568567,0.7812565789,166
79381,152674,204603,-8.173882001600001,-5.084748025,0.8051848049,167
79528,152693,204639,-8.0087772422,-5.0632126216,0.8470592004,168
79732,152729,204657,-7.942974620699999,-5.1230331866,0.8542376682,169
79906,152776,204651,-8.0482588151,-5.045266452099999,0.7585247642,170
80085,152782,204694,-8.1415788965,-5.044070040799999,0.8530412569000001,171
80274,152845,204702,-8.1643107112,-5.2438707279,0.6951149653,172
80454,152867,204765,-8.1403824852,-5.0488556860000005,0.7944171031999999,173
80645,152868,204777,-8.027919823,-5.072783911999999,0.8697910151,174
80877,152926,204750,-8.074579863699999,-5.1589255256,0.8937192411,175
81023,152949,204808,-8.0410803473,-5.0045884679,0.8231309743999999,176
81219,153027,204847,-8.070990629799999,-5.2055855663,0.8673981925,177
81399,153001,204890,-8.070990629799999,-5.2055855663,0.8673981925,178
81565,153060,204890,-8.070990629799999,-5.2055855663,0.8673981925,179
81637,153017,204882,-8.070990629799999,-5.2055855663,0.8673981925,180
81464,152909,204747,-8.070990629799999,-5.2055855663,0.8673981925,181
81166,152817,204669,-8.137989662599999,-5.0919264928,0.7872386353999999,182
80768,152780,204682,-8.0195449439,-5.0644090329,0.8482556117000001,183
80357,152756,204601,-8.0554372829,-5.060819799,0.8566304908000001,184
80024,152763,204638,-8.070990629799999,-5.1086762509999994,0.9032905315,185
79798,152806,204656,-8.183453292,-5.0213382261,0.8063812161999999,186
79697,152858,204693,-8.0243305891,-5.0823552024,0.8422735552,187
79719,152918,204771,-8.0470624038,-4.9878387097,0.8087740388,188
79737,152983,204810,-8.0554372829,-5.1194439527,0.849452023,189
79907,152996,204832,-8.070990629799999,-5.0823552024,0.8386843212999999,190
79986,152988,204806,-8.0829547428,-4.9112683865,0.8578269021,191
80087,153024,204862,-8.1583286547,-5.210371211499999,0.8422735552,192
80164,153036,204826,-8.1427753078,-5.1170511301,0.7824529901999999,193
80167,153007,204788,-8.0482588151,-5.036891573,0.7609175868,194
80073,152985,204778,-7.9334033303,-5.026123871299999,0.7848458128,195
79902,152975,204774,-8.1643107112,-4.9663033062999995,0.8602197247000001,196
79852,152984,204843,-7.9262248625,-5.0189454035,0.8470592004,197
79892,153053,204848,-8.116454259200001,-4.9674997176,0.765703232,198
80005,153105,204886,-8.051848049,-5.0823552024,0.861416136,199
80162,153150,204901,-8.2002030502,-4.9734817741,0.8554340795,200
80321,153189,204967,-8.0470624038,-5.1170511301,0.8135596839999999,201
80388,153191,204992,-8.102097323599999,-5.1876393968,0.8662017812,202
80582,153206,204981,-8.1176506705,-5.1637111708,0.8446663778000001,203
80700,153260,204995,-8.0662049846,-5.0464628634,0.7585247642,204
80837,153279,205012,-8.0327054682,-5.0560341538,0.7393821834000001,205
80968,153287,205040,-8.1439717191,-5.0751767346,0.7800601676,206
81097,153317,205080,-8.0075808309,-5.087140847600001,0.8542376682,207
81232,153360,205101,-8.0147592987,-5.1003013719000005,0.8446663778000001,208
81365,153380,205075,-8.1547394208,-5.032105927799999,0.8805587168,209
81496,153411,205068,-8.128418372199999,-4.9962135888,0.7848458128,210
81613,153433,205128,-8.0781690976,-5.036891573,0.8937192411,211
81787,153477,205117,-8.0853475654,-5.140979356100001,0.9080761767,212
81893,153482,205175,-8.087740388,-5.0344987504,0.8255237969999999,213
82016,153507,205199,-8.1930245824,-5.084748025,0.777667345,214
82134,153504,205218,-8.1272219609,-5.1493542352,0.8650053699,215
82314,153546,205196,-8.1188470818,-5.0069812905,0.8135596839999999,216
82367,153565,205201,-8.137989662599999,-5.0237310487,0.8422735552,217
82441,153551,205210,-8.1571322434,-4.9579284272,0.765703232,218
82363,153541,205160,-8.0195449439,-5.0536413312,0.7202396026000001,219
82149,153422,205063,-8.0853475654,-5.0679982668,0.7345965382,220
81605,153292,204949,-8.1439717191,-5.0045884679,0.7872386353999999,221
80913,153262,204918,-8.2013994615,-4.9686961289000005,0.8039883936,222
80195,153197,204886,-7.992027484,-5.120640364,0.8171489179,223
79583,153213,204858,-8.2600236152,-5.096712138,0.7968099258,224
79144,153220,204920,-8.1391860739,-5.0285166938999994,0.8159525066,225
78886,153276,204907,-8.137989662599999,-5.0500520973,0.9296115801,226
78786,153320,204957,-8.0111700648,-5.010570524399999,0.8087740388,227
78785,153364,204979,-8.01595571,-5.2187460906,0.9224331123,228
78794,153369,205006,-7.9968131291999995,-4.977071008,0.7728816998,229
78841,153387,205007,-8.0925260332,-5.0213382261,0.8171489179,230
78874,153392,205029,-7.9944203065999995,-5.010570524399999,0.7334001269,231
78882,153401,205044,-8.1403824852,-5.0644090329,0.8159525066,232
78982,153435,205075,-7.9669028467,-5.0189454035,0.9535398061,233
79027,153451,205058,-8.0685978072,-5.132604477,0.7752745223999999,234
79090,153481,205076,-8.102097323599999,-4.9280181447,0.8338986760999999,235
79169,153512,205086,-8.0482588151,-4.9328037898999995,0.7824529901999999,236
79273,153534,205073,-8.0219377665,-5.0488556860000005,0.8063812161999999,237
79366,153526,205103,-8.1403824852,-5.1649075821,0.8279166196,238
79473,153501,205143,-8.1810604694,-4.9495535481,0.7752745223999999,239
79541,153517,205134,-8.129614783500001,-5.099104960599999,0.8470592004,240
79441,153471,205066,-8.0410803473,-5.0141597583,0.849452023,241
79030,153370,204961,-8.1906317598,-5.0117669357,0.7992027483999999,242
78434,153281,204908,-8.026723411699999,-4.9914279436,0.7920242806,243
77733,153201,204873,-8.170292767700001,-5.0021956453,0.765703232,244
77263,153201,204813,-7.9896346614,-5.0093741131,0.8111668613999999,245
76877,153189,204805,-8.0901332106,-4.977071008,0.8099704500999999,246
76632,153202,204855,-8.044669581199999,-5.0943193154,0.8781658942,247
76574,153269,204874,-8.0721870411,-5.1230331866,0.7824529901999999,248
76681,153319,204914,-8.01595571,-5.1098726623,0.7824529901999999,249
76836,153347,204952,-8.0829547428,-5.1266224204999995,0.7633104094,250
76997,153377,204963,-8.1846497033,-5.0656054442,0.8673981925,251
77175,153384,204984,-8.1547394208,-5.0931229041,0.9152546444999999,252
77267,153416,204989,-8.1619178886,-5.0392843956,0.8446663778000001,253
77452,153435,205017,-8.129614783500001,-5.0943193154,0.7286144817,254
77590,153460,205016,-8.0913296219,-5.155336291699999,0.849452023,255
77740,153465,205014,-8.1320076061,-5.044070040799999,0.8003991597,256
77887,153485,205050,-8.075776275,-5.155336291699999,0.7968099258,257
78042,153506,205041,-8.111668614,-5.0189454035,0.8590233134,258
78174,153530,205078,-8.0410803473,-5.1098726623,0.7848458128,259
78339,153557,205098,-8.0781690976,-5.1613183482,0.7692924659,260
78373,153532,205084,-7.992027484,-5.0775695572,0.8183453291999999,261
78134,153414,205021,-8.173882001600001,-5.1003013719000005,0.8386843212999999,262
77647,153308,204922,-8.347361640099999,-5.060819799,0.9008977089,263
77070,153269,204844,-8.2253276875,-5.1756752837999995,0.8446663778000001,264
76572,153225,204799,-8.044669581199999,-5.127818831799999,0.8183453291999999,265
76177,153188,204825,-8.1463645417,-5.1086762509999994,0.8159525066,266
75946,153242,204824,-8.0339018795,-5.0177489922000005,0.7836494015,267
75923,153286,204912,-8.0135628874,-4.9794638306,0.8518448456000001,268
76054,153341,204891,-8.0733834524,-4.977071008,0.9487541609,269
76275,153381,204942,-8.0004023631,-5.0201418148,0.8721838377000001,270
76483,153430,205000,-7.970492080600001,-5.0668018555,0.7968099258,271
76706,153453,205039,-8.0913296219,-5.1302116544,0.741775006,272
76901,153451,205045,-8.1571322434,-5.0596233877,0.8279166196,273
77092,153481,205063,-8.219345631,-5.1158547188000005,0.7752745223999999,274
77252,153474,205047,-8.124829138299999,-5.0548377425,0.7968099258,275
77222,153440,205025,-8.0303126456,-5.096712138,0.8267202082999999,276
76939,153333,204955,-8.0937224445,-5.1182475414,0.7345965382,277
76616,153289,204911,-8.1762748242,-5.0404808069,0.8638089586000001,278
76251,153286,204886,-8.062615750700001,-5.1900322194,0.801595571,279
76053,153255,204894,-8.1571322434,-5.132604477,0.789631458,280
76012,153311,204930,-8.128418372199999,-5.0835516137,0.7345965382,281
76139,153364,204975,-8.1547394208,-5.1038906058,0.7680960546,282
76366,153424,205047,-8.1523465982,-5.0512485086,0.8662017812,283
76619,153461,205069,-8.075776275,-5.0799623797999995,0.8147560952999999,284
76883,153500,205081,-8.0434731699,-5.1936214533,0.8039883936,285
77106,153517,205137,-8.1427753078,-5.029713105200001,0.801595571,286
77323,153528,205136,-7.9788669596999995,-4.9375894351,0.8039883936,287
77524,153545,205117,-8.0949188558,-5.0057848792,0.8255237969999999,288
77762,153601,205176,-8.171489179,-4.9878387097,0.8410771438999999,289
77932,153588,205227,-8.0973116784,-5.029713105200001,0.8183453291999999,290
78187,153632,205227,-8.0303126456,-5.181657340299999,0.8135596839999999,291
78350,153644,205259,-7.9166535721,-5.1505506465,0.7920242806,292
78491,153673,205277,-8.044669581199999,-4.9962135888,0.7465606512,293
78761,153724,205261,-8.207381518,-5.1254260092,0.7704888772,294
79007,153717,205344,-8.1439717191,-5.0679982668,0.8542376682,295
79190,153756,205350,-8.0231341778,-4.9698925402,0.7992027483999999,296
79380,153799,205408,-7.9788669596999995,-5.0344987504,0.8374879099999999,297
79585,153839,205406,-8.1260255496,-5.1158547188000005,0.8769694829,298
79780,153831,205409,-8.1260255496,-5.1158547188000005,0.8769694829,299
79980,153886,205435,-8.1260255496,-5.1158547188000005,0.8769694829,300
80136,153856,205424,-8.1260255496,-5.1158547188000005,0.8769694829,301
80069,153762,205354,-8.1260255496,-5.1158547188000005,0.8769694829,302
79730,153645,205251,-8.1260255496,-5.1158547188000005,0.8769694829,303
79234,153574,205198,-7.9214392173,-5.0225346374,0.8183453291999999,304
78730,153497,205150,-8.0422767586,-5.072783911999999,0.7405785947,305
78276,153503,205096,-8.0685978072,-4.9974100001,0.7872386353999999,306
77960,153467,205096,-8.1080793801,-5.058426976400001,0.8542376682,307
77791,153494,205130,-8.1415788965,-5.057230565099999,0.8183453291999999,308
77772,153536,205161,-7.9716884919,-5.1158547188000005,0.8422735552,309
77870,153578,205170,-7.9716884919,-5.1158547188000005,0.8422735552,310
77993,153613,205219,-7.9716884919,-5.1158547188000005,0.8422735552,311
78116,153589,205217,-7.9716884919,-5.1158547188000005,0.8422735552,312
78221,153612,205222,-7.9716884919,-5.1158547188000005,0.8422735552,313
78311,153612,205207,-7.9716884919,-5.1158547188000005,0.8422735552,314
78227,153515,205170,-7.9716884919,-5.1158547188000005,0.8422735552,315
77971,153479,205085,-7.9716884919,-5.1158547188000005,0.8422735552,316
77697,153410,205078,-7.9716884919,-5.1158547188000005,0.8422735552,317
77516,153446,205066,-7.9716884919,-5.1158547188000005,0.8422735552,318
77503,153480,205091,-7.9716884919,-5.1158547188000005,0.8422735552,319
77615,153518,205141,-7.9716884919,-5.1158547188000005,0.8422735552,320
77786,153561,205154,-7.9716884919,-5.1158547188000005,0.8422735552,321
77989,153621,205210,-7.9716884919,-5.1158547188000005,0.8422735552,322
78160,153631,205213,-7.9716884919,-5.1158547188000005,0.8422735552,323
78337,153644,205229,-7.9716884919,-5.1158547188000005,0.8422735552,324
78489,153626,205235,-7.9716884919,-5.1158547188000005,0.8422735552,325
78665,153679,205269,-7.9716884919,-5.1158547188000005,0.8422735552,326
78821,153673,205290,-7.9716884919,-5.1158547188000005,0.8422735552,327
78971,153742,205302,-7.9716884919,-5.1158547188000005,0.8422735552,328
79130,153741,205304,-8.0925260332,-5.0225346374,0.8350950873999999,329
79311,153764,205336,-8.0925260332,-5.0225346374,0.8350950873999999,330
79463,153760,205376,-8.0925260332,-5.0225346374,0.8350950873999999,331
79633,153802,205377,-8.0925260332,-5.0225346374,0.8350950873999999,332
79797,153830,205376,-8.0925260332,-5.0225346374,0.8350950873999999,333
79973,153819,205416,-8.0925260332,-5.0225346374,0.8350950873999999,334
80146,153862,205439,-8.0925260332,-5.0225346374,0.8350950873999999,335
80315,153854,205447,-8.0925260332,-5.0225346374,0.8350950873999999,336
80465,153929,205469,-8.0925260332,-5.0225346374,0.8350950873999999,337
80618,153921,205481,-8.0925260332,-5.0225346374,0.8350950873999999,338
80770,153914,205531,-8.0925260332,-5.0225346374,0.8350950873999999,339
80922,153956,205487,-8.0925260332,-5.0225346374,0.8350950873999999,340
81022,153960,205495,-8.0925260332,-5.0225346374,0.8350950873999999,341
80956,153879,205447,-8.0925260332,-5.0225346374,0.8350950873999999,342
80582,153736,205366,-8.0925260332,-5.0225346374,0.8350950873999999,343
80042,153611,205254,-8.0925260332,-5.0225346374,0.8350950873999999,344
79408,153564,205202,-8.0925260332,-5.0225346374,0.8350950873999999,345
78800,153522,205117,-8.0925260332,-5.0225346374,0.8350950873999999,346
78349,153503,205141,-8.0925260332,-5.0225346374,0.8350950873999999,347
78040,153518,205148,-8.0925260332,-5.0225346374,0.8350950873999999,348
77911,153575,205184,-8.0925260332,-5.0225346374,0.8350950873999999,349
77917,153597,205200,-8.0925260332,-5.0225346374,0.8350950873999999,350
78001,153609,205211,-8.0925260332,-5.0225346374,0.8350950873999999,351
78111,153645,205254,-8.0925260332,-5.0225346374,0.8350950873999999,352
78218,153670,205248,-8.0925260332,-5.0225346374,0.8350950873999999,353
78301,153693,205252,-8.0925260332,-5.0225346374,0.8350950873999999,354
78405,153691,205281,-8.0925260332,-5.0225346374,0.8350950873999999,355
78499,153693,205306,-8.0925260332,-5.0225346374,0.8350950873999999,356
78602,153717,205324,-8.0925260332,-5.0225346374,0.8350950873999999,357
78707,153733,205299,-8.0925260332,-5.0225346374,0.8350950873999999,358
78846,153752,205363,-8.0925260332,-5.0225346374,0.8350950873999999,359
78970,153776,205350,-8.0925260332,-5.0225346374,0.8350950873999999,360
79102,153803,205390,-8.0925260332,-5.0225346374,0.8350950873999999,361
79265,153810,205410,-8.0925260332,-5.0225346374,0.8350950873999999,362
79386,153829,205395,-8.0925260332,-5.0225346374,0.8350950873999999,363
79319,153793,205370,-8.0925260332,-5.0225346374,0.8350950873999999,364
78959,153655,205281,-8.0925260332,-5.0225346374,0.8350950873999999,365
78448,153548,205186,-8.0925260332,-5.0225346374,0.8350950873999999,366
77883,153490,205147,-8.0925260332,-5.0225346374,0.8350950873999999,367
77386,153480,205132,-8.0925260332,-5.0225346374,0.8350950873999999,368
76997,153439,205082,-8.0925260332,-5.0225346374,0.8350950873999999,369
76764,153452,205093,-8.0925260332,-5.0225346374,0.8350950873999999,370
77222,153612,205236,-7.9262248625,-4.9962135888,0.8566304908000001,371
77387,153631,205257,-7.9262248625,-4.9962135888,0.8566304908000001,372
77528,153653,205264,-7.9262248625,-4.9962135888,0.8566304908000001,373
77664,153668,205297,-7.9262248625,-4.9962135888,0.8566304908000001,374
77808,153681,205295,-7.9262248625,-4.9962135888,0.8566304908000001,375
77949,153713,205311,-7.9262248625,-4.9962135888,0.8566304908000001,376
78102,153719,205344,-7.9262248625,-4.9962135888,0.8566304908000001,377
78265,153748,205342,-7.9262248625,-4.9962135888,0.8566304908000001,378
78422,153797,205392,-7.9262248625,-4.9962135888,0.8566304908000001,379
78586,153779,205406,-7.9262248625,-4.9962135888,0.8566304908000001,380
78750,153808,205402,-7.9262248625,-4.9962135888,0.8566304908000001,381
78783,153756,205387,-7.9262248625,-4.9962135888,0.8566304908000001,382
78497,153654,205305,-7.9262248625,-4.9962135888,0.8566304908000001,383
78000,153542,205227,-7.9262248625,-4.9962135888,0.8566304908000001,384
77451,153478,205178,-7.9262248625,-4.9962135888,0.8566304908000001,385
76959,153451,205130,-7.9262248625,-4.9962135888,0.8566304908000001,386
76572,153426,205082,-7.9262248625,-4.9962135888,0.8566304908000001,387
76371,153427,205082,-7.9262248625,-4.9962135888,0.8566304908000001,388
76371,153444,205128,-7.9262248625,-4.9962135888,0.8566304908000001,389
76509,153506,205165,-7.9262248625,-4.9962135888,0.8566304908000001,390
76696,153560,205218,-7.9262248625,-4.9962135888,0.8566304908000001,391
76905,153578,205243,-7.9262248625,-4.9962135888,0.8566304908000001,392
77087,153611,205275,-7.9262248625,-4.9962135888,0.8566304908000001,393
77234,153638,205250,-7.9262248625,-4.9962135888,0.8566304908000001,394
77369,153632,205275,-7.9262248625,-4.9962135888,0.8566304908000001,395
77429,153612,205283,-7.9262248625,-4.9962135888,0.8566304908000001,396
77278,153526,205209,-7.9262248625,-4.9962135888,0.8566304908000001,397
76877,153458,205123,-7.9262248625,-4.9962135888,0.8566304908000001,398
76427,153404,205095,-7.9262248625,-4.9962135888,0.8566304908000001,399
76043,153320,205029,-7.9262248625,-4.9962135888,0.8566304908000001,400
75831,153329,205019,-7.9262248625,-4.9962135888,0.8566304908000001,401
75767,153376,205046,-7.9262248625,-4.9962135888,0.8566304908000001,402
75874,153414,205089,-7.9262248625,-4.9962135888,0.8566304908000001,403
76057,153439,205137,-7.9262248625,-4.9962135888,0.8566304908000001,404
76262,153481,205159,-7.9262248625,-4.9962135888,0.8566304908000001,405
76450,153473,205189,-7.9262248625,-4.9962135888,0.8566304908000001,406
76613,153487,205213,-7.9262248625,-4.9962135888,0.8566304908000001,407
76769,153509,205205,-7.9262248625,-4.9962135888,0.8566304908000001,408
76935,153524,205208,-7.9262248625,-4.9962135888,0.8566304908000001,409
77099,153544,205263,-7.9262248625,-4.9962135888,0.8566304908000001,410
77268,153559,205280,-7.9262248625,-4.9962135888,0.8566304908000001,411
77425,153573,205289,-7.9262248625,-4.9962135888,0.8566304908000001,412
79064,153457,205253,-8.084151154099999,-5.0679982668,0.7872386353999999,413
78703,153330,205148,-8.084151154099999,-5.0679982668,0.7872386353999999,414
78184,153212,205042,-8.084151154099999,-5.0679982668,0.7872386353999999,415
77663,153099,204970,-8.084151154099999,-5.0679982668,0.7872386353999999,416
77164,153081,204947,-8.084151154099999,-5.0679982668,0.7872386353999999,417
76791,153082,204945,-8.084151154099999,-5.0679982668,0.7872386353999999,418
76593,153068,204906,-8.084151154099999,-5.0679982668,0.7872386353999999,419
76547,153104,204928,-8.084151154099999,-5.0679982668,0.7872386353999999,420
76635,153101,204997,-8.084151154099999,-5.0679982668,0.7872386353999999,421
76760,153158,204981,-8.084151154099999,-5.0679982668,0.7872386353999999,422
76893,153167,205014,-8.084151154099999,-5.0679982668,0.7872386353999999,423
77033,153206,205025,-8.084151154099999,-5.0679982668,0.7872386353999999,424
77153,153178,205089,-8.084151154099999,-5.0679982668,0.7872386353999999,425
77269,153188,205019,-8.084151154099999,-5.0679982668,0.7872386353999999,426
77418,153207,205064,-8.084151154099999,-5.0679982668,0.7872386353999999,427
77553,153205,205080,-8.084151154099999,-5.0679982668,0.7872386353999999,428
77678,153266,205093,-8.084151154099999,-5.0679982668,0.7872386353999999,429
77827,153272,205111,-8.084151154099999,-5.0679982668,0.7872386353999999,430
77977,153265,205107,-8.084151154099999,-5.0679982668,0.7872386353999999,431
78123,153271,205122,-8.084151154099999,-5.0679982668,0.7872386353999999,432
78219,153266,205094,-8.084151154099999,-5.0679982668,0.7872386353999999,433
78052,153178,205028,-8.084151154099999,-5.0679982668,0.7872386353999999,434
77611,153056,204945,-8.084151154099999,-5.0679982668,0.7872386353999999,435
77066,152951,204843,-8.084151154099999,-5.0679982668,0.7872386353999999,436
76537,152868,204805,-8.084151154099999,-5.0679982668,0.7872386353999999,437
76085,152860,204730,-8.084151154099999,-5.0679982668,0.7872386353999999,438
75748,152811,204743,-8.084151154099999,-5.0679982668,0.7872386353999999,439
75600,152837,204745,-8.084151154099999,-5.0679982668,0.7872386353999999,440
75616,152908,204798,-8.084151154099999,-5.0679982668,0.7872386353999999,441
75750,152953,204821,-8.084151154099999,-5.0679982668,0.7872386353999999,442
75930,152962,204887,-8.084151154099999,-5.0679982668,0.7872386353999999,443
76109,153002,204880,-8.084151154099999,-5.0679982668,0.7872386353999999,444
76276,152982,204906,-8.084151154099999,-5.0679982668,0.7872386353999999,445
76444,153025,204917,-8.084151154099999,-5.0679982668,0.7872386353999999,446
76579,153056,204928,-8.084151154099999,-5.0679982668,0.7872386353999999,447
76580,152975,204903,-8.084151154099999,-5.0679982668,0.7872386353999999,448
76317,152877,204785,-8.084151154099999,-5.0679982668,0.7872386353999999,449
75895,152797,204719,-8.084151154099999,-5.0679982668,0.7872386353999999,450
75505,152726,204692,-8.084151154099999,-5.0679982668,0.7872386353999999,451
75194,152680,204717,-8.084151154099999,-5.0679982668,0.7872386353999999,452
75026,152712,204684,-8.084151154099999,-5.0679982668,0.7872386353999999,453
75033,152747,204708,-8.084151154099999,-5.0679982668,0.7872386353999999,454
77616,152767,204696,-7.9884382501,-5.0309095165,0.8470592004,455
77331,152722,204715,-7.9884382501,-5.0309095165,0.8470592004,456
77179,152777,204742,-7.9884382501,-5.0309095165,0.8470592004,457
77177,152823,204750,-7.9884382501,-5.0309095165,0.8470592004,458
77252,152856,204776,-7.9884382501,-5.0309095165,0.8470592004,459
77392,152895,204788,-7.9884382501,-5.0309095165,0.8470592004,460
77537,152905,204823,-7.9884382501,-5.0309095165,0.8470592004,461
77695,152931,204856,-7.9884382501,-5.0309095165,0.8470592004,462
77833,152955,204840,-7.9884382501,-5.0309095165,0.8470592004,463
77981,152959,204881,-7.9884382501,-5.0309095165,0.8470592004,464
78125,152977,204873,-7.9884382501,-5.0309095165,0.8470592004,465
78267,153002,204875,-7.9884382501,-5.0309095165,0.8470592004,466
78407,152988,204890,-7.9884382501,-5.0309095165,0.8470592004,467
78557,153026,204888,-7.9884382501,-5.0309095165,0.8470592004,468
78712,153057,204922,-7.9884382501,-5.0309095165,0.8470592004,469
78867,153034,204932,-7.9884382501,-5.0309095165,0.8470592004,470
78906,152993,204879,-7.9884382501,-5.0309095165,0.8470592004,471
78677,152908,204804,-7.9884382501,-5.0309095165,0.8470592004,472
78286,152811,204745,-7.9884382501,-5.0309095165,0.8470592004,473
77837,152749,204685,-7.9884382501,-5.0309095165,0.8470592004,474
77410,152673,204658,-8.0901332106,-4.9603212498,0.801595571,475
77066,152680,204646,-8.0901332106,-4.9603212498,0.801595571,476
76820,152664,204609,-8.0901332106,-4.9603212498,0.801595571,477
76724,152700,204637,-8.0901332106,-4.9603212498,0.801595571,478
76771,152737,204665,-8.0901332106,-4.9603212498,0.801595571,479
76920,152800,204684,-8.0901332106,-4.9603212498,0.801595571,480
77091,152831,204745,-8.0901332106,-4.9603212498,0.801595571,481
77268,152832,204776,-8.0901332106,-4.9603212498,0.801595571,482
77434,152876,204824,-8.0901332106,-4.9603212498,0.801595571,483
77604,152891,204786,-8.0901332106,-4.9603212498,0.801595571,484
77743,152892,204807,-8.0901332106,-4.9603212498,0.801595571,485
77722,152866,204752,-8.0901332106,-4.9603212498,0.801595571,486
77495,152741,204692,-8.0901332106,-4.9603212498,0.801595571,487
77143,152667,204665,-8.0901332106,-4.9603212498,0.801595571,488
76832,152646,204598,-8.0901332106,-4.9603212498,0.801595571,489
76585,152628,204576,-8.0901332106,-4.9603212498,0.801595571,490
76461,152661,204589,-8.0901332106,-4.9603212498,0.801595571,491
76512,152715,204630,-8.0901332106,-4.9603212498,0.801595571,492
76664,152766,204658,-8.0901332106,-4.9603212498,0.801595571,493
76877,152790,204715,-8.0901332106,-4.9603212498,0.801595571,494
77096,152829,204735,-8.0901332106,-4.9603212498,0.801595571,495
77299,152857,204781,-8.0901332106,-4.9603212498,0.801595571,496
77495,152853,204793,-8.0901332106,-4.9603212498,0.801595571,497
77684,152906,204815,-8.0901332106,-4.9603212498,0.801595571,498
77885,152911,204805,-8.0901332106,-4.9603212498,0.801595571,499
78068,152951,204852,-8.0901332106,-4.9603212498,0.801595571,500
78254,152942,204831,-8.0901332106,-4.9603212498,0.801595571,501
78446,152941,204891,-8.0901332106,-4.9603212498,0.801595571,502
78635,152996,204895,-8.0901332106,-4.9603212498,0.801595571,503
78818,153020,204865,-8.0901332106,-4.9603212498,0.801595571,504
78993,153042,204914,-8.0901332106,-4.9603212498,0.801595571,505
79181,153033,204917,-8.0243305891,-5.0428736295,0.8506484343,506
79365,153068,204953,-8.0243305891,-5.0428736295,0.8506484343,507
79547,153094,204963,-8.0243305891,-5.0428736295,0.8506484343,508
79709,153112,204960,-8.0243305891,-5.0428736295,0.8506484343,509
79893,153122,204964,-8.0243305891,-5.0428736295,0.8506484343,510
79982,153071,204951,-8.0243305891,-5.0428736295,0.8506484343,511
79812,152985,204906,-8.0243305891,-5.0428736295,0.8506484343,512
79398,152855,204757,-8.0243305891,-5.0428736295,0.8506484343,513
78867,152756,204672,-8.0243305891,-5.0428736295,0.8506484343,514
78280,152673,204613,-8.0243305891,-5.0428736295,0.8506484343,515
77802,152647,204560,-8.0243305891,-5.0428736295,0.8506484343,516
77435,152608,204569,-8.0243305891,-5.0428736295,0.8506484343,517
77231,152682,204579,-8.0243305891,-5.0428736295,0.8506484343,518
77176,152691,204602,-8.0243305891,-5.0428736295,0.8506484343,519
77232,152729,204593,-8.0243305891,-5.0428736295,0.8506484343,520
77332,152732,204670,-8.0243305891,-5.0428736295,0.8506484343,521
77442,152745,204682,-8.0243305891,-5.0428736295,0.8506484343,522
77550,152788,204649,-8.0243305891,-5.0428736295,0.8506484343,523
77600,152783,204628,-8.0243305891,-5.0428736295,0.8506484343,524
77510,152690,204617,-8.0243305891,-5.0428736295,0.8506484343,525
77247,152613,204525,-8.0243305891,-5.0428736295,0.8506484343,526
76906,152555,204532,-8.0243305891,-5.0428736295,0.8506484343,527
76655,152560,204525,-8.0243305891,-5.0428736295,0.8506484343,528
76562,152576,204504,-8.0243305891,-5.0428736295,0.8506484343,529
76592,152618,204536,-8.0243305891,-5.0428736295,0.8506484343,530
76740,152667,204631,-8.0243305891,-5.0428736295,0.8506484343,531
76928,152695,204621,-8.0243305891,-5.0428736295,0.8506484343,532
77113,152731,204618,-8.0243305891,-5.0428736295,0.8506484343,533
77290,152768,204674,-8.0243305891,-5.0428736295,0.8506484343,534
77471,152765,204628,-8.0243305891,-5.0428736295,0.8506484343,535
77634,152770,204652,-8.0243305891,-5.0428736295,0.8506484343,536
77807,152792,204693,-8.0243305891,-5.0428736295,0.8506484343,537
77961,152786,204720,-7.969295669299999,-5.114658307499999,0.8315058535,538
78118,152833,204743,-7.969295669299999,-5.114658307499999,0.8315058535,539
78286,152849,204733,-7.969295669299999,-5.114658307499999,0.8315058535,540
78450,152866,204743,-7.969295669299999,-5.114658307499999,0.8315058535,541
78629,152871,204788,-7.969295669299999,-5.114658307499999,0.8315058535,542
78804,152899,204789,-7.969295669299999,-5.114658307499999,0.8315058535,543
78976,152929,204825,-7.969295669299999,-5.114658307499999,0.8315058535,544
79139,152953,204770,-7.969295669299999,-5.114658307499999,0.8315058535,545
79313,152956,204835,-7.969295669299999,-5.114658307499999,0.8315058535,546
79483,152968,204844,-7.969295669299999,-5.114658307499999,0.8315058535,547
79645,153009,204859,-7.969295669299999,-5.114658307499999,0.8315058535,548
79805,153008,204860,-7.969295669299999,-5.114658307499999,0.8315058535,549
79948,153000,204857,-7.969295669299999,-5.114658307499999,0.8315058535,550
79978,152969,204852,-7.969295669299999,-5.114658307499999,0.8315058535,551
79712,152863,204714,-7.969295669299999,-5.114658307499999,0.8315058535,552
79204,152691,204653,-7.969295669299999,-5.114658307499999,0.8315058535,553
78583,152597,204555,-7.969295669299999,-5.114658307499999,0.8315058535,554
77971,152541,204516,-7.969295669299999,-5.114658307499999,0.8315058535,555
77454,152515,204475,-7.969295669299999,-5.114658307499999,0.8315058535,556
77077,152527,204467,-7.969295669299999,-5.114658307499999,0.8315058535,557
76879,152555,204503,-7.969295669299999,-5.114658307499999,0.8315058535,558
76856,152601,204488,-7.969295669299999,-5.114658307499999,0.8315058535,559
76918,152663,204543,-7.969295669299999,-5.114658307499999,0.8315058535,560
77049,152675,204578,-7.969295669299999,-5.114658307499999,0.8315058535,561
77208,152700,204585,-7.969295669299999,-5.114658307499999,0.8315058535,562
77354,152722,204626,-7.969295669299999,-5.114658307499999,0.8315058535,563
77473,152737,204630,-7.969295669299999,-5.114658307499999,0.8315058535,564
77487,152680,204634,-7.969295669299999,-5.114658307499999,0.8315058535,565
77332,152629,204583,-7.969295669299999,-5.114658307499999,0.8315058535,566
77089,152591,204503,-7.969295669299999,-5.114658307499999,0.8315058535,567
76938,152587,204533,-7.969295669299999,-5.114658307499999,0.8315058535,568
76908,152612,204562,-7.969295669299999,-5.114658307499999,0.8315058535,569
77015,152664,204599,-7.969295669299999,-5.114658307499999,0.8315058535,570
77186,152715,204620,-7.969295669299999,-5.114658307499999,0.8315058535,571
77385,152744,204656,-7.969295669299999,-5.114658307499999,0.8315058535,572
77575,152761,204665,-7.969295669299999,-5.114658307499999,0.8315058535,573
77767,152784,204706,-7.969295669299999,-5.114658307499999,0.8315058535,574
77953,152807,204731,-7.969295669299999,-5.114658307499999,0.8315058535,575
78135,152819,204707,-7.969295669299999,-5.114658307499999,0.8315058535,576
78307,152853,204755,-7.969295669299999,-5.114658307499999,0.8315058535,577
78490,152848,204736,-7.969295669299999,-5.114658307499999,0.8315058535,578
78669,152881,204731,-7.969295669299999,-5.114658307499999,0.8315058535,579
76969,152663,204630,-8.061419339399999,-5.012963347,0.7872386353999999,580
77130,152691,204605,-8.061419339399999,-5.012963347,0.7872386353999999,581
77300,152710,204603,-8.061419339399999,-5.012963347,0.7872386353999999,582
77447,152723,204636,-8.061419339399999,-5.012963347,0.7872386353999999,583
77585,152727,204653,-8.061419339399999,-5.012963347,0.7872386353999999,584
77560,152673,204582,-8.061419339399999,-5.012963347,0.7872386353999999,585
77252,152578,204465,-8.061419339399999,-5.012963347,0.7872386353999999,586
76715,152414,204415,-8.061419339399999,-5.012963347,0.7872386353999999,587
76143,152345,204305,-8.061419339399999,-5.012963347,0.7872386353999999,588
75614,152276,204264,-8.061419339399999,-5.012963347,0.7872386353999999,589
75222,152269,204313,-8.061419339399999,-5.012963347,0.7872386353999999,590
75002,152307,204307,-8.061419339399999,-5.012963347,0.7872386353999999,591
74980,152349,204292,-8.061419339399999,-5.012963347,0.7872386353999999,592
75084,152409,204354,-8.061419339399999,-5.012963347,0.7872386353999999,593
75277,152434,204409,-8.061419339399999,-5.012963347,0.7872386353999999,594
75498,152474,204431,-8.061419339399999,-5.012963347,0.7872386353999999,595
75708,152511,204466,-8.061419339399999,-5.012963347,0.7872386353999999,596
75912,152515,204491,-8.061419339399999,-5.012963347,0.7872386353999999,597
76101,152548,204526,-8.061419339399999,-5.012963347,0.7872386353999999,598
76216,152508,204466,-8.061419339399999,-5.012963347,0.7872386353999999,599
76111,152439,204408,-8.061419339399999,-5.012963347,0.7872386353999999,600
75788,152330,204363,-8.061419339399999,-5.012963347,0.7872386353999999,601
75394,152280,204329,-8.061419339399999,-5.012963347,0.7872386353999999,602
75053,152251,204249,-8.061419339399999,-5.012963347,0.7872386353999999,603
74839,152279,204285,-8.061419339399999,-5.012963347,0.7872386353999999,604
74801,152288,204318,-8.061419339399999,-5.012963347,0.7872386353999999,605
74950,152325,204383,-8.061419339399999,-5.012963347,0.7872386353999999,606
75174,152381,204397,-8.061419339399999,-5.012963347,0.7872386353999999,607
75435,152451,204467,-8.061419339399999,-5.012963347,0.7872386353999999,608
75711,152482,204498,-8.061419339399999,-5.012963347,0.7872386353999999,609
75955,152516,204515,-8.061419339399999,-5.012963347,0.7872386353999999,610
76200,152567,204505,-8.061419339399999,-5.012963347,0.7872386353999999,611
76431,152543,204570,-8.061419339399999,-5.012963347,0.7872386353999999,612
76651,152580,204546,-8.061419339399999,-5.012963347,0.7872386353999999,613
76873,152609,204617,-8.061419339399999,-5.012963347,0.7872386353999999,614
77084,152634,204625,-8.061419339399999,-5.012963347,0.7872386353999999,615
77298,152659,204611,-8.061419339399999,-5.012963347,0.7872386353999999,616
77524,152660,204689,-8.061419339399999,-5.012963347,0.7872386353999999,617
77744,152702,204679,-8.061419339399999,-5.012963347,0.7872386353999999,618
77956,152743,204671,-8.061419339399999,-5.012963347,0.7872386353999999,619
78171,152761,204720,-8.061419339399999,-5.012963347,0.7872386353999999,620
78396,152762,204770,-8.061419339399999,-5.012963347,0.7872386353999999,621
77409,152590,204617,-8.0853475654,-5.084748025,0.8327022648,622
77272,152533,204531,-8.0853475654,-5.084748025,0.8327022648,623
77055,152471,204508,-8.0853475654,-5.084748025,0.8327022648,624
76866,152469,204505,-8.0853475654,-5.084748025,0.8327022648,625
76820,152455,204512,-8.0853475654,-5.084748025,0.8327022648,626
76897,152500,204529,-8.0853475654,-5.084748025,0.8327022648,627
77055,152578,204594,-8.0853475654,-5.084748025,0.8327022648,628
77209,152587,204586,-8.0853475654,-5.084748025,0.8327022648,629
77362,152592,204621,-8.0853475654,-5.084748025,0.8327022648,630
77518,152604,204620,-8.0853475654,-5.084748025,0.8327022648,631
77651,152615,204619,-8.0853475654,-5.084748025,0.8327022648,632
77782,152616,204689,-8.0853475654,-5.084748025,0.8327022648,633
77914,152650,204622,-8.0853475654,-5.084748025,0.8327022648,634
78053,152666,204652,-8.0853475654,-5.084748025,0.8327022648,635
78172,152668,204674,-8.0853475654,-5.084748025,0.8327022648,636
78323,152692,204676,-8.0853475654,-5.084748025,0.8327022648,637
78479,152690,204688,-8.0853475654,-5.084748025,0.8327022648,638
78643,152732,204696,-8.0853475654,-5.084748025,0.8327022648,639
78789,152761,204720,-8.0853475654,-5.084748025,0.8327022648,640
78940,152762,204710,-8.0853475654,-5.084748025,0.8327022648,641
79106,152764,204762,-8.0853475654,-5.084748025,0.8327022648,642
79267,152804,204749,-8.0853475654,-5.084748025,0.8327022648,643
79426,152817,204761,-8.0853475654,-5.084748025,0.8327022648,644
79579,152805,204783,-8.0853475654,-5.084748025,0.8327022648,645
79730,152849,204796,-8.0853475654,-5.084748025,0.8327022648,646
79861,152866,204783,-8.0853475654,-5.084748025,0.8327022648,647
79877,152806,204747,-8.0853475654,-5.084748025,0.8327022648,648
79610,152643,204674,-8.0853475654,-5.084748025,0.8327022648,649
79083,152545,204535,-8.0853475654,-5.084748025,0.8327022648,650
78433,152461,204486,-8.0853475654,-5.084748025,0.8327022648,651
77757,152344,204404,-8.0853475654,-5.084748025,0.8327022648,652
77167,152345,204378,-8.0853475654,-5.084748025,0.8327022648,653
76738,152315,204316,-8.0853475654,-5.084748025,0.8327022648,654
76491,152335,204373,-8.0853475654,-5.084748025,0.8327022648,655
76428,152407,204401,-8.0853475654,-5.084748025,0.8327022648,656
76487,152424,204423,-8.0853475654,-5.084748025,0.8327022648,657
76590,152476,204468,-8.0853475654,-5.084748025,0.8327022648,658
76699,152479,204455,-8.0853475654,-5.084748025,0.8327022648,659
76847,152523,204464,-8.0853475654,-5.084748025,0.8327022648,660
76915,152499,204489,-8.0853475654,-5.084748025,0.8327022648,661
76832,152458,204441,-8.0853475654,-5.084748025,0.8327022648,662
76586,152374,204378,-8.0853475654,-5.084748025,0.8327022648,663
77402,152410,204504,-8.0386875247,-5.1062834284,0.7908278692999999,664
77481,152441,204523,-8.0386875247,-5.1062834284,0.7908278692999999,665
77600,152457,204509,-8.0386875247,-5.1062834284,0.7908278692999999,666
77686,152466,204495,-8.0386875247,-5.1062834284,0.7908278692999999,667
77619,152402,204443,-8.0386875247,-5.1062834284,0.7908278692999999,668
77269,152258,204342,-8.0386875247,-5.1062834284,0.7908278692999999,669
76714,152119,204255,-8.0386875247,-5.1062834284,0.7908278692999999,670
76077,152047,204191,-8.0386875247,-5.1062834284,0.7908278692999999,671
75495,152036,204117,-8.0386875247,-5.1062834284,0.7908278692999999,672
75026,151990,204127,-8.0386875247,-5.1062834284,0.7908278692999999,673
74732,152002,204126,-8.0386875247,-5.1062834284,0.7908278692999999,674
74651,152023,204165,-8.0386875247,-5.1062834284,0.7908278692999999,675
74718,152075,204173,-8.0386875247,-5.1062834284,0.7908278692999999,676
74890,152111,204213,-8.0386875247,-5.1062834284,0.7908278692999999,677
75076,152151,204250,-8.0386875247,-5.1062834284,0.7908278692999999,678
75239,152184,204295,-8.0386875247,-5.1062834284,0.7908278692999999,679
75411,152207,204285,-8.0386875247,-5.1062834284,0.7908278692999999,680
75575,152242,204285,-8.0386875247,-5.1062834284,0.7908278692999999,681
75732,152225,204323,-8.0386875247,-5.1062834284,0.7908278692999999,682
75891,152233,204339,-8.0386875247,-5.1062834284,0.7908278692999999,683
76049,152257,204337,-8.0386875247,-5.1062834284,0.7908278692999999,684
76204,152264,204371,-8.0386875247,-5.1062834284,0.7908278692999999,685
76368,152308,204383,-8.0386875247,-5.1062834284,0.7908278692999999,686
76529,152330,204388,-8.0386875247,-5.1062834284,0.7908278692999999,687
76590,152267,204333,-8.0386875247,-5.1062834284,0.7908278692999999,688
76351,152145,204287,-8.0386875247,-5.1062834284,0.7908278692999999,689
75834,152048,204188,-8.0386875247,-5.1062834284,0.7908278692999999,690
75210,151936,204086,-8.0386875247,-5.1062834284,0.7908278692999999,691
74598,151900,204042,-8.0386875247,-5.1062834284,0.7908278692999999,692
74111,151850,203973,-8.0386875247,-5.1062834284,0.7908278692999999,693
73769,151848,203976,-8.0386875247,-5.1062834284,0.7908278692999999,694
73661,151873,204025,-8.0386875247,-5.1062834284,0.7908278692999999,695
73743,151923,204076,-8.0386875247,-5.1062834284,0.7908278692999999,696
73944,151987,204148,-8.0386875247,-5.1062834284,0.7908278692999999,697
74145,151983,204148,-8.0386875247,-5.1062834284,0.7908278692999999,698
74365,152083,204194,-8.0386875247,-5.1062834284,0.7908278692999999,699
74578,152089,204196,-8.0386875247,-5.1062834284,0.7908278692999999,700
74775,152081,204199,-8.0386875247,-5.1062834284,0.7908278692999999,701
74924,152083,204231,-8.0386875247,-5.1062834284,0.7908278692999999,702
74895,152018,204155,-8.0386875247,-5.1062834284,0.7908278692999999,703
74584,151919,204088,-8.0386875247,-5.1062834284,0.7908278692999999,704
74129,151851,204000,-8.0386875247,-5.1062834284,0.7908278692999999,705
73256,151829,204038,-8.0099736535,-4.9998028226999995,0.8410771438999999,706
73449,151888,204077,-8.0099736535,-4.9998028226999995,0.8410771438999999,707
73728,151922,204094,-8.0099736535,-4.9998028226999995,0.8410771438999999,708
74019,151973,204162,-8.0099736535,-4.9998028226999995,0.8410771438999999,709
74276,152000,204179,-8.0099736535,-4.9998028226999995,0.8410771438999999,710
74526,152015,204172,-8.0099736535,-4.9998028226999995,0.8410771438999999,711
74775,152048,204263,-8.0099736535,-4.9998028226999995,0.8410771438999999,712
75006,152104,204215,-8.0099736535,-4.9998028226999995,0.8410771438999999,713
75244,152110,204285,-8.0099736535,-4.9998028226999995,0.8410771438999999,714
75483,152152,204303,-8.0099736535,-4.9998028226999995,0.8410771438999999,715
75710,152197,204331,-8.0099736535,-4.9998028226999995,0.8410771438999999,716
75929,152187,204366,-8.0099736535,-4.9998028226999995,0.8410771438999999,717
76157,152263,204368,-8.0099736535,-4.9998028226999995,0.8410771438999999,718
76399,152284,204390,-8.0099736535,-4.9998028226999995,0.8410771438999999,719
76628,152269,204423,-8.0099736535,-4.9998028226999995,0.8410771438999999,720
76857,152322,204451,-8.0099736535,-4.9998028226999995,0.8410771438999999,721
77078,152367,204462,-8.0099736535,-4.9998028226999995,0.8410771438999999,722
77290,152361,204452,-8.0099736535,-4.9998028226999995,0.8410771438999999,723
77513,152400,204489,-8.0099736535,-4.9998028226999995,0.8410771438999999,724
77646,152376,204467,-8.0099736535,-4.9998028226999995,0.8410771438999999,725
77506,152297,204404,-8.0099736535,-4.9998028226999995,0.8410771438999999,726
77041,152154,204285,-8.0099736535,-4.9998028226999995,0.8410771438999999,727
76413,152034,204182,-8.0099736535,-4.9998028226999995,0.8410771438999999,728
75758,151948,204177,-8.0099736535,-4.9998028226999995,0.8410771438999999,729
75212,151929,204111,-8.0099736535,-4.9998028226999995,0.8410771438999999,730
74838,151925,204096,-8.0099736535,-4.9998028226999995,0.8410771438999999,731
74685,151943,204136,-8.0099736535,-4.9998028226999995,0.8410771438999999,732
74729,152016,204157,-8.0099736535,-4.9998028226999995,0.8410771438999999,733
74879,152061,204224,-8.0099736535,-4.9998028226999995,0.8410771438999999,734
75090,152096,204273,-8.0099736535,-4.9998028226999995,0.8410771438999999,735
75300,152146,204333,-8.0099736535,-4.9998028226999995,0.8410771438999999,736
75498,152183,204328,-8.0099736535,-4.9998028226999995,0.8410771438999999,737
75674,152190,204305,-8.0099736535,-4.9998028226999995,0.8410771438999999,738
75726,152132,204281,-8.0099736535,-4.9998028226999995,0.8410771438999999,739
75566,152059,204248,-8.0099736535,-4.9998028226999995,0.8410771438999999,740
75311,152026,204178,-8.0099736535,-4.9998028226999995,0.8410771438999999,741
75092,151968,204147,-8.0099736535,-4.9998028226999995,0.8410771438999999,742
75039,152023,204215,-8.0099736535,-4.9998028226999995,0.8410771438999999,743
75151,152077,204214,-8.0099736535,-4.9998028226999995,0.8410771438999999,744
75361,152112,204262,-8.0099736535,-4.9998028226999995,0.8410771438999999,745
75585,152146,204322,-8.0099736535,-4.9998028226999995,0.8410771438999999,746
75806,152165,204330,-8.0099736535,-4.9998028226999995,0.8410771438999999,747
75706,152170,204259,-8.1403824852,-5.1421757674,0.8554340795,748
75840,152163,204316,-8.1403824852,-5.1421757674,0.8554340795,749
75956,152169,204244,-8.1403824852,-5.1421757674,0.8554340795,750
76067,152205,204275,-8.1403824852,-5.1421757674,0.8554340795,751
76185,152212,204309,-8.1403824852,-5.1421757674,0.8554340795,752
76320,152217,204296,-8.1403824852,-5.1421757674,0.8554340795,753
76385,152195,204273,-8.1403824852,-5.1421757674,0.8554340795,754
76211,152090,204192,-8.1403824852,-5.1421757674,0.8554340795,755
75750,151982,204115,-8.1403824852,-5.1421757674,0.8554340795,756
75132,151861,204012,-8.1403824852,-5.1421757674,0.8554340795,757
74509,151793,203963,-8.1403824852,-5.1421757674,0.8554340795,758
73978,151762,203926,-8.1403824852,-5.1421757674,0.8554340795,759
73636,151773,203909,-8.1403824852,-5.1421757674,0.8554340795,760
73520,151799,203958,-8.1403824852,-5.1421757674,0.8554340795,761
73573,151856,203998,-8.1403824852,-5.1421757674,0.8554340795,762
73751,151881,204052,-8.1403824852,-5.1421757674,0.8554340795,763
73978,151953,204096,-8.1403824852,-5.1421757674,0.8554340795,764
74190,151943,204086,-8.1403824852,-5.1421757674,0.8554340795,765
74398,151991,204096,-8.1403824852,-5.1421757674,0.8554340795,766
74580,152006,204130,-8.1403824852,-5.1421757674,0.8554340795,767
74702,151983,204104,-7.9716884919,-4.9471607255,0.8422735552,768
74628,151935,204065,-7.9716884919,-4.9471607255,0.8422735552,769
74251,151805,203943,-7.9716884919,-4.9471607255,0.8422735552,770
73784,151737,203916,-7.9716884919,-4.9471607255,0.8422735552,771
73364,151692,203870,-7.9716884919,-4.9471607255,0.8422735552,772
73105,151672,203856,-7.9716884919,-4.9471607255,0.8422735552,773
73022,151698,203908,-7.9716884919,-4.9471607255,0.8422735552,774
73135,151753,203918,-7.9716884919,-4.9471607255,0.8422735552,775
73381,151776,204005,-7.9716884919,-4.9471607255,0.8422735552,776
73664,151875,204014,-7.9716884919,-4.9471607255,0.8422735552,777
73931,151895,204042,-7.9716884919,-4.9471607255,0.8422735552,778
74194,151903,204088,-7.9716884919,-4.9471607255,0.8422735552,779
74441,151927,204114,-7.9716884919,-4.9471607255,0.8422735552,780
74646,151971,204138,-7.9716884919,-4.9471607255,0.8422735552,781
74865,151996,204126,-7.9716884919,-4.9471607255,0.8422735552,782
75078,152035,204159,-7.9716884919,-4.9471607255,0.8422735552,783
75297,152034,204182,-7.9716884919,-4.9471607255,0.8422735552,784
75523,152080,204192,-7.9716884919,-4.9471607255,0.8422735552,785
75733,152086,204244,-7.9716884919,-4.9471607255,0.8422735552,786
75951,152133,204248,-7.9716884919,-4.9471607255,0.8422735552,787
76172,152138,204279,-7.9716884919,-4.9471607255,0.8422735552,788
76387,152168,204252,-7.9716884919,-4.9471607255,0.8422735552,789
76601,152177,204298,-7.9716884919,-4.9471607255,0.8422735552,790
76820,152251,204312,-7.9716884919,-4.9471607255,0.8422735552,791
77005,152242,204324,-7.9716884919,-4.9471607255,0.8422735552,792
77220,152257,204378,-8.1619178886,-4.977071008,0.8255237969999999,793
77291,152247,204383,-8.1619178886,-4.977071008,0.8255237969999999,794
77066,152116,204209,-8.1619178886,-4.977071008,0.8255237969999999,795
76532,151972,204116,-8.1619178886,-4.977071008,0.8255237969999999,796
75879,151884,204043,-8.1619178886,-4.977071008,0.8255237969999999,797
75221,151836,203993,-8.1619178886,-4.977071008,0.8255237969999999,798
74717,151798,203925,-8.1619178886,-4.977071008,0.8255237969999999,799
74377,151798,203932,-8.1619178886,-4.977071008,0.8255237969999999,800
74254,151834,203981,-8.1619178886,-4.977071008,0.8255237969999999,801
74310,151894,204021,-8.1619178886,-4.977071008,0.8255237969999999,802
74475,151910,204052,-8.1619178886,-4.977071008,0.8255237969999999,803
74706,151976,204133,-8.1619178886,-4.977071008,0.8255237969999999,804
74920,152015,204163,-8.1619178886,-4.977071008,0.8255237969999999,805
75138,152021,204135,-8.1619178886,-4.977071008,0.8255237969999999,806
75324,152015,204179,-8.1619178886,-4.977071008,0.8255237969999999,807
75371,152004,204143,-8.1619178886,-4.977071008,0.8255237969999999,808
75232,151922,204084,-8.1619178886,-4.977071008,0.8255237969999999,809
75031,151896,204030,-8.1619178886,-4.977071008,0.8255237969999999,810
74884,151904,204052,-8.1619178886,-4.977071008,0.8255237969999999,811
74921,151935,204097,-8.1619178886,-4.977071008,0.8255237969999999,812
75079,151976,204141,-8.1619178886,-4.977071008,0.8255237969999999,813
75293,152015,204175,-8.1619178886,-4.977071008,0.8255237969999999,814
75545,152079,204197,-8.1619178886,-4.977071008,0.8255237969999999,815
75787,152100,204208,-8.1619178886,-4.977071008,0.8255237969999999,816
76021,152136,204259,-8.1619178886,-4.977071008,0.8255237969999999,817
76240,152133,204256,-8.1619178886,-4.977071008,0.8255237969999999,818
76448,152199,204293,-8.1619178886,-4.977071008,0.8255237969999999,819
76657,152186,204285,-8.1619178886,-4.977071008,0.8255237969999999,820
76827,152240,204296,-8.1619178886,-4.977071008,0.8255237969999999,821
77033,152240,204324,-8.1619178886,-4.977071008,0.8255237969999999,822
77229,152269,204369,-8.1619178886,-4.977071008,0.8255237969999999,823
77439,152290,204367,-8.1619178886,-4.977071008,0.8255237969999999,824
77634,152313,204417,-8.1619178886,-4.977071008,0.8255237969999999,825
77831,152349,204439,-8.1619178886,-4.977071008,0.8255237969999999,826
78026,152360,204457,-8.1619178886,-4.977071008,0.8255237969999999,827
78207,152396,204453,-8.1619178886,-4.977071008,0.8255237969999999,828
78421,152410,204470,-8.1619178886,-4.977071008,0.8255237969999999,829
78607,152445,204500,-8.1619178886,-4.977071008,0.8255237969999999,830
78804,152430,204476,-8.1619178886,-4.977071008,0.8255237969999999,831
78963,152458,204467,-8.1619178886,-4.977071008,0.8255237969999999,832
79002,152403,204414,-8.1619178886,-4.977071008,0.8255237969999999,833
78736,152270,204315,-8.1619178886,-4.977071008,0.8255237969999999,834
76853,151966,204061,-8.1499537756,-5.0512485086,0.8434699665000001,835
76278,151932,203996,-8.1499537756,-5.0512485086,0.8434699665000001,836
75842,151886,204014,-8.1499537756,-5.0512485086,0.8434699665000001,837
75620,151911,204050,-8.1499537756,-5.0512485086,0.8434699665000001,838
75591,151995,204074,-8.1499537756,-5.0512485086,0.8434699665000001,839
75647,152015,204109,-8.1499537756,-5.0512485086,0.8434699665000001,840
75759,152020,204122,-8.1499537756,-5.0512485086,0.8434699665000001,841
75858,152026,204122,-8.1499537756,-5.0512485086,0.8434699665000001,842
75957,152106,204156,-8.1499537756,-5.0512485086,0.8434699665000001,843
76076,152077,204130,-8.1499537756,-5.0512485086,0.8434699665000001,844
76182,152064,204181,-8.1499537756,-5.0512485086,0.8434699665000001,845
76285,152117,204143,-8.1499537756,-5.0512485086,0.8434699665000001,846
76419,152124,204191,-8.1499537756,-5.0512485086,0.8434699665000001,847
76551,152123,204213,-8.1499537756,-5.0512485086,0.8434699665000001,848
76688,152124,204234,-8.1499537756,-5.0512485086,0.8434699665000001,849
76820,152150,204252,-8.1499537756,-5.0512485086,0.8434699665000001,850
76969,152184,204235,-8.1499537756,-5.0512485086,0.8434699665000001,851
76950,152128,204172,-8.1499537756,-5.0512485086,0.8434699665000001,852
76640,152028,204099,-8.1499537756,-5.0512485086,0.8434699665000001,853
76098,151888,203984,-8.1499537756,-5.0512485086,0.8434699665000001,854
75465,151797,203920,-8.1499537756,-5.0512485086,0.8434699665000001,855
74887,151713,203861,-8.1499537756,-5.0512485086,0.8434699665000001,856
74400,151709,203836,-8.1499537756,-5.0512485086,0.8434699665000001,857
74069,151728,203832,-8.1499537756,-5.0512485086,0.8434699665000001,858
73956,151754,203850,-8.1499537756,-5.0512485086,0.8434699665000001,859
74036,151783,203878,-8.1499537756,-5.0512485086,0.8434699665000001,860
74204,151831,203951,-8.1463645417,-5.0536413312,0.7848458128,861
74397,151871,203973,-8.1463645417,-5.0536413312,0.7848458128,862
74588,151900,204019,-8.1463645417,-5.0536413312,0.7848458128,863
74775,151926,204026,-8.1463645417,-5.0536413312,0.7848458128,864
74953,151927,204010,-8.1463645417,-5.0536413312,0.7848458128,865
75120,151940,204044,-8.1463645417,-5.0536413312,0.7848458128,866
75289,151976,204066,-8.1463645417,-5.0536413312,0.7848458128,867
75452,151981,204081,-8.1463645417,-5.0536413312,0.7848458128,868
75619,151982,204087,-8.1463645417,-5.0536413312,0.7848458128,869
75802,152021,204116,-8.1463645417,-5.0536413312,0.7848458128,870
75969,152048,204163,-8.1463645417,-5.0536413312,0.7848458128,871
76067,152010,204119,-8.1463645417,-5.0536413312,0.7848458128,872
75862,151909,204008,-8.1463645417,-5.0536413312,0.7848458128,873
75386,151802,203913,-8.1463645417,-5.0536413312,0.7848458128,874
74777,151699,203808,-8.1463645417,-5.0536413312,0.7848458128,875
74177,151635,203788,-8.1463645417,-5.0536413312,0.7848458128,876
73678,151619,203754,-8.1463645417,-5.0536413312,0.7848458128,877
73372,151567,203754,-8.1463645417,-5.0536413312,0.7848458128,878
73232,151603,203765,-8.1463645417,-5.0536413312,0.7848458128,879
73297,151650,203802,-8.1463645417,-5.0536413312,0.7848458128,880
73500,151733,203877,-8.1463645417,-5.0536413312,0.7848458128,881
73719,151751,203890,-8.1463645417,-5.0536413312,0.7848458128,882
73954,151778,203924,-8.1463645417,-5.0536413312,0.7848458128,883
74170,151837,203945,-8.1463645417,-5.0536413312,0.7848458128,884
74371,151809,203984,-8.1463645417,-5.0536413312,0.7848458128,885
74536,151843,203978,-8.1463645417,-5.0536413312,0.7848458128,886
74477,151780,203894,-8.1463645417,-5.0536413312,0.7848458128,887
74160,151681,203807,-8.1463645417,-5.0536413312,0.7848458128,888
73722,151626,203752,-8.1463645417,-5.0536413312,0.7848458128,889
73340,151567,203763,-8.1463645417,-5.0536413312,0.7848458128,890
73126,151571,203747,-8.1463645417,-5.0536413312,0.7848458128,891
73072,151603,203767,-8.1463645417,-5.0536413312,0.7848458128,892
73205,151635,203794,-8.1463645417,-5.0536413312,0.7848458128,893
73442,151701,203868,-8.1463645417,-5.0536413312,0.7848458128,894
73744,151767,203939,-8.1463645417,-5.0536413312,0.7848458128,895
74024,151803,203952,-8.1463645417,-5.0536413312,0.7848458128,896
74296,151813,203998,-8.1463645417,-5.0536413312,0.7848458128,897
74540,151849,203997,-8.1463645417,-5.0536413312,0.7848458128,898
74763,151909,204067,-8.1463645417,-5.0536413312,0.7848458128,899
74982,151918,204030,-8.1463645417,-5.0536413312,0.7848458128,900
75204,151931,204082,-8.1463645417,-5.0536413312,0.7848458128,901
75451,151998,204086,-8.1463645417,-5.0536413312,0.7848458128,902
75677,151969,204053,-8.1092757914,-5.132604477,0.7680960546,903
75847,151960,204075,-8.1092757914,-5.132604477,0.7680960546,904
76048,151971,204099,-8.1092757914,-5.132604477,0.7680960546,905
76241,152008,204114,-8.1092757914,-5.132604477,0.7680960546,906
76442,152029,204159,-8.1092757914,-5.132604477,0.7680960546,907
76631,152059,204144,-8.1092757914,-5.132604477,0.7680960546,908
76829,152062,204190,-8.1092757914,-5.132604477,0.7680960546,909
77011,152128,204216,-8.1092757914,-5.132604477,0.7680960546,910
77205,152117,204222,-8.1092757914,-5.132604477,0.7680960546,911
77393,152162,204236,-8.1092757914,-5.132604477,0.7680960546,912
77591,152211,204247,-8.1092757914,-5.132604477,0.7680960546,913
77753,152215,204261,-8.1092757914,-5.132604477,0.7680960546,914
77948,152215,204310,-8.1092757914,-5.132604477,0.7680960546,915
78128,152234,204306,-8.1092757914,-5.132604477,0.7680960546,916
78270,152245,204290,-8.1092757914,-5.132604477,0.7680960546,917
78265,152159,204254,-8.1092757914,-5.132604477,0.7680960546,918
77912,152044,204128,-8.1092757914,-5.132604477,0.7680960546,919
77296,151881,204026,-8.1092757914,-5.132604477,0.7680960546,920
76570,151800,203955,-8.1092757914,-5.132604477,0.7680960546,921
75865,151738,203885,-8.1092757914,-5.132604477,0.7680960546,922
75300,151719,203828,-8.1092757914,-5.132604477,0.7680960546,923
74931,151726,203837,-8.1092757914,-5.132604477,0.7680960546,924
74760,151729,203873,-8.1092757914,-5.132604477,0.7680960546,925
74767,151749,203885,-8.1092757914,-5.132604477,0.7680960546,926
74879,151851,203928,-8.1092757914,-5.132604477,0.7680960546,927
75025,151841,204001,-8.1092757914,-5.132604477,0.7680960546,928
75197,151858,203983,-8.1092757914,-5.132604477,0.7680960546,929
75335,151865,204015,-8.1092757914,-5.132604477,0.7680960546,930
75399,151881,204002,-8.1092757914,-5.132604477,0.7680960546,931
75262,151802,203954,-8.1092757914,-5.132604477,0.7680960546,932
74966,151724,203876,-8.1092757914,-5.132604477,0.7680960546,933
74685,151692,203874,-8.1092757914,-5.132604477,0.7680960546,934
74561,151704,203875,-8.1092757914,-5.132604477,0.7680960546,935
74592,151761,203941,-8.1092757914,-5.132604477,0.7680960546,936
74764,151826,203944,-8.1092757914,-5.132604477,0.7680960546,937
75004,151860,204008,-8.1092757914,-5.132604477,0.7680960546,938
75239,151899,204014,-8.1092757914,-5.132604477,0.7680960546,939
75485,151933,204078,-8.1092757914,-5.132604477,0.7680960546,940
75697,151957,204064,-8.1092757914,-5.132604477,0.7680960546,941
75913,152001,204114,-8.1092757914,-5.132604477,0.7680960546,942
76109,152006,204098,-8.1092757914,-5.132604477,0.7680960546,943
76326,152024,204145,-8.1092757914,-5.132604477,0.7680960546,944
75209,151706,203908,-8.0889367993,-5.0955157266999995,0.8793623055,945
75313,151714,203949,-8.0889367993,-5.0955157266999995,0.8793623055,946
75498,151782,204010,-8.0889367993,-5.0955157266999995,0.8793623055,947
75726,151857,204067,-8.0889367993,-5.0955157266999995,0.8793623055,948
75942,151870,204063,-8.0889367993,-5.0955157266999995,0.8793623055,949
76166,151888,204087,-8.0889367993,-5.0955157266999995,0.8793623055,950
76356,151922,204124,-8.0889367993,-5.0955157266999995,0.8793623055,951
76559,151921,204114,-8.0889367993,-5.0955157266999995,0.8793623055,952
76756,151963,204119,-8.0889367993,-5.0955157266999995,0.8793623055,953
76942,151996,204146,-8.0889367993,-5.0955157266999995,0.8793623055,954
77143,152015,204127,-8.0889367993,-5.0955157266999995,0.8793623055,955
77331,152056,204175,-8.0889367993,-5.0955157266999995,0.8793623055,956
77497,152066,204211,-8.0889367993,-5.0955157266999995,0.8793623055,957
77688,152059,204238,-8.0889367993,-5.0955157266999995,0.8793623055,958
77860,152092,204234,-8.0889367993,-5.0955157266999995,0.8793623055,959
78034,152091,204248,-8.0889367993,-5.0955157266999995,0.8793623055,960
78196,152101,204287,-8.0889367993,-5.0955157266999995,0.8793623055,961
78341,152130,204287,-8.0889367993,-5.0955157266999995,0.8793623055,962
78494,152139,204268,-8.0889367993,-5.0955157266999995,0.8793623055,963
78625,152153,204268,-8.0889367993,-5.0955157266999995,0.8793623055,964
78761,152160,204279,-8.0889367993,-5.0955157266999995,0.8793623055,965
78859,152140,204315,-8.0889367993,-5.0955157266999995,0.8793623055,966
78791,152091,204222,-8.0889367993,-5.0955157266999995,0.8793623055,967
78430,151938,204092,-8.0889367993,-5.0955157266999995,0.8793623055,968
77840,151823,204014,-8.0889367993,-5.0955157266999995,0.8793623055,969
77146,151726,203905,-8.0889367993,-5.0955157266999995,0.8793623055,970
76492,151651,203846,-8.0889367993,-5.0955157266999995,0.8793623055,971
75925,151608,203823,-8.0889367993,-5.0955157266999995,0.8793623055,972
75575,151640,203833,-8.0889367993,-5.0955157266999995,0.8793623055,973
75399,151692,203897,-8.0889367993,-5.0955157266999995,0.8793623055,974
75414,151684,203889,-8.0889367993,-5.0955157266999995,0.8793623055,975
75514,151735,203907,-8.0889367993,-5.0955157266999995,0.8793623055,976
75625,151797,203958,-8.0889367993,-5.0955157266999995,0.8793623055,977
75751,151808,203971,-8.0889367993,-5.0955157266999995,0.8793623055,978
75889,151835,203985,-8.0889367993,-5.0955157266999995,0.8793623055,979
76016,151809,204010,-8.0889367993,-5.0955157266999995,0.8793623055,980
76146,151865,204016,-8.0889367993,-5.0955157266999995,0.8793623055,981
76284,151865,204031,-8.0889367993,-5.0955157266999995,0.8793623055,982
76427,151860,204053,-8.0889367993,-5.0955157266999995,0.8793623055,983
76565,151904,204051,-8.0889367993,-5.0955157266999995,0.8793623055,984
76704,151934,204088,-8.0889367993,-5.0955157266999995,0.8793623055,985
76866,151932,204125,-8.0889367993,-5.0955157266999995,0.8793623055,986
74714,151696,203919,-8.0183485326,-4.9986064114,0.8255237969999999,987
74912,151738,203955,-8.0183485326,-4.9986064114,0.8255237969999999,988
75115,151765,203961,-8.0183485326,-4.9986064114,0.8255237969999999,989
75228,151728,203966,-8.0183485326,-4.9986064114,0.8255237969999999,990
75085,151667,203882,-8.0183485326,-4.9986064114,0.8255237969999999,991
74707,151539,203789,-8.0183485326,-4.9986064114,0.8255237969999999,992
74243,151502,203720,-8.0183485326,-4.9986064114,0.8255237969999999,993
73839,151458,203726,-8.0183485326,-4.9986064114,0.8255237969999999,994
73598,151467,203700,-8.0183485326,-4.9986064114,0.8255237969999999,995
73498,151473,203720,-8.0183485326,-4.9986064114,0.8255237969999999,996
73629,151534,203788,-8.0183485326,-4.9986064114,0.8255237969999999,997
73871,151586,203830,-8.0183485326,-4.9986064114,0.8255237969999999,998
74140,151622,203841,-8.0183485326,-4.9986064114,0.8255237969999999,999
74403,151689,203930,-8.0183485326,-4.9986064114,0.8255237969999999,1000
74662,151685,203935,-8.0183485326,-4.9986064114,0.8255237969999999,1001
74901,151704,203993,-8.0183485326,-4.9986064114,0.8255237969999999,1002
75134,151742,203989,-8.0183485326,-4.9986064114,0.8255237969999999,1003
75345,151787,203990,-8.0183485326,-4.9986064114,0.8255237969999999,1004
75556,151782,204012,-8.0183485326,-4.9986064114,0.8255237969999999,1005
75774,151831,204048,-8.0183485326,-4.9986064114,0.8255237969999999,1006
75973,151850,204029,-8.0183485326,-4.9986064114,0.8255237969999999,1007
76170,151853,204094,-8.0183485326,-4.9986064114,0.8255237969999999,1008
76388,151909,204091,-8.0183485326,-4.9986064114,0.8255237969999999,1009
76601,151890,204120,-8.0183485326,-4.9986064114,0.8255237969999999,1010
76796,151928,204135,-8.0183485326,-4.9986064114,0.8255237969999999,1011
76991,151916,204149,-8.0183485326,-4.9986064114,0.8255237969999999,1012
77171,151983,204160,-8.0183485326,-4.9986064114,0.8255237969999999,1013
77344,151986,204192,-8.0183485326,-4.9986064114,0.8255237969999999,1014
77476,151980,204158,-8.0183485326,-4.9986064114,0.8255237969999999,1015
77416,151912,204121,-8.0183485326,-4.9986064114,0.8255237969999999,1016
77054,151775,203967,-8.0183485326,-4.9986064114,0.8255237969999999,1017
76451,151643,203847,-8.0183485326,-4.9986064114,0.8255237969999999,1018
75734,151532,203796,-8.0183485326,-4.9986064114,0.8255237969999999,1019
75091,151490,203757,-8.0183485326,-4.9986064114,0.8255237969999999,1020
74587,151472,203723,-8.0183485326,-4.9986064114,0.8255237969999999,1021
74292,151437,203736,-8.0183485326,-4.9986064114,0.8255237969999999,1022
74199,151526,203788,-8.0183485326,-4.9986064114,0.8255237969999999,1023
74279,151548,203811,-8.0183485326,-4.9986064114,0.8255237969999999,1024
74439,151591,203865,-8.0183485326,-4.9986064114,0.8255237969999999,1025
74633,151645,203872,-8.0183485326,-4.9986064114,0.8255237969999999,1026
74813,151667,203886,-8.0183485326,-4.9986064114,0.8255237969999999,1027
74978,151658,203901,-8.0183485326,-4.9986064114,0.8255237969999999,1028
77418,151972,204147,-8.2085779293,-5.1038906058,0.729810893,1029
77595,151994,204197,-8.2085779293,-5.1038906058,0.729810893,1030
77795,151983,204193,-8.2085779293,-5.1038906058,0.729810893,1031
77985,152007,204189,-8.2085779293,-5.1038906058,0.729810893,1032
78138,151988,204212,-8.2085779293,-5.1038906058,0.729810893,1033
78240,151996,204165,-8.2085779293,-5.1038906058,0.729810893,1034
78042,151881,204088,-8.2085779293,-5.1038906058,0.729810893,1035
77556,151723,203958,-8.2085779293,-5.1038906058,0.729810893,1036
76874,151622,203904,-8.2085779293,-5.1038906058,0.729810893,1037
76167,151540,203821,-8.2085779293,-5.1038906058,0.729810893,1038
75577,151515,203774,-8.2085779293,-5.1038906058,0.729810893,1039
75136,151510,203751,-8.2085779293,-5.1038906058,0.729810893,1040
74925,151546,203780,-8.2085779293,-5.1038906058,0.729810893,1041
74897,151622,203825,-8.2085779293,-5.1038906058,0.729810893,1042
75012,151649,203869,-8.2085779293,-5.1038906058,0.729810893,1043
75194,151695,203938,-8.2085779293,-5.1038906058,0.729810893,1044
75391,151736,203991,-8.2085779293,-5.1038906058,0.729810893,1045
75597,151748,203961,-8.2085779293,-5.1038906058,0.729810893,1046
75762,151778,204002,-8.2085779293,-5.1038906058,0.729810893,1047
75839,151765,203979,-8.2085779293,-5.1038906058,0.729810893,1048
75710,151691,203937,-8.2085779293,-5.1038906058,0.729810893,1049
75473,151610,203890,-8.2085779293,-5.1038906058,0.729810893,1050
75282,151625,203831,-8.2085779293,-5.1038906058,0.729810893,1051
75224,151636,203908,-8.2085779293,-5.1038906058,0.729810893,1052
75332,151701,203917,-8.2085779293,-5.1038906058,0.729810893,1053
75524,151731,203988,-8.2085779293,-5.1038906058,0.729810893,1054
75746,151797,204016,-8.2085779293,-5.1038906058,0.729810893,1055
75968,151816,204039,-8.2085779293,-5.1038906058,0.729810893,1056
76186,151839,204086,-8.2085779293,-5.1038906058,0.729810893,1057
76388,151866,204079,-8.2085779293,-5.1038906058,0.729810893,1058
76589,151926,204152,-8.2085779293,-5.1038906058,0.729810893,1059
76772,151903,204100,-8.2085779293,-5.1038906058,0.729810893,1060
76978,151944,204101,-8.2085779293,-5.1038906058,0.729810893,1061
77171,151954,204171,-8.2085779293,-5.1038906058,0.729810893,1062
77361,151996,204169,-8.2085779293,-5.1038906058,0.729810893,1063
77548,152033,204193,-8.2085779293,-5.1038906058,0.729810893,1064
77749,152043,204165,-8.2085779293,-5.1038906058,0.729810893,1065
77937,152048,204233,-8.2085779293,-5.1038906058,0.729810893,1066
78127,152095,204228,-8.2085779293,-5.1038906058,0.729810893,1067
78305,152127,204242,-8.2085779293,-5.1038906058,0.729810893,1068
78491,152130,204312,-8.2085779293,-5.1038906058,0.729810893,1069
78673,152137,204302,-8.2085779293,-5.1038906058,0.729810893,1070
76104,151626,203853,-8.0410803473,-5.0536413312,0.7848458128,1071
75751,151619,203866,-8.0410803473,-5.0536413312,0.7848458128,1072
75579,151639,203877,-8.0410803473,-5.0536413312,0.7848458128,1073
75603,151704,203949,-8.0410803473,-5.0536413312,0.7848458128,1074
75712,151774,203979,-8.0410803473,-5.0536413312,0.7848458128,1075
75884,151810,203999,-8.0410803473,-5.0536413312,0.7848458128,1076
76065,151818,204003,-8.0410803473,-5.0536413312,0.7848458128,1077
76234,151862,204040,-8.0410803473,-5.0536413312,0.7848458128,1078
76398,151847,204017,-8.0410803473,-5.0536413312,0.7848458128,1079
76465,151826,204008,-8.0410803473,-5.0536413312,0.7848458128,1080
76288,151773,203953,-8.0410803473,-5.0536413312,0.7848458128,1081
75973,151686,203902,-8.0410803473,-5.0536413312,0.7848458128,1082
75667,151634,203878,-8.0410803473,-5.0536413312,0.7848458128,1083
75455,151615,203827,-8.0410803473,-5.0536413312,0.7848458128,1084
75408,151659,203869,-8.0410803473,-5.0536413312,0.7848458128,1085
75497,151710,203911,-8.0410803473,-5.0536413312,0.7848458128,1086
75668,151739,203936,-8.0410803473,-5.0536413312,0.7848458128,1087
75856,151774,203953,-8.0410803473,-5.0536413312,0.7848458128,1088
76031,151797,203988,-8.0410803473,-5.0536413312,0.7848458128,1089
76209,151795,204005,-8.0410803473,-5.0536413312,0.7848458128,1090
76386,151824,204009,-8.0410803473,-5.0536413312,0.7848458128,1091
76559,151839,204019,-8.0410803473,-5.0536413312,0.7848458128,1092
76719,151835,204048,-8.0410803473,-5.0536413312,0.7848458128,1093
76897,151844,204060,-8.0410803473,-5.0536413312,0.7848458128,1094
77061,151892,204070,-8.0410803473,-5.0536413312,0.7848458128,1095
77234,151946,204088,-8.0410803473,-5.0536413312,0.7848458128,1096
77417,151957,204127,-8.0410803473,-5.0536413312,0.7848458128,1097
77589,151925,204132,-8.0410803473,-5.0536413312,0.7848458128,1098
77766,151970,204112,-8.0410803473,-5.0536413312,0.7848458128,1099
77958,151981,204138,-8.0410803473,-5.0536413312,0.7848458128,1100
78126,151984,204160,-8.0410803473,-5.0536413312,0.7848458128,1101
78307,152040,204216,-8.0410803473,-5.0536413312,0.7848458128,1102
78484,152043,204189,-8.0410803473,-5.0536413312,0.7848458128,1103
78648,152087,204201,-8.0410803473,-5.0536413312,0.7848458128,1104
78814,152111,204209,-8.0410803473,-5.0536413312,0.7848458128,1105
78969,152089,204238,-8.0410803473,-5.0536413312,0.7848458128,1106
78991,152035,204189,-8.0410803473,-5.0536413312,0.7848458128,1107
78707,151922,204062,-8.0410803473,-5.0536413312,0.7848458128,1108
78185,151793,203938,-8.0410803473,-5.0536413312,0.7848458128,1109
77553,151674,203894,-8.0410803473,-5.0536413312,0.7848458128,1110
76918,151601,203862,-8.0410803473,-5.0536413312,0.7848458128,1111
76392,151585,203820,-8.0410803473,-5.0536413312,0.7848458128,1112
75972,151653,203763,-8.0231341778,-5.1014977832,0.7322037156,1113
75944,151690,203800,-8.0231341778,-5.1014977832,0.7322037156,1114
76042,151764,203862,-8.0231341778,-5.1014977832,0.7322037156,1115
76184,151797,203856,-8.0231341778,-5.1014977832,0.7322037156,1116
76348,151843,203951,-8.0231341778,-5.1014977832,0.7322037156,1117
76482,151822,203915,-8.0231341778,-5.1014977832,0.7322037156,1118
76596,151832,203937,-8.0231341778,-5.1014977832,0.7322037156,1119
76706,151846,203880,-8.0231341778,-5.1014977832,0.7322037156,1120
76817,151841,203927,-8.0231341778,-5.1014977832,0.7322037156,1121
76894,151857,203915,-8.0231341778,-5.1014977832,0.7322037156,1122
76988,151858,203946,-8.0231341778,-5.1014977832,0.7322037156,1123
77103,151868,203929,-8.0231341778,-5.1014977832,0.7322037156,1124
77210,151880,203921,-8.0231341778,-5.1014977832,0.7322037156,1125
77330,151880,203964,-8.0231341778,-5.1014977832,0.7322037156,1126
77343,151865,203905,-8.0231341778,-5.1014977832,0.7322037156,1127
77099,151757,203824,-8.0231341778,-5.1014977832,0.7322037156,1128
76635,151640,203754,-8.0231341778,-5.1014977832,0.7322037156,1129
76063,151552,203641,-8.0231341778,-5.1014977832,0.7322037156,1130
75521,151486,203621,-8.0231341778,-5.1014977832,0.7322037156,1131
75073,151457,203585,-8.0231341778,-5.1014977832,0.7322037156,1132
74787,151479,203599,-8.0231341778,-5.1014977832,0.7322037156,1133
74692,151505,203611,-8.0231341778,-5.1014977832,0.7322037156,1134
74751,151558,203646,-8.0231341778,-5.1014977832,0.7322037156,1135
74908,151616,203701,-8.0231341778,-5.1014977832,0.7322037156,1136
75099,151609,203733,-8.0231341778,-5.1014977832,0.7322037156,1137
75286,151664,203757,-8.0231341778,-5.1014977832,0.7322037156,1138
75466,151678,203806,-8.0231341778,-5.1014977832,0.7322037156,1139
75630,151733,203777,-8.0231341778,-5.1014977832,0.7322037156,1140
75795,151708,203767,-8.0231341778,-5.1014977832,0.7322037156,1141
75774,151664,203770,-8.0231341778,-5.1014977832,0.7322037156,1142
75502,151542,203673,-8.0231341778,-5.1014977832,0.7322037156,1143
75075,151453,203574,-8.0231341778,-5.1014977832,0.7322037156,1144
74630,151406,203576,-8.0231341778,-5.1014977832,0.7322037156,1145
74294,151401,203519,-8.0231341778,-5.1014977832,0.7322037156,1146
74105,151379,203517,-8.0231341778,-5.1014977832,0.7322037156,1147
74088,151434,203599,-8.0231341778,-5.1014977832,0.7322037156,1148
74221,151505,203577,-8.0231341778,-5.1014977832,0.7322037156,1149
74437,151533,203652,-8.0231341778,-5.1014977832,0.7322037156,1150
74678,151582,203707,-8.0231341778,-5.1014977832,0.7322037156,1151
74934,151619,203729,-8.0231341778,-5.1014977832,0.7322037156,1152
75166,151645,203740,-8.0231341778,-5.1014977832,0.7322037156,1153
75379,151669,203756,-8.0231341778,-5.1014977832,0.7322037156,1154
78108,151924,204037,-8.0147592987,-5.072783911999999,0.7992027483999999,1155
78242,151935,204005,-8.0147592987,-5.072783911999999,0.7992027483999999,1156
78388,151931,204037,-8.0147592987,-5.072783911999999,0.7992027483999999,1157
78485,151971,204012,-8.0147592987,-5.072783911999999,0.7992027483999999,1158
78383,151838,203925,-8.0147592987,-5.072783911999999,0.7992027483999999,1159
77970,151691,203810,-8.0147592987,-5.072783911999999,0.7992027483999999,1160
77357,151581,203742,-8.0147592987,-5.072783911999999,0.7992027483999999,1161
76677,151482,203659,-8.0147592987,-5.072783911999999,0.7992027483999999,1162
76065,151450,203606,-8.0147592987,-5.072783911999999,0.7992027483999999,1163
75587,151432,203574,-8.0147592987,-5.072783911999999,0.7992027483999999,1164
75311,151415,203584,-8.0147592987,-5.072783911999999,0.7992027483999999,1165
75214,151453,203610,-8.0147592987,-5.072783911999999,0.7992027483999999,1166
75262,151524,203654,-8.0147592987,-5.072783911999999,0.7992027483999999,1167
75398,151553,203695,-8.0147592987,-5.072783911999999,0.7992027483999999,1168
75551,151577,203718,-8.0147592987,-5.072783911999999,0.7992027483999999,1169
75729,151630,203766,-8.0147592987,-5.072783911999999,0.7992027483999999,1170
75886,151625,203774,-8.0147592987,-5.072783911999999,0.7992027483999999,1171
75952,151632,203724,-8.0147592987,-5.072783911999999,0.7992027483999999,1172
75838,151533,203689,-8.0147592987,-5.072783911999999,0.7992027483999999,1173
75610,151482,203608,-8.0147592987,-5.072783911999999,0.7992027483999999,1174
75374,151454,203619,-8.0147592987,-5.072783911999999,0.7992027483999999,1175
75275,151473,203666,-8.0147592987,-5.072783911999999,0.7992027483999999,1176
75301,151521,203662,-8.0147592987,-5.072783911999999,0.7992027483999999,1177
75434,151543,203726,-8.0147592987,-5.072783911999999,0.7992027483999999,1178
75627,151618,203733,-8.0147592987,-5.072783911999999,0.7992027483999999,1179
75831,151643,203754,-8.0147592987,-5.072783911999999,0.7992027483999999,1180
76039,151649,203772,-8.0147592987,-5.072783911999999,0.7992027483999999,1181
76224,151675,203766,-8.0147592987,-5.072783911999999,0.7992027483999999,1182
76407,151679,203825,-8.0147592987,-5.072783911999999,0.7992027483999999,1183
76589,151698,203819,-8.0147592987,-5.072783911999999,0.7992027483999999,1184
76769,151727,203861,-8.0147592987,-5.072783911999999,0.7992027483999999,1185
76926,151711,203871,-8.0147592987,-5.072783911999999,0.7992027483999999,1186
77106,151748,203876,-8.0147592987,-5.072783911999999,0.7992027483999999,1187
77278,151759,203876,-8.0147592987,-5.072783911999999,0.7992027483999999,1188
77439,151764,203914,-8.0147592987,-5.072783911999999,0.7992027483999999,1189
77615,151786,203907,-8.0147592987,-5.072783911999999,0.7992027483999999,1190
77770,151798,203922,-8.0147592987,-5.072783911999999,0.7992027483999999,1191
77945,151835,203946,-8.0147592987,-5.072783911999999,0.7992027483999999,1192
78100,151863,203940,-8.0147592987,-5.072783911999999,0.7992027483999999,1193
78270,151871,203961,-8.0147592987,-5.072783911999999,0.7992027483999999,1194
78422,151875,203975,-8.0147592987,-5.072783911999999,0.7992027483999999,1195
78558,151910,203972,-8.0147592987,-5.072783911999999,0.7992027483999999,1196
76025,151416,203565,-8.0315090569,-5.124229597899999,0.8231309743999999,1197
76191,151467,203636,-8.0315090569,-5.124229597899999,0.8231309743999999,1198
76399,151487,203642,-8.0315090569,-5.124229597899999,0.8231309743999999,1199
76622,151493,203695,-8.0315090569,-5.124229597899999,0.8231309743999999,1200
76822,151548,203687,-8.0315090569,-5.124229597899999,0.8231309743999999,1201
77004,151535,203689,-8.0315090569,-5.124229597899999,0.8231309743999999,1202
77117,151502,203650,-8.0315090569,-5.124229597899999,0.8231309743999999,1203
77001,151427,203582,-8.0315090569,-5.124229597899999,0.8231309743999999,1204
76765,151336,203489,-8.0315090569,-5.124229597899999,0.8231309743999999,1205
76508,151316,203489,-8.0315090569,-5.124229597899999,0.8231309743999999,1206
76318,151306,203462,-8.0315090569,-5.124229597899999,0.8231309743999999,1207
76235,151336,203486,-8.0315090569,-5.124229597899999,0.8231309743999999,1208
76301,151378,203515,-8.0315090569,-5.124229597899999,0.8231309743999999,1209
76456,151415,203563,-8.0315090569,-5.124229597899999,0.8231309743999999,1210
76672,151478,203613,-8.0315090569,-5.124229597899999,0.8231309743999999,1211
76882,151518,203682,-8.0315090569,-5.124229597899999,0.8231309743999999,1212
77123,151539,203650,-8.0315090569,-5.124229597899999,0.8231309743999999,1213
77339,151539,203663,-8.0315090569,-5.124229597899999,0.8231309743999999,1214
77566,151607,203681,-8.0315090569,-5.124229597899999,0.8231309743999999,1215
77773,151633,203702,-8.0315090569,-5.124229597899999,0.8231309743999999,1216
77976,151634,203768,-8.0315090569,-5.124229597899999,0.8231309743999999,1217
78185,151655,203771,-8.0315090569,-5.124229597899999,0.8231309743999999,1218
78392,151708,203794,-8.0315090569,-5.124229597899999,0.8231309743999999,1219
78607,151727,203815,-8.0315090569,-5.124229597899999,0.8231309743999999,1220
78802,151750,203814,-8.0315090569,-5.124229597899999,0.8231309743999999,1221
79018,151796,203863,-8.0315090569,-5.124229597899999,0.8231309743999999,1222
79228,151799,203868,-8.0315090569,-5.124229597899999,0.8231309743999999,1223
79426,151841,203918,-8.0315090569,-5.124229597899999,0.8231309743999999,1224
79638,151865,203946,-8.0315090569,-5.124229597899999,0.8231309743999999,1225
79837,151898,203942,-8.0315090569,-5.124229597899999,0.8231309743999999,1226
80046,151915,203995,-8.0315090569,-5.124229597899999,0.8231309743999999,1227
80164,151929,203951,-8.0315090569,-5.124229597899999,0.8231309743999999,1228
80099,151779,203857,-8.0315090569,-5.124229597899999,0.8231309743999999,1229
79840,151694,203786,-8.0315090569,-5.124229597899999,0.8231309743999999,1230
79493,151632,203731,-8.0315090569,-5.124229597899999,0.8231309743999999,1231
79134,151582,203697,-8.0315090569,-5.124229597899999,0.8231309743999999,1232
78795,151560,203697,-8.0315090569,-5.124229597899999,0.8231309743999999,1233
78591,151572,203662,-8.0315090569,-5.124229597899999,0.8231309743999999,1234
78502,151625,203713,-8.0315090569,-5.124229597899999,0.8231309743999999,1235
78529,151666,203745,-8.0315090569,-5.124229597899999,0.8231309743999999,1236
78628,151708,203802,-8.0315090569,-5.124229597899999,0.8231309743999999,1237
78770,151775,203833,-8.0315090569,-5.124229597899999,0.8231309743999999,1238
77817,152889,204702,-8.039883936,-5.1194439527,0.7393821834000001,1239
78013,152919,204688,-8.039883936,-5.1194439527,0.7393821834000001,1240
78208,152919,204744,-8.039883936,-5.1194439527,0.7393821834000001,1241
78291,152926,204724,-8.039883936,-5.1194439527,0.7393821834000001,1242
78050,152775,204594,-8.039883936,-5.1194439527,0.7393821834000001,1243
77524,152661,204546,-8.039883936,-5.1194439527,0.7393821834000001,1244
76911,152620,204468,-8.039883936,-5.1194439527,0.7393821834000001,1245
76351,152564,204455,-8.039883936,-5.1194439527,0.7393821834000001,1246
75932,152513,204427,-8.039883936,-5.1194439527,0.7393821834000001,1247
75699,152558,204449,-8.039883936,-5.1194439527,0.7393821834000001,1248
75643,152590,204475,-8.039883936,-5.1194439527,0.7393821834000001,1249
75758,152668,204531,-8.039883936,-5.1194439527,0.7393821834000001,1250
75939,152697,204549,-8.039883936,-5.1194439527,0.7393821834000001,1251
76158,152751,204589,-8.039883936,-5.1194439527,0.7393821834000001,1252
76372,152780,204617,-8.039883936,-5.1194439527,0.7393821834000001,1253
76564,152819,204660,-8.039883936,-5.1194439527,0.7393821834000001,1254
76721,152798,204642,-8.039883936,-5.1194439527,0.7393821834000001,1255
76800,152759,204615,-8.039883936,-5.1194439527,0.7393821834000001,1256
76663,152712,204564,-8.039883936,-5.1194439527,0.7393821834000001,1257
76444,152644,204516,-8.039883936,-5.1194439527,0.7393821834000001,1258
76240,152669,204507,-8.039883936,-5.1194439527,0.7393821834000001,1259
76202,152676,204533,-8.039883936,-5.1194439527,0.7393821834000001,1260
76310,152736,204636,-8.039883936,-5.1194439527,0.7393821834000001,1261
76521,152755,204659,-8.039883936,-5.1194439527,0.7393821834000001,1262
76775,152834,204654,-8.039883936,-5.1194439527,0.7393821834000001,1263
77016,152858,204710,-8.039883936,-5.1194439527,0.7393821834000001,1264
77240,152907,204739,-8.039883936,-5.1194439527,0.7393821834000001,1265
77459,152909,204774,-8.039883936,-5.1194439527,0.7393821834000001,1266
77665,152944,204757,-8.039883936,-5.1194439527,0.7393821834000001,1267
77855,152963,204798,-8.039883936,-5.1194439527,0.7393821834000001,1268
78060,153002,204791,-8.039883936,-5.1194439527,0.7393821834000001,1269
78263,153031,204854,-8.039883936,-5.1194439527,0.7393821834000001,1270
78460,153029,204868,-8.039883936,-5.1194439527,0.7393821834000001,1271
78675,153071,204892,-8.039883936,-5.1194439527,0.7393821834000001,1272
78887,153078,204929,-8.039883936,-5.1194439527,0.7393821834000001,1273
79066,153147,204937,-8.039883936,-5.1194439527,0.7393821834000001,1274
79260,153141,204931,-8.039883936,-5.1194439527,0.7393821834000001,1275
79431,153160,204973,-8.039883936,-5.1194439527,0.7393821834000001,1276
79618,153180,204965,-8.039883936,-5.1194439527,0.7393821834000001,1277
79795,153221,205006,-8.039883936,-5.1194439527,0.7393821834000001,1278
79944,153232,205011,-8.039883936,-5.1194439527,0.7393821834000001,1279
80096,153218,205043,-8.039883936,-5.1194439527,0.7393821834000001,1280
78106,152954,204802,-8.147560953,-5.152943469099999,0.7944171031999999,1281
78277,152996,204818,-8.147560953,-5.152943469099999,0.7944171031999999,1282
78451,153012,204863,-8.147560953,-5.152943469099999,0.7944171031999999,1283
78632,153067,204871,-8.147560953,-5.152943469099999,0.7944171031999999,1284
78774,153060,204900,-8.147560953,-5.152943469099999,0.7944171031999999,1285
78919,153084,204896,-8.147560953,-5.152943469099999,0.7944171031999999,1286
79063,153115,204941,-8.147560953,-5.152943469099999,0.7944171031999999,1287
79206,153132,204901,-8.147560953,-5.152943469099999,0.7944171031999999,1288
79363,153148,204985,-8.147560953,-5.152943469099999,0.7944171031999999,1289
79511,153187,204984,-8.147560953,-5.152943469099999,0.7944171031999999,1290
79667,153213,204993,-8.147560953,-5.152943469099999,0.7944171031999999,1291
79828,153239,205013,-8.147560953,-5.152943469099999,0.7944171031999999,1292
79966,153266,205043,-8.147560953,-5.152943469099999,0.7944171031999999,1293
80130,153278,205086,-8.147560953,-5.152943469099999,0.7944171031999999,1294
80298,153307,205081,-8.147560953,-5.152943469099999,0.7944171031999999,1295
80444,153310,205088,-8.147560953,-5.152943469099999,0.7944171031999999,1296
80600,153333,205148,-8.147560953,-5.152943469099999,0.7944171031999999,1297
80743,153334,205125,-8.147560953,-5.152943469099999,0.7944171031999999,1298
80879,153365,205182,-8.147560953,-5.152943469099999,0.7944171031999999,1299
81028,153401,205161,-8.147560953,-5.152943469099999,0.7944171031999999,1300
81143,153401,205142,-8.147560953,-5.152943469099999,0.7944171031999999,1301
81211,153355,205141,-8.147560953,-5.152943469099999,0.7944171031999999,1302
81041,153273,205043,-8.147560953,-5.152943469099999,0.7944171031999999,1303
80583,153142,204944,-8.147560953,-5.152943469099999,0.7944171031999999,1304
79948,153073,204864,-8.147560953,-5.152943469099999,0.7944171031999999,1305
79272,152978,204821,-8.147560953,-5.152943469099999,0.7944171031999999,1306
78631,152953,204763,-8.147560953,-5.152943469099999,0.7944171031999999,1307
78138,152945,204775,-8.147560953,-5.152943469099999,0.7944171031999999,1308
77823,152983,204773,-8.147560953,-5.152943469099999,0.7944171031999999,1309
77693,153032,204842,-8.147560953,-5.152943469099999,0.7944171031999999,1310
77702,153085,204835,-8.147560953,-5.152943469099999,0.7944171031999999,1311
77768,153101,204886,-8.147560953,-5.152943469099999,0.7944171031999999,1312
77844,153133,204879,-8.147560953,-5.152943469099999,0.7944171031999999,1313
77909,153133,204890,-8.147560953,-5.152943469099999,0.7944171031999999,1314
77976,153149,204913,-8.147560953,-5.152943469099999,0.7944171031999999,1315
77959,153129,204910,-8.147560953,-5.152943469099999,0.7944171031999999,1316
77793,153067,204841,-8.147560953,-5.152943469099999,0.7944171031999999,1317
77481,153019,204783,-8.147560953,-5.152943469099999,0.7944171031999999,1318
77198,152978,204820,-8.147560953,-5.152943469099999,0.7944171031999999,1319
77055,152984,204780,-8.147560953,-5.152943469099999,0.7944171031999999,1320
77087,153038,204842,-8.147560953,-5.152943469099999,0.7944171031999999,1321
77234,153086,204861,-8.147560953,-5.152943469099999,0.7944171031999999,1322
74647,152692,204562,-8.1308111948,-5.181657340299999,0.7920242806,1323
74877,152684,204556,-8.1308111948,-5.181657340299999,0.7920242806,1324
75130,152756,204601,-8.1308111948,-5.181657340299999,0.7920242806,1325
75339,152772,204650,-8.1308111948,-5.181657340299999,0.7920242806,1326
75564,152814,204672,-8.1308111948,-5.181657340299999,0.7920242806,1327
75765,152802,204694,-8.1308111948,-5.181657340299999,0.7920242806,1328
75968,152839,204714,-8.1308111948,-5.181657340299999,0.7920242806,1329
76171,152840,204752,-8.1308111948,-5.181657340299999,0.7920242806,1330
76370,152886,204767,-8.1308111948,-5.181657340299999,0.7920242806,1331
76587,152925,204776,-8.1308111948,-5.181657340299999,0.7920242806,1332
76789,152934,204807,-8.1308111948,-5.181657340299999,0.7920242806,1333
77005,152945,204837,-8.1308111948,-5.181657340299999,0.7920242806,1334
77205,152975,204843,-8.1308111948,-5.181657340299999,0.7920242806,1335
77295,152928,204806,-8.1308111948,-5.181657340299999,0.7920242806,1336
77101,152824,204727,-8.1308111948,-5.181657340299999,0.7920242806,1337
76671,152735,204622,-8.1308111948,-5.181657340299999,0.7920242806,1338
76152,152626,204541,-8.1308111948,-5.181657340299999,0.7920242806,1339
75678,152572,204516,-8.1308111948,-5.181657340299999,0.7920242806,1340
75311,152553,204441,-8.1308111948,-5.181657340299999,0.7920242806,1341
75091,152530,204492,-8.1308111948,-5.181657340299999,0.7920242806,1342
75085,152611,204512,-8.1308111948,-5.181657340299999,0.7920242806,1343
75208,152646,204572,-8.1308111948,-5.181657340299999,0.7920242806,1344
75425,152695,204586,-8.1308111948,-5.181657340299999,0.7920242806,1345
75653,152735,204660,-8.1308111948,-5.181657340299999,0.7920242806,1346
75889,152743,204612,-8.1308111948,-5.181657340299999,0.7920242806,1347
76085,152769,204656,-8.1308111948,-5.181657340299999,0.7920242806,1348
76269,152812,204670,-8.1308111948,-5.181657340299999,0.7920242806,1349
76446,152832,204697,-8.1308111948,-5.181657340299999,0.7920242806,1350
76643,152831,204712,-8.1308111948,-5.181657340299999,0.7920242806,1351
76822,152864,204728,-8.1308111948,-5.181657340299999,0.7920242806,1352
77017,152871,204742,-8.1308111948,-5.181657340299999,0.7920242806,1353
77202,152886,204763,-8.1308111948,-5.181657340299999,0.7920242806,1354
77414,152937,204798,-8.1308111948,-5.181657340299999,0.7920242806,1355
77622,152945,204790,-8.1308111948,-5.181657340299999,0.7920242806,1356
77712,152910,204760,-8.1308111948,-5.181657340299999,0.7920242806,1357
77533,152802,204666,-8.1308111948,-5.181657340299999,0.7920242806,1358
77140,152718,204612,-8.1308111948,-5.181657340299999,0.7920242806,1359
76704,152591,204496,-8.1308111948,-5.181657340299999,0.7920242806,1360
76265,152553,204487,-8.1308111948,-5.181657340299999,0.7920242806,1361
75915,152529,204437,-8.1308111948,-5.181657340299999,0.7920242806,1362
75710,152525,204455,-8.1308111948,-5.181657340299999,0.7920242806,1363
75669,152580,204467,-8.1308111948,-5.181657340299999,0.7920242806,1364
77054,152474,204410,-8.0111700648,-5.223531735800001,0.8243273857,1365
76564,152384,204295,-8.0111700648,-5.223531735800001,0.8243273857,1366
76060,152346,204268,-8.0111700648,-5.223531735800001,0.8243273857,1367
75590,152258,204170,-8.0111700648,-5.223531735800001,0.8243273857,1368
75222,152223,204144,-8.0111700648,-5.223531735800001,0.8243273857,1369
75035,152236,204165,-8.0111700648,-5.223531735800001,0.8243273857,1370
75030,152275,204213,-8.0111700648,-5.223531735800001,0.8243273857,1371
75151,152332,204249,-8.0111700648,-5.223531735800001,0.8243273857,1372
75343,152395,204282,-8.0111700648,-5.223531735800001,0.8243273857,1373
75520,152409,204259,-8.0111700648,-5.223531735800001,0.8243273857,1374
75721,152419,204313,-8.0111700648,-5.223531735800001,0.8243273857,1375
75899,152447,204350,-8.0111700648,-5.223531735800001,0.8243273857,1376
76065,152461,204354,-8.0111700648,-5.223531735800001,0.8243273857,1377
76244,152498,204386,-8.0111700648,-5.223531735800001,0.8243273857,1378
76407,152511,204389,-8.0111700648,-5.223531735800001,0.8243273857,1379
76566,152521,204434,-8.0111700648,-5.223531735800001,0.8243273857,1380
76756,152530,204499,-8.0111700648,-5.223531735800001,0.8243273857,1381
76926,152580,204476,-8.0111700648,-5.223531735800001,0.8243273857,1382
77119,152576,204481,-8.0111700648,-5.223531735800001,0.8243273857,1383
77268,152593,204467,-8.0111700648,-5.223531735800001,0.8243273857,1384
77204,152520,204412,-8.0111700648,-5.223531735800001,0.8243273857,1385
76886,152413,204291,-8.0111700648,-5.223531735800001,0.8243273857,1386
76400,152301,204191,-8.0111700648,-5.223531735800001,0.8243273857,1387
75888,152213,204187,-8.0111700648,-5.223531735800001,0.8243273857,1388
75444,152207,204126,-8.0111700648,-5.223531735800001,0.8243273857,1389
75129,152148,204117,-8.0111700648,-5.223531735800001,0.8243273857,1390
74973,152199,204122,-8.0111700648,-5.223531735800001,0.8243273857,1391
74986,152235,204144,-8.0111700648,-5.223531735800001,0.8243273857,1392
75141,152293,204234,-8.0111700648,-5.223531735800001,0.8243273857,1393
75356,152319,204253,-8.0111700648,-5.223531735800001,0.8243273857,1394
75583,152390,204291,-8.0111700648,-5.223531735800001,0.8243273857,1395
75788,152409,204313,-8.0111700648,-5.223531735800001,0.8243273857,1396
75974,152416,204326,-8.0111700648,-5.223531735800001,0.8243273857,1397
76171,152436,204369,-8.0111700648,-5.223531735800001,0.8243273857,1398
76347,152453,204375,-8.0111700648,-5.223531735800001,0.8243273857,1399
76524,152465,204411,-8.0111700648,-5.223531735800001,0.8243273857,1400
76735,152532,204397,-8.0111700648,-5.223531735800001,0.8243273857,1401
76897,152577,204419,-8.0111700648,-5.223531735800001,0.8243273857,1402
77090,152567,204490,-8.0111700648,-5.223531735800001,0.8243273857,1403
77291,152582,204461,-8.0111700648,-5.223531735800001,0.8243273857,1404
77467,152589,204473,-8.0111700648,-5.223531735800001,0.8243273857,1405
77432,152545,204399,-8.0111700648,-5.223531735800001,0.8243273857,1406
76807,152175,204200,-7.9549387337,-4.9746781854,0.8003991597,1407
76384,152125,204136,-7.9549387337,-4.9746781854,0.8003991597,1408
76086,152114,204147,-7.9549387337,-4.9746781854,0.8003991597,1409
75943,152144,204142,-7.9549387337,-4.9746781854,0.8003991597,1410
75979,152211,204213,-7.9549387337,-4.9746781854,0.8003991597,1411
76102,152244,204257,-7.9549387337,-4.9746781854,0.8003991597,1412
76268,152282,204299,-7.9549387337,-4.9746781854,0.8003991597,1413
76423,152287,204277,-7.9549387337,-4.9746781854,0.8003991597,1414
76558,152325,204297,-7.9549387337,-4.9746781854,0.8003991597,1415
76686,152314,204303,-7.9549387337,-4.9746781854,0.8003991597,1416
76803,152331,204353,-7.9549387337,-4.9746781854,0.8003991597,1417
76940,152355,204371,-7.9549387337,-4.9746781854,0.8003991597,1418
77080,152363,204363,-7.9549387337,-4.9746781854,0.8003991597,1419
77238,152367,204368,-7.9549387337,-4.9746781854,0.8003991597,1420
77389,152411,204387,-7.9549387337,-4.9746781854,0.8003991597,1421
77543,152437,204392,-7.9549387337,-4.9746781854,0.8003991597,1422
77661,152410,204413,-7.9549387337,-4.9746781854,0.8003991597,1423
77549,152338,204346,-7.9549387337,-4.9746781854,0.8003991597,1424
77173,152219,204236,-7.9549387337,-4.9746781854,0.8003991597,1425
76680,152121,204126,-7.9549387337,-4.9746781854,0.8003991597,1426
76167,152046,204125,-7.9549387337,-4.9746781854,0.8003991597,1427
75722,152008,204080,-7.9549387337,-4.9746781854,0.8003991597,1428
75377,151998,204062,-7.9549387337,-4.9746781854,0.8003991597,1429
75231,152014,204109,-7.9549387337,-4.9746781854,0.8003991597,1430
75266,152079,204105,-7.9549387337,-4.9746781854,0.8003991597,1431
75421,152145,204181,-7.9549387337,-4.9746781854,0.8003991597,1432
75613,152181,204212,-7.9549387337,-4.9746781854,0.8003991597,1433
75811,152208,204190,-7.9549387337,-4.9746781854,0.8003991597,1434
75999,152248,204229,-7.9549387337,-4.9746781854,0.8003991597,1435
76180,152246,204282,-7.9549387337,-4.9746781854,0.8003991597,1436
76354,152262,204310,-7.9549387337,-4.9746781854,0.8003991597,1437
76525,152274,204289,-7.9549387337,-4.9746781854,0.8003991597,1438
76681,152320,204335,-7.9549387337,-4.9746781854,0.8003991597,1439
76856,152317,204319,-7.9549387337,-4.9746781854,0.8003991597,1440
77040,152385,204366,-7.9549387337,-4.9746781854,0.8003991597,1441
77218,152360,204353,-7.9549387337,-4.9746781854,0.8003991597,1442
77356,152366,204350,-7.9549387337,-4.9746781854,0.8003991597,1443
77269,152280,204335,-7.9549387337,-4.9746781854,0.8003991597,1444
76897,152175,204200,-7.9549387337,-4.9746781854,0.8003991597,1445
76379,152073,204111,-7.9549387337,-4.9746781854,0.8003991597,1446
75821,152007,204045,-7.9549387337,-4.9746781854,0.8003991597,1447
75325,151961,204030,-7.9549387337,-4.9746781854,0.8003991597,1448
76772,152177,204226,-7.9764741371,-5.1457650013,0.6915257314000001,1449
76287,152100,204136,-7.9764741371,-5.1457650013,0.6915257314000001,1450
75737,152017,204103,-7.9764741371,-5.1457650013,0.6915257314000001,1451
75249,151971,204050,-7.9764741371,-5.1457650013,0.6915257314000001,1452
74849,151982,204034,-7.9764741371,-5.1457650013,0.6915257314000001,1453
74633,151957,204030,-7.9764741371,-5.1457650013,0.6915257314000001,1454
74611,152031,204062,-7.9764741371,-5.1457650013,0.6915257314000001,1455
74762,152085,204150,-7.9764741371,-5.1457650013,0.6915257314000001,1456
74975,152104,204190,-7.9764741371,-5.1457650013,0.6915257314000001,1457
75221,152148,204177,-7.9764741371,-5.1457650013,0.6915257314000001,1458
75454,152212,204244,-7.9764741371,-5.1457650013,0.6915257314000001,1459
75667,152227,204287,-7.9764741371,-5.1457650013,0.6915257314000001,1460
75868,152221,204314,-7.9764741371,-5.1457650013,0.6915257314000001,1461
76066,152261,204258,-7.9764741371,-5.1457650013,0.6915257314000001,1462
76249,152269,204318,-7.9764741371,-5.1457650013,0.6915257314000001,1463
76432,152305,204331,-7.9764741371,-5.1457650013,0.6915257314000001,1464
76627,152333,204360,-7.9764741371,-5.1457650013,0.6915257314000001,1465
76826,152345,204396,-7.9764741371,-5.1457650013,0.6915257314000001,1466
77027,152373,204391,-7.9764741371,-5.1457650013,0.6915257314000001,1467
77201,152390,204384,-7.9764741371,-5.1457650013,0.6915257314000001,1468
77143,152305,204347,-7.9764741371,-5.1457650013,0.6915257314000001,1469
76795,152185,204254,-7.9764741371,-5.1457650013,0.6915257314000001,1470
76310,152086,204172,-7.9764741371,-5.1457650013,0.6915257314000001,1471
75828,152036,204150,-7.9764741371,-5.1457650013,0.6915257314000001,1472
75398,151966,204116,-7.9764741371,-5.1457650013,0.6915257314000001,1473
75124,152027,204087,-7.9764741371,-5.1457650013,0.6915257314000001,1474
75016,152039,204112,-7.9764741371,-5.1457650013,0.6915257314000001,1475
75119,152088,204168,-7.9764741371,-5.1457650013,0.6915257314000001,1476
75324,152153,204198,-7.9764741371,-5.1457650013,0.6915257314000001,1477
75555,152189,204241,-7.9764741371,-5.1457650013,0.6915257314000001,1478
75781,152228,204279,-7.9764741371,-5.1457650013,0.6915257314000001,1479
75977,152242,204262,-7.9764741371,-5.1457650013,0.6915257314000001,1480
76162,152264,204279,-7.9764741371,-5.1457650013,0.6915257314000001,1481
76328,152253,204310,-7.9764741371,-5.1457650013,0.6915257314000001,1482
76483,152283,204305,-7.9764741371,-5.1457650013,0.6915257314000001,1483
76633,152296,204356,-7.9764741371,-5.1457650013,0.6915257314000001,1484
76759,152298,204345,-7.9764741371,-5.1457650013,0.6915257314000001,1485
76905,152304,204344,-7.9764741371,-5.1457650013,0.6915257314000001,1486
77046,152344,204360,-7.9764741371,-5.1457650013,0.6915257314000001,1487
77182,152347,204359,-7.9764741371,-5.1457650013,0.6915257314000001,1488
77113,152303,204301,-7.9764741371,-5.1457650013,0.6915257314000001,1489
76783,152159,204215,-7.9764741371,-5.1457650013,0.6915257314000001,1490
73679,151545,203796,-8.147560953,-5.0943193154,0.8422735552,1491
73273,151542,203804,-8.147560953,-5.0943193154,0.8422735552,1492
73084,151526,203834,-8.147560953,-5.0943193154,0.8422735552,1493
73103,151611,203837,-8.147560953,-5.0943193154,0.8422735552,1494
73277,151620,203902,-8.147560953,-5.0943193154,0.8422735552,1495
73543,151706,203946,-8.147560953,-5.0943193154,0.8422735552,1496
73781,151729,203977,-8.147560953,-5.0943193154,0.8422735552,1497
74042,151767,203999,-8.147560953,-5.0943193154,0.8422735552,1498
74270,151798,204002,-8.147560953,-5.0943193154,0.8422735552,1499
74476,151812,204030,-8.147560953,-5.0943193154,0.8422735552,1500
74676,151816,204054,-8.147560953,-5.0943193154,0.8422735552,1501
74868,151839,204094,-8.147560953,-5.0943193154,0.8422735552,1502
75077,151882,204101,-8.147560953,-5.0943193154,0.8422735552,1503
75289,151889,204131,-8.147560953,-5.0943193154,0.8422735552,1504
75507,151939,204143,-8.147560953,-5.0943193154,0.8422735552,1505
75718,151963,204163,-8.147560953,-5.0943193154,0.8422735552,1506
75851,151938,204151,-8.147560953,-5.0943193154,0.8422735552,1507
75690,151832,204041,-8.147560953,-5.0943193154,0.8422735552,1508
75239,151715,203958,-8.147560953,-5.0943193154,0.8422735552,1509
74660,151625,203880,-8.147560953,-5.0943193154,0.8422735552,1510
74100,151526,203848,-8.147560953,-5.0943193154,0.8422735552,1511
73670,151516,203789,-8.147560953,-5.0943193154,0.8422735552,1512
73419,151516,203843,-8.147560953,-5.0943193154,0.8422735552,1513
73385,151566,203879,-8.147560953,-5.0943193154,0.8422735552,1514
73542,151621,203931,-8.147560953,-5.0943193154,0.8422735552,1515
73792,151697,203978,-8.147560953,-5.0943193154,0.8422735552,1516
74083,151721,204031,-8.147560953,-5.0943193154,0.8422735552,1517
74355,151784,204041,-8.147560953,-5.0943193154,0.8422735552,1518
74598,151778,204090,-8.147560953,-5.0943193154,0.8422735552,1519
74846,151803,204088,-8.147560953,-5.0943193154,0.8422735552,1520
75068,151844,204123,-8.147560953,-5.0943193154,0.8422735552,1521
75285,151878,204159,-8.147560953,-5.0943193154,0.8422735552,1522
75494,151883,204120,-8.147560953,-5.0943193154,0.8422735552,1523
75684,151930,204140,-8.147560953,-5.0943193154,0.8422735552,1524
75887,151933,204187,-8.147560953,-5.0943193154,0.8422735552,1525
76121,151974,204165,-8.147560953,-5.0943193154,0.8422735552,1526
76306,151975,204205,-8.147560953,-5.0943193154,0.8422735552,1527
76304,151903,204169,-8.147560953,-5.0943193154,0.8422735552,1528
76018,151794,204015,-8.147560953,-5.0943193154,0.8422735552,1529
