green,red,IR,acc_x,acc_y,acc_z,sample_index
101619,186763,236075,4.844269353700001,-2.3748764305,-8.1403824852,1
101978,186804,236098,4.8346980633,-2.5256242543,-8.1044901462,2
102264,186801,236101,4.869393991,-2.5184457865,-8.3042908333,3
102446,186826,236132,4.8047877808,-2.4382862294,-8.1798640581,4
102434,186840,236100,4.8071806034,-2.3724836079,-8.1176506705,5
102636,186845,236130,4.6863430621,-2.4107687694999997,-8.2217384536,6
102884,186844,236172,4.8741796362,-2.4059831243,-8.1032937349,7
103097,186926,236181,4.7222354011,-2.3485553819,-8.1056865575,8
103365,186894,236226,4.8418765311,-2.4849462701,-8.1523465982,9
103645,186953,236204,4.8047877808,-2.3796620756999998,-8.147560953,10
103867,186971,236253,4.8346980633,-2.4035903017,-8.1643107112,11
104183,187018,236246,4.8382872972,-2.488535504,-8.1128650253,12
104432,187038,236251,4.8131626599,-2.4418754632999997,-8.2097743406,13
104367,187013,236202,4.9782674193,-2.4789642136,-8.1009009123,14
103514,186879,236151,4.8490549989,-2.3126630429,-8.128418372199999,15
102611,186736,236081,4.8741796362,-2.4693929232,-8.1439717191,16
102138,186725,236043,4.7760739096,-2.3665015514,-8.2241312762,17
102063,186706,236000,4.8466621763,-2.572284295,-8.1427753078,18
102199,186706,236043,4.6995035864000005,-2.5830519966999996,-8.1260255496,19
102407,186723,236048,4.7581277401,-2.4610180441000002,-8.147560953,20
102750,186782,236112,4.8418765311,-2.4071795356,-8.116454259200001,21
103003,186832,236131,4.7066820542,-2.5567309481,-8.2169528084,22
103133,186791,236119,4.8562334667,-2.5495524802999996,-8.1762748242,23
103225,186828,236096,4.7676990305,-2.4789642136,-8.1882389372,24
103364,186864,236127,4.7856452,-2.3126630429,-8.1320076061,25
103550,186856,236161,4.7928236678,-2.4083759468999997,-8.1308111948,26
103767,186887,236144,4.8717868136,-2.3736800192,-8.159525066,27
104032,186904,236151,4.8753760475,-2.548356069,-8.0458659925,28
104283,186950,236209,4.7712882644,-2.5471596577,-8.252845147399999,29
104519,186984,236238,4.7712882644,-2.5016960283,-8.1068829688,30
104356,186905,236157,4.8430729424,-2.4095723582,-8.0985080897,31
103496,186755,236066,4.7832523774,-2.4215364712,-8.2002030502,32
102617,186639,236018,4.6564327796,-2.5447668351,-8.1224363157,33
102204,186584,235965,4.8538406441,-2.4610180441000002,-8.1499537756,34
102149,186589,235975,4.8658047571,-2.5627130046,-8.1930245824,35
102242,186665,235976,4.8610191119,-2.428714939,-8.254041558700001,36
102461,186657,236044,4.7449672158,-2.3772692530999997,-8.1104722027,37
102771,186714,236006,4.7282174576000005,-2.3066809864,-8.1678999451,38
102969,186715,236051,4.8550370553999995,-2.4335005842,-8.170292767700001,39
103087,186768,236048,4.8346980633,-2.4622144554,-8.1523465982,40
103221,186772,236066,4.883750926599999,-2.4813570362,-8.137989662599999,41
103337,186765,236084,4.7449672158,-2.3724836079,-8.128418372199999,42
103540,186821,236082,4.677968183,-2.5459632464,-8.0961152671,43
103687,186848,236082,4.6983071751,-2.3485553819,-8.128418372199999,44
104028,186889,236097,4.8299124181,-2.476571391,-8.1032937349,45
104270,186934,236120,4.9639104837,-2.4263221164,-8.2480595022,46
104249,186897,236112,4.7688954418,-2.5375883673,-8.2588272039,47
103503,186746,236031,4.7270210463,-2.3760728418,-8.1200434931,48
102477,186599,235978,4.7784667322,-2.4107687694999997,-8.173882001600001,49
101899,186493,235932,4.8957150396,-2.4346969955,-8.2217384536,50
101718,186517,235944,4.8753760475,-2.4610180441000002,-8.170292767700001,51
101765,186511,235909,4.9304109673,-2.5136601413,-8.1032937349,52
101937,186590,235936,4.9986064114,-2.464607278,-8.2097743406,53
102184,186635,235979,4.8538406441,-2.3246271559,-8.1535430095,54
102402,186667,235923,4.8059841921,-2.4813570362,-8.102097323599999,55
102534,186648,235978,4.6624148361,-2.4251257050999997,-8.1499537756,56
102548,186661,236028,4.7712882644,-2.3437697367,-8.2097743406,57
102729,186689,235969,4.9208396769,-2.3868405435,-8.0554372829,58
102908,186715,236011,4.8251267729,-2.4538395763,-8.171489179,59
103103,186744,236041,4.7844487887,-2.3844477209,-8.267202082999999,60
103214,186708,236000,4.8000021356,-2.3533410271,-8.137989662599999,61
103398,186763,235944,4.9016970961,-2.4023938904,-8.0853475654,62
103527,186751,236030,4.797609313,-2.5543381254999997,-8.1571322434,63
102984,186627,235951,4.8981078622,-2.4897319153,-8.1882389372,64
101958,186492,235916,4.8394837085,-2.4550359876,-8.1499537756,65
101280,186399,235863,4.7353959254,-2.4263221164,-8.1200434931,66
101066,186408,235813,4.8071806034,-2.4550359876,-8.1571322434,67
101107,186480,235893,4.9746781854,-2.4239292938,-8.1655071225,68
101265,186448,235867,4.881358104,-2.3581266723,-8.1332040174,69
101553,186491,235903,4.844269353700001,-2.3581266723,-8.137989662599999,70
101808,186554,235956,4.8263231842,-2.4622144554,-8.0769726863,71
101901,186536,235926,4.8634119345,-2.4861426814,-8.0315090569,72
102047,186551,235965,4.926821733400001,-2.4215364712,-8.1403824852,73
102128,186585,235976,4.8430729424,-2.5100709074,-8.1619178886,74
102289,186658,235998,4.7521456836,-2.4191436486,-8.13559684,75
102470,186611,236000,4.7892344339,-2.4705893345,-8.1619178886,76
102710,186671,236013,4.773681087,-2.4849462701,-8.1499537756,77
102988,186700,236033,4.9232324995,-2.548356069,-8.0027951857,78
103190,186683,236013,4.8658047571,-2.4789642136,-8.1762748242,79
102972,186677,235991,4.7425743932,-2.4562323989,-8.1200434931,80
101980,186536,235910,4.7306102802,-2.5220350203999997,-8.2025958728,81
101087,186381,235838,4.7904308452,-2.3748764305,-8.1200434931,82
100815,186353,235847,4.754538506199999,-2.3557338497,-8.0949188558,83
100821,186383,235863,4.749752861,-2.4215364712,-8.1200434931,84
100984,186385,235869,4.9112683865,-2.5088744961000002,-8.2002030502,85
101237,186477,235899,4.6959143525,-2.2719850587,-8.1655071225,86
101539,186490,235969,4.8287160068,-2.3246271559,-8.2241312762,87
101654,186477,235940,4.8729832249000005,-2.4358934068,-8.2241312762,88
101803,186483,235943,4.8011985469,-2.4598216327999998,-8.2289169214,89
101891,186463,235983,4.7270210463,-2.5411776012,-8.063812162,90
102049,186507,235981,4.7126641107,-2.4335005842,-8.1224363157,91
102299,186591,235980,4.773681087,-2.5040888509,-8.1427753078,92
102528,186601,236003,4.8538406441,-2.51246373,-8.1009009123,93
102732,186619,236031,4.8825545153,-2.5268206656,-8.1176506705,94
102989,186663,236025,4.8227339503,-2.4813570362,-8.1643107112,95
103013,186649,236036,4.788038022599999,-2.464607278,-8.2683984943,96
102327,186550,235954,4.7318066915,-2.5339991334,-8.1499537756,97
101231,186371,235871,4.7712882644,-2.4119651808,-8.062615750700001,98
100709,186273,235882,4.8119662486,-2.4131615921,-8.159525066,99
100661,186301,235869,4.773681087,-2.4059831243,-8.1272219609,100
100819,186314,235874,4.8023949582,-2.4155544147,-8.1978102276,101
101009,186335,235902,4.7593241513999995,-2.4837498588,-8.1451681304,102
101319,186346,235912,4.878965281399999,-2.5818555854,-8.2169528084,103
101600,186396,235933,4.7712882644,-2.4957139718,-8.137989662599999,104
101648,186417,235935,4.9184468543,-2.4741785684,-8.227720510100001,105
101862,186441,235967,4.7665026192,-2.4622144554,-8.1511501869,106
102097,186498,235966,4.8526442328,-2.4957139718,-8.2600236152,107
102289,186577,235985,4.7724846757,-2.4418754632999997,-8.1930245824,108
102551,186563,236031,4.748556449700001,-2.3593230836,-8.171489179,109
102853,186619,236032,4.878965281399999,-2.4394826406999996,-8.1619178886,110
103172,186663,236025,4.7952164904,-2.4861426814,-8.236095389199999,111
103472,186722,236068,4.8239303616,-2.4311077616,-8.204988695399999,112
103712,186742,236066,4.8358944746,-2.5244278430000002,-8.195417404999999,113
104014,186751,236107,4.8191447164,-2.3330020350000003,-8.1930245824,114
104257,186790,236130,4.9519463707,-2.3796620756999998,-8.2325061553,115
104238,186804,236113,4.7688954418,-2.4741785684,-8.1344004287,116
103405,186604,236006,4.788038022599999,-2.4227328825,-8.171489179,117
102331,186495,235917,4.8191447164,-2.4873390927,-8.1499537756,118
101834,186421,235903,4.7413779819,-2.4789642136,-8.0913296219,119
101750,186442,235906,4.7641097966,-2.4921247379,-8.0769726863,120
101901,186463,235962,4.9674997176,-2.4430718746,-8.1810604694,121
102125,186436,235927,4.8239303616,-2.4717857458,-8.171489179,122
102423,186549,235935,4.869393991,-2.5639094158999995,-8.1786676468,123
102655,186531,235970,4.8000021356,-2.4837498588,-8.1415788965,124
102804,186574,235999,4.844269353700001,-2.3988046565,-8.1391860739,125
102904,186548,236009,4.8550370553999995,-2.4861426814,-8.2121671632,126
103069,186590,235989,4.8466621763,-2.452643165,-8.2002030502,127
103289,186616,235998,4.7988057243,-2.4717857458,-8.1391860739,128
103500,186658,236049,4.8550370553999995,-2.3760728418,-8.1009009123,129
103839,186708,236084,4.844269353700001,-2.4825534475,-8.2002030502,130
104123,186758,236120,4.7641097966,-2.4263221164,-8.0865439767,131
104435,186797,236172,4.8011985469,-2.5375883673,-8.0985080897,132
104668,186806,236125,4.8729832249000005,-2.5328027221,-8.1667035338,133
104952,186867,236203,4.8382872972,-2.4574288102,-8.116454259200001,134
105223,186911,236216,4.6576291909,-2.4933211492,-8.1619178886,135
105518,186959,236230,4.7569313288,-2.3856441322,-8.1367932513,136
105782,187042,236265,4.845465765,-2.5555345367999998,-8.0913296219,137
106031,187032,236223,4.6875394734,-2.3222343333,-8.169096356399999,138
106335,187076,236266,4.773681087,-2.440679052,-8.1487573643,139
106545,187112,236310,4.8239303616,-2.4610180441000002,-8.0829547428,140
106719,187135,236308,4.689932296,-2.4861426814,-8.171489179,141
106561,187094,236246,4.7521456836,-2.4741785684,-8.1391860739,142
105603,186941,236123,4.8801616927,-2.4107687694999997,-8.1499537756,143
104425,186740,236055,4.8023949582,-2.4335005842,-8.0817583315,144
103855,186689,236044,4.7353959254,-2.3593230836,-8.1176506705,145
103691,186661,236048,4.7904308452,-2.4418754632999997,-8.243273857,146
103809,186710,236069,4.833501652,-2.2444675988,-8.0865439767,147
103923,186726,236091,4.8179483051,-2.4263221164,-8.1176506705,148
104134,186758,236088,4.8358944746,-2.4969103831,-8.1571322434,149
104299,186757,236102,4.883750926599999,-2.4418754632999997,-8.204988695399999,150
104309,186757,236123,4.7078784655,-2.4789642136,-8.1032937349,151
104351,186780,236109,4.8023949582,-2.4813570362,-8.2648092604,152
104388,186818,236112,4.9519463707,-2.3748764305,-8.1487573643,153
104551,186754,236157,4.8717868136,-2.440679052,-8.1439717191,154
104744,186845,236161,4.713860522,-2.5052852621999997,-8.1427753078,155
104959,186878,236151,4.713860522,-2.5052852621999997,-8.1427753078,156
105165,186912,236203,4.713860522,-2.5052852621999997,-8.1427753078,157
105406,186939,236203,4.713860522,-2.5052852621999997,-8.1427753078,158
105633,186959,236227,4.713860522,-2.5052852621999997,-8.1427753078,159
103309,186704,236034,4.8753760475,-2.4825534475,-8.115257847899999,160
103324,186696,236049,4.8610191119,-2.4382862294,-8.084151154099999,161
103441,186721,236084,4.8921258057,-2.4011974791,-8.1870425259,162
103646,186757,236073,4.8801616927,-2.3509482045,-8.1212399044,163
103779,186768,236106,4.7724846757,-2.2863419943,-8.226524098799999,164
103737,186772,236098,4.6695933039,-2.4179472373,-8.2337025666,165
103726,186763,236108,4.7832523774,-2.440679052,-8.1068829688,166
103763,186783,236081,4.8705904022999995,-2.4000010678,-8.171489179,167
103825,186802,236128,4.9351966125,-2.4550359876,-8.159525066,168
104029,186831,236127,4.7916272565,-2.4957139718,-8.159525066,169
104191,186846,236153,4.8658047571,-2.4394826406999996,-8.1104722027,170
104401,186894,236161,4.8311088294,-2.5387847786,-8.2504523248,171
104584,186917,236184,4.7641097966,-2.3509482045,-8.240881034400001,172
104787,186956,236177,4.7449672158,-2.4598216327999998,-8.129614783500001,173
104963,186947,236208,4.9064827413000005,-2.4000010678,-8.1032937349,174
105084,187022,236211,4.8311088294,-2.4861426814,-8.1571322434,175
104573,186895,236152,4.6851466508,-2.4263221164,-8.2025958728,176
103290,186725,236028,4.7114676994,-2.4610180441000002,-8.1667035338,177
102203,186599,235977,4.8179483051,-2.3341984463,-8.207381518,178
101663,186552,235960,4.9375894351,-2.4466611085,-8.2456666796,179
101532,186552,235949,4.7330031028,-2.4861426814,-8.2253276875,180
101567,186554,235960,4.9232324995,-2.440679052,-8.0721870411,181
101768,186613,235962,4.8526442328,-2.4574288102,-8.219345631,182
101964,186624,236020,4.8406801198,-2.4023938904,-8.111668614,183
102191,186629,236006,4.7868416113,-2.5208386090999997,-8.1499537756,184
102283,186650,236011,4.845465765,-2.4335005842,-8.171489179,185
102318,186656,235998,4.8861437492,-2.4861426814,-8.1200434931,186
102419,186677,236043,4.7856452,-2.4131615921,-8.2384882118,187
102604,186706,236058,4.6827538282,-2.4478575198,-8.1068829688,188
102820,186738,236071,4.6827538282,-2.4478575198,-8.1068829688,189
103089,186761,236109,4.6827538282,-2.4478575198,-8.1068829688,190
103337,186841,236135,4.6827538282,-2.4478575198,-8.1068829688,191
103618,186840,236147,4.6827538282,-2.4478575198,-8.1068829688,192
103857,186913,236149,4.6827538282,-2.4478575198,-8.1068829688,193
104097,186919,236184,4.6827538282,-2.4478575198,-8.1068829688,194
104347,186953,236166,4.6827538282,-2.4478575198,-8.1068829688,195
104498,186977,236190,4.6887358847,-2.4035903017,-8.084151154099999,196
104014,186911,236088,4.8311088294,-2.3772692530999997,-8.2289169214,197
102678,186687,236005,4.8861437492,-2.4741785684,-8.2121671632,198
101695,186556,235974,4.8023949582,-2.4789642136,-8.0985080897,199
101269,186508,235973,4.8023949582,-2.4789642136,-8.0985080897,200
101178,186484,235905,4.8023949582,-2.4789642136,-8.0985080897,201
101289,186558,235957,4.8023949582,-2.4789642136,-8.0985080897,202
101542,186486,236009,4.797609313,-2.464607278,-8.0674013959,203
101820,186605,236013,4.7748774982999995,-2.4981067944,-8.2097743406,204
102014,186616,236009,4.7174497559,-2.4119651808,-8.2612200265,205
102105,186616,235982,4.6528435457,-2.3270199785,-8.0769726863,206
102203,186649,236038,4.8550370553999995,-2.4143580034,-8.1499537756,207
102346,186683,236041,4.8717868136,-2.452643165,-8.159525066,208
102582,186691,236060,4.748556449700001,-2.4000010678,-8.2301133327,209
102820,186737,236057,4.7760739096,-2.4335005842,-8.1906317598,210
103077,186763,236086,4.7760739096,-2.4335005842,-8.1906317598,211
103368,186825,236105,4.7760739096,-2.4335005842,-8.1906317598,212
103635,186847,236166,4.7760739096,-2.4335005842,-8.1906317598,213
103906,186884,236143,4.7760739096,-2.4335005842,-8.1906317598,214
104172,186924,236174,4.7760739096,-2.4335005842,-8.1906317598,215
104416,186922,236164,4.9208396769,-2.3533410271,-8.252845147399999,216
104685,186972,236228,4.8011985469,-2.5220350203999997,-8.173882001600001,217
104816,187002,236185,4.7712882644,-2.5232314317,-8.236095389199999,218
104393,186934,236176,4.8382872972,-2.4095723582,-8.124829138299999,219
103248,186715,236041,4.7246282237,-2.3665015514,-8.0949188558,220
102268,186610,235971,4.7952164904,-2.440679052,-8.1906317598,221
101843,186534,235949,4.929214556,-2.4143580034,-8.0865439767,222
101844,186520,235967,4.8119662486,-2.3413769141,-8.1391860739,223
102022,186580,235967,4.6947179412,-2.4215364712,-8.102097323599999,224
102226,186596,236010,4.7593241513999995,-2.3557338497,-8.1439717191,225
102507,186634,236053,4.7282174576000005,-2.476571391,-8.1523465982,226
102720,186643,236049,4.7760739096,-2.5196421978,-8.183453292,227
102833,186707,236041,4.788038022599999,-2.4155544147,-8.204988695399999,228
102907,186705,236037,4.749752861,-2.4370898181,-8.3114693011,229
102995,186687,236041,4.8634119345,-2.4873390927,-8.231309744,230
103279,186768,236110,4.8047877808,-2.4789642136,-8.1990066389,231
103522,186748,236089,4.8861437492,-2.5316063108,-8.2145599858,232
103771,186767,236179,4.8861437492,-2.5316063108,-8.2145599858,233
104059,186818,236168,4.8861437492,-2.5316063108,-8.2145599858,234
104367,186893,236167,4.7952164904,-2.4454646972,-8.1786676468,235
104624,186866,236147,4.816751893799999,-2.3784656644,-8.171489179,236
104838,186905,236177,4.7641097966,-2.4789642136,-8.1966138163,237
105002,186933,236152,4.8047877808,-2.476571391,-8.1786676468,238
104512,186809,236135,4.7940200791,-2.4813570362,-8.1176506705,239
103521,186684,236056,4.7940200791,-2.4514467537,-8.2169528084,240
102870,186575,235992,4.9040899186999996,-2.4011974791,-8.2480595022,241
102647,186580,236027,4.749752861,-2.3150558654999998,-8.1415788965,242
102722,186574,235999,4.7688954418,-2.428714939,-8.185846114599999,243
102918,186604,236006,4.7688954418,-2.428714939,-8.185846114599999,244
103213,186629,236061,4.7688954418,-2.428714939,-8.185846114599999,245
103517,186670,236111,4.7688954418,-2.428714939,-8.185846114599999,246
103686,186705,236063,4.7688954418,-2.428714939,-8.185846114599999,247
103805,186681,236056,4.7688954418,-2.428714939,-8.185846114599999,248
103924,186730,236051,4.7688954418,-2.428714939,-8.185846114599999,249
104063,186752,236104,4.7688954418,-2.428714939,-8.185846114599999,250
104275,186770,236147,4.7688954418,-2.428714939,-8.185846114599999,251
104546,186789,236140,4.7688954418,-2.428714939,-8.185846114599999,252
104824,186858,236160,4.7688954418,-2.428714939,-8.185846114599999,253
105066,186884,236162,4.7688954418,-2.428714939,-8.185846114599999,254
105309,186856,236153,4.7688954418,-2.428714939,-8.185846114599999,255
105360,186883,236165,4.7688954418,-2.428714939,-8.185846114599999,256
104670,186725,236056,4.7688954418,-2.428714939,-8.185846114599999,257
103759,186625,236035,4.7688954418,-2.428714939,-8.185846114599999,258
103256,186568,235986,4.7688954418,-2.428714939,-8.185846114599999,259
103142,186532,236005,4.8897329831,-2.4933211492,-8.0817583315,260
103226,186554,236001,4.8897329831,-2.4933211492,-8.0817583315,261
103421,186598,236022,4.8897329831,-2.4933211492,-8.0817583315,262
103700,186585,236057,4.8897329831,-2.4933211492,-8.0817583315,263
103935,186649,236064,4.8897329831,-2.4933211492,-8.0817583315,264
104112,186653,236094,4.8897329831,-2.4933211492,-8.0817583315,265
104244,186708,236062,4.8897329831,-2.4933211492,-8.0817583315,266
104415,186691,236094,4.857429878,-2.4251257050999997,-8.0458659925,267
104643,186736,236140,4.857429878,-2.4251257050999997,-8.0458659925,268
104868,186746,236126,4.857429878,-2.4251257050999997,-8.0458659925,269
105161,186834,236124,4.857429878,-2.4251257050999997,-8.0458659925,270
105423,186847,236137,4.857429878,-2.4251257050999997,-8.0458659925,271
105684,186881,236152,4.857429878,-2.4251257050999997,-8.0458659925,272
105955,186918,236196,4.9280181447,-2.3258235672,-8.116454259200001,273
105938,186907,236177,4.7665026192,-2.4155544147,-8.1128650253,274
105206,186715,236115,4.713860522,-2.4454646972,-8.1212399044,275
104280,186600,236025,4.8514478215,-2.4658036893,-8.2002030502,276
103786,186578,236028,4.8514478215,-2.4658036893,-8.2002030502,277
103662,186541,236021,4.8514478215,-2.4658036893,-8.2002030502,278
103916,186631,236030,4.7928236678,-2.5292134882000004,-8.185846114599999,279
104145,186659,236083,4.9938207662,-2.4933211492,-8.1906317598,280
104390,186666,236066,4.773681087,-2.4215364712,-8.0985080897,281
104529,186700,236112,4.7473600384,-2.4801606249,-8.1978102276,282
104623,186757,236103,4.748556449700001,-2.416750826,-8.204988695399999,283
104761,186747,236085,4.8646083458,-2.4323041729,-8.171489179,284
104924,186755,236142,4.7904308452,-2.4107687694999997,-8.2241312762,285
105150,186851,236136,4.671986126499999,-2.5148565526000004,-8.183453292,286
105407,186861,236172,4.8143590712,-2.476571391,-8.129614783500001,287
105670,186870,236196,4.8143590712,-2.476571391,-8.129614783500001,288
105936,186899,236154,4.8143590712,-2.476571391,-8.129614783500001,289
106188,186934,236236,4.8143590712,-2.476571391,-8.129614783500001,290
106418,186983,236209,4.8143590712,-2.476571391,-8.129614783500001,291
106633,187005,236216,4.8143590712,-2.476571391,-8.129614783500001,292
106607,186970,236242,4.8143590712,-2.476571391,-8.129614783500001,293
105788,186830,236164,4.8143590712,-2.476571391,-8.129614783500001,294
104730,186707,236094,4.8143590712,-2.476571391,-8.129614783500001,295
104077,186636,236035,4.8143590712,-2.476571391,-8.129614783500001,296
103894,186635,235995,4.8143590712,-2.476571391,-8.129614783500001,297
103853,186604,236023,4.8143590712,-2.476571391,-8.129614783500001,298
103944,186641,236049,4.8143590712,-2.476571391,-8.129614783500001,299
104155,186675,236069,4.8143590712,-2.476571391,-8.129614783500001,300
104324,186728,236110,4.8143590712,-2.476571391,-8.129614783500001,301
104421,186703,236077,4.8143590712,-2.476571391,-8.129614783500001,302
104462,186747,236059,4.8143590712,-2.476571391,-8.129614783500001,303
104563,186725,236068,4.7916272565,-2.4502503424,-8.1547394208,304
104712,186771,236148,4.7916272565,-2.4502503424,-8.1547394208,305
104902,186797,236146,4.7916272565,-2.4502503424,-8.1547394208,306
105134,186832,236170,4.7916272565,-2.4502503424,-8.1547394208,307
105331,186897,236213,4.7916272565,-2.4502503424,-8.1547394208,308
105581,186889,236205,4.7916272565,-2.4502503424,-8.1547394208,309
105798,186953,236239,4.7916272565,-2.4502503424,-8.1547394208,310
106022,186993,236220,4.8514478215,-2.4335005842,-8.1056865575,311
106222,187030,236261,4.8514478215,-2.4335005842,-8.1056865575,312
106440,187033,236290,4.8514478215,-2.4335005842,-8.1056865575,313
106635,187059,236261,4.8514478215,-2.4335005842,-8.1056865575,314
106760,187062,236271,4.8514478215,-2.4335005842,-8.1056865575,315
106379,186981,236237,4.8514478215,-2.4335005842,-8.1056865575,316
105107,186776,236093,4.7653062079,-2.3724836079,-8.1942209937,317
104093,186661,236043,4.8059841921,-2.440679052,-8.1391860739,318
103561,186690,236021,4.7617169740000005,-2.4741785684,-8.2827554299,319
103413,186645,236015,4.8705904022999995,-2.5794627628,-8.1798640581,320
103437,186633,236053,4.8705904022999995,-2.5794627628,-8.1798640581,321
103584,186645,236056,4.8705904022999995,-2.5794627628,-8.1798640581,322
103791,186711,236087,4.8705904022999995,-2.5794627628,-8.1798640581,323
103891,186697,236117,4.8705904022999995,-2.5794627628,-8.1798640581,324
103938,186723,236095,4.8705904022999995,-2.5794627628,-8.1798640581,325
103955,186704,236073,4.8705904022999995,-2.5794627628,-8.1798640581,326
104035,186689,236104,4.8705904022999995,-2.5794627628,-8.1798640581,327
104208,186757,236151,4.8705904022999995,-2.5794627628,-8.1798640581,328
104402,186775,236168,4.8705904022999995,-2.5794627628,-8.1798640581,329
104625,186825,236135,4.7617169740000005,-2.4179472373,-8.147560953,330
104849,186859,236182,4.7796631435,-2.5292134882000004,-8.1403824852,331
105028,186856,236197,4.7796631435,-2.5292134882000004,-8.1403824852,332
105249,186899,236199,4.7796631435,-2.5292134882000004,-8.1403824852,333
105366,186899,236217,4.7796631435,-2.5292134882000004,-8.1403824852,334
104932,186831,236172,4.7796631435,-2.5292134882000004,-8.1403824852,335
103795,186648,236080,4.7796631435,-2.5292134882000004,-8.1403824852,336
102845,186551,236020,4.7796631435,-2.5292134882000004,-8.1403824852,337
102455,186517,236008,4.7796631435,-2.5292134882000004,-8.1403824852,338
102409,186486,235966,4.7796631435,-2.5292134882000004,-8.1403824852,339
102531,186514,236029,4.7796631435,-2.5292134882000004,-8.1403824852,340
102751,186574,236055,4.7796631435,-2.5292134882000004,-8.1403824852,341
103178,186606,236063,4.850251410199999,-2.4323041729,-8.226524098799999,342
103209,186633,236100,4.850251410199999,-2.4323041729,-8.226524098799999,343
103293,186627,236087,4.850251410199999,-2.4323041729,-8.226524098799999,344
103411,186632,236090,4.850251410199999,-2.4323041729,-8.226524098799999,345
103583,186657,236089,4.850251410199999,-2.4323041729,-8.226524098799999,346
103803,186731,236116,4.850251410199999,-2.4323041729,-8.226524098799999,347
104018,186718,236116,4.850251410199999,-2.4323041729,-8.226524098799999,348
104238,186770,236135,4.850251410199999,-2.4323041729,-8.226524098799999,349
104439,186794,236194,4.850251410199999,-2.4323041729,-8.226524098799999,350
104450,186797,236168,4.850251410199999,-2.4323041729,-8.226524098799999,351
103672,186664,236078,4.850251410199999,-2.4323041729,-8.226524098799999,352
102544,186489,235990,4.850251410199999,-2.4323041729,-8.226524098799999,353
101870,186397,235946,4.850251410199999,-2.4323041729,-8.226524098799999,354
101718,186433,235919,4.850251410199999,-2.4323041729,-8.226524098799999,355
101777,186426,235987,4.850251410199999,-2.4323041729,-8.226524098799999,356
101963,186449,235993,4.850251410199999,-2.4323041729,-8.226524098799999,357
102273,186492,236010,4.850251410199999,-2.4323041729,-8.226524098799999,358
102548,186501,235999,4.850251410199999,-2.4323041729,-8.226524098799999,359
102720,186554,236026,4.850251410199999,-2.4323041729,-8.226524098799999,360
102849,186591,236036,4.850251410199999,-2.4323041729,-8.226524098799999,361
102969,186566,236055,4.850251410199999,-2.4323041729,-8.226524098799999,362
103161,186629,236083,4.850251410199999,-2.4323041729,-8.226524098799999,363
103417,186655,236124,4.850251410199999,-2.4323041729,-8.226524098799999,364
103708,186693,236101,4.850251410199999,-2.4323041729,-8.226524098799999,365
104005,186699,236119,4.850251410199999,-2.4323041729,-8.226524098799999,366
104294,186784,236165,4.8287160068,-2.4550359876,-8.1009009123,367
104567,186820,236148,4.8287160068,-2.4550359876,-8.1009009123,368
104843,186853,236191,4.8287160068,-2.4550359876,-8.1009009123,369
105085,186884,236186,4.8287160068,-2.4550359876,-8.1009009123,370
105115,186881,236158,4.8287160068,-2.4550359876,-8.1009009123,371
104308,186779,236103,4.8287160068,-2.4550359876,-8.1009009123,372
103184,186575,236020,4.8287160068,-2.4550359876,-8.1009009123,373
102565,186489,235973,4.8287160068,-2.4550359876,-8.1009009123,374
102437,186497,236001,4.8287160068,-2.4550359876,-8.1009009123,375
102552,186513,235998,4.8287160068,-2.4550359876,-8.1009009123,376
102741,186543,236005,4.8287160068,-2.4550359876,-8.1009009123,377
103020,186574,236058,4.8287160068,-2.4550359876,-8.1009009123,378
103311,186605,236048,4.8287160068,-2.4550359876,-8.1009009123,379
103473,186621,236076,4.8287160068,-2.4550359876,-8.1009009123,380
103645,186639,236062,4.8287160068,-2.4550359876,-8.1009009123,381
103783,186656,236105,4.8287160068,-2.4550359876,-8.1009009123,382
103990,186699,236104,4.8287160068,-2.4550359876,-8.1009009123,383
104229,186745,236155,4.8287160068,-2.4550359876,-8.1009009123,384
104527,186768,236191,4.8287160068,-2.4550359876,-8.1009009123,385
104829,186817,236156,4.8287160068,-2.4550359876,-8.1009009123,386
105136,186882,236197,4.8287160068,-2.4550359876,-8.1009009123,387
105421,186900,236233,4.8287160068,-2.4550359876,-8.1009009123,388
105691,186961,236266,4.8287160068,-2.4550359876,-8.1009009123,389
105965,186987,236244,4.8287160068,-2.4550359876,-8.1009009123,390
106210,186972,236275,4.8287160068,-2.4550359876,-8.1009009123,391
106318,187000,236278,4.8287160068,-2.4550359876,-8.1009009123,392
105720,186891,236214,4.8705904022999995,-2.3748764305,-8.1547394208,393
104657,186738,236080,4.8705904022999995,-2.3748764305,-8.1547394208,394
103982,186663,236066,4.8705904022999995,-2.3748764305,-8.1547394208,395
103801,186656,236047,4.8705904022999995,-2.3748764305,-8.1547394208,396
103858,186647,236085,4.8705904022999995,-2.3748764305,-8.1547394208,397
104034,186711,236069,4.8705904022999995,-2.3748764305,-8.1547394208,398
104312,186715,236140,4.8705904022999995,-2.3748764305,-8.1547394208,399
104576,186757,236120,4.8705904022999995,-2.3748764305,-8.1547394208,400
104731,186736,236135,4.8705904022999995,-2.3748764305,-8.1547394208,401
104865,186779,236132,4.8705904022999995,-2.3748764305,-8.1547394208,402
104988,186800,236151,4.8705904022999995,-2.3748764305,-8.1547394208,403
105145,186813,236132,4.8705904022999995,-2.3748764305,-8.1547394208,404
105374,186833,236189,4.8705904022999995,-2.3748764305,-8.1547394208,405
105631,186872,236175,4.8705904022999995,-2.3748764305,-8.1547394208,406
105905,186918,236235,4.8705904022999995,-2.3748764305,-8.1547394208,407
106163,186946,236237,4.8705904022999995,-2.3748764305,-8.1547394208,408
106456,186984,236280,4.8705904022999995,-2.3748764305,-8.1547394208,409
106695,187010,236284,4.8705904022999995,-2.3748764305,-8.1547394208,410
106949,186999,236297,4.8705904022999995,-2.3748764305,-8.1547394208,411
107169,187065,236253,4.7330031028,-2.4119651808,-8.147560953,412
107133,187038,236308,4.7330031028,-2.4119651808,-8.147560953,413
106401,186928,236239,4.7330031028,-2.4119651808,-8.147560953,414
105446,186788,236130,4.7330031028,-2.4119651808,-8.147560953,415
104881,186733,236123,4.7330031028,-2.4119651808,-8.147560953,416
104735,186721,236123,4.7330031028,-2.4119651808,-8.147560953,417
104797,186732,236090,4.7330031028,-2.4119651808,-8.147560953,418
104987,186744,236144,4.7330031028,-2.4119651808,-8.147560953,419
105230,186780,236136,4.7330031028,-2.4119651808,-8.147560953,420
105429,186783,236164,4.7330031028,-2.4119651808,-8.147560953,421
105545,186821,236142,4.7330031028,-2.4119651808,-8.147560953,422
105616,186837,236144,4.7330031028,-2.4119651808,-8.147560953,423
105724,186842,236188,4.7330031028,-2.4119651808,-8.147560953,424
105860,186850,236210,4.7330031028,-2.4119651808,-8.147560953,425
106019,186918,236204,4.7330031028,-2.4119651808,-8.147560953,426
106301,186946,236274,4.7330031028,-2.4119651808,-8.147560953,427
106504,186984,236261,4.7330031028,-2.4119651808,-8.147560953,428
106720,186983,236293,4.7330031028,-2.4119651808,-8.147560953,429
106950,187013,236296,4.7330031028,-2.4119651808,-8.147560953,430
107040,187037,236275,4.7330031028,-2.4119651808,-8.147560953,431
106474,186922,236206,4.7330031028,-2.4119651808,-8.147560953,432
105412,186749,236136,4.7330031028,-2.4119651808,-8.147560953,433
104612,186689,236078,4.7330031028,-2.4119651808,-8.147560953,434
104291,186643,236072,4.7330031028,-2.4119651808,-8.147560953,435
104247,186683,236065,4.7330031028,-2.4119651808,-8.147560953,436
104316,186670,236076,4.7330031028,-2.4119651808,-8.147560953,437
104519,186712,236073,4.7330031028,-2.4119651808,-8.147560953,438
104696,186726,236092,4.7330031028,-2.4119651808,-8.147560953,439
104812,186780,236104,4.7330031028,-2.4119651808,-8.147560953,440
104851,186765,236123,4.7330031028,-2.4119651808,-8.147560953,441
104906,186764,236155,4.7330031028,-2.4119651808,-8.147560953,442
105022,186773,236163,4.7330031028,-2.4119651808,-8.147560953,443
105205,186848,236113,4.8311088294,-2.4215364712,-8.2121671632,444
105415,186874,236169,4.8311088294,-2.4215364712,-8.2121671632,445
105613,186904,236195,4.8311088294,-2.4215364712,-8.2121671632,446
105828,186891,236219,4.8311088294,-2.4215364712,-8.2121671632,447
106029,186929,236181,4.8311088294,-2.4215364712,-8.2121671632,448
105753,186862,236200,4.8311088294,-2.4215364712,-8.2121671632,449
104695,186703,236103,4.8311088294,-2.4215364712,-8.2121671632,450
103618,186587,236004,4.8311088294,-2.4215364712,-8.2121671632,451
103074,186517,235981,4.8311088294,-2.4215364712,-8.2121671632,452
102937,186539,236025,4.8311088294,-2.4215364712,-8.2121671632,453
102951,186521,235975,4.8311088294,-2.4215364712,-8.2121671632,454
103132,186574,236021,4.8311088294,-2.4215364712,-8.2121671632,455
103388,186617,236033,4.8311088294,-2.4215364712,-8.2121671632,456
103590,186626,236010,4.8681975797,-2.5244278430000002,-8.147560953,457
103712,186636,236048,4.8681975797,-2.5244278430000002,-8.147560953,458
103784,186640,236047,4.8681975797,-2.5244278430000002,-8.147560953,459
103909,186693,236088,4.8681975797,-2.5244278430000002,-8.147560953,460
104104,186699,236106,4.8681975797,-2.5244278430000002,-8.147560953,461
104332,186747,236110,4.8681975797,-2.5244278430000002,-8.147560953,462
104570,186802,236116,4.7617169740000005,-2.3736800192,-8.0889367993,463
104839,186844,236170,4.7617169740000005,-2.3736800192,-8.0889367993,464
105096,186839,236198,4.7617169740000005,-2.3736800192,-8.0889367993,465
105324,186888,236159,4.7617169740000005,-2.3736800192,-8.0889367993,466
105519,186905,236195,4.7617169740000005,-2.3736800192,-8.0889367993,467
105316,186867,236170,4.7617169740000005,-2.3736800192,-8.0889367993,468
104222,186686,236057,4.7617169740000005,-2.3736800192,-8.0889367993,469
103088,186558,235957,4.7617169740000005,-2.3736800192,-8.0889367993,470
102523,186506,235964,4.7617169740000005,-2.3736800192,-8.0889367993,471
102402,186496,235959,4.7617169740000005,-2.3736800192,-8.0889367993,472
102474,186472,236012,4.7617169740000005,-2.3736800192,-8.0889367993,473
102688,186558,235955,4.7617169740000005,-2.3736800192,-8.0889367993,474
102983,186591,236040,4.7617169740000005,-2.3736800192,-8.0889367993,475
103187,186598,235998,4.7617169740000005,-2.3736800192,-8.0889367993,476
103291,186606,236008,4.7617169740000005,-2.3736800192,-8.0889367993,477
103396,186628,236038,4.7617169740000005,-2.3736800192,-8.0889367993,478
103524,186645,236038,4.7617169740000005,-2.3736800192,-8.0889367993,479
103718,186671,236076,4.7617169740000005,-2.3736800192,-8.0889367993,480
103955,186723,236166,4.7617169740000005,-2.3736800192,-8.0889367993,481
104234,186760,236127,4.7617169740000005,-2.3736800192,-8.0889367993,482
104497,186768,236150,4.7617169740000005,-2.3736800192,-8.0889367993,483
104781,186810,236149,4.7617169740000005,-2.3736800192,-8.0889367993,484
105015,186869,236238,4.7617169740000005,-2.3736800192,-8.0889367993,485
105270,186894,236216,4.7617169740000005,-2.3736800192,-8.0889367993,486
105494,186909,236194,4.7617169740000005,-2.3736800192,-8.0889367993,487
105705,186936,236210,4.7617169740000005,-2.3736800192,-8.0889367993,488
105317,186867,236141,4.7569313288,-2.4335005842,-8.099704501,489
104140,186674,236045,4.7569313288,-2.4335005842,-8.099704501,490
103150,186585,236008,4.7569313288,-2.4335005842,-8.099704501,491
102776,186483,235984,4.7569313288,-2.4335005842,-8.099704501,492
102770,186526,236009,4.7569313288,-2.4335005842,-8.099704501,493
102898,186560,235995,4.7569313288,-2.4335005842,-8.099704501,494
103145,186592,236051,4.9196432655999995,-2.5172493752,-8.1044901462,495
103420,186619,236037,4.9160540317,-2.5100709074,-8.1320076061,496
103654,186603,236050,4.9160540317,-2.5100709074,-8.1320076061,497
103768,186648,236066,4.9160540317,-2.5100709074,-8.1320076061,498
103872,186661,236073,4.9160540317,-2.5100709074,-8.1320076061,499
104046,186662,236099,4.9160540317,-2.5100709074,-8.1320076061,500
104252,186707,236109,4.9160540317,-2.5100709074,-8.1320076061,501
104503,186747,236129,4.9160540317,-2.5100709074,-8.1320076061,502
104754,186779,236189,4.9160540317,-2.5100709074,-8.1320076061,503
105028,186828,236174,4.9160540317,-2.5100709074,-8.1320076061,504
105272,186793,236183,4.9160540317,-2.5100709074,-8.1320076061,505
105508,186859,236172,4.9160540317,-2.5100709074,-8.1320076061,506
105767,186875,236179,4.9160540317,-2.5100709074,-8.1320076061,507
105837,186874,236167,4.7521456836,-2.4729821571,-8.1092757914,508
105207,186764,236105,4.7521456836,-2.4729821571,-8.1092757914,509
104150,186613,236001,4.7521456836,-2.4729821571,-8.1092757914,510
103509,186564,236001,4.7521456836,-2.4729821571,-8.1092757914,511
103350,186535,235972,4.7521456836,-2.4729821571,-8.1092757914,512
103434,186558,236036,4.7521456836,-2.4729821571,-8.1092757914,513
103658,186559,236067,4.8610191119,-2.3114666316,-8.173882001600001,514
103952,186640,236025,4.8861437492,-2.4981067944,-8.1523465982,515
104225,186637,236099,4.7904308452,-2.5292134882000004,-8.159525066,516
104426,186634,236082,4.850251410199999,-2.3617159062,-8.1439717191,517
104549,186690,236053,4.9256253221,-2.2660030021999997,-8.0973116784,518
104679,186682,236067,4.9256253221,-2.2660030021999997,-8.0973116784,519
104844,186703,236115,4.9256253221,-2.2660030021999997,-8.0973116784,520
105094,186764,236145,4.9256253221,-2.2660030021999997,-8.0973116784,521
105384,186796,236157,4.9256253221,-2.2660030021999997,-8.0973116784,522
105632,186830,236183,4.9256253221,-2.2660030021999997,-8.0973116784,523
105906,186844,236220,4.9256253221,-2.2660030021999997,-8.0973116784,524
106151,186886,236190,4.9256253221,-2.2660030021999997,-8.0973116784,525
106230,186914,236177,4.9256253221,-2.2660030021999997,-8.0973116784,526
105645,186754,236138,4.9256253221,-2.2660030021999997,-8.0973116784,527
104657,186653,236102,4.9256253221,-2.2660030021999997,-8.0973116784,528
104049,186582,236035,4.9256253221,-2.2660030021999997,-8.0973116784,529
103887,186532,236029,4.9256253221,-2.2660030021999997,-8.0973116784,530
103985,186558,236022,4.9256253221,-2.2660030021999997,-8.0973116784,531
104179,186609,236043,4.9256253221,-2.2660030021999997,-8.0973116784,532
104481,186620,236075,4.9256253221,-2.2660030021999997,-8.0973116784,533
104761,186649,236124,4.6456650779,-2.4442682859,-8.195417404999999,534
104942,186663,236118,4.6456650779,-2.4442682859,-8.195417404999999,535
105029,186689,236105,4.6456650779,-2.4442682859,-8.195417404999999,536
105142,186677,236120,4.6456650779,-2.4442682859,-8.195417404999999,537
105315,186719,236149,4.6456650779,-2.4442682859,-8.195417404999999,538
105527,186762,236165,4.6456650779,-2.4442682859,-8.195417404999999,539
105761,186807,236175,4.8311088294,-2.4155544147,-8.1930245824,540
106017,186829,236192,4.8311088294,-2.4155544147,-8.1930245824,541
106243,186825,236189,4.8311088294,-2.4155544147,-8.1930245824,542
106276,186866,236224,4.8311088294,-2.4155544147,-8.1930245824,543
105576,186729,236120,4.8311088294,-2.4155544147,-8.1930245824,544
104610,186550,236017,4.8311088294,-2.4155544147,-8.1930245824,545
104025,186533,236018,4.8311088294,-2.4155544147,-8.1930245824,546
103867,186497,235992,4.8311088294,-2.4155544147,-8.1930245824,547
103943,186527,236030,4.8311088294,-2.4155544147,-8.1930245824,548
104115,186535,236043,4.8311088294,-2.4155544147,-8.1930245824,549
104372,186597,236066,4.8311088294,-2.4155544147,-8.1930245824,550
104627,186626,236083,4.8311088294,-2.4155544147,-8.1930245824,551
104777,186642,236094,4.8311088294,-2.4155544147,-8.1930245824,552
104878,186640,236067,4.8311088294,-2.4155544147,-8.1930245824,553
105022,186675,236103,4.8311088294,-2.4155544147,-8.1930245824,554
105197,186704,236096,4.8311088294,-2.4155544147,-8.1930245824,555
105455,186759,236131,4.8311088294,-2.4155544147,-8.1930245824,556
105709,186815,236169,4.8311088294,-2.4155544147,-8.1930245824,557
105987,186830,236184,4.8311088294,-2.4155544147,-8.1930245824,558
106212,186858,236212,4.8406801198,-2.5148565526000004,-8.1523465982,559
106078,186842,236168,4.8406801198,-2.5148565526000004,-8.1523465982,560
105187,186681,236081,4.8406801198,-2.5148565526000004,-8.1523465982,561
104251,186535,235978,4.8406801198,-2.5148565526000004,-8.1523465982,562
103810,186527,236000,4.8406801198,-2.5148565526000004,-8.1523465982,563
103749,186482,235978,4.8406801198,-2.5148565526000004,-8.1523465982,564
103779,186504,236021,4.8406801198,-2.5148565526000004,-8.1523465982,565
103988,186536,236017,4.8406801198,-2.5148565526000004,-8.1523465982,566
104246,186581,236003,4.8406801198,-2.5148565526000004,-8.1523465982,567
104430,186604,236054,4.8406801198,-2.5148565526000004,-8.1523465982,568
104559,186618,236042,4.8406801198,-2.5148565526000004,-8.1523465982,569
104658,186650,236087,4.8406801198,-2.5148565526000004,-8.1523465982,570
104783,186658,236114,4.8406801198,-2.5148565526000004,-8.1523465982,571
105004,186700,236100,4.9160540317,-2.4813570362,-8.1523465982,572
105215,186737,236161,4.9160540317,-2.4813570362,-8.1523465982,573
105484,186752,236158,4.9160540317,-2.4813570362,-8.1523465982,574
105720,186817,236164,4.9160540317,-2.4813570362,-8.1523465982,575
105955,186829,236185,4.9160540317,-2.4813570362,-8.1523465982,576
106139,186881,236192,4.9160540317,-2.4813570362,-8.1523465982,577
105820,186816,236150,4.9160540317,-2.4813570362,-8.1523465982,578
104816,186644,236044,4.9160540317,-2.4813570362,-8.1523465982,579
103951,186498,236024,4.9160540317,-2.4813570362,-8.1523465982,580
103604,186514,235992,4.9160540317,-2.4813570362,-8.1523465982,581
103588,186473,235975,4.9160540317,-2.4813570362,-8.1523465982,582
103682,186521,235990,4.9160540317,-2.4813570362,-8.1523465982,583
103924,186549,236017,4.9160540317,-2.4813570362,-8.1523465982,584
104170,186577,236071,4.9160540317,-2.4813570362,-8.1523465982,585
104325,186590,236058,4.9160540317,-2.4813570362,-8.1523465982,586
104422,186600,236056,4.9160540317,-2.4813570362,-8.1523465982,587
104515,186620,236066,4.9160540317,-2.4813570362,-8.1523465982,588
104626,186661,236098,4.9160540317,-2.4813570362,-8.1523465982,589
104855,186696,236099,4.9160540317,-2.4813570362,-8.1523465982,590
105075,186713,236095,4.9160540317,-2.4813570362,-8.1523465982,591
105345,186755,236160,4.9160540317,-2.4813570362,-8.1523465982,592
105581,186786,236211,4.9160540317,-2.4813570362,-8.1523465982,593
105807,186824,236187,4.9160540317,-2.4813570362,-8.1523465982,594
105999,186829,236185,4.9160540317,-2.4813570362,-8.1523465982,595
106185,186851,236269,4.9160540317,-2.4813570362,-8.1523465982,596
106053,186812,236181,4.9160540317,-2.4813570362,-8.1523465982,597
105089,186671,236070,4.9160540317,-2.4813570362,-8.1523465982,598
104038,186530,236018,4.9160540317,-2.4813570362,-8.1523465982,599
103537,186470,235987,4.9160540317,-2.4813570362,-8.1523465982,600
103445,186473,236018,4.9160540317,-2.4813570362,-8.1523465982,601
103548,186495,236017,4.9160540317,-2.4813570362,-8.1523465982,602
103743,186509,235986,4.9160540317,-2.4813570362,-8.1523465982,603
103971,186567,236014,4.9160540317,-2.4813570362,-8.1523465982,604
104142,186575,236059,4.9160540317,-2.4813570362,-8.1523465982,605
104218,186564,236066,4.9160540317,-2.4813570362,-8.1523465982,606
104249,186604,236059,4.9160540317,-2.4813570362,-8.1523465982,607
104371,186612,236050,4.9160540317,-2.4813570362,-8.1523465982,608
104512,186655,236080,4.9160540317,-2.4813570362,-8.1523465982,609
104730,186695,236103,4.9160540317,-2.4813570362,-8.1523465982,610
104943,186690,236115,4.9160540317,-2.4813570362,-8.1523465982,611
105153,186727,236159,4.9160540317,-2.4813570362,-8.1523465982,612
105375,186734,236144,4.9160540317,-2.4813570362,-8.1523465982,613
102913,186384,235887,4.8346980633,-2.4011974791,-8.1344004287,614
102697,186363,235963,4.8346980633,-2.4011974791,-8.1344004287,615
102731,186364,235951,4.8346980633,-2.4011974791,-8.1344004287,616
102873,186411,235975,4.8346980633,-2.4011974791,-8.1344004287,617
103131,186460,235985,4.8346980633,-2.4011974791,-8.1344004287,618
103416,186458,236034,4.8346980633,-2.4011974791,-8.1344004287,619
103543,186512,236038,4.8346980633,-2.4011974791,-8.1344004287,620
103627,186525,236065,4.8346980633,-2.4011974791,-8.1344004287,621
103702,186539,235993,4.8346980633,-2.4011974791,-8.1344004287,622
103909,186579,236078,4.8346980633,-2.4011974791,-8.1344004287,623
104145,186590,236098,4.8346980633,-2.4011974791,-8.1344004287,624
104381,186642,236060,4.8346980633,-2.4011974791,-8.1344004287,625
104637,186673,236128,4.8346980633,-2.4011974791,-8.1344004287,626
104858,186681,236107,4.8346980633,-2.4011974791,-8.1344004287,627
104982,186707,236136,4.8346980633,-2.4011974791,-8.1344004287,628
104352,186602,236059,4.8346980633,-2.4011974791,-8.1344004287,629
103202,186430,235936,4.8346980633,-2.4011974791,-8.1344004287,630
102546,186353,235916,4.8346980633,-2.4011974791,-8.1344004287,631
102411,186374,235920,4.8346980633,-2.4011974791,-8.1344004287,632
102526,186378,235930,4.8346980633,-2.4011974791,-8.1344004287,633
102763,186420,235980,4.8346980633,-2.4011974791,-8.1344004287,634
103099,186460,235992,4.8346980633,-2.4011974791,-8.1344004287,635
103408,186486,236057,4.8346980633,-2.4011974791,-8.1344004287,636
103642,186540,236056,4.8346980633,-2.4011974791,-8.1344004287,637
103746,186531,236059,4.8346980633,-2.4011974791,-8.1344004287,638
103906,186541,236079,4.8346980633,-2.4011974791,-8.1344004287,639
104124,186631,236115,4.8346980633,-2.4011974791,-8.1344004287,640
104399,186638,236107,4.8346980633,-2.4011974791,-8.1344004287,641
104672,186670,236113,4.8346980633,-2.4011974791,-8.1344004287,642
104977,186721,236159,4.8346980633,-2.4011974791,-8.1344004287,643
105241,186787,236145,4.8346980633,-2.4011974791,-8.1344004287,644
105436,186770,236174,4.8346980633,-2.4011974791,-8.1344004287,645
105022,186700,236137,4.8346980633,-2.4011974791,-8.1344004287,646
103940,186516,236025,4.8346980633,-2.4011974791,-8.1344004287,647
103224,186441,235972,4.8346980633,-2.4011974791,-8.1344004287,648
103099,186416,235992,4.8346980633,-2.4011974791,-8.1344004287,649
103241,186478,236050,4.8346980633,-2.4011974791,-8.1344004287,650
103460,186496,236013,4.8346980633,-2.4011974791,-8.1344004287,651
103814,186533,236045,4.8155554825,-2.4430718746,-8.1643107112,652
104124,186607,236108,4.8155554825,-2.4430718746,-8.1643107112,653
104371,186580,236073,4.8155554825,-2.4430718746,-8.1643107112,654
104486,186646,236130,4.8155554825,-2.4430718746,-8.1643107112,655
104638,186656,236151,4.8155554825,-2.4430718746,-8.1643107112,656
104851,186668,236166,4.8155554825,-2.4430718746,-8.1643107112,657
105107,186708,236156,4.8155554825,-2.4430718746,-8.1643107112,658
105354,186750,236216,4.8155554825,-2.4430718746,-8.1643107112,659
105623,186804,236196,4.8155554825,-2.4430718746,-8.1643107112,660
105903,186796,236228,4.8155554825,-2.4430718746,-8.1643107112,661
106017,186793,236253,4.8155554825,-2.4430718746,-8.1643107112,662
105463,186726,236151,4.8155554825,-2.4430718746,-8.1643107112,663
104470,186556,236059,4.8155554825,-2.4430718746,-8.1643107112,664
103966,186517,236044,4.8155554825,-2.4430718746,-8.1643107112,665
103946,186558,236062,4.8155554825,-2.4430718746,-8.1643107112,666
104120,186560,236090,4.8155554825,-2.4430718746,-8.1643107112,667
104393,186614,236090,4.8155554825,-2.4430718746,-8.1643107112,668
104770,186654,236129,4.8155554825,-2.4430718746,-8.1643107112,669
105085,186693,236201,4.8155554825,-2.4430718746,-8.1643107112,670
105258,186728,236159,4.8155554825,-2.4430718746,-8.1643107112,671
105366,186709,236169,4.8155554825,-2.4430718746,-8.1643107112,672
105491,186699,236195,4.8155554825,-2.4430718746,-8.1643107112,673
105731,186792,236213,4.8155554825,-2.4430718746,-8.1643107112,674
105974,186812,236225,4.8155554825,-2.4430718746,-8.1643107112,675
106241,186864,236266,4.8155554825,-2.4430718746,-8.1643107112,676
106491,186893,236247,4.8155554825,-2.4430718746,-8.1643107112,677
106642,186890,236303,4.8155554825,-2.4430718746,-8.1643107112,678
106073,186792,236212,4.8155554825,-2.4430718746,-8.1643107112,679
105052,186660,236096,4.8155554825,-2.4430718746,-8.1643107112,680
104548,186597,236119,4.8155554825,-2.4430718746,-8.1643107112,681
104514,186630,236122,4.8155554825,-2.4430718746,-8.1643107112,682
104679,186617,236129,4.8155554825,-2.4430718746,-8.1643107112,683
104948,186701,236163,4.8155554825,-2.4430718746,-8.1643107112,684
105281,186754,236187,4.8155554825,-2.4430718746,-8.1643107112,685
105585,186793,236212,4.8155554825,-2.4430718746,-8.1643107112,686
105751,186858,236223,4.8155554825,-2.4430718746,-8.1643107112,687
105884,186833,236224,4.8155554825,-2.4430718746,-8.1643107112,688
106049,186822,236243,4.8155554825,-2.4430718746,-8.1643107112,689
106276,186890,236245,4.8155554825,-2.4430718746,-8.1643107112,690
106550,186908,236259,4.7808595548,-2.4299113503,-8.2289169214,691
106815,186944,236275,4.7808595548,-2.4299113503,-8.2289169214,692
107100,186990,236307,4.7808595548,-2.4299113503,-8.2289169214,693
107151,186998,236325,4.7808595548,-2.4299113503,-8.2289169214,694
106476,186873,236237,4.7808595548,-2.4299113503,-8.2289169214,695
105499,186707,236168,4.7808595548,-2.4299113503,-8.2289169214,696
105056,186710,236135,4.7808595548,-2.4299113503,-8.2289169214,697
105056,186724,236157,4.7808595548,-2.4299113503,-8.2289169214,698
105222,186762,236185,4.7808595548,-2.4299113503,-8.2289169214,699
105504,186806,236192,4.7808595548,-2.4299113503,-8.2289169214,700
105850,186870,236190,4.7808595548,-2.4299113503,-8.2289169214,701
106132,186914,236221,4.7808595548,-2.4299113503,-8.2289169214,702
106259,186920,236233,4.7808595548,-2.4299113503,-8.2289169214,703
106393,186930,236266,4.7808595548,-2.4299113503,-8.2289169214,704
106560,186970,236291,4.7808595548,-2.4299113503,-8.2289169214,705
106782,187027,236290,4.7808595548,-2.4299113503,-8.2289169214,706
107032,187039,236303,4.7808595548,-2.4299113503,-8.2289169214,707
107320,187063,236315,4.7808595548,-2.4299113503,-8.2289169214,708
107580,187112,236344,4.7808595548,-2.4299113503,-8.2289169214,709
107853,187139,236356,4.7808595548,-2.4299113503,-8.2289169214,710
108030,187157,236353,4.7808595548,-2.4299113503,-8.2289169214,711
107632,187072,236269,4.7808595548,-2.4299113503,-8.2289169214,712
106526,186902,236216,4.7808595548,-2.4299113503,-8.2289169214,713
105709,186801,236204,4.7808595548,-2.4299113503,-8.2289169214,714
105456,186838,236142,4.7808595548,-2.4299113503,-8.2289169214,715
105540,186881,236191,4.7808595548,-2.4299113503,-8.2289169214,716
105715,186908,236242,4.7808595548,-2.4299113503,-8.2289169214,717
106011,186951,236226,4.7808595548,-2.4299113503,-8.2289169214,718
106279,187003,236250,4.7808595548,-2.4299113503,-8.2289169214,719
106422,186988,236281,4.7808595548,-2.4299113503,-8.2289169214,720
106494,187019,236260,4.7808595548,-2.4299113503,-8.2289169214,721
106586,187024,236252,4.7808595548,-2.4299113503,-8.2289169214,722
106719,187037,236294,4.7808595548,-2.4299113503,-8.2289169214,723
106910,187077,236286,4.7808595548,-2.4299113503,-8.2289169214,724
107148,187123,236303,4.7808595548,-2.4299113503,-8.2289169214,725
107380,187129,236367,4.7808595548,-2.4299113503,-8.2289169214,726
107630,187161,236345,4.7808595548,-2.4299113503,-8.2289169214,727
107870,187191,236357,4.7808595548,-2.4299113503,-8.2289169214,728
108097,187214,236406,4.7808595548,-2.4299113503,-8.2289169214,729
108311,187251,236365,4.7808595548,-2.4299113503,-8.2289169214,730
108519,187276,236402,4.7808595548,-2.4299113503,-8.2289169214,731
108723,187292,236376,4.7808595548,-2.4299113503,-8.2289169214,732
105314,186884,236144,4.7904308452,-2.4562323989,-8.1056865575,733
104610,186862,236130,4.7904308452,-2.4562323989,-8.1056865575,734
104427,186854,236127,4.7904308452,-2.4562323989,-8.1056865575,735
104531,186855,236169,4.7904308452,-2.4562323989,-8.1056865575,736
104730,186892,236188,4.7904308452,-2.4562323989,-8.1056865575,737
105002,186897,236244,4.7904308452,-2.4562323989,-8.1056865575,738
105220,186964,236213,4.7904308452,-2.4562323989,-8.1056865575,739
105270,186934,236217,4.7904308452,-2.4562323989,-8.1056865575,740
105295,186964,236257,4.7904308452,-2.4562323989,-8.1056865575,741
105368,186939,236242,4.7904308452,-2.4562323989,-8.1056865575,742
105531,186973,236242,4.7904308452,-2.4562323989,-8.1056865575,743
105751,187023,236300,4.7904308452,-2.4562323989,-8.1056865575,744
105999,187053,236296,4.7904308452,-2.4562323989,-8.1056865575,745
106220,187091,236315,4.7904308452,-2.4562323989,-8.1056865575,746
106445,187130,236319,4.7904308452,-2.4562323989,-8.1056865575,747
106680,187123,236304,4.7904308452,-2.4562323989,-8.1056865575,748
106640,187112,236310,4.7904308452,-2.4562323989,-8.1056865575,749
105649,186950,236188,4.7904308452,-2.4562323989,-8.1056865575,750
104355,186809,236150,4.7904308452,-2.4562323989,-8.1056865575,751
103741,186769,236098,4.7904308452,-2.4562323989,-8.1056865575,752
103647,186779,236067,4.7904308452,-2.4562323989,-8.1056865575,753
103768,186780,236156,4.7904308452,-2.4562323989,-8.1056865575,754
104008,186829,236175,4.7904308452,-2.4562323989,-8.1056865575,755
104333,186885,236146,4.7904308452,-2.4562323989,-8.1056865575,756
104655,186918,236232,4.7904308452,-2.4562323989,-8.1056865575,757
104819,186941,236212,4.7904308452,-2.4562323989,-8.1056865575,758
104909,186923,236184,4.7904308452,-2.4562323989,-8.1056865575,759
105018,186936,236232,4.7904308452,-2.4562323989,-8.1056865575,760
105213,186991,236249,4.7904308452,-2.4562323989,-8.1056865575,761
105485,187003,236278,4.7904308452,-2.4562323989,-8.1056865575,762
105745,187045,236280,4.7904308452,-2.4562323989,-8.1056865575,763
106034,187102,236282,4.7904308452,-2.4562323989,-8.1056865575,764
106315,187133,236323,4.7904308452,-2.4562323989,-8.1056865575,765
106604,187156,236336,4.7904308452,-2.4562323989,-8.1056865575,766
106830,187199,236335,4.7904308452,-2.4562323989,-8.1056865575,767
107051,187215,236328,4.7904308452,-2.4562323989,-8.1056865575,768
106794,187135,236318,4.7904308452,-2.4562323989,-8.1056865575,769
105628,186997,236241,4.7904308452,-2.4562323989,-8.1056865575,770
104534,186841,236124,4.7904308452,-2.4562323989,-8.1056865575,771
104123,186814,236128,4.7904308452,-2.4562323989,-8.1056865575,772
104141,186834,236139,4.7904308452,-2.4562323989,-8.1056865575,773
104319,186881,236176,4.7904308452,-2.4562323989,-8.1056865575,774
105884,186903,236168,4.8035913695,-2.4670001006,-8.2217384536,775
105641,186874,236158,4.8035913695,-2.4670001006,-8.2217384536,776
105673,186883,236180,4.8035913695,-2.4670001006,-8.2217384536,777
105856,186944,236167,4.8035913695,-2.4670001006,-8.2217384536,778
106135,186928,236186,4.8035913695,-2.4670001006,-8.2217384536,779
106407,186989,236186,4.8035913695,-2.4670001006,-8.2217384536,780
106592,186978,236238,4.8035913695,-2.4670001006,-8.2217384536,781
106729,186987,236222,4.8035913695,-2.4670001006,-8.2217384536,782
106802,187018,236227,4.8035913695,-2.4670001006,-8.2217384536,783
106966,187048,236250,4.8035913695,-2.4670001006,-8.2217384536,784
107135,187073,236270,4.8035913695,-2.4670001006,-8.2217384536,785
107372,187114,236294,4.8035913695,-2.4670001006,-8.2217384536,786
107582,187156,236322,4.8035913695,-2.4670001006,-8.2217384536,787
107785,187138,236301,4.8035913695,-2.4670001006,-8.2217384536,788
107895,187144,236332,4.8035913695,-2.4670001006,-8.2217384536,789
107302,187060,236225,4.8035913695,-2.4670001006,-8.2217384536,790
106245,186914,236134,4.8035913695,-2.4670001006,-8.2217384536,791
105589,186838,236050,4.8035913695,-2.4670001006,-8.2217384536,792
105365,186800,236120,4.8035913695,-2.4670001006,-8.2217384536,793
105399,186862,236090,4.8035913695,-2.4670001006,-8.2217384536,794
105561,186858,236109,4.7162533446,-2.3605194949,-8.226524098799999,795
105819,186893,236180,4.7162533446,-2.3605194949,-8.226524098799999,796
106029,186946,236159,4.7162533446,-2.3605194949,-8.226524098799999,797
106195,186969,236172,4.7162533446,-2.3605194949,-8.226524098799999,798
106239,186944,236181,4.7162533446,-2.3605194949,-8.226524098799999,799
106347,186956,236198,4.7162533446,-2.3605194949,-8.226524098799999,800
106508,186958,236190,4.7162533446,-2.3605194949,-8.226524098799999,801
106710,187026,236225,4.7162533446,-2.3605194949,-8.226524098799999,802
106957,187043,236250,4.7162533446,-2.3605194949,-8.226524098799999,803
107205,187070,236252,4.7162533446,-2.3605194949,-8.226524098799999,804
107446,187042,236238,4.7162533446,-2.3605194949,-8.226524098799999,805
107477,187090,236221,4.7162533446,-2.3605194949,-8.226524098799999,806
106796,186975,236183,4.7270210463,-2.428714939,-8.1140614366,807
105647,186827,236080,4.7270210463,-2.428714939,-8.1140614366,808
104903,186772,236013,4.7270210463,-2.428714939,-8.1140614366,809
104705,186732,236023,4.7270210463,-2.428714939,-8.1140614366,810
104725,186748,236032,4.7270210463,-2.428714939,-8.1140614366,811
104864,186763,236094,4.7270210463,-2.428714939,-8.1140614366,812
105081,186763,236114,4.7270210463,-2.428714939,-8.1140614366,813
105309,186795,236156,4.7270210463,-2.428714939,-8.1140614366,814
105423,186851,236093,4.7270210463,-2.428714939,-8.1140614366,815
105472,186873,236097,4.7270210463,-2.428714939,-8.1140614366,816
105546,186884,236117,4.7270210463,-2.428714939,-8.1140614366,817
105728,186919,236156,4.7270210463,-2.428714939,-8.1140614366,818
105940,186926,236164,4.7270210463,-2.428714939,-8.1140614366,819
106164,186970,236203,4.7641097966,-2.4574288102,-8.1523465982,820
106401,186997,236209,4.7641097966,-2.4574288102,-8.1523465982,821
106624,187058,236260,4.7641097966,-2.4574288102,-8.1523465982,822
106839,187042,236251,4.7641097966,-2.4574288102,-8.1523465982,823
107069,187093,236216,4.7641097966,-2.4574288102,-8.1523465982,824
107233,187096,236221,4.7641097966,-2.4574288102,-8.1523465982,825
106789,187028,236204,4.7641097966,-2.4574288102,-8.1523465982,826
105566,186857,236087,4.8000021356,-2.3952154226,-8.2217384536,827
104545,186730,236040,4.8000021356,-2.3952154226,-8.2217384536,828
104159,186688,236056,4.8000021356,-2.3952154226,-8.2217384536,829
104129,186727,236041,4.8000021356,-2.3952154226,-8.2217384536,830
104276,186714,236082,4.8000021356,-2.3952154226,-8.2217384536,831
104513,186734,236087,4.8000021356,-2.3952154226,-8.2217384536,832
104743,186799,236128,4.8000021356,-2.3952154226,-8.2217384536,833
104907,186779,236116,4.8000021356,-2.3952154226,-8.2217384536,834
104942,186791,236103,4.8000021356,-2.3952154226,-8.2217384536,835
105008,186835,236142,4.8000021356,-2.3952154226,-8.2217384536,836
105171,186817,236147,4.8000021356,-2.3952154226,-8.2217384536,837
105340,186862,236171,4.8000021356,-2.3952154226,-8.2217384536,838
105584,186874,236157,4.8119662486,-2.4263221164,-8.2145599858,839
105832,186912,236166,4.8119662486,-2.4263221164,-8.2145599858,840
106061,186961,236217,4.8119662486,-2.4263221164,-8.2145599858,841
106320,186988,236244,4.8119662486,-2.4263221164,-8.2145599858,842
106562,187008,236237,4.8119662486,-2.4263221164,-8.2145599858,843
106804,187025,236318,4.8119662486,-2.4263221164,-8.2145599858,844
107042,187048,236243,4.8119662486,-2.4263221164,-8.2145599858,845
107231,187052,236269,4.8119662486,-2.4263221164,-8.2145599858,846
107317,187044,236285,4.8119662486,-2.4263221164,-8.2145599858,847
106574,186946,236159,4.8119662486,-2.4263221164,-8.2145599858,848
105348,186802,236130,4.8119662486,-2.4263221164,-8.2145599858,849
104586,186727,236078,4.8119662486,-2.4263221164,-8.2145599858,850
104404,186680,236088,4.8119662486,-2.4263221164,-8.2145599858,851
104455,186727,236050,4.7796631435,-2.4598216327999998,-8.0865439767,852
104695,186750,236085,4.7796631435,-2.4598216327999998,-8.0865439767,853
104972,186779,236112,4.7796631435,-2.4598216327999998,-8.0865439767,854
105211,186810,236136,4.7796631435,-2.4598216327999998,-8.0865439767,855
105322,186797,236178,4.7796631435,-2.4598216327999998,-8.0865439767,856
105402,186803,236165,4.7796631435,-2.4598216327999998,-8.0865439767,857
105471,186815,236154,4.7796631435,-2.4598216327999998,-8.0865439767,858
105625,186832,236141,4.7796631435,-2.4598216327999998,-8.0865439767,859
105834,186863,236210,4.7796631435,-2.4598216327999998,-8.0865439767,860
106051,186884,236226,4.7796631435,-2.4598216327999998,-8.0865439767,861
106292,186960,236247,4.7796631435,-2.4598216327999998,-8.0865439767,862
106570,186981,236227,4.7796631435,-2.4598216327999998,-8.0865439767,863
106808,187002,236266,4.7796631435,-2.4598216327999998,-8.0865439767,864
107016,186993,236272,4.7796631435,-2.4598216327999998,-8.0865439767,865
107198,187041,236284,4.7796631435,-2.4598216327999998,-8.0865439767,866
107315,187033,236281,4.7796631435,-2.4598216327999998,-8.0865439767,867
106743,186932,236236,4.7796631435,-2.4598216327999998,-8.0865439767,868
105570,186797,236143,4.7796631435,-2.4598216327999998,-8.0865439767,869
104774,186659,236075,4.7796631435,-2.4598216327999998,-8.0865439767,870
104523,186651,236104,4.7796631435,-2.4598216327999998,-8.0865439767,871
104566,186674,236083,4.7796631435,-2.4598216327999998,-8.0865439767,872
104750,186701,236145,4.7796631435,-2.4598216327999998,-8.0865439767,873
105011,186732,236150,4.7796631435,-2.4598216327999998,-8.0865439767,874
105294,186746,236182,4.7796631435,-2.4598216327999998,-8.0865439767,875
105449,186784,236188,4.7796631435,-2.4598216327999998,-8.0865439767,876
105564,186788,236153,4.7796631435,-2.4598216327999998,-8.0865439767,877
105646,186817,236198,4.788038022599999,-2.488535504,-8.1547394208,878
105808,186852,236193,4.788038022599999,-2.488535504,-8.1547394208,879
105988,186878,236218,4.788038022599999,-2.488535504,-8.1547394208,880
106264,186919,236245,4.788038022599999,-2.488535504,-8.1547394208,881
106527,186970,236248,4.788038022599999,-2.488535504,-8.1547394208,882
106811,186970,236296,4.788038022599999,-2.488535504,-8.1547394208,883
107072,186990,236269,4.788038022599999,-2.488535504,-8.1547394208,884
107328,187029,236330,4.788038022599999,-2.488535504,-8.1547394208,885
107568,187081,236343,4.788038022599999,-2.488535504,-8.1547394208,886
107783,187116,236334,4.788038022599999,-2.488535504,-8.1547394208,887
107873,187113,236329,4.788038022599999,-2.488535504,-8.1547394208,888
107169,186987,236249,4.788038022599999,-2.488535504,-8.1547394208,889
106021,186867,236195,4.788038022599999,-2.488535504,-8.1547394208,890
105269,186767,236121,5.0285166938999994,-2.4610180441000002,-8.1415788965,891
105032,186757,236155,4.7665026192,-2.4909283265999997,-8.1786676468,892
105053,186713,236143,4.7665026192,-2.4909283265999997,-8.1786676468,893
105232,186788,236208,4.7665026192,-2.4909283265999997,-8.1786676468,894
105493,186807,236127,4.7665026192,-2.4909283265999997,-8.1786676468,895
105788,186835,236250,4.7665026192,-2.4909283265999997,-8.1786676468,896
105939,186844,236203,4.7665026192,-2.4909283265999997,-8.1786676468,897
106035,186877,236211,4.7665026192,-2.4909283265999997,-8.1786676468,898
106144,186887,236254,4.7665026192,-2.4909283265999997,-8.1786676468,899
106294,186931,236257,4.7665026192,-2.4909283265999997,-8.1786676468,900
106506,186960,236315,4.7665026192,-2.4909283265999997,-8.1786676468,901
106752,186977,236333,4.7665026192,-2.4909283265999997,-8.1786676468,902
106995,187020,236305,4.7665026192,-2.4909283265999997,-8.1786676468,903
107274,187043,236354,4.7665026192,-2.4909283265999997,-8.1786676468,904
107548,187108,236349,4.7665026192,-2.4909283265999997,-8.1786676468,905
107821,187135,236326,4.7665026192,-2.4909283265999997,-8.1786676468,906
108063,187140,236390,4.7665026192,-2.4909283265999997,-8.1786676468,907
108283,187180,236409,4.7665026192,-2.4909283265999997,-8.1786676468,908
108532,187220,236397,4.7665026192,-2.4909283265999997,-8.1786676468,909
108770,187226,236418,4.7665026192,-2.4909283265999997,-8.1786676468,910
108769,187245,236413,4.7665026192,-2.4909283265999997,-8.1786676468,911
107972,187108,236301,4.7665026192,-2.4909283265999997,-8.1786676468,912
106838,186905,236219,4.7665026192,-2.4909283265999997,-8.1786676468,913
106140,186879,236199,4.7665026192,-2.4909283265999997,-8.1786676468,914
105931,186864,236206,4.7665026192,-2.4909283265999997,-8.1786676468,915
105950,186876,236221,4.6552363683,-2.3808584870000002,-8.2325061553,916
106115,186905,236217,4.6552363683,-2.3808584870000002,-8.2325061553,917
106396,186945,236233,4.6552363683,-2.3808584870000002,-8.2325061553,918
106628,186938,236273,4.6552363683,-2.3808584870000002,-8.2325061553,919
106779,186991,236308,4.6552363683,-2.3808584870000002,-8.2325061553,920
106828,186971,236268,4.6552363683,-2.3808584870000002,-8.2325061553,921
106931,186997,236271,4.6552363683,-2.3808584870000002,-8.2325061553,922
107070,187013,236268,4.6552363683,-2.3808584870000002,-8.2325061553,923
107283,187036,236313,4.6552363683,-2.3808584870000002,-8.2325061553,924
107539,187086,236329,4.6552363683,-2.3808584870000002,-8.2325061553,925
107769,187092,236361,4.6552363683,-2.3808584870000002,-8.2325061553,926
108018,187150,236383,4.6552363683,-2.3808584870000002,-8.2325061553,927
108248,187138,236385,4.6552363683,-2.3808584870000002,-8.2325061553,928
108505,187190,236376,4.6552363683,-2.3808584870000002,-8.2325061553,929
108719,187216,236379,4.6552363683,-2.3808584870000002,-8.2325061553,930
108918,187232,236418,4.6552363683,-2.3808584870000002,-8.2325061553,931
109143,187222,236417,4.6552363683,-2.3808584870000002,-8.2325061553,932
109124,187235,236415,4.6552363683,-2.3808584870000002,-8.2325061553,933
108387,187087,236305,4.6552363683,-2.3808584870000002,-8.2325061553,934
107300,186977,236289,4.6983071751,-2.4227328825,-8.0913296219,935
106617,186900,236209,4.6983071751,-2.4227328825,-8.0913296219,936
106375,186861,236230,4.6983071751,-2.4227328825,-8.0913296219,937
106371,186893,236215,4.6983071751,-2.4227328825,-8.0913296219,938
106509,186880,236246,4.6983071751,-2.4227328825,-8.0913296219,939
106734,186939,236256,4.6983071751,-2.4227328825,-8.0913296219,940
106964,186966,236261,4.6983071751,-2.4227328825,-8.0913296219,941
107070,186960,236254,4.6983071751,-2.4227328825,-8.0913296219,942
107117,186967,236324,4.6983071751,-2.4227328825,-8.0913296219,943
107220,187008,236271,4.6983071751,-2.4227328825,-8.0913296219,944
107348,187021,236288,4.6983071751,-2.4227328825,-8.0913296219,945
107494,187020,236297,4.6983071751,-2.4227328825,-8.0913296219,946
107726,187068,236335,4.6983071751,-2.4227328825,-8.0913296219,947
107907,187059,236369,4.6983071751,-2.4227328825,-8.0913296219,948
108123,187111,236344,4.6983071751,-2.4227328825,-8.0913296219,949
108289,187131,236341,4.6983071751,-2.4227328825,-8.0913296219,950
108256,187115,236366,4.6983071751,-2.4227328825,-8.0913296219,951
107521,186975,236290,4.6983071751,-2.4227328825,-8.0913296219,952
106538,186847,236217,4.6983071751,-2.4227328825,-8.0913296219,953
105900,186810,236143,4.6983071751,-2.4227328825,-8.0913296219,954
105693,186779,236172,4.6983071751,-2.4227328825,-8.0913296219,955
105707,186777,236134,4.6983071751,-2.4227328825,-8.0913296219,956
105876,186851,236197,4.6983071751,-2.4227328825,-8.0913296219,957
106144,186853,236212,4.6983071751,-2.4227328825,-8.0913296219,958
106380,186878,236245,4.6983071751,-2.4227328825,-8.0913296219,959
106492,186857,236256,4.6983071751,-2.4227328825,-8.0913296219,960
106545,186902,236265,4.6983071751,-2.4227328825,-8.0913296219,961
106606,186897,236291,4.6983071751,-2.4227328825,-8.0913296219,962
106745,186913,236260,4.6983071751,-2.4227328825,-8.0913296219,963
106898,186940,236287,4.6983071751,-2.4227328825,-8.0913296219,964
107079,186961,236287,4.6983071751,-2.4227328825,-8.0913296219,965
107281,186984,236354,4.6983071751,-2.4227328825,-8.0913296219,966
107458,187033,236305,4.6983071751,-2.4227328825,-8.0913296219,967
107163,186972,236293,4.6983071751,-2.4227328825,-8.0913296219,968
106105,186793,236179,4.6983071751,-2.4227328825,-8.0913296219,969
105108,186668,236123,4.6983071751,-2.4227328825,-8.0913296219,970
104606,186607,236094,4.6983071751,-2.4227328825,-8.0913296219,971
104470,186636,236100,4.6983071751,-2.4227328825,-8.0913296219,972
104530,186624,236127,4.6983071751,-2.4227328825,-8.0913296219,973
104728,186644,236112,4.6983071751,-2.4227328825,-8.0913296219,974
104988,186684,236141,4.6983071751,-2.4227328825,-8.0913296219,975
105175,186730,236175,4.6983071751,-2.4227328825,-8.0913296219,976
104152,186529,236085,4.7473600384,-2.4358934068,-8.1451681304,977
104087,186547,236104,4.7473600384,-2.4358934068,-8.1451681304,978
104218,186594,236112,4.7473600384,-2.4358934068,-8.1451681304,979
104446,186577,236148,4.7473600384,-2.4358934068,-8.1451681304,980
104767,186638,236153,4.7473600384,-2.4358934068,-8.1451681304,981
105007,186691,236189,4.7473600384,-2.4358934068,-8.1451681304,982
105186,186676,236217,4.7473600384,-2.4358934068,-8.1451681304,983
105312,186695,236240,4.7473600384,-2.4358934068,-8.1451681304,984
105471,186717,236235,4.7473600384,-2.4358934068,-8.1451681304,985
105678,186736,236209,4.7473600384,-2.4358934068,-8.1451681304,986
105897,186758,236257,4.7473600384,-2.4358934068,-8.1451681304,987
106184,186804,236266,4.7473600384,-2.4358934068,-8.1451681304,988
106457,186854,236275,4.7473600384,-2.4358934068,-8.1451681304,989
106742,186874,236325,4.7473600384,-2.4358934068,-8.1451681304,990
107008,186925,236308,4.7473600384,-2.4358934068,-8.1451681304,991
107268,186954,236389,4.7473600384,-2.4358934068,-8.1451681304,992
107507,186990,236355,4.7473600384,-2.4358934068,-8.1451681304,993
107735,186977,236396,4.7473600384,-2.4358934068,-8.1451681304,994
107804,186976,236365,4.7473600384,-2.4358934068,-8.1451681304,995
107103,186890,236296,4.7473600384,-2.4358934068,-8.1451681304,996
106121,186701,236233,4.7473600384,-2.4358934068,-8.1451681304,997
105544,186646,236236,4.7473600384,-2.4358934068,-8.1451681304,998
105449,186680,236205,4.7473600384,-2.4358934068,-8.1451681304,999
105577,186688,236209,4.7473600384,-2.4358934068,-8.1451681304,1000
105794,186706,236241,4.7473600384,-2.4358934068,-8.1451681304,1001
106106,186720,236263,4.7473600384,-2.4358934068,-8.1451681304,1002
106369,186762,236265,4.7473600384,-2.4358934068,-8.1451681304,1003
106522,186801,236315,4.7473600384,-2.4358934068,-8.1451681304,1004
106618,186804,236317,4.7473600384,-2.4358934068,-8.1451681304,1005
106770,186803,236306,4.7473600384,-2.4358934068,-8.1451681304,1006
106937,186850,236326,4.7473600384,-2.4358934068,-8.1451681304,1007
107174,186901,236342,4.7473600384,-2.4358934068,-8.1451681304,1008
107399,186934,236373,4.7473600384,-2.4358934068,-8.1451681304,1009
107659,186954,236378,4.7473600384,-2.4358934068,-8.1451681304,1010
107911,186989,236387,4.7473600384,-2.4358934068,-8.1451681304,1011
108140,187039,236408,4.7473600384,-2.4358934068,-8.1451681304,1012
108354,187044,236413,4.7473600384,-2.4358934068,-8.1451681304,1013
108333,187012,236388,4.7473600384,-2.4358934068,-8.1451681304,1014
107556,186893,236358,4.7473600384,-2.4358934068,-8.1451681304,1015
106690,186791,236263,4.7473600384,-2.4358934068,-8.1451681304,1016
106266,186705,236243,4.7473600384,-2.4358934068,-8.1451681304,1017
106203,186725,236236,4.7473600384,-2.4358934068,-8.1451681304,1018
106976,186819,236316,4.8646083458,-2.5399811898999998,-8.1511501869,1019
107118,186821,236336,4.8646083458,-2.5399811898999998,-8.1511501869,1020
107233,186839,236342,4.8646083458,-2.5399811898999998,-8.1511501869,1021
107326,186864,236347,4.8646083458,-2.5399811898999998,-8.1511501869,1022
107520,186886,236330,4.8646083458,-2.5399811898999998,-8.1511501869,1023
107762,186933,236345,4.8646083458,-2.5399811898999998,-8.1511501869,1024
108024,186943,236446,4.8646083458,-2.5399811898999998,-8.1511501869,1025
108245,187022,236427,4.8646083458,-2.5399811898999998,-8.1511501869,1026
108521,187017,236428,4.8646083458,-2.5399811898999998,-8.1511501869,1027
108746,187050,236376,4.8646083458,-2.5399811898999998,-8.1511501869,1028
108929,187060,236436,4.8646083458,-2.5399811898999998,-8.1511501869,1029
108675,187038,236390,4.8646083458,-2.5399811898999998,-8.1511501869,1030
107722,186894,236313,4.8646083458,-2.5399811898999998,-8.1511501869,1031
106825,186791,236264,4.8646083458,-2.5399811898999998,-8.1511501869,1032
106434,186758,236269,4.8646083458,-2.5399811898999998,-8.1511501869,1033
106366,186739,236243,4.8646083458,-2.5399811898999998,-8.1511501869,1034
106456,186785,236279,4.8646083458,-2.5399811898999998,-8.1511501869,1035
106652,186774,236297,4.8646083458,-2.5399811898999998,-8.1511501869,1036
106906,186841,236311,4.8646083458,-2.5399811898999998,-8.1511501869,1037
107090,186857,236308,4.8646083458,-2.5399811898999998,-8.1511501869,1038
107210,186892,236322,4.8646083458,-2.5399811898999998,-8.1511501869,1039
107266,186910,236344,4.8646083458,-2.5399811898999998,-8.1511501869,1040
107401,186928,236348,4.8646083458,-2.5399811898999998,-8.1511501869,1041
107575,186942,236327,4.8646083458,-2.5399811898999998,-8.1511501869,1042
107803,186969,236396,4.8646083458,-2.5399811898999998,-8.1511501869,1043
108064,186994,236384,4.8646083458,-2.5399811898999998,-8.1511501869,1044
108314,187067,236388,4.8646083458,-2.5399811898999998,-8.1511501869,1045
108567,187109,236445,4.8646083458,-2.5399811898999998,-8.1511501869,1046
108796,187140,236441,4.8646083458,-2.5399811898999998,-8.1511501869,1047
109007,187151,236445,4.8646083458,-2.5399811898999998,-8.1511501869,1048
109223,187180,236482,4.8646083458,-2.5399811898999998,-8.1511501869,1049
109262,187190,236444,4.8646083458,-2.5399811898999998,-8.1511501869,1050
108530,187057,236370,4.816751893799999,-2.3330020350000003,-8.111668614,1051
107320,186892,236289,4.816751893799999,-2.3330020350000003,-8.111668614,1052
106521,186806,236232,4.816751893799999,-2.3330020350000003,-8.111668614,1053
106239,186785,236246,4.816751893799999,-2.3330020350000003,-8.111668614,1054
106217,186807,236253,4.816751893799999,-2.3330020350000003,-8.111668614,1055
106361,186840,236276,4.816751893799999,-2.3330020350000003,-8.111668614,1056
106566,186857,236314,4.816751893799999,-2.3330020350000003,-8.111668614,1057
106791,186907,236303,4.816751893799999,-2.3330020350000003,-8.111668614,1058
106915,186903,236269,4.816751893799999,-2.3330020350000003,-8.111668614,1059
106972,186892,236336,4.816751893799999,-2.3330020350000003,-8.111668614,1060
107041,186931,236329,4.816751893799999,-2.3330020350000003,-8.111668614,1061
107164,186945,236344,4.816751893799999,-2.3330020350000003,-8.111668614,1062
107369,186979,236362,4.816751893799999,-2.3330020350000003,-8.111668614,1063
107603,187014,236414,4.816751893799999,-2.3330020350000003,-8.111668614,1064
107837,187047,236407,4.816751893799999,-2.3330020350000003,-8.111668614,1065
108056,187073,236440,4.816751893799999,-2.3330020350000003,-8.111668614,1066
108319,187084,236467,4.816751893799999,-2.3330020350000003,-8.111668614,1067
108552,187130,236423,4.816751893799999,-2.3330020350000003,-8.111668614,1068
108764,187154,236435,4.816751893799999,-2.3330020350000003,-8.111668614,1069
108973,187166,236436,4.797609313,-2.4227328825,-8.1463645417,1070
109178,187177,236420,4.797609313,-2.4227328825,-8.1463645417,1071
109143,187182,236495,4.797609313,-2.4227328825,-8.1463645417,1072
108319,187038,236395,4.797609313,-2.4227328825,-8.1463645417,1073
107115,186907,236308,4.797609313,-2.4227328825,-8.1463645417,1074
106426,186847,236257,4.797609313,-2.4227328825,-8.1463645417,1075
106213,186827,236273,4.797609313,-2.4227328825,-8.1463645417,1076
106266,186840,236248,4.797609313,-2.4227328825,-8.1463645417,1077
106403,186881,236259,4.797609313,-2.4227328825,-8.1463645417,1078
106662,186899,236343,4.797609313,-2.4227328825,-8.1463645417,1079
106914,186951,236336,4.797609313,-2.4227328825,-8.1463645417,1080
107013,186911,236333,4.797609313,-2.4227328825,-8.1463645417,1081
107100,186952,236325,4.797609313,-2.4227328825,-8.1463645417,1082
107191,186966,236347,4.797609313,-2.4227328825,-8.1463645417,1083
107345,186967,236312,4.797609313,-2.4227328825,-8.1463645417,1084
107528,187019,236388,4.797609313,-2.4227328825,-8.1463645417,1085
107730,187036,236413,4.797609313,-2.4227328825,-8.1463645417,1086
107997,187061,236447,4.797609313,-2.4227328825,-8.1463645417,1087
108228,187107,236419,4.797609313,-2.4227328825,-8.1463645417,1088
108426,187111,236415,4.797609313,-2.4227328825,-8.1463645417,1089
108633,187141,236448,4.797609313,-2.4227328825,-8.1463645417,1090
108676,187107,236450,4.797609313,-2.4227328825,-8.1463645417,1091
107988,187026,236351,4.797609313,-2.4227328825,-8.1463645417,1092
106902,186892,236259,4.797609313,-2.4227328825,-8.1463645417,1093
106214,186816,236236,4.797609313,-2.4227328825,-8.1463645417,1094
106002,186807,236253,4.797609313,-2.4227328825,-8.1463645417,1095
106036,186816,236221,4.797609313,-2.4227328825,-8.1463645417,1096
106210,186844,236250,4.797609313,-2.4227328825,-8.1463645417,1097
106480,186866,236305,4.797609313,-2.4227328825,-8.1463645417,1098
106743,186873,236315,4.797609313,-2.4227328825,-8.1463645417,1099
106891,186893,236354,4.797609313,-2.4227328825,-8.1463645417,1100
106941,186879,236340,4.797609313,-2.4227328825,-8.1463645417,1101
107025,186911,236315,4.797609313,-2.4227328825,-8.1463645417,1102
107181,186949,236319,4.797609313,-2.4227328825,-8.1463645417,1103
107401,186984,236376,4.797609313,-2.4227328825,-8.1463645417,1104
107610,186984,236397,4.797609313,-2.4227328825,-8.1463645417,1105
107869,187051,236357,4.797609313,-2.4227328825,-8.1463645417,1106
108111,187090,236420,4.797609313,-2.4227328825,-8.1463645417,1107
108334,187065,236388,4.797609313,-2.4227328825,-8.1463645417,1108
108527,187124,236398,4.797609313,-2.4227328825,-8.1463645417,1109
108219,187086,236352,4.797609313,-2.4227328825,-8.1463645417,1110
107161,186901,236282,4.797609313,-2.4227328825,-8.1463645417,1111
105805,186799,236207,4.9208396769,-2.3509482045,-8.195417404999999,1112
106039,186854,236274,4.9208396769,-2.3509482045,-8.195417404999999,1113
106331,186846,236270,4.9208396769,-2.3509482045,-8.195417404999999,1114
106579,186900,236280,4.9208396769,-2.3509482045,-8.195417404999999,1115
106733,186903,236314,4.9208396769,-2.3509482045,-8.195417404999999,1116
106814,186953,236301,4.9208396769,-2.3509482045,-8.195417404999999,1117
106972,186938,236293,4.9208396769,-2.3509482045,-8.195417404999999,1118
107163,186984,236356,4.9208396769,-2.3509482045,-8.195417404999999,1119
107401,187015,236373,4.9208396769,-2.3509482045,-8.195417404999999,1120
107643,187049,236365,4.9208396769,-2.3509482045,-8.195417404999999,1121
107909,187077,236412,4.9208396769,-2.3509482045,-8.195417404999999,1122
108164,187094,236393,4.9208396769,-2.3509482045,-8.195417404999999,1123
108440,187140,236444,4.9208396769,-2.3509482045,-8.195417404999999,1124
108664,187164,236424,4.9208396769,-2.3509482045,-8.195417404999999,1125
108849,187201,236438,4.9208396769,-2.3509482045,-8.195417404999999,1126
108598,187144,236419,4.9208396769,-2.3509482045,-8.195417404999999,1127
107552,187007,236306,4.9208396769,-2.3509482045,-8.195417404999999,1128
106548,186876,236278,4.9208396769,-2.3509482045,-8.195417404999999,1129
106070,186828,236210,4.9208396769,-2.3509482045,-8.195417404999999,1130
105953,186831,236212,4.9208396769,-2.3509482045,-8.195417404999999,1131
106044,186840,236263,4.9208396769,-2.3509482045,-8.195417404999999,1132
106275,186886,236284,4.9208396769,-2.3509482045,-8.195417404999999,1133
106593,186902,236304,4.9208396769,-2.3509482045,-8.195417404999999,1134
106809,186974,236298,4.9208396769,-2.3509482045,-8.195417404999999,1135
106939,186971,236326,4.9208396769,-2.3509482045,-8.195417404999999,1136
107056,186967,236332,4.9208396769,-2.3509482045,-8.195417404999999,1137
107188,186961,236344,4.9208396769,-2.3509482045,-8.195417404999999,1138
107399,186977,236364,4.9208396769,-2.3509482045,-8.195417404999999,1139
107632,187029,236355,4.9208396769,-2.3509482045,-8.195417404999999,1140
107892,187057,236385,4.9208396769,-2.3509482045,-8.195417404999999,1141
108164,187097,236382,4.9208396769,-2.3509482045,-8.195417404999999,1142
108436,187142,236442,4.9208396769,-2.3509482045,-8.195417404999999,1143
108679,187187,236414,4.9208396769,-2.3509482045,-8.195417404999999,1144
108912,187212,236424,4.9208396769,-2.3509482045,-8.195417404999999,1145
109169,187222,236484,4.9208396769,-2.3509482045,-8.195417404999999,1146
109254,187223,236456,4.9208396769,-2.3509482045,-8.195417404999999,1147
108645,187110,236412,4.9208396769,-2.3509482045,-8.195417404999999,1148
107533,186985,236320,4.9208396769,-2.3509482045,-8.195417404999999,1149
106784,186902,236256,4.9208396769,-2.3509482045,-8.195417404999999,1150
106522,186905,236261,4.9208396769,-2.3509482045,-8.195417404999999,1151
106532,186898,236273,4.9208396769,-2.3509482045,-8.195417404999999,1152
106667,186882,236273,4.9208396769,-2.3509482045,-8.195417404999999,1153
107689,186978,236352,4.8705904022999995,-2.4837498588,-8.2025958728,1154
107778,186999,236348,4.8705904022999995,-2.4837498588,-8.2025958728,1155
107906,186985,236355,4.8705904022999995,-2.4837498588,-8.2025958728,1156
108104,187012,236379,4.8705904022999995,-2.4837498588,-8.2025958728,1157
108320,187050,236381,4.8705904022999995,-2.4837498588,-8.2025958728,1158
108550,187058,236407,4.8705904022999995,-2.4837498588,-8.2025958728,1159
108801,187090,236466,4.8705904022999995,-2.4837498588,-8.2025958728,1160
109031,187103,236421,4.8705904022999995,-2.4837498588,-8.2025958728,1161
109242,187162,236457,4.8705904022999995,-2.4837498588,-8.2025958728,1162
109368,187207,236432,4.8705904022999995,-2.4837498588,-8.2025958728,1163
108908,187084,236410,4.8705904022999995,-2.4837498588,-8.2025958728,1164
107822,186940,236343,4.8705904022999995,-2.4837498588,-8.2025958728,1165
107024,186829,236243,4.8705904022999995,-2.4837498588,-8.2025958728,1166
106711,186796,236265,4.8705904022999995,-2.4837498588,-8.2025958728,1167
106666,186817,236250,4.8705904022999995,-2.4837498588,-8.2025958728,1168
106783,186815,236236,4.8705904022999995,-2.4837498588,-8.2025958728,1169
107033,186845,236296,4.8705904022999995,-2.4837498588,-8.2025958728,1170
107265,186898,236310,4.8705904022999995,-2.4837498588,-8.2025958728,1171
107456,186891,236310,4.8705904022999995,-2.4837498588,-8.2025958728,1172
107555,186939,236319,4.8705904022999995,-2.4837498588,-8.2025958728,1173
107620,186933,236347,4.8705904022999995,-2.4837498588,-8.2025958728,1174
107741,186958,236343,4.8705904022999995,-2.4837498588,-8.2025958728,1175
107919,186948,236370,4.8705904022999995,-2.4837498588,-8.2025958728,1176
108114,187017,236374,4.8705904022999995,-2.4837498588,-8.2025958728,1177
108307,187029,236379,4.8705904022999995,-2.4837498588,-8.2025958728,1178
108525,187050,236367,4.8705904022999995,-2.4837498588,-8.2025958728,1179
108686,187067,236367,4.8705904022999995,-2.4837498588,-8.2025958728,1180
108314,187014,236353,4.8705904022999995,-2.4837498588,-8.2025958728,1181
107259,186858,236271,4.8705904022999995,-2.4837498588,-8.2025958728,1182
106348,186719,236237,4.8705904022999995,-2.4837498588,-8.2025958728,1183
105939,186714,236205,4.8705904022999995,-2.4837498588,-8.2025958728,1184
105854,186702,236176,4.8705904022999995,-2.4837498588,-8.2025958728,1185
105955,186731,236187,4.8705904022999995,-2.4837498588,-8.2025958728,1186
106167,186760,236264,4.8705904022999995,-2.4837498588,-8.2025958728,1187
106454,186788,236231,4.8705904022999995,-2.4837498588,-8.2025958728,1188
106645,186833,236249,4.8705904022999995,-2.4837498588,-8.2025958728,1189
106760,186811,236226,4.8705904022999995,-2.4837498588,-8.2025958728,1190
106847,186841,236292,4.8705904022999995,-2.4837498588,-8.2025958728,1191
106995,186856,236316,4.8705904022999995,-2.4837498588,-8.2025958728,1192
107173,186929,236340,4.8705904022999995,-2.4837498588,-8.2025958728,1193
107414,186955,236336,4.8705904022999995,-2.4837498588,-8.2025958728,1194
107666,186979,236364,4.8705904022999995,-2.4837498588,-8.2025958728,1195
105803,186706,236217,4.7593241513999995,-2.4454646972,-8.1427753078,1196
106079,186753,236228,4.7593241513999995,-2.4454646972,-8.1427753078,1197
106195,186778,236228,4.7593241513999995,-2.4454646972,-8.1427753078,1198
106284,186796,236253,4.7593241513999995,-2.4454646972,-8.1427753078,1199
106400,186807,236275,4.7593241513999995,-2.4454646972,-8.1427753078,1200
106573,186840,236305,4.7593241513999995,-2.4454646972,-8.1427753078,1201
106798,186856,236294,4.7593241513999995,-2.4454646972,-8.1427753078,1202
107045,186920,236348,4.7593241513999995,-2.4454646972,-8.1427753078,1203
107307,186916,236357,4.7593241513999995,-2.4454646972,-8.1427753078,1204
107568,186979,236379,4.7593241513999995,-2.4454646972,-8.1427753078,1205
107806,186984,236411,4.7593241513999995,-2.4454646972,-8.1427753078,1206
108045,187023,236445,4.7593241513999995,-2.4454646972,-8.1427753078,1207
108250,187080,236377,4.7593241513999995,-2.4454646972,-8.1427753078,1208
108060,187012,236376,4.8430729424,-2.5148565526000004,-8.102097323599999,1209
107007,186871,236289,4.8430729424,-2.5148565526000004,-8.102097323599999,1210
105968,186739,236187,4.8430729424,-2.5148565526000004,-8.102097323599999,1211
105519,186692,236212,4.8430729424,-2.5148565526000004,-8.102097323599999,1212
105462,186696,236197,4.8430729424,-2.5148565526000004,-8.102097323599999,1213
105570,186719,236249,4.8430729424,-2.5148565526000004,-8.102097323599999,1214
105774,186706,236237,4.7712882644,-2.3629123174999997,-8.1571322434,1215
106086,186778,236267,4.8131626599,-2.5567309481,-8.1176506705,1216
106291,186774,236257,4.8370908858999995,-2.3557338497,-8.111668614,1217
106402,186825,236252,4.9375894351,-2.5339991334,-8.2289169214,1218
106494,186855,236255,4.8131626599,-2.4011974791,-8.2002030502,1219
106611,186804,236286,4.8251267729,-2.5363919559999997,-8.185846114599999,1220
106806,186827,236309,4.9519463707,-2.51246373,-8.13559684,1221
107034,186858,236353,5.041677218199999,-2.4358934068,-8.252845147399999,1222
107309,186892,236364,5.041677218199999,-2.4358934068,-8.252845147399999,1223
107564,186926,236416,5.041677218199999,-2.4358934068,-8.252845147399999,1224
107821,187007,236400,5.041677218199999,-2.4358934068,-8.252845147399999,1225
108090,186979,236434,5.041677218199999,-2.4358934068,-8.252845147399999,1226
108293,187001,236472,5.041677218199999,-2.4358934068,-8.252845147399999,1227
108533,187062,236435,5.041677218199999,-2.4358934068,-8.252845147399999,1228
108643,187062,236419,5.041677218199999,-2.4358934068,-8.252845147399999,1229
108132,186986,236391,5.041677218199999,-2.4358934068,-8.252845147399999,1230
107048,186829,236288,5.041677218199999,-2.4358934068,-8.252845147399999,1231
106305,186723,236260,5.041677218199999,-2.4358934068,-8.252845147399999,1232
106061,186722,236233,5.041677218199999,-2.4358934068,-8.252845147399999,1233
106112,186752,236288,4.748556449700001,-2.3605194949,-8.1320076061,1234
106314,186743,236229,4.748556449700001,-2.3605194949,-8.1320076061,1235
106621,186820,236320,4.748556449700001,-2.3605194949,-8.1320076061,1236
106909,186854,236282,4.748556449700001,-2.3605194949,-8.1320076061,1237
107086,186854,236333,4.748556449700001,-2.3605194949,-8.1320076061,1238
107213,186855,236357,4.748556449700001,-2.3605194949,-8.1320076061,1239
107300,186866,236346,4.748556449700001,-2.3605194949,-8.1320076061,1240
107456,186902,236361,4.748556449700001,-2.3605194949,-8.1320076061,1241
107678,186938,236376,4.748556449700001,-2.3605194949,-8.1320076061,1242
107935,186962,236414,4.748556449700001,-2.3605194949,-8.1320076061,1243
108204,187003,236455,4.748556449700001,-2.3605194949,-8.1320076061,1244
108428,187016,236431,4.748556449700001,-2.3605194949,-8.1320076061,1245
108673,187038,236427,4.748556449700001,-2.3605194949,-8.1320076061,1246
108924,187092,236449,4.748556449700001,-2.3605194949,-8.1320076061,1247
108903,187055,236425,4.748556449700001,-2.3605194949,-8.1320076061,1248
108169,186933,236353,4.748556449700001,-2.3605194949,-8.1320076061,1249
107177,186800,236308,4.748556449700001,-2.3605194949,-8.1320076061,1250
106639,186747,236275,4.748556449700001,-2.3605194949,-8.1320076061,1251
106588,186740,236244,4.748556449700001,-2.3605194949,-8.1320076061,1252
106694,186761,236310,4.8753760475,-2.3916261887,-8.2217384536,1253
106944,186805,236312,4.8753760475,-2.3916261887,-8.2217384536,1254
107242,186834,236370,4.8753760475,-2.3916261887,-8.2217384536,1255
107480,186882,236356,4.8753760475,-2.3916261887,-8.2217384536,1256
107613,186856,236357,4.8753760475,-2.3916261887,-8.2217384536,1257
107691,186882,236377,4.8753760475,-2.3916261887,-8.2217384536,1258
107814,186922,236363,4.8753760475,-2.3916261887,-8.2217384536,1259
108010,186905,236423,4.8753760475,-2.3916261887,-8.2217384536,1260
108251,186965,236430,4.8753760475,-2.3916261887,-8.2217384536,1261
108475,187043,236402,4.8753760475,-2.3916261887,-8.2217384536,1262
108733,187037,236444,4.8753760475,-2.3916261887,-8.2217384536,1263
108979,187063,236448,4.8753760475,-2.3916261887,-8.2217384536,1264
109208,187074,236476,4.8753760475,-2.3916261887,-8.2217384536,1265
109324,187108,236424,4.8035913695,-2.452643165,-8.1990066389,1266
108715,186997,236396,4.8035913695,-2.452643165,-8.1990066389,1267
107618,186878,236325,4.8035913695,-2.452643165,-8.1990066389,1268
106950,186814,236275,4.8035913695,-2.452643165,-8.1990066389,1269
106766,186755,236262,4.8035913695,-2.452643165,-8.1990066389,1270
106814,186795,236303,4.8035913695,-2.452643165,-8.1990066389,1271
107003,186809,236281,4.8035913695,-2.452643165,-8.1990066389,1272
107259,186865,236352,4.7856452,-2.3605194949,-8.236095389199999,1273
107576,186953,236348,4.8239303616,-2.4550359876,-8.1786676468,1274
107731,186966,236349,4.7126641107,-2.3413769141,-8.2025958728,1275
107788,186939,236396,4.6672004813,-2.3964118339,-8.129614783500001,1276
107971,186967,236384,4.8047877808,-2.3916261887,-8.0793655089,1277
108143,186973,236356,4.8047877808,-2.3916261887,-8.0793655089,1278
108360,186990,236428,4.8047877808,-2.3916261887,-8.0793655089,1279
108609,187046,236444,4.8047877808,-2.3916261887,-8.0793655089,1280
108883,187078,236493,4.8047877808,-2.3916261887,-8.0793655089,1281
109148,187136,236514,4.8047877808,-2.3916261887,-8.0793655089,1282
109400,187170,236454,4.8047877808,-2.3916261887,-8.0793655089,1283
109643,187175,236484,4.8047877808,-2.3916261887,-8.0793655089,1284
109886,187214,236477,4.8047877808,-2.3916261887,-8.0793655089,1285
110102,187234,236487,4.8047877808,-2.3916261887,-8.0793655089,1286
110240,187237,236504,4.8047877808,-2.3916261887,-8.0793655089,1287
109808,187189,236475,4.8047877808,-2.3916261887,-8.0793655089,1288
108595,187021,236349,4.8047877808,-2.3916261887,-8.0793655089,1289
107666,186898,236347,4.8047877808,-2.3916261887,-8.0793655089,1290
107324,186883,236256,4.8047877808,-2.3916261887,-8.0793655089,1291
107311,186928,236302,4.7784667322,-2.4239292938,-8.1092757914,1292
107435,186943,236356,4.7784667322,-2.4239292938,-8.1092757914,1293
107668,186973,236317,4.7784667322,-2.4239292938,-8.1092757914,1294
107916,186998,236368,4.7784667322,-2.4239292938,-8.1092757914,1295
108095,187026,236383,4.7784667322,-2.4239292938,-8.1092757914,1296
108182,187019,236377,4.7784667322,-2.4239292938,-8.1092757914,1297
108260,187077,236380,4.7784667322,-2.4239292938,-8.1092757914,1298
108404,187079,236387,4.7784667322,-2.4239292938,-8.1092757914,1299
108611,187076,236434,4.7784667322,-2.4239292938,-8.1092757914,1300
108848,187120,236430,4.7784667322,-2.4239292938,-8.1092757914,1301
109074,187153,236489,4.7784667322,-2.4239292938,-8.1092757914,1302
109335,187168,236473,4.7784667322,-2.4239292938,-8.1092757914,1303
109555,187225,236503,4.7784667322,-2.4239292938,-8.1092757914,1304
109822,187264,236515,4.7784667322,-2.4239292938,-8.1092757914,1305
110022,187245,236564,4.7784667322,-2.4239292938,-8.1092757914,1306
110214,187248,236507,4.7784667322,-2.4239292938,-8.1092757914,1307
110408,187280,236533,4.7784667322,-2.4239292938,-8.1092757914,1308
110345,187299,236496,4.7784667322,-2.4239292938,-8.1092757914,1309
109522,187133,236401,4.7784667322,-2.4239292938,-8.1092757914,1310
108391,187000,236363,4.9340002012,-2.4981067944,-8.1200434931,1311
107713,186922,236311,4.9340002012,-2.4981067944,-8.1200434931,1312
107525,186930,236331,4.9340002012,-2.4981067944,-8.1200434931,1313
107543,186933,236367,4.9340002012,-2.4981067944,-8.1200434931,1314
107736,186981,236325,4.9340002012,-2.4981067944,-8.1200434931,1315
107974,187014,236407,4.9340002012,-2.4981067944,-8.1200434931,1316
108218,187032,236348,4.9340002012,-2.4981067944,-8.1200434931,1317
108354,187032,236428,4.9340002012,-2.4981067944,-8.1200434931,1318
108425,187034,236373,4.9340002012,-2.4981067944,-8.1200434931,1319
108500,187047,236405,4.9340002012,-2.4981067944,-8.1200434931,1320
108659,187079,236427,4.9340002012,-2.4981067944,-8.1200434931,1321
108810,187100,236422,4.9340002012,-2.4981067944,-8.1200434931,1322
109028,187146,236451,4.9340002012,-2.4981067944,-8.1200434931,1323
109281,187172,236476,4.869393991,-2.4825534475,-8.1619178886,1324
109491,187192,236488,4.869393991,-2.4825534475,-8.1619178886,1325
109709,187255,236484,4.869393991,-2.4825534475,-8.1619178886,1326
109930,187249,236455,4.869393991,-2.4825534475,-8.1619178886,1327
109993,187257,236471,4.869393991,-2.4825534475,-8.1619178886,1328
109369,187161,236384,4.869393991,-2.4825534475,-8.1619178886,1329
108284,187012,236343,4.869393991,-2.4825534475,-8.1619178886,1330
107570,186925,236326,4.869393991,-2.4825534475,-8.1619178886,1331
107320,186932,236338,4.869393991,-2.4825534475,-8.1619178886,1332
107345,186930,236338,4.869393991,-2.4825534475,-8.1619178886,1333
107483,186945,236361,4.869393991,-2.4825534475,-8.1619178886,1334
107760,187007,236381,4.869393991,-2.4825534475,-8.1619178886,1335
107998,186996,236339,4.869393991,-2.4825534475,-8.1619178886,1336
108156,187019,236362,4.869393991,-2.4825534475,-8.1619178886,1337
108210,187021,236389,4.869393991,-2.4825534475,-8.1619178886,1338
108296,187036,236367,4.869393991,-2.4825534475,-8.1619178886,1339
108417,187073,236381,4.869393991,-2.4825534475,-8.1619178886,1340
108610,187088,236385,4.869393991,-2.4825534475,-8.1619178886,1341
108796,187112,236451,4.869393991,-2.4825534475,-8.1619178886,1342
109029,187157,236488,4.869393991,-2.4825534475,-8.1619178886,1343
109280,187158,236459,4.869393991,-2.4825534475,-8.1619178886,1344
109477,187184,236488,4.869393991,-2.4825534475,-8.1619178886,1345
109648,187209,236457,4.869393991,-2.4825534475,-8.1619178886,1346
109253,187150,236403,4.869393991,-2.4825534475,-8.1619178886,1347
108118,186984,236344,4.869393991,-2.4825534475,-8.1619178886,1348
107192,186880,236298,4.9734817741,-2.4454646972,-8.1810604694,1349
106782,186871,236257,4.9734817741,-2.4454646972,-8.1810604694,1350
106751,186891,236292,4.9734817741,-2.4454646972,-8.1810604694,1351
106836,186887,236298,4.9734817741,-2.4454646972,-8.1810604694,1352
107061,186907,236329,4.9734817741,-2.4454646972,-8.1810604694,1353
107343,186963,236294,4.9734817741,-2.4454646972,-8.1810604694,1354
107575,186997,236368,4.9734817741,-2.4454646972,-8.1810604694,1355
107739,187015,236318,4.9734817741,-2.4454646972,-8.1810604694,1356
107846,187026,236336,4.9734817741,-2.4454646972,-8.1810604694,1357
107969,187043,236352,4.9734817741,-2.4454646972,-8.1810604694,1358
108176,187069,236373,4.9734817741,-2.4454646972,-8.1810604694,1359
108419,187124,236416,4.9734817741,-2.4454646972,-8.1810604694,1360
108669,187134,236416,4.9734817741,-2.4454646972,-8.1810604694,1361
108917,187181,236441,4.9734817741,-2.4454646972,-8.1810604694,1362
109183,187208,236442,4.9734817741,-2.4454646972,-8.1810604694,1363
109421,187221,236474,4.9734817741,-2.4454646972,-8.1810604694,1364
109646,187255,236454,4.9734817741,-2.4454646972,-8.1810604694,1365
109780,187268,236478,4.9734817741,-2.4454646972,-8.1810604694,1366
109213,187202,236423,4.9734817741,-2.4454646972,-8.1810604694,1367
107985,187010,236316,4.9734817741,-2.4454646972,-8.1810604694,1368
107077,186916,236262,4.9734817741,-2.4454646972,-8.1810604694,1369
106747,186909,236279,4.9734817741,-2.4454646972,-8.1810604694,1370
106737,186933,236273,4.9734817741,-2.4454646972,-8.1810604694,1371
106873,186939,236272,4.9734817741,-2.4454646972,-8.1810604694,1372
107118,186945,236297,4.9734817741,-2.4454646972,-8.1810604694,1373
107384,187029,236314,4.9734817741,-2.4454646972,-8.1810604694,1374
107606,187042,236355,4.9734817741,-2.4454646972,-8.1810604694,1375
107706,187044,236320,4.9734817741,-2.4454646972,-8.1810604694,1376
107823,187067,236390,4.9734817741,-2.4454646972,-8.1810604694,1377
107974,187078,236370,4.9734817741,-2.4454646972,-8.1810604694,1378
108209,187117,236390,4.9734817741,-2.4454646972,-8.1810604694,1379
108430,187157,236381,4.9734817741,-2.4454646972,-8.1810604694,1380
108681,187167,236415,4.9734817741,-2.4454646972,-8.1810604694,1381
108932,187216,236471,4.9734817741,-2.4454646972,-8.1810604694,1382
109205,187209,236476,4.9734817741,-2.4454646972,-8.1810604694,1383
109454,187257,236485,4.9734817741,-2.4454646972,-8.1810604694,1384
109711,187279,236518,4.9734817741,-2.4454646972,-8.1810604694,1385
109926,187310,236510,4.9734817741,-2.4454646972,-8.1810604694,1386
110053,187326,236500,4.9734817741,-2.4454646972,-8.1810604694,1387
109496,187217,236424,4.9734817741,-2.4454646972,-8.1810604694,1388
108311,187082,236349,4.9734817741,-2.4454646972,-8.1810604694,1389
107500,186994,236362,4.9734817741,-2.4454646972,-8.1810604694,1390
109720,187157,236403,4.8323052407,-2.4131615921,-8.1571322434,1391
108694,186990,236342,4.8323052407,-2.4131615921,-8.1571322434,1392
107795,186933,236305,4.8323052407,-2.4131615921,-8.1571322434,1393
107405,186874,236286,4.8323052407,-2.4131615921,-8.1571322434,1394
107351,186874,236309,4.8323052407,-2.4131615921,-8.1571322434,1395
107435,186921,236255,4.8323052407,-2.4131615921,-8.1571322434,1396
107686,186909,236305,4.8323052407,-2.4131615921,-8.1571322434,1397
107936,186939,236327,4.8323052407,-2.4131615921,-8.1571322434,1398
108157,186956,236329,4.8323052407,-2.4131615921,-8.1571322434,1399
108264,186994,236350,4.8323052407,-2.4131615921,-8.1571322434,1400
108346,187004,236344,4.8323052407,-2.4131615921,-8.1571322434,1401
108490,187049,236393,4.8323052407,-2.4131615921,-8.1571322434,1402
108662,187047,236380,4.8323052407,-2.4131615921,-8.1571322434,1403
108889,187065,236394,4.8323052407,-2.4131615921,-8.1571322434,1404
109120,187080,236414,4.8323052407,-2.4131615921,-8.1571322434,1405
109355,187156,236424,4.8323052407,-2.4131615921,-8.1571322434,1406
109589,187170,236437,4.8323052407,-2.4131615921,-8.1571322434,1407
109737,187148,236440,4.8323052407,-2.4131615921,-8.1571322434,1408
109405,187125,236382,4.8323052407,-2.4131615921,-8.1571322434,1409
108327,186959,236313,4.8323052407,-2.4131615921,-8.1571322434,1410
107403,186888,236296,4.8323052407,-2.4131615921,-8.1571322434,1411
106996,186858,236293,4.8323052407,-2.4131615921,-8.1571322434,1412
106926,186850,236263,4.8323052407,-2.4131615921,-8.1571322434,1413
107049,186860,236295,4.8323052407,-2.4131615921,-8.1571322434,1414
107302,186882,236299,4.8323052407,-2.4131615921,-8.1571322434,1415
107604,186930,236328,4.8323052407,-2.4131615921,-8.1571322434,1416
107802,186960,236355,4.8323052407,-2.4131615921,-8.1571322434,1417
107944,186984,236364,4.8323052407,-2.4131615921,-8.1571322434,1418
108067,187019,236335,4.8323052407,-2.4131615921,-8.1571322434,1419
108202,186996,236387,4.8323052407,-2.4131615921,-8.1571322434,1420
108391,187048,236342,4.8323052407,-2.4131615921,-8.1571322434,1421
108644,187069,236417,4.8323052407,-2.4131615921,-8.1571322434,1422
108887,187121,236429,4.8323052407,-2.4131615921,-8.1571322434,1423
109124,187159,236456,4.8323052407,-2.4131615921,-8.1571322434,1424
109381,187198,236414,4.8323052407,-2.4131615921,-8.1571322434,1425
109575,187191,236429,4.8323052407,-2.4131615921,-8.1571322434,1426
109587,187181,236451,4.8323052407,-2.4131615921,-8.1571322434,1427
108774,187074,236392,4.8323052407,-2.4131615921,-8.1571322434,1428
107613,186918,236303,4.8323052407,-2.4131615921,-8.1571322434,1429
106907,186854,236285,4.8323052407,-2.4131615921,-8.1571322434,1430
106735,186842,236254,4.8323052407,-2.4131615921,-8.1571322434,1431
106780,186858,236256,4.8323052407,-2.4131615921,-8.1571322434,1432
108855,187099,236454,4.8586262893,-2.5531417142,-8.185846114599999,1433
109091,187123,236434,4.8586262893,-2.5531417142,-8.185846114599999,1434
109336,187182,236460,4.8586262893,-2.5531417142,-8.185846114599999,1435
109555,187224,236497,4.8586262893,-2.5531417142,-8.185846114599999,1436
109647,187236,236459,4.8586262893,-2.5531417142,-8.185846114599999,1437
108995,187080,236415,4.8586262893,-2.5531417142,-8.185846114599999,1438
107820,186951,236322,4.8586262893,-2.5531417142,-8.185846114599999,1439
107094,186865,236284,4.8586262893,-2.5531417142,-8.185846114599999,1440
106853,186843,236264,4.8586262893,-2.5531417142,-8.185846114599999,1441
106874,186859,236235,4.8586262893,-2.5531417142,-8.185846114599999,1442
107038,186841,236346,4.8586262893,-2.5531417142,-8.185846114599999,1443
107302,186912,236288,4.8586262893,-2.5531417142,-8.185846114599999,1444
107611,186914,236305,4.8586262893,-2.5531417142,-8.185846114599999,1445
107787,186934,236331,4.8717868136,-2.4083759468999997,-8.159525066,1446
107901,186973,236328,4.8717868136,-2.4083759468999997,-8.159525066,1447
108023,186968,236379,4.8717868136,-2.4083759468999997,-8.159525066,1448
108166,186989,236379,4.8717868136,-2.4083759468999997,-8.159525066,1449
108387,187004,236407,4.8717868136,-2.4083759468999997,-8.159525066,1450
108608,187068,236409,4.8717868136,-2.4083759468999997,-8.159525066,1451
108836,187050,236391,4.8717868136,-2.4083759468999997,-8.159525066,1452
109064,187088,236419,4.8717868136,-2.4083759468999997,-8.159525066,1453
109275,187120,236429,4.8717868136,-2.4083759468999997,-8.159525066,1454
109407,187114,236418,4.8717868136,-2.4083759468999997,-8.159525066,1455
108985,187039,236392,4.8717868136,-2.4083759468999997,-8.159525066,1456
107928,186918,236303,4.8717868136,-2.4083759468999997,-8.159525066,1457
107148,186823,236273,4.8717868136,-2.4083759468999997,-8.159525066,1458
106890,186795,236297,4.6456650779,-2.3868405435,-8.137989662599999,1459
106899,186835,236267,4.6456650779,-2.3868405435,-8.137989662599999,1460
107056,186841,236313,4.6456650779,-2.3868405435,-8.137989662599999,1461
107338,186874,236299,4.6456650779,-2.3868405435,-8.137989662599999,1462
107623,186880,236345,4.6456650779,-2.3868405435,-8.137989662599999,1463
107805,186948,236336,4.6456650779,-2.3868405435,-8.137989662599999,1464
107918,186933,236371,4.6456650779,-2.3868405435,-8.137989662599999,1465
108039,186936,236368,4.6456650779,-2.3868405435,-8.137989662599999,1466
108189,186984,236375,4.6456650779,-2.3868405435,-8.137989662599999,1467
108401,187006,236372,4.6456650779,-2.3868405435,-8.137989662599999,1468
108627,187011,236418,4.6456650779,-2.3868405435,-8.137989662599999,1469
108857,187025,236442,4.6456650779,-2.3868405435,-8.137989662599999,1470
109077,187054,236422,4.6456650779,-2.3868405435,-8.137989662599999,1471
109249,187083,236427,4.8370908858999995,-2.5040888509,-8.185846114599999,1472
108805,187019,236368,4.8370908858999995,-2.5040888509,-8.185846114599999,1473
107785,186855,236277,4.8370908858999995,-2.5040888509,-8.185846114599999,1474
106988,186786,236287,4.8370908858999995,-2.5040888509,-8.185846114599999,1475
106728,186759,236257,4.8370908858999995,-2.5040888509,-8.185846114599999,1476
106734,186749,236233,4.8370908858999995,-2.5040888509,-8.185846114599999,1477
106872,186752,236279,4.8358944746,-2.4813570362,-8.2025958728,1478
107143,186823,236277,4.8358944746,-2.4813570362,-8.2025958728,1479
107424,186858,236292,4.8358944746,-2.4813570362,-8.2025958728,1480
107633,186828,236301,4.8358944746,-2.4813570362,-8.2025958728,1481
107747,186862,236320,4.8358944746,-2.4813570362,-8.2025958728,1482
107864,186909,236338,4.8358944746,-2.4813570362,-8.2025958728,1483
108017,186913,236360,4.8358944746,-2.4813570362,-8.2025958728,1484
108229,186925,236384,4.8287160068,-2.4598216327999998,-8.057830105499999,1485
108406,186939,236410,4.8311088294,-2.4658036893,-8.1906317598,1486
108613,186994,236333,4.8311088294,-2.4658036893,-8.1906317598,1487
108840,186994,236398,4.8311088294,-2.4658036893,-8.1906317598,1488
108940,186982,236391,4.8311088294,-2.4658036893,-8.1906317598,1489
108315,186927,236369,4.8311088294,-2.4658036893,-8.1906317598,1490
107292,186769,236251,4.8598227006,-2.464607278,-8.087740388,1491
106613,186691,236197,4.6157547954,-2.4717857458,-8.1427753078,1492
106390,186648,236213,4.844269353700001,-2.3868405435,-8.1583286547,1493
106424,186685,236197,4.8634119345,-2.4335005842,-8.1798640581,1494
106584,186686,236230,4.9674997176,-2.4478575198,-8.1451681304,1495
106878,186720,236289,4.7150569333,-2.4059831243,-8.128418372199999,1496
107165,186767,236295,4.8227339503,-2.4370898181,-8.1308111948,1497
107358,186802,236285,4.8227339503,-2.4370898181,-8.1308111948,1498
107434,186792,236318,4.8227339503,-2.4370898181,-8.1308111948,1499
107585,186815,236330,4.8227339503,-2.4370898181,-8.1308111948,1500
107772,186843,236339,4.8227339503,-2.4370898181,-8.1308111948,1501
108006,186875,236348,4.8227339503,-2.4370898181,-8.1308111948,1502
108249,186920,236373,4.8227339503,-2.4370898181,-8.1308111948,1503
108493,186939,236398,4.8227339503,-2.4370898181,-8.1308111948,1504
108777,186996,236393,4.8227339503,-2.4370898181,-8.1308111948,1505
108990,187000,236435,4.8227339503,-2.4370898181,-8.1308111948,1506
109227,187048,236424,4.8227339503,-2.4370898181,-8.1308111948,1507
109069,187018,236421,4.8227339503,-2.4370898181,-8.1308111948,1508
108129,186867,236312,4.8227339503,-2.4370898181,-8.1308111948,1509
107168,186762,236272,4.8227339503,-2.4370898181,-8.1308111948,1510
106721,186712,236244,4.8227339503,-2.4370898181,-8.1308111948,1511
106677,186722,236228,4.8227339503,-2.4370898181,-8.1308111948,1512
106769,186715,236213,4.8227339503,-2.4370898181,-8.1308111948,1513
106995,186766,236288,4.8227339503,-2.4370898181,-8.1308111948,1514
107299,186794,236252,4.8227339503,-2.4370898181,-8.1308111948,1515
107555,186807,236282,4.8227339503,-2.4370898181,-8.1308111948,1516
107693,186854,236328,4.7629133853,-2.464607278,-8.1930245824,1517
107812,186860,236323,4.7629133853,-2.464607278,-8.1930245824,1518
107989,186906,236344,4.7629133853,-2.464607278,-8.1930245824,1519
108203,186910,236342,4.7629133853,-2.464607278,-8.1930245824,1520
108452,186951,236375,4.7629133853,-2.464607278,-8.1930245824,1521
108738,186975,236409,4.7629133853,-2.464607278,-8.1930245824,1522
108986,187016,236391,4.7629133853,-2.464607278,-8.1930245824,1523
109273,187046,236444,4.7629133853,-2.464607278,-8.1930245824,1524
109510,187121,236479,4.7629133853,-2.464607278,-8.1930245824,1525
109768,187145,236477,4.7629133853,-2.464607278,-8.1930245824,1526
110011,187149,236459,4.7629133853,-2.464607278,-8.1930245824,1527
110229,187172,236508,4.7629133853,-2.464607278,-8.1930245824,1528
110327,187182,236515,4.7629133853,-2.464607278,-8.1930245824,1529
