green,red,IR,acc_x,acc_y,acc_z,sample_index
108090,214526,216437,-4.247260115,-4.6348973762,-7.505088084900001,1
108244,214517,216418,-4.2281175342,-4.7521456836,-7.5158557866,2
108356,214557,216437,-4.1587256788,-4.6923251185999995,-7.505088084900001,3
108491,214540,216442,-4.1706897918,-4.6301117309999995,-7.556533770800001,4
108610,214566,216460,-4.2747775749,-4.7676990305,-7.5278198996,5
108658,214594,216462,-4.1623149127,-4.6277189084,-7.6307112714,6
108461,214545,216478,-4.1240297511,-4.6396830214,-7.556533770800001,7
108035,214490,216439,-4.1898323726,-4.6624148361,-7.5062844962,8
107636,214444,216403,-4.1611185014,-4.5786660451,-7.622336392299999,9
107378,214439,216385,-4.2664026958,-4.6037906824000006,-7.4679993346,10
107225,214412,216396,-4.1730826144,-4.6325045536000005,-7.4177500599999995,11
107147,214351,216339,-4.1922251952,-4.6085763276,-7.5206414318,12
107124,214369,216338,-4.1371902754,-4.5176490688,-7.525427077,13
107172,214388,216375,-4.1922251952,-4.6516471344,-7.5780691741999995,14
107232,214362,216401,-4.127618985,-4.6683968926,-7.488338326699999,15
107313,214400,216397,-4.1922251952,-4.5188454800999995,-7.4500531651,16
107354,214397,216383,-4.0905302347,-4.6325045536000005,-7.5541409482,17
107371,214412,216363,-4.097708702499999,-4.6564327796,-7.568497883799999,18
107431,214467,216390,-4.2891345105,-4.5786660451,-7.53739119,19
107465,214489,216415,-4.1527436223,-4.6683968926,-7.4823562701999995,20
107543,214437,216381,-4.1252261624,-4.6743789491,-7.5637122386,21
107624,214493,216434,-4.2137605985999995,-4.6456650779,-7.6235328036,22
107747,214458,216386,-4.1802610821999995,-4.7162533446,-7.447660342499999,23
107866,214477,216414,-4.1479579771,-4.6169512067000005,-7.5481588917,24
107952,214532,216459,-4.0354953148999995,-4.5870409242,-7.4907311493,25
108079,214529,216425,-4.2053857195,-4.6767717716999995,-7.6115686905999995,26
108195,214559,216438,-4.2783668087999995,-4.5511485852,-7.5326055448,27
108288,214556,216458,-4.1048871703,-4.7318066915,-7.5206414318,28
108484,214592,216460,-4.242474469799999,-4.5044885445,-7.4021967130999995,29
108643,214605,216488,-4.3334017286,-4.7066820542,-7.539784012599999,30
108734,214595,216502,-4.1503507997,-4.6923251185999995,-7.6091758679999995,31
108866,214648,216478,-4.1922251952,-4.6145583840999995,-7.5517481256,32
109002,214653,216501,-4.3046878574,-4.7042892316,-7.5134629639999995,33
109030,214654,216518,-4.2496529376,-4.7174497559,-7.5206414318,34
108876,214674,216506,-4.1192441059,-4.6755753604,-7.5517481256,35
108487,214603,216479,-4.2520457602,-4.4949172541,-7.5900332872,36
108107,214486,216443,-4.3692940676,-4.6672004813,-7.5349983674,37
107778,214499,216454,-4.199403663,-4.6803610056,-7.4356962295,38
107717,214502,216447,-4.2305103568,-4.5762732225,-7.4010003018,39
107626,214486,216426,-4.1730826144,-4.5918265694,-7.5481588917,40
107519,214485,216449,-4.2891345105,-4.6492543118,-7.511070141399999,41
107654,214497,216429,-4.1120656381,-4.6468614892,-7.5637122386,42
107758,214479,216420,-4.2568314054,-4.6923251185999995,-7.5541409482,43
107765,214466,216406,-4.2687955184,-4.6301117309999995,-7.4871419154,44
107747,214501,216426,-4.0941194686,-4.7306102802,-7.573283529,45
107804,214561,216430,-4.271188340999999,-4.4877387863000004,-7.570890706399999,46
107740,214545,216418,-4.2006000743,-4.6193440293,-7.5278198996,47
107886,214579,216465,-4.163511324,-4.5966122146,-7.5062844962,48
107882,214551,216427,-4.1850467274,-4.6396830214,-7.5445696578,49
108021,214534,216450,-4.199403663,-4.4997028993,-7.5505517143,50
108108,214561,216430,-4.2077785421,-4.677968183,-7.5445696578,51
108209,214529,216437,-4.1694933805000005,-4.5846481016,-7.53739119,52
108315,214497,216483,-4.0965122912,-4.7270210463,-7.5804619967999995,53
108438,214595,216450,-4.2879380992,-4.6528435457,-7.5541409482,54
108593,214649,216507,-4.3022950348,-4.5068813671,-7.568497883799999,55
108663,214527,216471,-4.1419759206,-4.5786660451,-7.5074809075,56
108777,214623,216471,-4.1659041466,-4.4446679795,-7.5349983674,57
108876,214650,216492,-4.2520457602,-4.589433746799999,-7.561319416,58
108801,214650,216451,-4.1671005579,-4.560719875599999,-7.6426753844,59
108381,214589,216450,-4.2065821308,-4.589433746799999,-7.5505517143,60
107998,214585,216435,-4.3286160834,-4.4805603185,-7.489534738000001,61
107588,214511,216440,-4.151547211,-4.5332024157,-7.4907311493,62
107501,214487,216455,-4.0342989036,-4.54636294,-7.5900332872,63
107379,214476,216379,-4.1240297511,-4.4709890281,-7.514659375300001,64
107329,214471,216428,-4.1611185014,-4.570291166,-7.5589265934,65
107333,214490,216392,-4.1766718483,-4.6564327796,-7.530212722199999,66
107376,214463,216411,-4.2221354777,-4.5320060043999995,-7.543373246500001,67
107502,214557,216381,-4.1180476945999995,-4.606183505,-7.556533770800001,68
107556,214494,216419,-4.1778682596,-4.6301117309999995,-7.4931239719,69
107567,214503,216411,-4.1671005579,-4.6002014485,-7.5338019561000005,70
107626,214558,216458,-4.2257247116,-4.618147618,-7.5026952623000005,71
107686,214513,216429,-4.2257247116,-4.5667019321,-7.457231632899999,72
107641,214534,216426,-4.2544385828,-4.6468614892,-7.5661050612,73
107875,214546,216405,-4.2209390664,-4.609772738899999,-7.5469624804,74
107929,214543,216437,-4.1814574935,-4.5439701174,-7.5756763516,75
108042,214547,216416,-4.1706897918,-4.6013978598,-7.4943203832,76
108214,214622,216471,-4.354937132,-4.522434714,-7.5314091335,77
108272,214565,216459,-4.2783668087999995,-4.5655055207999995,-7.5170521979,78
108397,214510,216455,-4.2388852359,-4.5786660451,-7.5780691741999995,79
108561,214636,216432,-4.3010986235,-4.6301117309999995,-7.526623488299999,80
108687,214697,216484,-4.1922251952,-4.4781674959,-7.6019974002,81
108774,214651,216495,-4.2257247116,-4.5236311253,-7.5122665527,82
108875,214673,216489,-4.3345981399,-4.5834516903,-7.539784012599999,83
109057,214667,216496,-4.2209390664,-4.713860522,-7.5242306657,84
109185,214647,216525,-4.092923057299999,-4.54636294,-7.6043902228,85
109314,214639,216523,-4.2041893082,-4.5810588676999995,-7.5589265934,86
109402,214717,216512,-4.1946180178,-4.7593241513999995,-7.4428746973,87
109323,214725,216533,-4.097708702499999,-4.6085763276,-7.568497883799999,88
108990,214656,216483,-4.208974953399999,-4.558327053,-7.526623488299999,89
108555,214604,216502,-4.1647077353,-4.6444686666,-7.6139615132000005,90
108215,214597,216452,-4.2065821308,-4.5559342304,-7.5637122386,91
108006,214546,216440,-4.295116567,-4.5403808835,-7.5003024396999995,92
107884,214439,216467,-4.2568314054,-4.4937208428,-7.5756763516,93
107841,214554,216463,-4.1694933805000005,-4.654039957,-7.4835526815,94
107848,214546,216444,-4.139583098,-4.5667019321,-7.4931239719,95
107895,214564,216464,-4.1802610821999995,-4.6133619728,-7.5218378431,96
107995,214528,216425,-4.097708702499999,-4.6109691502,-7.585247642000001,97
108045,214553,216453,-4.2520457602,-4.6348973762,-7.5828548194,98
107962,214545,216425,-4.2903309218,-4.5667019321,-7.5026952623000005,99
108015,214610,216451,-4.2412780585,-4.5499521739,-7.511070141399999,100
108086,214591,216454,-4.1886359613,-4.5619162869,-7.5577301821,101
108115,214555,216448,-4.1252261624,-4.5870409242,-7.5876404646,102
108207,214546,216466,-4.151547211,-4.5451665287,-7.6055866341,103
108298,214568,216468,-4.2161534212,-4.6887358847,-7.6091758679999995,104
108408,214617,216466,-4.18743955,-4.6121655615,-7.6043902228,105
108539,214658,216465,-4.2329031794,-4.6528435457,-7.5828548194,106
108622,214653,216478,-4.3226340269,-4.5966122146,-7.488338326699999,107
108681,214633,216507,-4.2520457602,-4.6707897152,-7.5290163108999995,108
108798,214641,216500,-4.2400816472,-4.5906301581,-7.530212722199999,109
108962,214686,216517,-4.1240297511,-4.713860522,-7.5003024396999995,110
109063,214694,216513,-4.18743955,-4.5571306417,-7.542176835199999,111
109198,214682,216513,-4.208974953399999,-4.558327053,-7.5218378431,112
109289,214704,216547,-4.1359938641000005,-4.5451665287,-7.5445696578,113
109421,214681,216518,-4.2879380992,-4.5966122146,-7.5637122386,114
109507,214726,216556,-4.242474469799999,-4.6612184248,-7.5517481256,115
109559,214722,216570,-4.1096728155,-4.5882373355,-7.501498850999999,116
109327,214717,216576,-4.140779509300001,-4.594219392,-7.5074809075,117
108941,214656,216523,-4.320241204299999,-4.6348973762,-7.505088084900001,118
108573,214606,216510,-4.139583098,-4.5918265694,-7.556533770800001,119
108301,214586,216503,-4.247260115,-4.6157547954,-7.501498850999999,120
108146,214571,216473,-4.18743955,-4.6277189084,-7.542176835199999,121
108095,214543,216506,-4.223331889,-4.4638105603,-7.585247642000001,122
108114,214542,216452,-4.2400816472,-4.7294138689,-7.5517481256,123
108171,214561,216444,-4.259224228,-4.534398827,-7.5828548194,124
108164,214555,216459,-4.2795632201,-4.7605205627,-7.447660342499999,125
108210,214527,216455,-4.1802610821999995,-4.5966122146,-7.5074809075,126
108204,214528,216485,-4.2329031794,-4.6564327796,-7.501498850999999,127
108162,214524,216451,-4.3022950348,-4.5439701174,-7.4907311493,128
108196,214550,216476,-4.2664026958,-4.5379880609,-7.5326055448,129
108249,214570,216492,-4.2317067681000005,-4.618147618,-7.525427077,130
108295,214588,216450,-4.2544385828,-4.5690947547,-7.597211754999999,131
108366,214541,216489,-4.2867416879,-4.4303110439,-7.4548388103,132
108441,214554,216470,-4.139583098,-4.6444686666,-7.6043902228,133
108533,214593,216489,-4.1910287839,-4.5355952383,-7.6474610296,134
108639,214568,216507,-4.1144584607,-4.589433746799999,-7.485945504099999,135
108722,214583,216482,-4.2664026958,-4.5391844722,-7.5206414318,136
108838,214632,216485,-4.2161534212,-4.5631126982,-7.5122665527,137
108947,214655,216495,-4.0522450731,-4.6037906824000006,-7.5338019561000005,138
109031,214638,216483,-4.139583098,-4.5990050372,-7.5637122386,139
109045,214639,216491,-4.1946180178,-4.6947179412,-7.501498850999999,140
109174,214672,216481,-4.1001015251,-4.6516471344,-7.5780691741999995,141
108857,214580,216511,-4.1850467274,-4.6348973762,-7.5409804239,142
108327,214535,216465,-4.127618985,-4.582255279,-7.585247642000001,143
108053,214526,216423,-4.1790646709,-4.6133619728,-7.6091758679999995,144
107798,214450,216428,-4.2305103568,-4.6815574169,-7.4823562701999995,145
107612,214427,216425,-4.2017964856,-4.6612184248,-7.5541409482,146
107549,214445,216405,-4.1539400336,-4.6947179412,-7.6773713121,147
107511,214410,216418,-4.2520457602,-4.6660040700000005,-7.6091758679999995,148
107536,214456,216436,-4.2448672924,-4.5870409242,-7.6283184488,149
107600,214477,216399,-4.2185462438,-4.5451665287,-7.556533770800001,150
107676,214465,216414,-4.1826539048,-4.7162533446,-7.5469624804,151
107708,214493,216406,-4.1850467274,-4.6576291909,-7.4524459877,152
107730,214479,216409,-4.1419759206,-4.5547378191000005,-7.4931239719,153
107697,214461,216385,-4.2867416879,-4.560719875599999,-7.526623488299999,154
107762,214434,216425,-4.0737804765,-4.5798624564,-7.621139981,155
107842,214451,216435,-4.0737804765,-4.5798624564,-7.621139981,156
107937,214500,216407,-4.0737804765,-4.5798624564,-7.621139981,157
108033,214505,216430,-4.0737804765,-4.5798624564,-7.621139981,158
108139,214487,216466,-4.0737804765,-4.5798624564,-7.621139981,159
108247,214512,216442,-4.0737804765,-4.5798624564,-7.621139981,160
108358,214554,216437,-4.0737804765,-4.5798624564,-7.621139981,161
108473,214537,216466,-4.0737804765,-4.5798624564,-7.621139981,162
108591,214564,216455,-4.0737804765,-4.5798624564,-7.621139981,163
108727,214589,216463,-4.1850467274,-4.6588256022,-7.4715885685,164
108879,214605,216517,-4.0881374121,-4.5858445129,-7.6187471584,165
108972,214629,216509,-4.235296002,-4.5918265694,-7.5577301821,166
109109,214617,216494,-4.235296002,-4.5918265694,-7.5577301821,167
109240,214641,216470,-4.235296002,-4.5918265694,-7.5577301821,168
109358,214650,216529,-4.235296002,-4.5918265694,-7.5577301821,169
109421,214680,216503,-4.235296002,-4.5918265694,-7.5577301821,170
109255,214603,216545,-4.235296002,-4.5918265694,-7.5577301821,171
108869,214599,216523,-4.235296002,-4.5918265694,-7.5577301821,172
108474,214541,216479,-4.235296002,-4.5918265694,-7.5577301821,173
108179,214523,216468,-4.235296002,-4.5918265694,-7.5577301821,174
108010,214495,216470,-4.235296002,-4.5918265694,-7.5577301821,175
107899,214514,216470,-4.235296002,-4.5918265694,-7.5577301821,176
107849,214459,216444,-4.1886359613,-4.6875394734,-7.612765101899999,177
107862,214469,216436,-4.1886359613,-4.6875394734,-7.612765101899999,178
107901,214435,216476,-4.1886359613,-4.6875394734,-7.612765101899999,179
107955,214478,216458,-4.1886359613,-4.6875394734,-7.612765101899999,180
107974,214444,216466,-4.1886359613,-4.6875394734,-7.612765101899999,181
107986,214490,216492,-4.1886359613,-4.6875394734,-7.612765101899999,182
108012,214480,216450,-4.1886359613,-4.6875394734,-7.612765101899999,183
108052,214506,216458,-4.1886359613,-4.6875394734,-7.612765101899999,184
108133,214528,216489,-4.1886359613,-4.6875394734,-7.612765101899999,185
108204,214497,216478,-4.1886359613,-4.6875394734,-7.612765101899999,186
108305,214546,216494,-4.1886359613,-4.6875394734,-7.612765101899999,187
108406,214531,216498,-4.1886359613,-4.6875394734,-7.612765101899999,188
108520,214529,216466,-4.1886359613,-4.6875394734,-7.612765101899999,189
108618,214544,216504,-4.1886359613,-4.6875394734,-7.612765101899999,190
108725,214587,216527,-4.1886359613,-4.6875394734,-7.612765101899999,191
108838,214629,216524,-4.1886359613,-4.6875394734,-7.612765101899999,192
108955,214623,216529,-4.1886359613,-4.6875394734,-7.612765101899999,193
109083,214619,216510,-4.1886359613,-4.6875394734,-7.612765101899999,194
109191,214663,216557,-4.1886359613,-4.6875394734,-7.612765101899999,195
109287,214672,216542,-4.1886359613,-4.6875394734,-7.612765101899999,196
109418,214647,216548,-4.139583098,-4.6612184248,-7.5649086499,197
109494,214699,216577,-4.139583098,-4.6612184248,-7.5649086499,198
109381,214642,216557,-4.139583098,-4.6612184248,-7.5649086499,199
109033,214592,216561,-4.139583098,-4.6612184248,-7.5649086499,200
108644,214526,216534,-4.139583098,-4.6612184248,-7.5649086499,201
108387,214505,216508,-4.139583098,-4.6612184248,-7.5649086499,202
108202,214500,216479,-4.1575292675,-4.6277189084,-7.530212722199999,203
108103,214517,216485,-4.1575292675,-4.6277189084,-7.530212722199999,204
108067,214492,216484,-4.1575292675,-4.6277189084,-7.530212722199999,205
108085,214487,216486,-4.1575292675,-4.6277189084,-7.530212722199999,206
108138,214495,216497,-4.1575292675,-4.6277189084,-7.530212722199999,207
108187,214487,216490,-4.1575292675,-4.6277189084,-7.530212722199999,208
108202,214490,216470,-4.1575292675,-4.6277189084,-7.530212722199999,209
108199,214478,216454,-4.1575292675,-4.6277189084,-7.530212722199999,210
108198,214496,216476,-4.1575292675,-4.6277189084,-7.530212722199999,211
108233,214516,216498,-4.1575292675,-4.6277189084,-7.530212722199999,212
108278,214514,216489,-4.1575292675,-4.6277189084,-7.530212722199999,213
108360,214499,216491,-4.1575292675,-4.6277189084,-7.530212722199999,214
108452,214521,216498,-4.1575292675,-4.6277189084,-7.530212722199999,215
108515,214523,216469,-4.2161534212,-4.5116670123,-7.473981391100001,216
108620,214546,216487,-4.2161534212,-4.5116670123,-7.473981391100001,217
108712,214576,216498,-4.2161534212,-4.5116670123,-7.473981391100001,218
108833,214538,216494,-4.2161534212,-4.5116670123,-7.473981391100001,219
108922,214580,216519,-4.2161534212,-4.5116670123,-7.473981391100001,220
109032,214617,216501,-4.2161534212,-4.5116670123,-7.473981391100001,221
109129,214620,216546,-4.2161534212,-4.5116670123,-7.473981391100001,222
109048,214644,216507,-4.2161534212,-4.5116670123,-7.473981391100001,223
108715,214564,216499,-4.2161534212,-4.5116670123,-7.473981391100001,224
108304,214504,216509,-4.2161534212,-4.5116670123,-7.473981391100001,225
107975,214468,216441,-4.2161534212,-4.5116670123,-7.473981391100001,226
107758,214446,216423,-4.2161534212,-4.5116670123,-7.473981391100001,227
107609,214418,216409,-4.2161534212,-4.5116670123,-7.473981391100001,228
107518,214390,216394,-4.2161534212,-4.5116670123,-7.473981391100001,229
107509,214425,216407,-4.2161534212,-4.5116670123,-7.473981391100001,230
107536,214402,216387,-4.2161534212,-4.5116670123,-7.473981391100001,231
107616,214456,216416,-4.2161534212,-4.5116670123,-7.473981391100001,232
107650,214417,216436,-4.2161534212,-4.5116670123,-7.473981391100001,233
107664,214443,216386,-4.2161534212,-4.5116670123,-7.473981391100001,234
107701,214451,216442,-4.2161534212,-4.5116670123,-7.473981391100001,235
107712,214455,216425,-4.2161534212,-4.5116670123,-7.473981391100001,236
107790,214456,216435,-4.2161534212,-4.5116670123,-7.473981391100001,237
107880,214420,216422,-4.2161534212,-4.5116670123,-7.473981391100001,238
107950,214445,216433,-4.2161534212,-4.5116670123,-7.473981391100001,239
108077,214509,216458,-4.2161534212,-4.5116670123,-7.473981391100001,240
108176,214483,216446,-4.2161534212,-4.5116670123,-7.473981391100001,241
108311,214536,216465,-4.2161534212,-4.5116670123,-7.473981391100001,242
108394,214533,216440,-4.2161534212,-4.5116670123,-7.473981391100001,243
108522,214543,216454,-4.2161534212,-4.5116670123,-7.473981391100001,244
108646,214556,216420,-4.2161534212,-4.5116670123,-7.473981391100001,245
108749,214583,216455,-4.2161534212,-4.5116670123,-7.473981391100001,246
108863,214597,216491,-4.2161534212,-4.5116670123,-7.473981391100001,247
108998,214628,216493,-4.2161534212,-4.5116670123,-7.473981391100001,248
109130,214627,216502,-4.2161534212,-4.5116670123,-7.473981391100001,249
109201,214641,216491,-4.2161534212,-4.5116670123,-7.473981391100001,250
109127,214595,216486,-4.2161534212,-4.5116670123,-7.473981391100001,251
108803,214556,216485,-4.2161534212,-4.5116670123,-7.473981391100001,252
108380,214513,216477,-4.2161534212,-4.5116670123,-7.473981391100001,253
108021,214493,216436,-4.2161534212,-4.5116670123,-7.473981391100001,254
107812,214456,216404,-4.2161534212,-4.5116670123,-7.473981391100001,255
107646,214437,216412,-4.2053857195,-4.6564327796,-7.6749784895,256
107563,214416,216374,-4.2053857195,-4.6564327796,-7.6749784895,257
107530,214413,216410,-4.2053857195,-4.6564327796,-7.6749784895,258
107587,214394,216368,-4.2053857195,-4.6564327796,-7.6749784895,259
107631,214385,216353,-4.2053857195,-4.6564327796,-7.6749784895,260
107650,214418,216377,-4.2053857195,-4.6564327796,-7.6749784895,261
107662,214474,216404,-4.2053857195,-4.6564327796,-7.6749784895,262
107685,214421,216376,-4.2053857195,-4.6564327796,-7.6749784895,263
107698,214405,216417,-4.2053857195,-4.6564327796,-7.6749784895,264
107759,214451,216396,-4.2053857195,-4.6564327796,-7.6749784895,265
107825,214429,216389,-4.2053857195,-4.6564327796,-7.6749784895,266
107910,214463,216396,-4.2053857195,-4.6564327796,-7.6749784895,267
108008,214481,216399,-4.2053857195,-4.6564327796,-7.6749784895,268
108099,214487,216365,-4.2053857195,-4.6564327796,-7.6749784895,269
108216,214532,216406,-4.2053857195,-4.6564327796,-7.6749784895,270
108320,214520,216418,-4.2053857195,-4.6564327796,-7.6749784895,271
108433,214534,216450,-4.2053857195,-4.6564327796,-7.6749784895,272
108554,214551,216431,-4.2053857195,-4.6564327796,-7.6749784895,273
108666,214561,216408,-4.2053857195,-4.6564327796,-7.6749784895,274
108779,214579,216482,-4.2053857195,-4.6564327796,-7.6749784895,275
108883,214584,216501,-4.2053857195,-4.6564327796,-7.6749784895,276
109008,214601,216507,-4.2053857195,-4.6564327796,-7.6749784895,277
109103,214632,216504,-4.2053857195,-4.6564327796,-7.6749784895,278
109044,214611,216479,-4.2053857195,-4.6564327796,-7.6749784895,279
108759,214550,216435,-4.2053857195,-4.6564327796,-7.6749784895,280
108349,214479,216411,-4.2053857195,-4.6564327796,-7.6749784895,281
108009,214485,216442,-4.2053857195,-4.6564327796,-7.6749784895,282
107803,214447,216424,-4.2053857195,-4.6564327796,-7.6749784895,283
107681,214434,216373,-4.2053857195,-4.6564327796,-7.6749784895,284
107602,214404,216346,-4.2053857195,-4.6564327796,-7.6749784895,285
107590,214390,216398,-4.2053857195,-4.6564327796,-7.6749784895,286
107605,214445,216352,-4.2053857195,-4.6564327796,-7.6749784895,287
107657,214414,216383,-4.2053857195,-4.6564327796,-7.6749784895,288
107675,214440,216349,-4.2053857195,-4.6564327796,-7.6749784895,289
107679,214383,216329,-4.2053857195,-4.6564327796,-7.6749784895,290
107657,214462,216336,-4.2053857195,-4.6564327796,-7.6749784895,291
107680,214444,216305,-4.2053857195,-4.6564327796,-7.6749784895,292
107712,214456,216356,-4.2053857195,-4.6564327796,-7.6749784895,293
107780,214438,216348,-4.2053857195,-4.6564327796,-7.6749784895,294
107845,214462,216354,-4.2053857195,-4.6564327796,-7.6749784895,295
107935,214463,216334,-4.2053857195,-4.6564327796,-7.6749784895,296
108029,214486,216361,-4.2053857195,-4.6564327796,-7.6749784895,297
107198,214315,216278,-4.2269211229,-4.6588256022,-7.5661050612,298
107096,214331,216290,-4.2269211229,-4.6588256022,-7.5661050612,299
107063,214306,216287,-4.2269211229,-4.6588256022,-7.5661050612,300
107108,214300,216258,-4.2269211229,-4.6588256022,-7.5661050612,301
107160,214327,216271,-4.2269211229,-4.6588256022,-7.5661050612,302
107225,214352,216276,-4.2269211229,-4.6588256022,-7.5661050612,303
107266,214352,216263,-4.2269211229,-4.6588256022,-7.5661050612,304
107302,214373,216291,-4.2269211229,-4.6588256022,-7.5661050612,305
107331,214373,216239,-4.2269211229,-4.6588256022,-7.5661050612,306
107422,214382,216266,-4.2269211229,-4.6588256022,-7.5661050612,307
107494,214402,216290,-4.2269211229,-4.6588256022,-7.5661050612,308
107595,214415,216319,-4.2269211229,-4.6588256022,-7.5661050612,309
107699,214423,216318,-4.2269211229,-4.6588256022,-7.5661050612,310
107838,214449,216301,-4.2269211229,-4.6588256022,-7.5661050612,311
107952,214449,216327,-4.2269211229,-4.6588256022,-7.5661050612,312
108086,214461,216289,-4.2269211229,-4.6588256022,-7.5661050612,313
108205,214486,216348,-4.2269211229,-4.6588256022,-7.5661050612,314
108326,214510,216327,-4.2269211229,-4.6588256022,-7.5661050612,315
108453,214534,216340,-4.2269211229,-4.6588256022,-7.5661050612,316
108596,214541,216375,-4.2269211229,-4.6588256022,-7.5661050612,317
108722,214577,216352,-4.2269211229,-4.6588256022,-7.5661050612,318
108861,214552,216354,-4.2269211229,-4.6588256022,-7.5661050612,319
108987,214588,216405,-4.2269211229,-4.6588256022,-7.5661050612,320
109107,214623,216377,-4.2269211229,-4.6588256022,-7.5661050612,321
109203,214600,216386,-4.2269211229,-4.6588256022,-7.5661050612,322
109126,214601,216427,-4.2269211229,-4.6588256022,-7.5661050612,323
108802,214533,216368,-4.2269211229,-4.6588256022,-7.5661050612,324
108430,214484,216323,-4.2269211229,-4.6588256022,-7.5661050612,325
108148,214463,216334,-4.2269211229,-4.6588256022,-7.5661050612,326
107968,214421,216314,-4.2269211229,-4.6588256022,-7.5661050612,327
107844,214416,216291,-4.2269211229,-4.6588256022,-7.5661050612,328
107785,214425,216291,-4.2269211229,-4.6588256022,-7.5661050612,329
107796,214434,216268,-4.2269211229,-4.6588256022,-7.5661050612,330
107832,214419,216329,-4.2269211229,-4.6588256022,-7.5661050612,331
107909,214414,216287,-4.2269211229,-4.6588256022,-7.5661050612,332
107948,214449,216323,-4.2269211229,-4.6588256022,-7.5661050612,333
107982,214431,216300,-4.2269211229,-4.6588256022,-7.5661050612,334
108005,214472,216290,-4.2269211229,-4.6588256022,-7.5661050612,335
108052,214468,216295,-4.2269211229,-4.6588256022,-7.5661050612,336
108094,214479,216330,-4.2269211229,-4.6588256022,-7.5661050612,337
108190,214447,216328,-4.2269211229,-4.6588256022,-7.5661050612,338
108274,214487,216315,-4.2269211229,-4.6588256022,-7.5661050612,339
109523,214653,216400,-4.0749768878,-4.5655055207999995,-7.5481588917,340
109317,214603,216439,-4.0749768878,-4.5655055207999995,-7.5481588917,341
108966,214572,216321,-4.0749768878,-4.5655055207999995,-7.5481588917,342
108596,214490,216358,-4.0749768878,-4.5655055207999995,-7.5481588917,343
108406,214483,216312,-4.0749768878,-4.5655055207999995,-7.5481588917,344
108253,214428,216314,-4.0749768878,-4.5655055207999995,-7.5481588917,345
108173,214425,216289,-4.0749768878,-4.5655055207999995,-7.5481588917,346
108172,214442,216295,-4.0749768878,-4.5655055207999995,-7.5481588917,347
108167,214435,216281,-4.0749768878,-4.5655055207999995,-7.5481588917,348
108241,214469,216296,-4.0749768878,-4.5655055207999995,-7.5481588917,349
108273,214484,216303,-4.0749768878,-4.5655055207999995,-7.5481588917,350
108266,214456,216301,-4.0749768878,-4.5655055207999995,-7.5481588917,351
108276,214480,216281,-4.0749768878,-4.5655055207999995,-7.5481588917,352
108302,214480,216279,-4.0749768878,-4.5655055207999995,-7.5481588917,353
108332,214472,216290,-4.0749768878,-4.5655055207999995,-7.5481588917,354
108414,214495,216299,-4.0749768878,-4.5655055207999995,-7.5481588917,355
108494,214511,216333,-4.0749768878,-4.5655055207999995,-7.5481588917,356
108584,214486,216340,-4.0749768878,-4.5655055207999995,-7.5481588917,357
108658,214552,216314,-4.0749768878,-4.5655055207999995,-7.5481588917,358
108778,214541,216294,-4.0749768878,-4.5655055207999995,-7.5481588917,359
108887,214580,216286,-4.0749768878,-4.5655055207999995,-7.5481588917,360
108979,214547,216327,-4.0749768878,-4.5655055207999995,-7.5481588917,361
109101,214585,216298,-4.0749768878,-4.5655055207999995,-7.5481588917,362
109204,214597,216355,-4.0749768878,-4.5655055207999995,-7.5481588917,363
109320,214607,216337,-4.0749768878,-4.5655055207999995,-7.5481588917,364
109340,214621,216367,-4.0749768878,-4.5655055207999995,-7.5481588917,365
109148,214576,216358,-4.0749768878,-4.5655055207999995,-7.5481588917,366
108764,214503,216312,-4.0749768878,-4.5655055207999995,-7.5481588917,367
108390,214458,216284,-4.0749768878,-4.5655055207999995,-7.5481588917,368
108121,214419,216297,-4.0749768878,-4.5655055207999995,-7.5481588917,369
107945,214395,216258,-4.0749768878,-4.5655055207999995,-7.5481588917,370
107819,214399,216244,-4.0749768878,-4.5655055207999995,-7.5481588917,371
107784,214383,216242,-4.0749768878,-4.5655055207999995,-7.5481588917,372
107765,214408,216213,-4.0749768878,-4.5655055207999995,-7.5481588917,373
107801,214400,216198,-4.0749768878,-4.5655055207999995,-7.5481588917,374
107866,214430,216219,-4.0749768878,-4.5655055207999995,-7.5481588917,375
107868,214403,216247,-4.0749768878,-4.5655055207999995,-7.5481588917,376
107912,214437,216259,-4.0749768878,-4.5655055207999995,-7.5481588917,377
107928,214454,216237,-4.0749768878,-4.5655055207999995,-7.5481588917,378
107962,214439,216253,-4.0749768878,-4.5655055207999995,-7.5481588917,379
108049,214466,216260,-4.0749768878,-4.5655055207999995,-7.5481588917,380
108126,214463,216270,-4.0749768878,-4.5655055207999995,-7.5481588917,381
108671,214512,216261,-4.2269211229,-4.5750768112,-7.6522466748,382
108785,214538,216316,-4.2269211229,-4.5750768112,-7.6522466748,383
108928,214605,216313,-4.2269211229,-4.5750768112,-7.6522466748,384
109017,214601,216333,-4.2269211229,-4.5750768112,-7.6522466748,385
109154,214604,216354,-4.2269211229,-4.5750768112,-7.6522466748,386
109297,214633,216320,-4.2269211229,-4.5750768112,-7.6522466748,387
109409,214689,216367,-4.2269211229,-4.5750768112,-7.6522466748,388
109531,214647,216329,-4.2269211229,-4.5750768112,-7.6522466748,389
109549,214658,216352,-4.2269211229,-4.5750768112,-7.6522466748,390
109353,214595,216361,-4.2269211229,-4.5750768112,-7.6522466748,391
108959,214545,216315,-4.2269211229,-4.5750768112,-7.6522466748,392
108598,214544,216322,-4.2269211229,-4.5750768112,-7.6522466748,393
108326,214482,216292,-4.2269211229,-4.5750768112,-7.6522466748,394
108130,214452,216242,-4.2269211229,-4.5750768112,-7.6522466748,395
108022,214428,216246,-4.2269211229,-4.5750768112,-7.6522466748,396
107931,214450,216274,-4.2269211229,-4.5750768112,-7.6522466748,397
107943,214455,216250,-4.2269211229,-4.5750768112,-7.6522466748,398
107991,214459,216258,-4.2269211229,-4.5750768112,-7.6522466748,399
108028,214462,216238,-4.2269211229,-4.5750768112,-7.6522466748,400
108024,214471,216245,-4.2269211229,-4.5750768112,-7.6522466748,401
108022,214449,216236,-4.1252261624,-4.5690947547,-7.5948189324,402
108032,214457,216237,-4.1252261624,-4.5690947547,-7.5948189324,403
108091,214427,216255,-4.1252261624,-4.5690947547,-7.5948189324,404
108150,214483,216275,-4.1252261624,-4.5690947547,-7.5948189324,405
108222,214491,216276,-4.1252261624,-4.5690947547,-7.5948189324,406
108286,214502,216255,-4.1252261624,-4.5690947547,-7.5948189324,407
108396,214523,216262,-4.1419759206,-4.5978086259,-7.530212722199999,408
108510,214499,216268,-4.1419759206,-4.5978086259,-7.530212722199999,409
108608,214536,216261,-4.1419759206,-4.5978086259,-7.530212722199999,410
108701,214552,216277,-4.1419759206,-4.5978086259,-7.530212722199999,411
108817,214578,216285,-4.1419759206,-4.5978086259,-7.530212722199999,412
108919,214570,216282,-4.1419759206,-4.5978086259,-7.530212722199999,413
109025,214602,216320,-4.1419759206,-4.5978086259,-7.530212722199999,414
109142,214612,216305,-4.1347974528,-4.5918265694,-7.5984081663000005,415
109264,214666,216338,-4.2687955184,-4.6683968926,-7.5338019561000005,416
109314,214618,216352,-4.1503507997,-4.6396830214,-7.53739119,417
109282,214662,216346,-4.1551364449,-4.5044885445,-7.530212722199999,418
109292,214627,216341,-4.1718862031,-4.4793639072,-7.542176835199999,419
108935,214557,216320,-4.1718862031,-4.4793639072,-7.542176835199999,420
108545,214494,216307,-4.3561335433,-4.7222354011,-7.5158557866,421
108252,214407,216256,-4.2975093896,-4.606183505,-7.5122665527,422
108035,214381,216231,-4.1503507997,-4.5487557626,-7.5062844962,423
107920,214443,216194,-4.2400816472,-4.5930229807,-7.5349983674,424
107859,214430,216173,-4.1527436223,-4.6636112473999995,-7.4500531651,425
107875,214426,216188,-4.2604206393,-4.5882373355,-7.5314091335,426
107936,214457,216222,-4.242474469799999,-4.5858445129,-7.5074809075,427
107937,214434,216166,-4.1922251952,-4.6851466508,-7.568497883799999,428
107940,214460,216212,-4.283152454,-4.6923251185999995,-7.6235328036,429
107954,214376,216220,-4.2305103568,-4.5918265694,-7.6043902228,430
107964,214439,216207,-4.1431723319,-4.5714875773,-7.633104094,431
108005,214479,216218,-4.2257247116,-4.6492543118,-7.5876404646,432
108046,214432,216194,-4.2209390664,-4.5451665287,-7.5756763516,433
108135,214515,216230,-4.1371902754,-4.4949172541,-7.4668029232999995,434
108202,214499,216201,-4.1898323726,-4.6911287073,-7.6163543358,435
108301,214497,216199,-4.139583098,-4.6564327796,-7.5828548194,436
108405,214530,216238,-4.2257247116,-4.5032921331999995,-7.505088084900001,437
108497,214554,216229,-4.1802610821999995,-4.6983071751,-7.5756763516,438
108606,214528,216248,-4.1336010414999995,-4.6624148361,-7.5445696578,439
108718,214599,216201,-3.996013742,-4.6492543118,-7.6103722793,440
108818,214558,216250,-4.0989051138,-4.594219392,-7.606783045399999,441
108932,214607,216275,-4.1383866867,-4.5212383027000005,-7.6091758679999995,442
109041,214587,216291,-4.1479579771,-4.6468614892,-7.625925626199999,443
109135,214628,216252,-4.2640098732,-4.737788748,-7.511070141399999,444
109061,214594,216247,-4.2077785421,-4.5355952383,-7.5804619967999995,445
108754,214563,216211,-4.1718862031,-4.5116670123,-7.6163543358,446
108316,214493,216223,-4.1814574935,-4.6695933039,-7.6091758679999995,447
108009,214378,216219,-4.1970108404,-4.6085763276,-7.5134629639999995,448
107780,214430,216166,-4.1623149127,-4.5798624564,-7.5936225210999995,449
107616,214387,216167,-4.0450666053,-4.3968115275,-7.5637122386,450
107507,214373,216188,-4.1491543884,-4.6707897152,-7.5098737301,451
107485,214386,216179,-4.103690759,-4.5678983434,-7.526623488299999,452
107515,214388,216129,-4.103690759,-4.5678983434,-7.526623488299999,453
107552,214414,216138,-4.103690759,-4.5678983434,-7.526623488299999,454
107594,214362,216173,-4.103690759,-4.5678983434,-7.526623488299999,455
107636,214450,216148,-4.103690759,-4.5678983434,-7.526623488299999,456
107647,214410,216131,-4.103690759,-4.5678983434,-7.526623488299999,457
107692,214420,216194,-4.103690759,-4.5678983434,-7.526623488299999,458
107755,214436,216153,-4.103690759,-4.5678983434,-7.526623488299999,459
107846,214443,216174,-4.103690759,-4.5678983434,-7.526623488299999,460
107936,214470,216181,-4.1838503161,-4.6037906824000006,-7.542176835199999,461
108049,214487,216180,-4.1491543884,-4.705485642899999,-7.5756763516,462
108178,214502,216180,-4.1970108404,-4.6660040700000005,-7.5230342544,463
108314,214495,216193,-4.1970108404,-4.6660040700000005,-7.5230342544,464
108410,214520,216214,-4.1970108404,-4.6660040700000005,-7.5230342544,465
108555,214567,216253,-4.1970108404,-4.6660040700000005,-7.5230342544,466
108699,214563,216225,-4.1970108404,-4.6660040700000005,-7.5230342544,467
108838,214576,216234,-4.1970108404,-4.6660040700000005,-7.5230342544,468
108983,214625,216275,-4.1970108404,-4.6660040700000005,-7.5230342544,469
109093,214604,216254,-4.1970108404,-4.6660040700000005,-7.5230342544,470
109225,214644,216258,-4.1970108404,-4.6660040700000005,-7.5230342544,471
109344,214659,216266,-4.1970108404,-4.6660040700000005,-7.5230342544,472
109457,214641,216289,-4.1970108404,-4.6660040700000005,-7.5230342544,473
109441,214652,216320,-4.1970108404,-4.6660040700000005,-7.5230342544,474
109145,214614,216295,-4.1970108404,-4.6660040700000005,-7.5230342544,475
108794,214545,216248,-4.1970108404,-4.6660040700000005,-7.5230342544,476
108496,214503,216222,-4.1970108404,-4.6660040700000005,-7.5230342544,477
108304,214485,216222,-4.1970108404,-4.6660040700000005,-7.5230342544,478
108210,214473,216171,-4.1970108404,-4.6660040700000005,-7.5230342544,479
108136,214452,216160,-4.1970108404,-4.6660040700000005,-7.5230342544,480
108144,214491,216174,-4.1970108404,-4.6660040700000005,-7.5230342544,481
108175,214446,216170,-4.1970108404,-4.6660040700000005,-7.5230342544,482
108249,214483,216189,-4.1970108404,-4.6660040700000005,-7.5230342544,483
108301,214450,216167,-4.1970108404,-4.6660040700000005,-7.5230342544,484
108327,214508,216202,-4.1970108404,-4.6660040700000005,-7.5230342544,485
108340,214503,216210,-4.1970108404,-4.6660040700000005,-7.5230342544,486
108367,214533,216212,-4.1970108404,-4.6660040700000005,-7.5230342544,487
108436,214501,216188,-4.1970108404,-4.6660040700000005,-7.5230342544,488
108510,214492,216193,-4.1970108404,-4.6660040700000005,-7.5230342544,489
108604,214521,216206,-4.1970108404,-4.6660040700000005,-7.5230342544,490
108697,214557,216212,-4.1970108404,-4.6660040700000005,-7.5230342544,491
108794,214571,216226,-4.1970108404,-4.6660040700000005,-7.5230342544,492
108904,214594,216231,-4.1970108404,-4.6660040700000005,-7.5230342544,493
109033,214598,216248,-4.1970108404,-4.6660040700000005,-7.5230342544,494
109132,214592,216189,-4.1970108404,-4.6660040700000005,-7.5230342544,495
109236,214647,216252,-4.1970108404,-4.6660040700000005,-7.5230342544,496
109378,214639,216273,-4.1970108404,-4.6660040700000005,-7.5230342544,497
109475,214653,216279,-4.1970108404,-4.6660040700000005,-7.5230342544,498
109619,214671,216255,-4.1970108404,-4.6660040700000005,-7.5230342544,499
109690,214661,216267,-4.1970108404,-4.6660040700000005,-7.5230342544,500
109707,214625,216312,-4.1970108404,-4.6660040700000005,-7.5230342544,501
109491,214609,216264,-4.1970108404,-4.6660040700000005,-7.5230342544,502
109154,214589,216238,-4.1970108404,-4.6660040700000005,-7.5230342544,503
108853,214555,216234,-4.1970108404,-4.6660040700000005,-7.5230342544,504
108457,214455,216125,-4.1982072517,-4.5726839886,-7.5206414318,505
108423,214485,216164,-4.1982072517,-4.5726839886,-7.5206414318,506
108459,214495,216158,-4.1982072517,-4.5726839886,-7.5206414318,507
108507,214460,216151,-4.1982072517,-4.5726839886,-7.5206414318,508
108545,214469,216141,-4.1982072517,-4.5726839886,-7.5206414318,509
108556,214516,216166,-4.1982072517,-4.5726839886,-7.5206414318,510
108567,214482,216124,-4.1982072517,-4.5726839886,-7.5206414318,511
108604,214521,216171,-4.1982072517,-4.5726839886,-7.5206414318,512
108635,214529,216174,-4.1982072517,-4.5726839886,-7.5206414318,513
108714,214480,216171,-4.1982072517,-4.5726839886,-7.5206414318,514
108776,214529,216144,-4.1982072517,-4.5726839886,-7.5206414318,515
108857,214563,216192,-4.1982072517,-4.5726839886,-7.5206414318,516
108953,214584,216190,-4.1982072517,-4.5726839886,-7.5206414318,517
109044,214609,216189,-4.1982072517,-4.5726839886,-7.5206414318,518
109151,214579,216178,-4.1982072517,-4.5726839886,-7.5206414318,519
109230,214593,216188,-4.1982072517,-4.5726839886,-7.5206414318,520
109348,214627,216185,-4.1982072517,-4.5726839886,-7.5206414318,521
109434,214621,216181,-4.1982072517,-4.5726839886,-7.5206414318,522
109550,214643,216200,-4.1982072517,-4.5726839886,-7.5206414318,523
109600,214629,216235,-4.1982072517,-4.5726839886,-7.5206414318,524
109460,214606,216205,-4.1982072517,-4.5726839886,-7.5206414318,525
109102,214574,216184,-4.1982072517,-4.5726839886,-7.5206414318,526
108758,214481,216165,-4.1982072517,-4.5726839886,-7.5206414318,527
108501,214444,216110,-4.1982072517,-4.5726839886,-7.5206414318,528
108326,214449,216137,-4.1982072517,-4.5726839886,-7.5206414318,529
108192,214416,216122,-4.1982072517,-4.5726839886,-7.5206414318,530
108107,214426,216096,-4.1982072517,-4.5726839886,-7.5206414318,531
108089,214419,216095,-4.1982072517,-4.5726839886,-7.5206414318,532
108143,214428,216117,-4.1982072517,-4.5726839886,-7.5206414318,533
108193,214431,216074,-4.1982072517,-4.5726839886,-7.5206414318,534
108216,214446,216080,-4.1982072517,-4.5726839886,-7.5206414318,535
108235,214455,216104,-4.1982072517,-4.5726839886,-7.5206414318,536
108260,214464,216134,-4.1982072517,-4.5726839886,-7.5206414318,537
108275,214481,216077,-4.1982072517,-4.5726839886,-7.5206414318,538
108334,214514,216125,-4.1982072517,-4.5726839886,-7.5206414318,539
108429,214506,216114,-4.1982072517,-4.5726839886,-7.5206414318,540
108512,214493,216099,-4.1982072517,-4.5726839886,-7.5206414318,541
108619,214514,216123,-4.1982072517,-4.5726839886,-7.5206414318,542
108700,214550,216144,-4.1982072517,-4.5726839886,-7.5206414318,543
108824,214541,216153,-4.1982072517,-4.5726839886,-7.5206414318,544
108923,214576,216132,-4.1982072517,-4.5726839886,-7.5206414318,545
109015,214594,216172,-4.1982072517,-4.5726839886,-7.5206414318,546
108233,214464,216096,-4.1910287839,-4.5846481016,-7.606783045399999,547
108224,214424,216064,-4.1910287839,-4.5846481016,-7.606783045399999,548
108208,214462,216076,-4.1910287839,-4.5846481016,-7.606783045399999,549
108238,214474,216101,-4.1910287839,-4.5846481016,-7.606783045399999,550
108279,214465,216063,-4.1910287839,-4.5846481016,-7.606783045399999,551
108338,214476,216079,-4.1910287839,-4.5846481016,-7.606783045399999,552
108397,214446,216106,-4.1910287839,-4.5846481016,-7.606783045399999,553
108490,214458,216112,-4.1910287839,-4.5846481016,-7.606783045399999,554
108589,214495,216104,-4.1910287839,-4.5846481016,-7.606783045399999,555
108686,214551,216079,-4.1910287839,-4.5846481016,-7.606783045399999,556
108784,214533,216137,-4.1910287839,-4.5846481016,-7.606783045399999,557
108867,214562,216111,-4.1910287839,-4.5846481016,-7.606783045399999,558
108970,214567,216123,-4.1910287839,-4.5846481016,-7.606783045399999,559
109053,214562,216116,-4.1910287839,-4.5846481016,-7.606783045399999,560
109108,214560,216116,-4.1910287839,-4.5846481016,-7.606783045399999,561
108922,214566,216122,-4.1910287839,-4.5846481016,-7.606783045399999,562
108504,214440,216124,-4.1910287839,-4.5846481016,-7.606783045399999,563
108082,214422,216073,-4.1910287839,-4.5846481016,-7.606783045399999,564
107802,214361,216067,-4.1910287839,-4.5846481016,-7.606783045399999,565
107593,214318,216018,-4.1910287839,-4.5846481016,-7.606783045399999,566
107470,214357,216025,-4.1910287839,-4.5846481016,-7.606783045399999,567
107417,214314,215974,-4.1910287839,-4.5846481016,-7.606783045399999,568
107443,214345,216000,-4.1910287839,-4.5846481016,-7.606783045399999,569
107493,214336,216005,-4.1910287839,-4.5846481016,-7.606783045399999,570
107549,214340,215985,-4.1910287839,-4.5846481016,-7.606783045399999,571
107583,214359,215982,-4.1910287839,-4.5846481016,-7.606783045399999,572
107591,214308,215991,-4.1910287839,-4.5846481016,-7.606783045399999,573
107622,214333,216025,-4.1910287839,-4.5846481016,-7.606783045399999,574
107669,214356,216063,-4.1910287839,-4.5846481016,-7.606783045399999,575
107741,214375,216006,-4.1910287839,-4.5846481016,-7.606783045399999,576
107823,214393,216023,-4.1910287839,-4.5846481016,-7.606783045399999,577
107929,214407,216007,-4.1910287839,-4.5846481016,-7.606783045399999,578
108024,214401,216033,-4.1910287839,-4.5846481016,-7.606783045399999,579
108150,214420,216054,-4.1910287839,-4.5846481016,-7.606783045399999,580
108247,214433,216080,-4.1910287839,-4.5846481016,-7.606783045399999,581
108386,214470,216062,-4.1910287839,-4.5846481016,-7.606783045399999,582
108485,214461,216088,-4.1910287839,-4.5846481016,-7.606783045399999,583
108612,214486,216079,-4.1910287839,-4.5846481016,-7.606783045399999,584
108757,214501,216109,-4.1910287839,-4.5846481016,-7.606783045399999,585
108862,214510,216099,-4.1910287839,-4.5846481016,-7.606783045399999,586
108849,214498,216129,-4.1910287839,-4.5846481016,-7.606783045399999,587
108603,214492,216123,-4.1910287839,-4.5846481016,-7.606783045399999,588
109483,214691,216266,-4.2664026958,-4.6301117309999995,-7.5936225210999995,589
109582,214672,216288,-4.2664026958,-4.6301117309999995,-7.5936225210999995,590
109406,214670,216295,-4.2664026958,-4.6301117309999995,-7.5936225210999995,591
108995,214620,216238,-4.2664026958,-4.6301117309999995,-7.5936225210999995,592
108545,214587,216245,-4.2664026958,-4.6301117309999995,-7.5936225210999995,593
108250,214566,216231,-4.2664026958,-4.6301117309999995,-7.5936225210999995,594
108109,214541,216194,-4.2664026958,-4.6301117309999995,-7.5936225210999995,595
108058,214559,216173,-4.2664026958,-4.6301117309999995,-7.5936225210999995,596
108086,214540,216252,-4.2664026958,-4.6301117309999995,-7.5936225210999995,597
108162,214537,216200,-4.2664026958,-4.6301117309999995,-7.5936225210999995,598
108255,214555,216204,-4.2664026958,-4.6301117309999995,-7.5936225210999995,599
108338,214563,216225,-4.2664026958,-4.6301117309999995,-7.5936225210999995,600
108392,214563,216207,-4.2664026958,-4.6301117309999995,-7.5936225210999995,601
108397,214573,216188,-4.2664026958,-4.6301117309999995,-7.5936225210999995,602
108448,214578,216216,-4.2664026958,-4.6301117309999995,-7.5936225210999995,603
108501,214596,216227,-4.2664026958,-4.6301117309999995,-7.5936225210999995,604
108600,214603,216233,-4.2664026958,-4.6301117309999995,-7.5936225210999995,605
108702,214584,216236,-4.2664026958,-4.6301117309999995,-7.5936225210999995,606
108795,214638,216229,-4.2664026958,-4.6301117309999995,-7.5936225210999995,607
108936,214656,216262,-4.2664026958,-4.6301117309999995,-7.5936225210999995,608
109042,214645,216276,-4.2664026958,-4.6301117309999995,-7.5936225210999995,609
109151,214661,216224,-4.2664026958,-4.6301117309999995,-7.5936225210999995,610
109263,214667,216220,-4.2664026958,-4.6301117309999995,-7.5936225210999995,611
109397,214721,216282,-4.2664026958,-4.6301117309999995,-7.5936225210999995,612
109522,214724,216258,-4.2664026958,-4.6301117309999995,-7.5936225210999995,613
109629,214739,216276,-4.2664026958,-4.6301117309999995,-7.5936225210999995,614
109763,214730,216257,-4.2664026958,-4.6301117309999995,-7.5936225210999995,615
109885,214762,216310,-4.2664026958,-4.6301117309999995,-7.5936225210999995,616
110016,214756,216290,-4.2664026958,-4.6301117309999995,-7.5936225210999995,617
110135,214767,216339,-4.2664026958,-4.6301117309999995,-7.5936225210999995,618
110191,214785,216330,-4.2664026958,-4.6301117309999995,-7.5936225210999995,619
109973,214786,216328,-4.2664026958,-4.6301117309999995,-7.5936225210999995,620
109523,214735,216300,-4.2664026958,-4.6301117309999995,-7.5936225210999995,621
109119,214709,216305,-4.2664026958,-4.6301117309999995,-7.5936225210999995,622
108878,214681,216256,-4.2664026958,-4.6301117309999995,-7.5936225210999995,623
108756,214665,216292,-4.2664026958,-4.6301117309999995,-7.5936225210999995,624
108697,214646,216265,-4.2664026958,-4.6301117309999995,-7.5936225210999995,625
108719,214688,216246,-4.2664026958,-4.6301117309999995,-7.5936225210999995,626
108759,214680,216288,-4.2664026958,-4.6301117309999995,-7.5936225210999995,627
108856,214662,216275,-4.2664026958,-4.6301117309999995,-7.5936225210999995,628
108943,214659,216261,-4.2664026958,-4.6301117309999995,-7.5936225210999995,629
108989,214692,216286,-4.2664026958,-4.6301117309999995,-7.5936225210999995,630
109229,214749,216320,-4.103690759,-4.6564327796,-7.525427077,631
109337,214732,216328,-4.103690759,-4.6564327796,-7.525427077,632
109443,214758,216294,-4.103690759,-4.6564327796,-7.525427077,633
109551,214772,216283,-4.103690759,-4.6564327796,-7.525427077,634
109659,214791,216365,-4.103690759,-4.6564327796,-7.525427077,635
109789,214803,216355,-4.103690759,-4.6564327796,-7.525427077,636
109899,214821,216336,-4.103690759,-4.6564327796,-7.525427077,637
110006,214827,216361,-4.103690759,-4.6564327796,-7.525427077,638
110130,214803,216368,-4.103690759,-4.6564327796,-7.525427077,639
110259,214866,216374,-4.103690759,-4.6564327796,-7.525427077,640
110380,214854,216383,-4.103690759,-4.6564327796,-7.525427077,641
110501,214875,216399,-4.103690759,-4.6564327796,-7.525427077,642
110611,214877,216385,-4.103690759,-4.6564327796,-7.525427077,643
110700,214905,216405,-4.103690759,-4.6564327796,-7.525427077,644
110605,214890,216417,-4.103690759,-4.6564327796,-7.525427077,645
110236,214861,216438,-4.103690759,-4.6564327796,-7.525427077,646
109839,214815,216380,-4.103690759,-4.6564327796,-7.525427077,647
109558,214800,216397,-4.103690759,-4.6564327796,-7.525427077,648
109398,214789,216406,-4.103690759,-4.6564327796,-7.525427077,649
109309,214772,216372,-4.103690759,-4.6564327796,-7.525427077,650
109283,214798,216375,-4.103690759,-4.6564327796,-7.525427077,651
109325,214780,216352,-4.103690759,-4.6564327796,-7.525427077,652
109381,214792,216364,-4.103690759,-4.6564327796,-7.525427077,653
109447,214777,216379,-4.103690759,-4.6564327796,-7.525427077,654
109460,214753,216373,-4.103690759,-4.6564327796,-7.525427077,655
109442,214790,216372,-4.103690759,-4.6564327796,-7.525427077,656
109411,214752,216367,-4.103690759,-4.6564327796,-7.525427077,657
109415,214759,216368,-4.103690759,-4.6564327796,-7.525427077,658
109475,214811,216385,-4.103690759,-4.6564327796,-7.525427077,659
109543,214795,216416,-4.103690759,-4.6564327796,-7.525427077,660
109595,214820,216360,-4.103690759,-4.6564327796,-7.525427077,661
109686,214799,216377,-4.103690759,-4.6564327796,-7.525427077,662
109756,214812,216387,-4.103690759,-4.6564327796,-7.525427077,663
109852,214794,216360,-4.103690759,-4.6564327796,-7.525427077,664
109939,214831,216380,-4.103690759,-4.6564327796,-7.525427077,665
110019,214807,216365,-4.103690759,-4.6564327796,-7.525427077,666
110095,214836,216361,-4.103690759,-4.6564327796,-7.525427077,667
110194,214853,216366,-4.103690759,-4.6564327796,-7.525427077,668
110284,214859,216390,-4.103690759,-4.6564327796,-7.525427077,669
110287,214848,216402,-4.2329031794,-4.6396830214,-7.561319416,670
110028,214861,216413,-4.2329031794,-4.6396830214,-7.561319416,671
109577,214785,216360,-4.2329031794,-4.6396830214,-7.561319416,672
109174,214734,216337,-4.2329031794,-4.6396830214,-7.561319416,673
108909,214692,216345,-4.2329031794,-4.6396830214,-7.561319416,674
108751,214654,216361,-4.2329031794,-4.6396830214,-7.561319416,675
108634,214671,216329,-4.2329031794,-4.6396830214,-7.561319416,676
108603,214695,216281,-4.2329031794,-4.6396830214,-7.561319416,677
108626,214685,216320,-4.2329031794,-4.6396830214,-7.561319416,678
108682,214686,216282,-4.2329031794,-4.6396830214,-7.561319416,679
108707,214697,216306,-4.2329031794,-4.6396830214,-7.561319416,680
108722,214695,216323,-4.2329031794,-4.6396830214,-7.561319416,681
108696,214641,216321,-4.2329031794,-4.6396830214,-7.561319416,682
108727,214668,216316,-4.2329031794,-4.6396830214,-7.561319416,683
108750,214664,216296,-4.2329031794,-4.6396830214,-7.561319416,684
108798,214653,216332,-4.2329031794,-4.6396830214,-7.561319416,685
108873,214708,216326,-4.2329031794,-4.6396830214,-7.561319416,686
108952,214696,216323,-4.2329031794,-4.6396830214,-7.561319416,687
109042,214695,216331,-4.2329031794,-4.6396830214,-7.561319416,688
109130,214708,216342,-4.2329031794,-4.6396830214,-7.561319416,689
109231,214720,216381,-4.2329031794,-4.6396830214,-7.561319416,690
109340,214747,216366,-4.2329031794,-4.6396830214,-7.561319416,691
109426,214739,216356,-4.2329031794,-4.6396830214,-7.561319416,692
109542,214746,216380,-4.2329031794,-4.6396830214,-7.561319416,693
109655,214767,216405,-4.2329031794,-4.6396830214,-7.561319416,694
109750,214750,216397,-4.2329031794,-4.6396830214,-7.561319416,695
109877,214794,216393,-4.2329031794,-4.6396830214,-7.561319416,696
109968,214803,216382,-4.2329031794,-4.6396830214,-7.561319416,697
110036,214783,216393,-4.2329031794,-4.6396830214,-7.561319416,698
109895,214792,216416,-4.2329031794,-4.6396830214,-7.561319416,699
109489,214770,216389,-4.2329031794,-4.6396830214,-7.561319416,700
109087,214692,216382,-4.2329031794,-4.6396830214,-7.561319416,701
108768,214660,216377,-4.2329031794,-4.6396830214,-7.561319416,702
108560,214619,216297,-4.2329031794,-4.6396830214,-7.561319416,703
108446,214599,216307,-4.2329031794,-4.6396830214,-7.561319416,704
108388,214624,216309,-4.2329031794,-4.6396830214,-7.561319416,705
108381,214608,216291,-4.2329031794,-4.6396830214,-7.561319416,706
108430,214625,216320,-4.2329031794,-4.6396830214,-7.561319416,707
108492,214636,216307,-4.2329031794,-4.6396830214,-7.561319416,708
108529,214639,216332,-4.2329031794,-4.6396830214,-7.561319416,709
108521,214627,216321,-4.2329031794,-4.6396830214,-7.561319416,710
108536,214590,216308,-4.2329031794,-4.6396830214,-7.561319416,711
108978,214645,216386,-4.1766718483,-4.6205404406,-7.5290163108999995,712
109108,214686,216400,-4.1766718483,-4.6205404406,-7.5290163108999995,713
109203,214678,216369,-4.1766718483,-4.6205404406,-7.5290163108999995,714
109333,214695,216370,-4.1766718483,-4.6205404406,-7.5290163108999995,715
109479,214722,216383,-4.1766718483,-4.6205404406,-7.5290163108999995,716
109589,214720,216380,-4.1766718483,-4.6205404406,-7.5290163108999995,717
109715,214728,216394,-4.1766718483,-4.6205404406,-7.5290163108999995,718
109824,214767,216395,-4.1766718483,-4.6205404406,-7.5290163108999995,719
109956,214754,216367,-4.1766718483,-4.6205404406,-7.5290163108999995,720
110039,214796,216377,-4.1766718483,-4.6205404406,-7.5290163108999995,721
110054,214809,216369,-4.1766718483,-4.6205404406,-7.5290163108999995,722
109803,214730,216430,-4.1766718483,-4.6205404406,-7.5290163108999995,723
109384,214692,216414,-4.1766718483,-4.6205404406,-7.5290163108999995,724
109034,214676,216372,-4.1766718483,-4.6205404406,-7.5290163108999995,725
108819,214671,216366,-4.1766718483,-4.6205404406,-7.5290163108999995,726
108732,214689,216349,-4.1766718483,-4.6205404406,-7.5290163108999995,727
108695,214632,216327,-4.1766718483,-4.6205404406,-7.5290163108999995,728
108701,214655,216312,-4.1766718483,-4.6205404406,-7.5290163108999995,729
108760,214690,216334,-4.1766718483,-4.6205404406,-7.5290163108999995,730
108852,214696,216373,-4.1766718483,-4.6205404406,-7.5290163108999995,731
108872,214668,216351,-4.1766718483,-4.6205404406,-7.5290163108999995,732
108901,214663,216378,-4.1766718483,-4.6205404406,-7.5290163108999995,733
108899,214651,216353,-4.1766718483,-4.6205404406,-7.5290163108999995,734
108930,214689,216364,-4.1766718483,-4.6205404406,-7.5290163108999995,735
108975,214688,216354,-4.1766718483,-4.6205404406,-7.5290163108999995,736
109041,214675,216363,-4.1766718483,-4.6205404406,-7.5290163108999995,737
109110,214715,216349,-4.1766718483,-4.6205404406,-7.5290163108999995,738
109200,214749,216366,-4.1766718483,-4.6205404406,-7.5290163108999995,739
109286,214732,216361,-4.1766718483,-4.6205404406,-7.5290163108999995,740
109378,214731,216353,-4.1766718483,-4.6205404406,-7.5290163108999995,741
109467,214761,216383,-4.1766718483,-4.6205404406,-7.5290163108999995,742
109570,214713,216372,-4.1766718483,-4.6205404406,-7.5290163108999995,743
109672,214763,216328,-4.1766718483,-4.6205404406,-7.5290163108999995,744
109750,214770,216396,-4.1766718483,-4.6205404406,-7.5290163108999995,745
109866,214786,216384,-4.1766718483,-4.6205404406,-7.5290163108999995,746
109905,214782,216382,-4.1766718483,-4.6205404406,-7.5290163108999995,747
109706,214751,216389,-4.1766718483,-4.6205404406,-7.5290163108999995,748
109311,214726,216338,-4.1766718483,-4.6205404406,-7.5290163108999995,749
108920,214666,216339,-4.1766718483,-4.6205404406,-7.5290163108999995,750
108683,214684,216341,-4.1766718483,-4.6205404406,-7.5290163108999995,751
108545,214689,216278,-4.1766718483,-4.6205404406,-7.5290163108999995,752
108481,214647,216339,-4.1766718483,-4.6205404406,-7.5290163108999995,753
108531,214691,216293,-4.1419759206,-4.5260239479,-7.5517481256,754
108448,214636,216288,-4.1419759206,-4.5260239479,-7.5517481256,755
108396,214678,216303,-4.1419759206,-4.5260239479,-7.5517481256,756
108432,214666,216236,-4.1419759206,-4.5260239479,-7.5517481256,757
108489,214663,216264,-4.1419759206,-4.5260239479,-7.5517481256,758
108544,214680,216259,-4.1419759206,-4.5260239479,-7.5517481256,759
108555,214673,216297,-4.1419759206,-4.5260239479,-7.5517481256,760
108584,214699,216249,-4.1419759206,-4.5260239479,-7.5517481256,761
108594,214715,216268,-4.1419759206,-4.5260239479,-7.5517481256,762
108635,214694,216281,-4.1419759206,-4.5260239479,-7.5517481256,763
108701,214725,216295,-4.1419759206,-4.5260239479,-7.5517481256,764
108779,214711,216285,-4.1419759206,-4.5260239479,-7.5517481256,765
108868,214710,216301,-4.1419759206,-4.5260239479,-7.5517481256,766
108965,214730,216289,-4.235296002,-4.5846481016,-7.5361947787,767
109073,214733,216320,-4.235296002,-4.5846481016,-7.5361947787,768
109204,214740,216321,-4.235296002,-4.5846481016,-7.5361947787,769
109299,214767,216323,-4.235296002,-4.5846481016,-7.5361947787,770
109419,214758,216308,-4.235296002,-4.5846481016,-7.5361947787,771
109520,214782,216320,-4.235296002,-4.5846481016,-7.5361947787,772
109625,214807,216364,-4.2735811636,-4.582255279,-7.606783045399999,773
109735,214812,216348,-4.2735811636,-4.582255279,-7.606783045399999,774
109861,214827,216320,-4.2735811636,-4.582255279,-7.606783045399999,775
109956,214826,216381,-4.2735811636,-4.582255279,-7.606783045399999,776
110055,214853,216355,-4.2735811636,-4.582255279,-7.606783045399999,777
110058,214855,216341,-4.2735811636,-4.582255279,-7.606783045399999,778
109816,214841,216393,-4.2735811636,-4.582255279,-7.606783045399999,779
109433,214756,216327,-4.2735811636,-4.582255279,-7.606783045399999,780
109095,214747,216326,-4.2735811636,-4.582255279,-7.606783045399999,781
108874,214713,216278,-4.2735811636,-4.582255279,-7.606783045399999,782
108759,214705,216318,-4.2735811636,-4.582255279,-7.606783045399999,783
108702,214704,216272,-4.2735811636,-4.582255279,-7.606783045399999,784
108675,214670,216263,-4.2735811636,-4.582255279,-7.606783045399999,785
108704,214668,216301,-4.2735811636,-4.582255279,-7.606783045399999,786
108756,214691,216250,-4.2735811636,-4.582255279,-7.606783045399999,787
108790,214704,216274,-4.2735811636,-4.582255279,-7.606783045399999,788
108758,214687,216274,-4.2735811636,-4.582255279,-7.606783045399999,789
108738,214719,216303,-4.2735811636,-4.582255279,-7.606783045399999,790
108745,214694,216268,-4.2735811636,-4.582255279,-7.606783045399999,791
108769,214691,216278,-4.2735811636,-4.582255279,-7.606783045399999,792
108831,214689,216306,-4.2735811636,-4.582255279,-7.606783045399999,793
108884,214712,216257,-4.2735811636,-4.582255279,-7.606783045399999,794
108952,214708,216302,-4.2735811636,-4.582255279,-7.606783045399999,795
109051,214690,216288,-4.2735811636,-4.582255279,-7.606783045399999,796
109115,214706,216295,-4.2735811636,-4.582255279,-7.606783045399999,797
109182,214702,216270,-4.2735811636,-4.582255279,-7.606783045399999,798
109288,214714,216288,-4.2735811636,-4.582255279,-7.606783045399999,799
109366,214740,216252,-4.2735811636,-4.582255279,-7.606783045399999,800
109462,214754,216273,-4.2735811636,-4.582255279,-7.606783045399999,801
109534,214787,216288,-4.2735811636,-4.582255279,-7.606783045399999,802
109568,214767,216302,-4.2735811636,-4.582255279,-7.606783045399999,803
109324,214738,216254,-4.2735811636,-4.582255279,-7.606783045399999,804
108912,214677,216266,-4.2735811636,-4.582255279,-7.606783045399999,805
108561,214676,216237,-4.1802610821999995,-4.4973100767,-7.5445696578,806
108343,214667,216230,-4.1802610821999995,-4.4973100767,-7.5445696578,807
108207,214622,216210,-4.1802610821999995,-4.4973100767,-7.5445696578,808
108140,214638,216209,-4.1802610821999995,-4.4973100767,-7.5445696578,809
108113,214595,216208,-4.1802610821999995,-4.4973100767,-7.5445696578,810
108151,214612,216216,-4.1802610821999995,-4.4973100767,-7.5445696578,811
108196,214605,216207,-4.1802610821999995,-4.4973100767,-7.5445696578,812
108229,214613,216212,-4.1802610821999995,-4.4973100767,-7.5445696578,813
108256,214623,216229,-4.1802610821999995,-4.4973100767,-7.5445696578,814
108275,214644,216213,-4.1802610821999995,-4.4973100767,-7.5445696578,815
108308,214656,216223,-4.1802610821999995,-4.4973100767,-7.5445696578,816
108365,214624,216201,-4.1802610821999995,-4.4973100767,-7.5445696578,817
108423,214642,216232,-4.1802610821999995,-4.4973100767,-7.5445696578,818
108533,214674,216233,-4.1802610821999995,-4.4973100767,-7.5445696578,819
108647,214672,216217,-4.1802610821999995,-4.4973100767,-7.5445696578,820
108718,214660,216212,-4.1802610821999995,-4.4973100767,-7.5445696578,821
108821,214690,216221,-4.1802610821999995,-4.4973100767,-7.5445696578,822
108927,214697,216259,-4.1802610821999995,-4.4973100767,-7.5445696578,823
109047,214715,216284,-4.1802610821999995,-4.4973100767,-7.5445696578,824
109174,214714,216247,-4.1802610821999995,-4.4973100767,-7.5445696578,825
109284,214766,216257,-4.1802610821999995,-4.4973100767,-7.5445696578,826
109389,214785,216237,-4.1802610821999995,-4.4973100767,-7.5445696578,827
109500,214756,216291,-4.1802610821999995,-4.4973100767,-7.5445696578,828
109618,214787,216308,-4.1802610821999995,-4.4973100767,-7.5445696578,829
109718,214811,216300,-4.1802610821999995,-4.4973100767,-7.5445696578,830
109781,214820,216315,-4.1802610821999995,-4.4973100767,-7.5445696578,831
109633,214774,216272,-4.1802610821999995,-4.4973100767,-7.5445696578,832
109232,214763,216241,-4.1802610821999995,-4.4973100767,-7.5445696578,833
108850,214673,216280,-4.1802610821999995,-4.4973100767,-7.5445696578,834
108564,214668,216293,-4.1802610821999995,-4.4973100767,-7.5445696578,835
108434,214667,216244,-4.1802610821999995,-4.4973100767,-7.5445696578,836
108351,214679,216212,-4.1802610821999995,-4.4973100767,-7.5445696578,837
108303,214643,216212,-4.1802610821999995,-4.4973100767,-7.5445696578,838
108317,214625,216223,-4.1802610821999995,-4.4973100767,-7.5445696578,839
108360,214654,216211,-4.1802610821999995,-4.4973100767,-7.5445696578,840
108440,214645,216229,-4.1802610821999995,-4.4973100767,-7.5445696578,841
108463,214658,216231,-4.1802610821999995,-4.4973100767,-7.5445696578,842
108480,214679,216241,-4.1802610821999995,-4.4973100767,-7.5445696578,843
108513,214668,216243,-4.1802610821999995,-4.4973100767,-7.5445696578,844
108537,214676,216244,-4.1802610821999995,-4.4973100767,-7.5445696578,845
108604,214694,216223,-4.1802610821999995,-4.4973100767,-7.5445696578,846
108701,214678,216251,-4.1802610821999995,-4.4973100767,-7.5445696578,847
108957,214757,216301,-4.0618163635,-4.6707897152,-7.5385876013,848
109003,214748,216278,-4.0618163635,-4.6707897152,-7.5385876013,849
109086,214775,216270,-4.0618163635,-4.6707897152,-7.5385876013,850
109178,214788,216291,-4.0618163635,-4.6707897152,-7.5385876013,851
109211,214803,216294,-4.0618163635,-4.6707897152,-7.5385876013,852
109240,214813,216331,-4.0618163635,-4.6707897152,-7.5385876013,853
109278,214816,216305,-4.0618163635,-4.6707897152,-7.5385876013,854
109305,214809,216337,-4.0618163635,-4.6707897152,-7.5385876013,855
109376,214835,216352,-4.0618163635,-4.6707897152,-7.5385876013,856
109459,214829,216335,-4.0618163635,-4.6707897152,-7.5385876013,857
109548,214820,216314,-4.0618163635,-4.6707897152,-7.5385876013,858
109653,214840,216342,-4.0618163635,-4.6707897152,-7.5385876013,859
109747,214866,216330,-4.0618163635,-4.6707897152,-7.5385876013,860
109839,214888,216368,-4.0618163635,-4.6707897152,-7.5385876013,861
109964,214864,216375,-4.0618163635,-4.6707897152,-7.5385876013,862
110077,214898,216354,-4.0618163635,-4.6707897152,-7.5385876013,863
110181,214914,216366,-4.0618163635,-4.6707897152,-7.5385876013,864
110281,214907,216382,-4.0618163635,-4.6707897152,-7.5385876013,865
110392,214935,216383,-4.0618163635,-4.6707897152,-7.5385876013,866
110421,214918,216374,-4.0618163635,-4.6707897152,-7.5385876013,867
110246,214894,216360,-4.0618163635,-4.6707897152,-7.5385876013,868
109904,214851,216367,-4.0618163635,-4.6707897152,-7.5385876013,869
109593,214841,216311,-4.0618163635,-4.6707897152,-7.5385876013,870
109410,214854,216288,-4.0618163635,-4.6707897152,-7.5385876013,871
109317,214837,216307,-4.0618163635,-4.6707897152,-7.5385876013,872
109279,214820,216277,-4.0618163635,-4.6707897152,-7.5385876013,873
109282,214797,216304,-4.0618163635,-4.6707897152,-7.5385876013,874
109336,214829,216284,-4.0618163635,-4.6707897152,-7.5385876013,875
109412,214860,216313,-4.0618163635,-4.6707897152,-7.5385876013,876
109448,214849,216287,-4.0618163635,-4.6707897152,-7.5385876013,877
109490,214832,216291,-4.0618163635,-4.6707897152,-7.5385876013,878
109509,214831,216240,-4.0618163635,-4.6707897152,-7.5385876013,879
109540,214882,216311,-4.0618163635,-4.6707897152,-7.5385876013,880
109623,214880,216302,-4.0618163635,-4.6707897152,-7.5385876013,881
109685,214852,216303,-4.0618163635,-4.6707897152,-7.5385876013,882
109749,214850,216295,-4.0618163635,-4.6707897152,-7.5385876013,883
109838,214870,216308,-4.0618163635,-4.6707897152,-7.5385876013,884
109951,214901,216297,-4.0618163635,-4.6707897152,-7.5385876013,885
110066,214924,216364,-4.0618163635,-4.6707897152,-7.5385876013,886
110160,214925,216317,-4.0618163635,-4.6707897152,-7.5385876013,887
110266,214930,216329,-4.0618163635,-4.6707897152,-7.5385876013,888
110360,214961,216317,-4.0618163635,-4.6707897152,-7.5385876013,889
109580,214941,216263,-4.1826539048,-4.6468614892,-7.5900332872,890
109667,214948,216280,-4.1826539048,-4.6468614892,-7.5900332872,891
109777,214948,216264,-4.1826539048,-4.6468614892,-7.5900332872,892
109924,214954,216248,-4.1826539048,-4.6468614892,-7.5900332872,893
110014,214995,216261,-4.1826539048,-4.6468614892,-7.5900332872,894
110136,214999,216308,-4.1826539048,-4.6468614892,-7.5900332872,895
110244,215018,216301,-4.1826539048,-4.6468614892,-7.5900332872,896
110341,215002,216287,-4.1826539048,-4.6468614892,-7.5900332872,897
110327,214979,216262,-4.1826539048,-4.6468614892,-7.5900332872,898
110074,214974,216270,-4.1826539048,-4.6468614892,-7.5900332872,899
109645,214911,216229,-4.1826539048,-4.6468614892,-7.5900332872,900
109280,214889,216224,-4.1826539048,-4.6468614892,-7.5900332872,901
109061,214845,216189,-4.1826539048,-4.6468614892,-7.5900332872,902
108957,214871,216176,-4.1826539048,-4.6468614892,-7.5900332872,903
108885,214854,216222,-4.1826539048,-4.6468614892,-7.5900332872,904
108868,214841,216219,-4.1826539048,-4.6468614892,-7.5900332872,905
108927,214861,216185,-4.1826539048,-4.6468614892,-7.5900332872,906
108997,214852,216220,-4.1826539048,-4.6468614892,-7.5900332872,907
109020,214845,216195,-4.1826539048,-4.6468614892,-7.5900332872,908
109017,214831,216161,-4.1826539048,-4.6468614892,-7.5900332872,909
109033,214830,216182,-4.1826539048,-4.6468614892,-7.5900332872,910
109032,214847,216163,-4.1826539048,-4.6468614892,-7.5900332872,911
109065,214841,216206,-4.1826539048,-4.6468614892,-7.5900332872,912
109138,214865,216215,-4.1826539048,-4.6468614892,-7.5900332872,913
109218,214890,216229,-4.1826539048,-4.6468614892,-7.5900332872,914
109285,214885,216216,-4.1826539048,-4.6468614892,-7.5900332872,915
109368,214918,216254,-4.1826539048,-4.6468614892,-7.5900332872,916
109458,214896,216205,-4.1826539048,-4.6468614892,-7.5900332872,917
109583,214936,216217,-4.1826539048,-4.6468614892,-7.5900332872,918
109654,214937,216231,-4.1826539048,-4.6468614892,-7.5900332872,919
109775,214966,216221,-4.1826539048,-4.6468614892,-7.5900332872,920
109860,214965,216243,-4.1826539048,-4.6468614892,-7.5900332872,921
109940,214931,216264,-4.1826539048,-4.6468614892,-7.5900332872,922
110001,214927,216276,-4.1826539048,-4.6468614892,-7.5900332872,923
109851,214925,216272,-4.1826539048,-4.6468614892,-7.5900332872,924
109477,214872,216264,-4.1826539048,-4.6468614892,-7.5900332872,925
109079,214856,216235,-4.1826539048,-4.6468614892,-7.5900332872,926
108845,214783,216174,-4.1826539048,-4.6468614892,-7.5900332872,927
108688,214768,216164,-4.1826539048,-4.6468614892,-7.5900332872,928
108612,214782,216182,-4.1826539048,-4.6468614892,-7.5900332872,929
108576,214764,216135,-4.1826539048,-4.6468614892,-7.5900332872,930
108591,214800,216104,-4.1826539048,-4.6468614892,-7.5900332872,931
108755,214769,216196,-4.1347974528,-4.4961136654,-7.6343005053,932
108780,214745,216175,-4.1347974528,-4.4961136654,-7.6343005053,933
108842,214746,216186,-4.1347974528,-4.4961136654,-7.6343005053,934
108940,214795,216156,-4.1347974528,-4.4961136654,-7.6343005053,935
109030,214811,216150,-4.1347974528,-4.4961136654,-7.6343005053,936
109145,214829,216183,-4.1347974528,-4.4961136654,-7.6343005053,937
109279,214821,216215,-4.1347974528,-4.4961136654,-7.6343005053,938
109376,214836,216183,-4.1347974528,-4.4961136654,-7.6343005053,939
109497,214871,216221,-4.1347974528,-4.4961136654,-7.6343005053,940
109609,214835,216175,-4.1347974528,-4.4961136654,-7.6343005053,941
109742,214881,216236,-4.1347974528,-4.4961136654,-7.6343005053,942
109850,214891,216227,-4.1347974528,-4.4961136654,-7.6343005053,943
109957,214934,216259,-4.1347974528,-4.4961136654,-7.6343005053,944
110076,214907,216211,-4.1347974528,-4.4961136654,-7.6343005053,945
110200,214927,216270,-4.1347974528,-4.4961136654,-7.6343005053,946
110288,214953,216274,-4.1347974528,-4.4961136654,-7.6343005053,947
110294,214899,216275,-4.1347974528,-4.4961136654,-7.6343005053,948
110060,214906,216246,-4.1347974528,-4.4961136654,-7.6343005053,949
109712,214839,216231,-4.1347974528,-4.4961136654,-7.6343005053,950
109423,214820,216206,-4.1347974528,-4.4961136654,-7.6343005053,951
109234,214820,216206,-4.1347974528,-4.4961136654,-7.6343005053,952
109129,214812,216203,-4.1347974528,-4.4961136654,-7.6343005053,953
109060,214765,216216,-4.1347974528,-4.4961136654,-7.6343005053,954
109054,214797,216177,-4.1347974528,-4.4961136654,-7.6343005053,955
109096,214788,216174,-4.1347974528,-4.4961136654,-7.6343005053,956
109159,214770,216192,-4.1347974528,-4.4961136654,-7.6343005053,957
109160,214799,216213,-4.1347974528,-4.4961136654,-7.6343005053,958
109178,214815,216229,-4.1347974528,-4.4961136654,-7.6343005053,959
109165,214798,216209,-4.1347974528,-4.4961136654,-7.6343005053,960
109185,214791,216227,-4.1347974528,-4.4961136654,-7.6343005053,961
109236,214819,216170,-4.1347974528,-4.4961136654,-7.6343005053,962
109294,214835,216206,-4.1347974528,-4.4961136654,-7.6343005053,963
109371,214817,216201,-4.1347974528,-4.4961136654,-7.6343005053,964
109444,214835,216211,-4.1347974528,-4.4961136654,-7.6343005053,965
109530,214845,216244,-4.1347974528,-4.4961136654,-7.6343005053,966
109599,214828,216178,-4.1347974528,-4.4961136654,-7.6343005053,967
109686,214887,216172,-4.1347974528,-4.4961136654,-7.6343005053,968
109780,214877,216217,-4.1347974528,-4.4961136654,-7.6343005053,969
109853,214897,216255,-4.1347974528,-4.4961136654,-7.6343005053,970
109929,214883,216249,-4.1347974528,-4.4961136654,-7.6343005053,971
109896,214852,216217,-4.1347974528,-4.4961136654,-7.6343005053,972
109617,214840,216212,-4.1347974528,-4.4961136654,-7.6343005053,973
110564,214998,216385,-4.0283168471,-4.6109691502,-7.5960153436999995,974
110644,215035,216391,-4.0283168471,-4.6109691502,-7.5960153436999995,975
110745,215043,216362,-4.0283168471,-4.6109691502,-7.5960153436999995,976
110849,215024,216391,-4.0283168471,-4.6109691502,-7.5960153436999995,977
110943,215045,216419,-4.0283168471,-4.6109691502,-7.5960153436999995,978
110982,215022,216417,-4.0283168471,-4.6109691502,-7.5960153436999995,979
110882,215026,216396,-4.0283168471,-4.6109691502,-7.5960153436999995,980
110513,214990,216426,-4.0283168471,-4.6109691502,-7.5960153436999995,981
110118,214938,216366,-4.0283168471,-4.6109691502,-7.5960153436999995,982
109831,214900,216348,-4.0283168471,-4.6109691502,-7.5960153436999995,983
109653,214868,216366,-4.0283168471,-4.6109691502,-7.5960153436999995,984
109579,214886,216349,-4.0283168471,-4.6109691502,-7.5960153436999995,985
109522,214856,216321,-4.0283168471,-4.6109691502,-7.5960153436999995,986
109523,214905,216336,-4.0283168471,-4.6109691502,-7.5960153436999995,987
109582,214880,216348,-4.0283168471,-4.6109691502,-7.5960153436999995,988
109629,214895,216310,-4.0283168471,-4.6109691502,-7.5960153436999995,989
109645,214871,216304,-4.0283168471,-4.6109691502,-7.5960153436999995,990
109644,214914,216330,-4.0283168471,-4.6109691502,-7.5960153436999995,991
109658,214854,216349,-4.0283168471,-4.6109691502,-7.5960153436999995,992
109663,214885,216301,-4.0283168471,-4.6109691502,-7.5960153436999995,993
109698,214876,216340,-4.0283168471,-4.6109691502,-7.5960153436999995,994
109771,214918,216336,-4.0283168471,-4.6109691502,-7.5960153436999995,995
109835,214863,216364,-4.0283168471,-4.6109691502,-7.5960153436999995,996
109921,214907,216323,-4.0283168471,-4.6109691502,-7.5960153436999995,997
110003,214922,216344,-4.0283168471,-4.6109691502,-7.5960153436999995,998
110107,214931,216339,-4.0283168471,-4.6109691502,-7.5960153436999995,999
110193,214932,216371,-4.0283168471,-4.6109691502,-7.5960153436999995,1000
110288,214953,216334,-4.0283168471,-4.6109691502,-7.5960153436999995,1001
110378,214935,216355,-4.0283168471,-4.6109691502,-7.5960153436999995,1002
110490,214946,216331,-4.0283168471,-4.6109691502,-7.5960153436999995,1003
110587,214951,216353,-4.0283168471,-4.6109691502,-7.5960153436999995,1004
110687,215004,216349,-4.0283168471,-4.6109691502,-7.5960153436999995,1005
110779,215002,216415,-4.0283168471,-4.6109691502,-7.5960153436999995,1006
110867,214985,216392,-4.0283168471,-4.6109691502,-7.5960153436999995,1007
110975,215010,216401,-4.0283168471,-4.6109691502,-7.5960153436999995,1008
110942,214982,216408,-4.0283168471,-4.6109691502,-7.5960153436999995,1009
110677,214973,216372,-4.0283168471,-4.6109691502,-7.5960153436999995,1010
110247,214902,216323,-4.0283168471,-4.6109691502,-7.5960153436999995,1011
109862,214877,216325,-4.0283168471,-4.6109691502,-7.5960153436999995,1012
109589,214844,216331,-4.0283168471,-4.6109691502,-7.5960153436999995,1013
109447,214822,216270,-4.0283168471,-4.6109691502,-7.5960153436999995,1014
109352,214816,216314,-4.0283168471,-4.6109691502,-7.5960153436999995,1015
110406,214882,216384,-4.151547211,-4.5260239479,-7.5290163108999995,1016
109957,214822,216373,-4.151547211,-4.5260239479,-7.5290163108999995,1017
109611,214801,216373,-4.151547211,-4.5260239479,-7.5290163108999995,1018
109362,214769,216327,-4.151547211,-4.5260239479,-7.5290163108999995,1019
109231,214742,216329,-4.151547211,-4.5260239479,-7.5290163108999995,1020
109168,214756,216336,-4.151547211,-4.5260239479,-7.5290163108999995,1021
109145,214724,216299,-4.151547211,-4.5260239479,-7.5290163108999995,1022
109192,214779,216303,-4.151547211,-4.5260239479,-7.5290163108999995,1023
109251,214734,216335,-4.151547211,-4.5260239479,-7.5290163108999995,1024
109267,214738,216317,-4.151547211,-4.5260239479,-7.5290163108999995,1025
109245,214751,216317,-4.151547211,-4.5260239479,-7.5290163108999995,1026
109227,214753,216313,-4.151547211,-4.5260239479,-7.5290163108999995,1027
109225,214730,216328,-4.151547211,-4.5260239479,-7.5290163108999995,1028
109242,214748,216346,-4.151547211,-4.5260239479,-7.5290163108999995,1029
109310,214731,216304,-4.151547211,-4.5260239479,-7.5290163108999995,1030
109367,214746,216300,-4.151547211,-4.5260239479,-7.5290163108999995,1031
109452,214762,216325,-4.151547211,-4.5260239479,-7.5290163108999995,1032
109514,214769,216352,-4.151547211,-4.5260239479,-7.5290163108999995,1033
109596,214799,216331,-4.151547211,-4.5260239479,-7.5290163108999995,1034
109681,214789,216325,-4.151547211,-4.5260239479,-7.5290163108999995,1035
109761,214783,216348,-4.151547211,-4.5260239479,-7.5290163108999995,1036
109854,214828,216359,-4.151547211,-4.5260239479,-7.5290163108999995,1037
109959,214795,216337,-4.151547211,-4.5260239479,-7.5290163108999995,1038
110039,214840,216367,-4.151547211,-4.5260239479,-7.5290163108999995,1039
110120,214833,216355,-4.151547211,-4.5260239479,-7.5290163108999995,1040
110187,214818,216361,-4.151547211,-4.5260239479,-7.5290163108999995,1041
110012,214818,216358,-4.151547211,-4.5260239479,-7.5290163108999995,1042
109625,214762,216338,-4.151547211,-4.5260239479,-7.5290163108999995,1043
109193,214700,216347,-4.151547211,-4.5260239479,-7.5290163108999995,1044
108871,214708,216326,-4.151547211,-4.5260239479,-7.5290163108999995,1045
108672,214648,216264,-4.151547211,-4.5260239479,-7.5290163108999995,1046
108571,214648,216306,-4.151547211,-4.5260239479,-7.5290163108999995,1047
108513,214610,216291,-4.151547211,-4.5260239479,-7.5290163108999995,1048
108516,214620,216270,-4.151547211,-4.5260239479,-7.5290163108999995,1049
108579,214636,216295,-4.151547211,-4.5260239479,-7.5290163108999995,1050
108645,214647,216278,-4.151547211,-4.5260239479,-7.5290163108999995,1051
108662,214665,216273,-4.151547211,-4.5260239479,-7.5290163108999995,1052
108660,214659,216255,-4.151547211,-4.5260239479,-7.5290163108999995,1053
108653,214664,216280,-4.151547211,-4.5260239479,-7.5290163108999995,1054
108683,214659,216300,-4.151547211,-4.5260239479,-7.5290163108999995,1055
108739,214654,216298,-4.151547211,-4.5260239479,-7.5290163108999995,1056
108803,214657,216264,-4.151547211,-4.5260239479,-7.5290163108999995,1057
109753,214673,216444,-4.2161534212,-4.6109691502,-7.5385876013,1058
109317,214632,216382,-4.2161534212,-4.6109691502,-7.5385876013,1059
108936,214560,216347,-4.2161534212,-4.6109691502,-7.5385876013,1060
108637,214539,216334,-4.2161534212,-4.6109691502,-7.5385876013,1061
108423,214538,216307,-4.2161534212,-4.6109691502,-7.5385876013,1062
108324,214495,216305,-4.2161534212,-4.6109691502,-7.5385876013,1063
108293,214519,216286,-4.2161534212,-4.6109691502,-7.5385876013,1064
108271,214500,216342,-4.2161534212,-4.6109691502,-7.5385876013,1065
108331,214480,216307,-4.2161534212,-4.6109691502,-7.5385876013,1066
108375,214543,216301,-4.2161534212,-4.6109691502,-7.5385876013,1067
108387,214547,216334,-4.2161534212,-4.6109691502,-7.5385876013,1068
108401,214539,216323,-4.2161534212,-4.6109691502,-7.5385876013,1069
108389,214535,216317,-4.2161534212,-4.6109691502,-7.5385876013,1070
108417,214522,216329,-4.2161534212,-4.6109691502,-7.5385876013,1071
108471,214535,216299,-4.2161534212,-4.6109691502,-7.5385876013,1072
108565,214565,216376,-4.2161534212,-4.6109691502,-7.5385876013,1073
108657,214551,216398,-4.2161534212,-4.6109691502,-7.5385876013,1074
108758,214575,216375,-4.2161534212,-4.6109691502,-7.5385876013,1075
108847,214583,216333,-4.2161534212,-4.6109691502,-7.5385876013,1076
108961,214609,216410,-4.2161534212,-4.6109691502,-7.5385876013,1077
109057,214669,216354,-4.2161534212,-4.6109691502,-7.5385876013,1078
109174,214624,216408,-4.2161534212,-4.6109691502,-7.5385876013,1079
109298,214674,216377,-4.2161534212,-4.6109691502,-7.5385876013,1080
109397,214662,216428,-4.2161534212,-4.6109691502,-7.5385876013,1081
109508,214682,216387,-4.2161534212,-4.6109691502,-7.5385876013,1082
109624,214680,216431,-4.2161534212,-4.6109691502,-7.5385876013,1083
109834,214737,216436,-4.0295132584,-4.5631126982,-7.5696942951,1084
109877,214748,216498,-4.0295132584,-4.5631126982,-7.5696942951,1085
109661,214649,216399,-4.0295132584,-4.5631126982,-7.5696942951,1086
109246,214581,216385,-4.0295132584,-4.5631126982,-7.5696942951,1087
108833,214545,216391,-4.0295132584,-4.5631126982,-7.5696942951,1088
108556,214535,216343,-4.0295132584,-4.5631126982,-7.5696942951,1089
108406,214496,216358,-4.0295132584,-4.5631126982,-7.5696942951,1090
108290,214495,216308,-4.0295132584,-4.5631126982,-7.5696942951,1091
108247,214502,216339,-4.0295132584,-4.5631126982,-7.5696942951,1092
108257,214502,216324,-4.0295132584,-4.5631126982,-7.5696942951,1093
108344,214506,216306,-4.0295132584,-4.5631126982,-7.5696942951,1094
108385,214511,216330,-4.0295132584,-4.5631126982,-7.5696942951,1095
108406,214515,216345,-4.0295132584,-4.5631126982,-7.5696942951,1096
108408,214496,216365,-4.0295132584,-4.5631126982,-7.5696942951,1097
108417,214520,216382,-4.0295132584,-4.5631126982,-7.5696942951,1098
108470,214509,216325,-4.0295132584,-4.5631126982,-7.5696942951,1099
108530,214522,216321,-4.0295132584,-4.5631126982,-7.5696942951,1100
108621,214500,216349,-4.0295132584,-4.5631126982,-7.5696942951,1101
108712,214537,216347,-4.0295132584,-4.5631126982,-7.5696942951,1102
108795,214565,216382,-4.0295132584,-4.5631126982,-7.5696942951,1103
108897,214563,216377,-4.0295132584,-4.5631126982,-7.5696942951,1104
109009,214614,216360,-4.0295132584,-4.5631126982,-7.5696942951,1105
109092,214605,216382,-4.0295132584,-4.5631126982,-7.5696942951,1106
109218,214609,216390,-4.0295132584,-4.5631126982,-7.5696942951,1107
109336,214616,216425,-4.0295132584,-4.5631126982,-7.5696942951,1108
109440,214634,216443,-4.0295132584,-4.5631126982,-7.5696942951,1109
109521,214640,216454,-4.0295132584,-4.5631126982,-7.5696942951,1110
109605,214670,216425,-4.0295132584,-4.5631126982,-7.5696942951,1111
109639,214634,216403,-4.0295132584,-4.5631126982,-7.5696942951,1112
109432,214620,216427,-4.0295132584,-4.5631126982,-7.5696942951,1113
109021,214556,216340,-4.0295132584,-4.5631126982,-7.5696942951,1114
108642,214494,216346,-4.0295132584,-4.5631126982,-7.5696942951,1115
108376,214437,216331,-4.0295132584,-4.5631126982,-7.5696942951,1116
108248,214472,216307,-4.0295132584,-4.5631126982,-7.5696942951,1117
108164,214444,216324,-4.0295132584,-4.5631126982,-7.5696942951,1118
108149,214442,216333,-4.0295132584,-4.5631126982,-7.5696942951,1119
108179,214462,216318,-4.0295132584,-4.5631126982,-7.5696942951,1120
108271,214454,216307,-4.0295132584,-4.5631126982,-7.5696942951,1121
108327,214447,216321,-4.0295132584,-4.5631126982,-7.5696942951,1122
108337,214474,216332,-4.0295132584,-4.5631126982,-7.5696942951,1123
108328,214461,216312,-4.0295132584,-4.5631126982,-7.5696942951,1124
108363,214476,216279,-4.0295132584,-4.5631126982,-7.5696942951,1125
107923,214451,216208,-4.0821553556,-4.6683968926,-7.539784012599999,1126
107924,214450,216234,-4.0821553556,-4.6683968926,-7.539784012599999,1127
107935,214442,216187,-4.0821553556,-4.6683968926,-7.539784012599999,1128
107962,214437,216175,-4.0821553556,-4.6683968926,-7.539784012599999,1129
108014,214469,216239,-4.0821553556,-4.6683968926,-7.539784012599999,1130
108083,214447,216235,-4.0821553556,-4.6683968926,-7.539784012599999,1131
108172,214481,216243,-4.0821553556,-4.6683968926,-7.539784012599999,1132
108270,214487,216243,-4.0821553556,-4.6683968926,-7.539784012599999,1133
108366,214497,216228,-4.0821553556,-4.6683968926,-7.539784012599999,1134
108480,214526,216229,-4.0821553556,-4.6683968926,-7.539784012599999,1135
108557,214526,216218,-4.0821553556,-4.6683968926,-7.539784012599999,1136
108667,214563,216219,-4.0821553556,-4.6683968926,-7.539784012599999,1137
108771,214572,216229,-4.0821553556,-4.6683968926,-7.539784012599999,1138
108836,214581,216254,-4.0821553556,-4.6683968926,-7.539784012599999,1139
108670,214538,216210,-4.0821553556,-4.6683968926,-7.539784012599999,1140
108267,214480,216200,-4.0821553556,-4.6683968926,-7.539784012599999,1141
107841,214427,216168,-4.0821553556,-4.6683968926,-7.539784012599999,1142
107567,214394,216150,-4.0821553556,-4.6683968926,-7.539784012599999,1143
107399,214362,216103,-4.0821553556,-4.6683968926,-7.539784012599999,1144
107292,214361,216153,-4.0821553556,-4.6683968926,-7.539784012599999,1145
107216,214327,216100,-4.0821553556,-4.6683968926,-7.539784012599999,1146
107246,214368,216146,-4.0821553556,-4.6683968926,-7.539784012599999,1147
107287,214355,216128,-4.0821553556,-4.6683968926,-7.539784012599999,1148
107394,214354,216146,-4.0821553556,-4.6683968926,-7.539784012599999,1149
107450,214373,216135,-4.0821553556,-4.6683968926,-7.539784012599999,1150
107473,214379,216134,-4.0821553556,-4.6683968926,-7.539784012599999,1151
107498,214377,216136,-4.0821553556,-4.6683968926,-7.539784012599999,1152
107557,214408,216159,-4.0821553556,-4.6683968926,-7.539784012599999,1153
107641,214389,216172,-4.0821553556,-4.6683968926,-7.539784012599999,1154
107739,214410,216174,-4.0821553556,-4.6683968926,-7.539784012599999,1155
107871,214413,216194,-4.0821553556,-4.6683968926,-7.539784012599999,1156
107988,214443,216144,-4.0821553556,-4.6683968926,-7.539784012599999,1157
108118,214459,216169,-4.0821553556,-4.6683968926,-7.539784012599999,1158
108262,214486,216203,-4.0821553556,-4.6683968926,-7.539784012599999,1159
108380,214486,216237,-4.0821553556,-4.6683968926,-7.539784012599999,1160
108504,214507,216205,-4.0821553556,-4.6683968926,-7.539784012599999,1161
108640,214545,216223,-4.0821553556,-4.6683968926,-7.539784012599999,1162
108759,214566,216219,-4.0821553556,-4.6683968926,-7.539784012599999,1163
108897,214576,216243,-4.0821553556,-4.6683968926,-7.539784012599999,1164
109018,214601,216249,-4.0821553556,-4.6683968926,-7.539784012599999,1165
109152,214631,216273,-4.0821553556,-4.6683968926,-7.539784012599999,1166
109304,214623,216269,-4.0821553556,-4.6683968926,-7.539784012599999,1167
109576,214666,216258,-4.1850467274,-4.6037906824000006,-7.633104094,1168
109671,214707,216270,-4.1850467274,-4.6037906824000006,-7.633104094,1169
109778,214704,216327,-4.1850467274,-4.6037906824000006,-7.633104094,1170
109883,214732,216299,-4.1850467274,-4.6037906824000006,-7.633104094,1171
109963,214760,216285,-4.1850467274,-4.6037906824000006,-7.633104094,1172
109847,214687,216330,-4.1850467274,-4.6037906824000006,-7.633104094,1173
109453,214608,216285,-4.1850467274,-4.6037906824000006,-7.633104094,1174
109038,214585,216245,-4.1850467274,-4.6037906824000006,-7.633104094,1175
108740,214572,216194,-4.1850467274,-4.6037906824000006,-7.633104094,1176
108573,214527,216230,-4.1850467274,-4.6037906824000006,-7.633104094,1177
108448,214544,216224,-4.1850467274,-4.6037906824000006,-7.633104094,1178
108388,214526,216207,-4.1850467274,-4.6037906824000006,-7.633104094,1179
108386,214519,216215,-4.1850467274,-4.6037906824000006,-7.633104094,1180
108412,214540,216239,-4.1850467274,-4.6037906824000006,-7.633104094,1181
108485,214533,216236,-4.1850467274,-4.6037906824000006,-7.633104094,1182
108518,214537,216214,-4.1850467274,-4.6037906824000006,-7.633104094,1183
108541,214535,216245,-4.1850467274,-4.6037906824000006,-7.633104094,1184
108545,214545,216224,-4.1850467274,-4.6037906824000006,-7.633104094,1185
108594,214534,216281,-4.1850467274,-4.6037906824000006,-7.633104094,1186
108664,214554,216269,-4.1850467274,-4.6037906824000006,-7.633104094,1187
108733,214595,216256,-4.1850467274,-4.6037906824000006,-7.633104094,1188
108825,214596,216240,-4.1850467274,-4.6037906824000006,-7.633104094,1189
108934,214625,216254,-4.1850467274,-4.6037906824000006,-7.633104094,1190
109026,214614,216286,-4.1850467274,-4.6037906824000006,-7.633104094,1191
109134,214647,216278,-4.1850467274,-4.6037906824000006,-7.633104094,1192
109238,214643,216321,-4.1850467274,-4.6037906824000006,-7.633104094,1193
109350,214682,216317,-4.1850467274,-4.6037906824000006,-7.633104094,1194
109480,214684,216316,-4.1850467274,-4.6037906824000006,-7.633104094,1195
109592,214678,216309,-4.1850467274,-4.6037906824000006,-7.633104094,1196
109708,214722,216335,-4.1850467274,-4.6037906824000006,-7.633104094,1197
109825,214707,216358,-4.1850467274,-4.6037906824000006,-7.633104094,1198
109942,214731,216358,-4.1850467274,-4.6037906824000006,-7.633104094,1199
110065,214782,216368,-4.1850467274,-4.6037906824000006,-7.633104094,1200
110058,214750,216368,-4.1850467274,-4.6037906824000006,-7.633104094,1201
109807,214723,216322,-4.1850467274,-4.6037906824000006,-7.633104094,1202
109394,214660,216336,-4.1850467274,-4.6037906824000006,-7.633104094,1203
109002,214612,216324,-4.1850467274,-4.6037906824000006,-7.633104094,1204
108758,214586,216275,-4.1850467274,-4.6037906824000006,-7.633104094,1205
108606,214571,216303,-4.1850467274,-4.6037906824000006,-7.633104094,1206
108552,214546,216295,-4.1850467274,-4.6037906824000006,-7.633104094,1207
108523,214571,216277,-4.1850467274,-4.6037906824000006,-7.633104094,1208
108549,214562,216257,-4.1850467274,-4.6037906824000006,-7.633104094,1209
108742,214559,216273,-4.2879380992,-4.606183505,-7.526623488299999,1210
108790,214595,216310,-4.2879380992,-4.606183505,-7.526623488299999,1211
108840,214592,216299,-4.2879380992,-4.606183505,-7.526623488299999,1212
108938,214620,216292,-4.2879380992,-4.606183505,-7.526623488299999,1213
109048,214603,216336,-4.2879380992,-4.606183505,-7.526623488299999,1214
109133,214661,216307,-4.2879380992,-4.606183505,-7.526623488299999,1215
109243,214677,216351,-4.2879380992,-4.606183505,-7.526623488299999,1216
109382,214675,216352,-4.2879380992,-4.606183505,-7.526623488299999,1217
109487,214679,216380,-4.2879380992,-4.606183505,-7.526623488299999,1218
109598,214679,216340,-4.2879380992,-4.606183505,-7.526623488299999,1219
109720,214667,216390,-4.2879380992,-4.606183505,-7.526623488299999,1220
109827,214710,216353,-4.2879380992,-4.606183505,-7.526623488299999,1221
109929,214699,216386,-4.2879380992,-4.606183505,-7.526623488299999,1222
110041,214762,216362,-4.2879380992,-4.606183505,-7.526623488299999,1223
110133,214755,216376,-4.2879380992,-4.606183505,-7.526623488299999,1224
110110,214715,216403,-4.2879380992,-4.606183505,-7.526623488299999,1225
109819,214679,216393,-4.2879380992,-4.606183505,-7.526623488299999,1226
109400,214654,216366,-4.2879380992,-4.606183505,-7.526623488299999,1227
109071,214557,216322,-4.2879380992,-4.606183505,-7.526623488299999,1228
108860,214582,216284,-4.2879380992,-4.606183505,-7.526623488299999,1229
108731,214577,216318,-4.0331024923,-4.6408794327,-7.5960153436999995,1230
108690,214554,216287,-4.0331024923,-4.6408794327,-7.5960153436999995,1231
108696,214555,216285,-4.0331024923,-4.6408794327,-7.5960153436999995,1232
108734,214555,216300,-4.0331024923,-4.6408794327,-7.5960153436999995,1233
108775,214559,216258,-4.0331024923,-4.6408794327,-7.5960153436999995,1234
108782,214579,216290,-4.0331024923,-4.6408794327,-7.5960153436999995,1235
108768,214552,216316,-4.0331024923,-4.6408794327,-7.5960153436999995,1236
108757,214582,216285,-4.0331024923,-4.6408794327,-7.5960153436999995,1237
108775,214543,216299,-4.0331024923,-4.6408794327,-7.5960153436999995,1238
108804,214575,216319,-4.0331024923,-4.6408794327,-7.5960153436999995,1239
108870,214536,216261,-4.0331024923,-4.6408794327,-7.5960153436999995,1240
108947,214596,216284,-4.0331024923,-4.6408794327,-7.5960153436999995,1241
109020,214598,216318,-4.0331024923,-4.6408794327,-7.5960153436999995,1242
109103,214602,216306,-4.0331024923,-4.6408794327,-7.5960153436999995,1243
109183,214606,216307,-4.0331024923,-4.6408794327,-7.5960153436999995,1244
109301,214628,216301,-4.0331024923,-4.6408794327,-7.5960153436999995,1245
109388,214644,216301,-4.0331024923,-4.6408794327,-7.5960153436999995,1246
109491,214642,216313,-4.0331024923,-4.6408794327,-7.5960153436999995,1247
109518,214667,216335,-4.0331024923,-4.6408794327,-7.5960153436999995,1248
109324,214630,216318,-4.0331024923,-4.6408794327,-7.5960153436999995,1249
108906,214562,216309,-4.0893338234,-4.7042892316,-7.5804619967999995,1250
108526,214515,216254,-4.0893338234,-4.7042892316,-7.5804619967999995,1251
108222,214490,216220,-4.0893338234,-4.7042892316,-7.5804619967999995,1252
108059,214420,216200,-4.0893338234,-4.7042892316,-7.5804619967999995,1253
107928,214450,216192,-4.0893338234,-4.7042892316,-7.5804619967999995,1254
107859,214440,216203,-4.0893338234,-4.7042892316,-7.5804619967999995,1255
107877,214469,216186,-4.0893338234,-4.7042892316,-7.5804619967999995,1256
107948,214435,216192,-4.0893338234,-4.7042892316,-7.5804619967999995,1257
108005,214473,216221,-4.0893338234,-4.7042892316,-7.5804619967999995,1258
108039,214488,216203,-4.0893338234,-4.7042892316,-7.5804619967999995,1259
108065,214478,216220,-4.0893338234,-4.7042892316,-7.5804619967999995,1260
108079,214471,216198,-4.0893338234,-4.7042892316,-7.5804619967999995,1261
108123,214506,216207,-4.0893338234,-4.7042892316,-7.5804619967999995,1262
108179,214510,216240,-4.0893338234,-4.7042892316,-7.5804619967999995,1263
108292,214513,216192,-4.0893338234,-4.7042892316,-7.5804619967999995,1264
108391,214526,216238,-4.0893338234,-4.7042892316,-7.5804619967999995,1265
108518,214558,216245,-4.0893338234,-4.7042892316,-7.5804619967999995,1266
108616,214525,216228,-4.0893338234,-4.7042892316,-7.5804619967999995,1267
108731,214557,216267,-4.0893338234,-4.7042892316,-7.5804619967999995,1268
108842,214564,216248,-4.0893338234,-4.7042892316,-7.5804619967999995,1269
108988,214577,216278,-4.0893338234,-4.7042892316,-7.5804619967999995,1270
109096,214559,216252,-4.0893338234,-4.7042892316,-7.5804619967999995,1271
109221,214636,216258,-4.0893338234,-4.7042892316,-7.5804619967999995,1272
109320,214686,216301,-4.0893338234,-4.7042892316,-7.5804619967999995,1273
109458,214690,216330,-4.0893338234,-4.7042892316,-7.5804619967999995,1274
109553,214687,216300,-4.0893338234,-4.7042892316,-7.5804619967999995,1275
109618,214651,216315,-4.0893338234,-4.7042892316,-7.5804619967999995,1276
109440,214641,216299,-4.0893338234,-4.7042892316,-7.5804619967999995,1277
109042,214597,216303,-4.0893338234,-4.7042892316,-7.5804619967999995,1278
108623,214543,216223,-4.0893338234,-4.7042892316,-7.5804619967999995,1279
108370,214505,216226,-4.0893338234,-4.7042892316,-7.5804619967999995,1280
108217,214486,216186,-4.0893338234,-4.7042892316,-7.5804619967999995,1281
108137,214489,216210,-4.0893338234,-4.7042892316,-7.5804619967999995,1282
108075,214476,216192,-4.0893338234,-4.7042892316,-7.5804619967999995,1283
108096,214489,216213,-4.0893338234,-4.7042892316,-7.5804619967999995,1284
108185,214481,216226,-4.0893338234,-4.7042892316,-7.5804619967999995,1285
108253,214525,216220,-4.0893338234,-4.7042892316,-7.5804619967999995,1286
108270,214499,216151,-4.0893338234,-4.7042892316,-7.5804619967999995,1287
108295,214459,216222,-4.0893338234,-4.7042892316,-7.5804619967999995,1288
108317,214514,216205,-4.0893338234,-4.7042892316,-7.5804619967999995,1289
108373,214527,216240,-4.0893338234,-4.7042892316,-7.5804619967999995,1290
108440,214532,216219,-4.0893338234,-4.7042892316,-7.5804619967999995,1291
108869,214569,216235,-4.1659041466,-4.5643091095,-7.5361947787,1292
108685,214549,216217,-4.1659041466,-4.5643091095,-7.5361947787,1293
108611,214539,216222,-4.1659041466,-4.5643091095,-7.5361947787,1294
108556,214484,216207,-4.1659041466,-4.5643091095,-7.5361947787,1295
108588,214491,216194,-4.1659041466,-4.5643091095,-7.5361947787,1296
108643,214517,216173,-4.1659041466,-4.5643091095,-7.5361947787,1297
108700,214523,216211,-4.1659041466,-4.5643091095,-7.5361947787,1298
108702,214536,216194,-4.1659041466,-4.5643091095,-7.5361947787,1299
108692,214519,216193,-4.1659041466,-4.5643091095,-7.5361947787,1300
108712,214531,216207,-4.1659041466,-4.5643091095,-7.5361947787,1301
108722,214533,216221,-4.1659041466,-4.5643091095,-7.5361947787,1302
108769,214563,216160,-4.1659041466,-4.5643091095,-7.5361947787,1303
108825,214564,216201,-4.1659041466,-4.5643091095,-7.5361947787,1304
108886,214572,216192,-4.1659041466,-4.5643091095,-7.5361947787,1305
108969,214577,216183,-4.1659041466,-4.5643091095,-7.5361947787,1306
109068,214592,216197,-4.1659041466,-4.5643091095,-7.5361947787,1307
109155,214565,216223,-4.1659041466,-4.5643091095,-7.5361947787,1308
109248,214595,216197,-4.1659041466,-4.5643091095,-7.5361947787,1309
109318,214585,216192,-4.1659041466,-4.5643091095,-7.5361947787,1310
109414,214628,216238,-4.1659041466,-4.5643091095,-7.5361947787,1311
109509,214668,216209,-4.1659041466,-4.5643091095,-7.5361947787,1312
109533,214620,216232,-4.1659041466,-4.5643091095,-7.5361947787,1313
109378,214585,216201,-4.1659041466,-4.5643091095,-7.5361947787,1314
108995,214558,216135,-4.1659041466,-4.5643091095,-7.5361947787,1315
108589,214490,216127,-4.1659041466,-4.5643091095,-7.5361947787,1316
108306,214477,216115,-4.1659041466,-4.5643091095,-7.5361947787,1317
108125,214439,216111,-4.1659041466,-4.5643091095,-7.5361947787,1318
107996,214435,216133,-4.1659041466,-4.5643091095,-7.5361947787,1319
107946,214423,216070,-4.1659041466,-4.5643091095,-7.5361947787,1320
107977,214420,216094,-4.1659041466,-4.5643091095,-7.5361947787,1321
108029,214445,216064,-4.1659041466,-4.5643091095,-7.5361947787,1322
108092,214456,216055,-4.1659041466,-4.5643091095,-7.5361947787,1323
108089,214477,216102,-4.1659041466,-4.5643091095,-7.5361947787,1324
108099,214439,216095,-4.1659041466,-4.5643091095,-7.5361947787,1325
108124,214459,216058,-4.1659041466,-4.5643091095,-7.5361947787,1326
108155,214454,216122,-4.1659041466,-4.5643091095,-7.5361947787,1327
108220,214495,216110,-4.1659041466,-4.5643091095,-7.5361947787,1328
108317,214488,216103,-4.1659041466,-4.5643091095,-7.5361947787,1329
108400,214513,216084,-4.1659041466,-4.5643091095,-7.5361947787,1330
108508,214514,216118,-4.1659041466,-4.5643091095,-7.5361947787,1331
108619,214536,216097,-4.1659041466,-4.5643091095,-7.5361947787,1332
108728,214571,216111,-4.1659041466,-4.5643091095,-7.5361947787,1333
108382,214455,216120,-4.0139599115,-4.5810588676999995,-7.5457660691,1334
108492,214469,216136,-4.0139599115,-4.5810588676999995,-7.5457660691,1335
108596,214519,216157,-4.0139599115,-4.5810588676999995,-7.5457660691,1336
108738,214482,216150,-4.0139599115,-4.5810588676999995,-7.5457660691,1337
108863,214515,216150,-4.0139599115,-4.5810588676999995,-7.5457660691,1338
108975,214544,216165,-4.0139599115,-4.5810588676999995,-7.5457660691,1339
109095,214544,216172,-4.0139599115,-4.5810588676999995,-7.5457660691,1340
109209,214572,216166,-4.0139599115,-4.5810588676999995,-7.5457660691,1341
109346,214545,216190,-4.0139599115,-4.5810588676999995,-7.5457660691,1342
109467,214604,216173,-4.0139599115,-4.5810588676999995,-7.5457660691,1343
109576,214618,216214,-4.0139599115,-4.5810588676999995,-7.5457660691,1344
109549,214562,216212,-4.0139599115,-4.5810588676999995,-7.5457660691,1345
109296,214531,216200,-4.0139599115,-4.5810588676999995,-7.5457660691,1346
108879,214476,216185,-4.0139599115,-4.5810588676999995,-7.5457660691,1347
108537,214467,216147,-4.0139599115,-4.5810588676999995,-7.5457660691,1348
108304,214404,216100,-4.0139599115,-4.5810588676999995,-7.5457660691,1349
108180,214432,216103,-4.0139599115,-4.5810588676999995,-7.5457660691,1350
108111,214397,216100,-4.0139599115,-4.5810588676999995,-7.5457660691,1351
108104,214409,216134,-4.0139599115,-4.5810588676999995,-7.5457660691,1352
108150,214383,216066,-4.0139599115,-4.5810588676999995,-7.5457660691,1353
108210,214430,216096,-4.0139599115,-4.5810588676999995,-7.5457660691,1354
108260,214391,216129,-4.0139599115,-4.5810588676999995,-7.5457660691,1355
108272,214429,216116,-4.0139599115,-4.5810588676999995,-7.5457660691,1356
108313,214427,216114,-4.0139599115,-4.5810588676999995,-7.5457660691,1357
108347,214438,216141,-4.0139599115,-4.5810588676999995,-7.5457660691,1358
108405,214426,216133,-4.0139599115,-4.5810588676999995,-7.5457660691,1359
108490,214477,216148,-4.0139599115,-4.5810588676999995,-7.5457660691,1360
108565,214497,216181,-4.0139599115,-4.5810588676999995,-7.5457660691,1361
108686,214505,216148,-4.0139599115,-4.5810588676999995,-7.5457660691,1362
108786,214522,216156,-4.0139599115,-4.5810588676999995,-7.5457660691,1363
108892,214527,216189,-4.0139599115,-4.5810588676999995,-7.5457660691,1364
109002,214554,216157,-4.0139599115,-4.5810588676999995,-7.5457660691,1365
109133,214543,216219,-4.0139599115,-4.5810588676999995,-7.5457660691,1366
109245,214576,216188,-4.0139599115,-4.5810588676999995,-7.5457660691,1367
109350,214588,216221,-4.0139599115,-4.5810588676999995,-7.5457660691,1368
109458,214599,216191,-4.0139599115,-4.5810588676999995,-7.5457660691,1369
109481,214601,216209,-4.0139599115,-4.5810588676999995,-7.5457660691,1370
109257,214565,216172,-4.0139599115,-4.5810588676999995,-7.5457660691,1371
108870,214514,216147,-4.0139599115,-4.5810588676999995,-7.5457660691,1372
108508,214487,216107,-4.0139599115,-4.5810588676999995,-7.5457660691,1373
108292,214404,216108,-4.0139599115,-4.5810588676999995,-7.5457660691,1374
108161,214408,216101,-4.0139599115,-4.5810588676999995,-7.5457660691,1375
108664,214490,216092,-4.2604206393,-4.654039957,-7.6043902228,1376
108771,214525,216131,-4.2604206393,-4.654039957,-7.6043902228,1377
108766,214522,216135,-4.2604206393,-4.654039957,-7.6043902228,1378
108503,214442,216134,-4.2604206393,-4.654039957,-7.6043902228,1379
108066,214417,216062,-4.2604206393,-4.654039957,-7.6043902228,1380
107709,214387,216057,-4.2604206393,-4.654039957,-7.6043902228,1381
107468,214319,216060,-4.2604206393,-4.654039957,-7.6043902228,1382
107334,214320,216009,-4.2604206393,-4.654039957,-7.6043902228,1383
107235,214284,216012,-4.2604206393,-4.654039957,-7.6043902228,1384
107242,214320,215998,-4.2604206393,-4.654039957,-7.6043902228,1385
107294,214345,215988,-4.2604206393,-4.654039957,-7.6043902228,1386
107371,214333,216022,-4.2604206393,-4.654039957,-7.6043902228,1387
107456,214374,216022,-4.2604206393,-4.654039957,-7.6043902228,1388
107497,214366,216033,-4.2604206393,-4.654039957,-7.6043902228,1389
107525,214374,216061,-4.2604206393,-4.654039957,-7.6043902228,1390
107593,214351,216061,-4.2604206393,-4.654039957,-7.6043902228,1391
107667,214401,216039,-4.2604206393,-4.654039957,-7.6043902228,1392
107774,214386,216062,-4.2604206393,-4.654039957,-7.6043902228,1393
107900,214407,216078,-4.2604206393,-4.654039957,-7.6043902228,1394
108038,214405,216063,-4.2735811636,-4.4949172541,-7.5804619967999995,1395
108161,214485,216089,-4.2735811636,-4.4949172541,-7.5804619967999995,1396
108340,214475,216094,-4.2735811636,-4.4949172541,-7.5804619967999995,1397
108452,214509,216122,-4.2735811636,-4.4949172541,-7.5804619967999995,1398
108587,214526,216156,-4.2735811636,-4.4949172541,-7.5804619967999995,1399
108726,214507,216148,-4.2735811636,-4.4949172541,-7.5804619967999995,1400
108866,214523,216171,-4.2735811636,-4.4949172541,-7.5804619967999995,1401
109021,214567,216195,-4.2735811636,-4.4949172541,-7.5804619967999995,1402
109154,214607,216190,-4.2735811636,-4.4949172541,-7.5804619967999995,1403
109271,214592,216158,-4.2735811636,-4.4949172541,-7.5804619967999995,1404
109236,214587,216200,-4.2735811636,-4.4949172541,-7.5804619967999995,1405
108913,214544,216210,-4.2735811636,-4.4949172541,-7.5804619967999995,1406
108488,214528,216181,-4.2735811636,-4.4949172541,-7.5804619967999995,1407
108163,214459,216142,-4.2735811636,-4.4949172541,-7.5804619967999995,1408
108012,214441,216129,-4.2735811636,-4.4949172541,-7.5804619967999995,1409
107937,214444,216113,-4.2735811636,-4.4949172541,-7.5804619967999995,1410
107908,214446,216105,-4.2735811636,-4.4949172541,-7.5804619967999995,1411
107969,214456,216113,-4.2735811636,-4.4949172541,-7.5804619967999995,1412
108046,214453,216118,-4.2735811636,-4.4949172541,-7.5804619967999995,1413
108143,214449,216127,-4.2735811636,-4.4949172541,-7.5804619967999995,1414
108165,214460,216140,-4.0666020087,-4.689932296,-7.6043902228,1415
108186,214467,216120,-4.0666020087,-4.689932296,-7.6043902228,1416
108225,214474,216153,-4.0666020087,-4.689932296,-7.6043902228,1417
108260,214481,216115,-4.0666020087,-4.689932296,-7.6043902228,1418
108317,214504,216112,-4.0666020087,-4.689932296,-7.6043902228,1419
108418,214486,216189,-4.0666020087,-4.689932296,-7.6043902228,1420
108526,214519,216191,-4.0666020087,-4.689932296,-7.6043902228,1421
108627,214581,216164,-4.0666020087,-4.689932296,-7.6043902228,1422
108752,214577,216159,-4.0666020087,-4.689932296,-7.6043902228,1423
108870,214548,216166,-4.0666020087,-4.689932296,-7.6043902228,1424
109010,214576,216182,-4.0666020087,-4.689932296,-7.6043902228,1425
109116,214586,216175,-4.0666020087,-4.689932296,-7.6043902228,1426
109230,214604,216226,-4.0666020087,-4.689932296,-7.6043902228,1427
109315,214632,216221,-4.0666020087,-4.689932296,-7.6043902228,1428
109175,214609,216202,-4.0666020087,-4.689932296,-7.6043902228,1429
108749,214533,216169,-4.0666020087,-4.689932296,-7.6043902228,1430
108356,214488,216169,-4.0666020087,-4.689932296,-7.6043902228,1431
108066,214477,216158,-4.0666020087,-4.689932296,-7.6043902228,1432
107934,214442,216076,-4.0666020087,-4.689932296,-7.6043902228,1433
107846,214459,216098,-4.0666020087,-4.689932296,-7.6043902228,1434
107815,214471,216136,-4.0666020087,-4.689932296,-7.6043902228,1435
107874,214448,216101,-4.0666020087,-4.689932296,-7.6043902228,1436
107983,214479,216112,-4.0666020087,-4.689932296,-7.6043902228,1437
108060,214445,216124,-4.0666020087,-4.689932296,-7.6043902228,1438
108106,214477,216126,-4.0666020087,-4.689932296,-7.6043902228,1439
108137,214469,216157,-4.0666020087,-4.689932296,-7.6043902228,1440
108186,214523,216175,-4.0666020087,-4.689932296,-7.6043902228,1441
108247,214508,216171,-4.0666020087,-4.689932296,-7.6043902228,1442
108325,214526,216191,-4.0666020087,-4.689932296,-7.6043902228,1443
108458,214513,216145,-4.0666020087,-4.689932296,-7.6043902228,1444
108547,214573,216196,-4.0666020087,-4.689932296,-7.6043902228,1445
108684,214571,216183,-4.0666020087,-4.689932296,-7.6043902228,1446
108808,214572,216220,-4.0666020087,-4.689932296,-7.6043902228,1447
108934,214614,216187,-4.0666020087,-4.689932296,-7.6043902228,1448
109062,214613,216184,-4.0666020087,-4.689932296,-7.6043902228,1449
109191,214638,216215,-4.0666020087,-4.689932296,-7.6043902228,1450
109304,214673,216238,-4.0666020087,-4.689932296,-7.6043902228,1451
109464,214631,216200,-4.0666020087,-4.689932296,-7.6043902228,1452
109578,214673,216253,-4.0666020087,-4.689932296,-7.6043902228,1453
109718,214687,216255,-4.0666020087,-4.689932296,-7.6043902228,1454
109838,214720,216253,-4.0666020087,-4.689932296,-7.6043902228,1455
109844,214673,216300,-4.0666020087,-4.689932296,-7.6043902228,1456
108739,214537,216233,-4.2687955184,-4.5667019321,-7.6869426025,1457
108779,214565,216208,-4.2687955184,-4.5667019321,-7.6869426025,1458
108838,214528,216275,-4.2687955184,-4.5667019321,-7.6869426025,1459
108931,214586,216219,-4.2687955184,-4.5667019321,-7.6869426025,1460
109030,214610,216219,-4.2687955184,-4.5667019321,-7.6869426025,1461
109155,214626,216230,-4.2687955184,-4.5667019321,-7.6869426025,1462
109266,214619,216249,-4.2687955184,-4.5667019321,-7.6869426025,1463
109362,214644,216259,-4.2687955184,-4.5667019321,-7.6869426025,1464
109486,214623,216264,-4.2687955184,-4.5667019321,-7.6869426025,1465
109606,214657,216282,-4.2687955184,-4.5667019321,-7.6869426025,1466
109723,214682,216323,-4.2687955184,-4.5667019321,-7.6869426025,1467
109855,214664,216287,-4.2687955184,-4.5667019321,-7.6869426025,1468
109957,214688,216304,-4.2687955184,-4.5667019321,-7.6869426025,1469
110078,214676,216291,-4.2687955184,-4.5667019321,-7.6869426025,1470
110201,214721,216296,-4.2687955184,-4.5667019321,-7.6869426025,1471
110314,214746,216344,-4.2687955184,-4.5667019321,-7.6869426025,1472
110436,214766,216333,-4.2687955184,-4.5667019321,-7.6869426025,1473
110505,214746,216352,-4.2687955184,-4.5667019321,-7.6869426025,1474
110382,214726,216347,-4.2687955184,-4.5667019321,-7.6869426025,1475
110025,214688,216344,-4.2687955184,-4.5667019321,-7.6869426025,1476
109659,214632,216302,-4.2687955184,-4.5667019321,-7.6869426025,1477
109412,214603,216277,-4.2687955184,-4.5667019321,-7.6869426025,1478
109258,214617,216322,-4.2687955184,-4.5667019321,-7.6869426025,1479
109173,214592,216274,-4.2687955184,-4.5667019321,-7.6869426025,1480
109150,214600,216269,-4.2687955184,-4.5667019321,-7.6869426025,1481
109176,214610,216304,-4.2687955184,-4.5667019321,-7.6869426025,1482
109241,214610,216262,-4.2687955184,-4.5667019321,-7.6869426025,1483
109282,214583,216271,-4.2687955184,-4.5667019321,-7.6869426025,1484
109291,214601,216244,-4.2687955184,-4.5667019321,-7.6869426025,1485
109273,214596,216270,-4.2687955184,-4.5667019321,-7.6869426025,1486
109292,214587,216269,-4.2687955184,-4.5667019321,-7.6869426025,1487
109326,214600,216252,-4.2687955184,-4.5667019321,-7.6869426025,1488
109377,214620,216293,-4.2687955184,-4.5667019321,-7.6869426025,1489
109450,214609,216256,-4.2687955184,-4.5667019321,-7.6869426025,1490
109524,214634,216276,-4.2687955184,-4.5667019321,-7.6869426025,1491
109615,214641,216265,-4.2687955184,-4.5667019321,-7.6869426025,1492
109715,214622,216284,-4.2687955184,-4.5667019321,-7.6869426025,1493
109809,214646,216271,-4.2687955184,-4.5667019321,-7.6869426025,1494
109891,214667,216276,-4.2687955184,-4.5667019321,-7.6869426025,1495
109988,214663,216270,-4.2687955184,-4.5667019321,-7.6869426025,1496
110080,214709,216259,-4.2687955184,-4.5667019321,-7.6869426025,1497
110174,214677,216285,-4.2687955184,-4.5667019321,-7.6869426025,1498
109513,214589,216271,-4.0809589443,-4.6193440293,-7.561319416,1499
109606,214598,216290,-4.0809589443,-4.6193440293,-7.561319416,1500
109742,214611,216283,-4.0809589443,-4.6193440293,-7.561319416,1501
109853,214626,216294,-4.0809589443,-4.6193440293,-7.561319416,1502
109786,214603,216283,-4.0809589443,-4.6193440293,-7.561319416,1503
109453,214533,216299,-4.0809589443,-4.6193440293,-7.561319416,1504
109023,214475,216239,-4.0809589443,-4.6193440293,-7.561319416,1505
108684,214422,216229,-4.0809589443,-4.6193440293,-7.561319416,1506
108499,214397,216219,-4.0809589443,-4.6193440293,-7.561319416,1507
108366,214402,216214,-4.0809589443,-4.6193440293,-7.561319416,1508
108323,214390,216245,-4.0809589443,-4.6193440293,-7.561319416,1509
108305,214404,216207,-4.0809589443,-4.6193440293,-7.561319416,1510
108394,214386,216196,-4.0809589443,-4.6193440293,-7.561319416,1511
108455,214415,216200,-4.0809589443,-4.6193440293,-7.561319416,1512
108482,214395,216225,-4.0809589443,-4.6193440293,-7.561319416,1513
108525,214431,216263,-4.0809589443,-4.6193440293,-7.561319416,1514
108534,214414,216216,-4.0809589443,-4.6193440293,-7.561319416,1515
108544,214438,216219,-4.0809589443,-4.6193440293,-7.561319416,1516
108619,214418,216234,-4.0809589443,-4.6193440293,-7.561319416,1517
108701,214413,216248,-4.0809589443,-4.6193440293,-7.561319416,1518
108810,214468,216269,-4.0809589443,-4.6193440293,-7.561319416,1519
108875,214496,216272,-4.0809589443,-4.6193440293,-7.561319416,1520
109011,214490,216274,-4.0809589443,-4.6193440293,-7.561319416,1521
109105,214496,216291,-4.0809589443,-4.6193440293,-7.561319416,1522
109204,214518,216278,-4.0809589443,-4.6193440293,-7.561319416,1523
109328,214506,216289,-4.0809589443,-4.6193440293,-7.561319416,1524
109449,214569,216286,-4.0809589443,-4.6193440293,-7.561319416,1525
109586,214550,216315,-4.0809589443,-4.6193440293,-7.561319416,1526
109681,214580,216283,-4.0809589443,-4.6193440293,-7.561319416,1527
109805,214591,216331,-4.0809589443,-4.6193440293,-7.561319416,1528
109912,214582,216327,-4.0809589443,-4.6193440293,-7.561319416,1529
110017,214603,216345,-4.0809589443,-4.6193440293,-7.561319416,1530
110122,214633,216312,-4.0809589443,-4.6193440293,-7.561319416,1531
110140,214624,216336,-4.0809589443,-4.6193440293,-7.561319416,1532
109870,214541,216348,-4.0809589443,-4.6193440293,-7.561319416,1533
109465,214503,216261,-4.0809589443,-4.6193440293,-7.561319416,1534
109113,214455,216310,-4.0809589443,-4.6193440293,-7.561319416,1535
108888,214415,216259,-4.0809589443,-4.6193440293,-7.561319416,1536
108761,214430,216228,-4.0809589443,-4.6193440293,-7.561319416,1537
108695,214387,216233,-4.0809589443,-4.6193440293,-7.561319416,1538
108686,214411,216244,-4.0809589443,-4.6193440293,-7.561319416,1539
108715,214416,216253,-4.0809589443,-4.6193440293,-7.561319416,1540
