green,red,IR,acc_x,acc_y,acc_z,sample_index
115246,202853,265068,-4.2077785421,8.5806618436,-1.5230315848999998,1
115288,202865,265095,-4.378865358,8.5136628108,-1.6845471104,2
115227,202782,264992,-4.2221354777,8.6333039408,-1.6378870697,3
114964,202733,265002,-4.450650036,8.6464644651,-1.6558332392,4
114682,202749,264969,-4.3405801963999995,8.6093757148,-1.5696916256,5
114604,202693,264978,-4.2556349941,8.6464644651,-1.6127624323999998,6
114602,202739,265011,-4.151547211,8.7003029736,-1.5804593273,7
114621,202752,265028,-4.3453658416,8.5483587385,-1.5996019081000001,8
114683,202777,265081,-4.4542392699,8.628518295600001,-1.6163516663,9
114765,202834,265082,-4.354937132,8.5232341012,-1.5565311013,10
114881,202842,265115,-4.2221354777,8.638089586,-1.6414763036,11
114914,202816,265134,-4.235296002,8.6524465216,-1.7180466268,12
114914,202827,265135,-4.3561335433,8.6321075295,-1.5134602944999997,13
114939,202818,265067,-4.1742790257,8.5854474888,-1.5804593273,14
114967,202808,265098,-4.1802610821999995,8.5675013193,-1.722832272,15
115025,202807,265077,-4.3250268494999995,8.650053698999999,-1.6713865861,16
115083,202854,265076,-4.211367776,8.5914295453,-1.5613167465000002,17
115126,202850,265069,-4.354937132,8.4000037373,-1.6187444889,18
115181,202854,265122,-4.3166519704,8.5758761984,-1.6283157793,19
115249,202849,265089,-4.3118663252,8.4538422458,-1.6893327556000002,20
115271,202872,265126,-4.3226340269,8.5938223679,-1.698904046,21
115351,202897,265092,-4.2783668087999995,8.6931245058,-1.7563317884,22
115395,202878,265107,-4.3740797127999995,8.6105721261,-1.6331014245,23
115472,202894,265102,-4.2999022122,8.641678819900001,-1.7324035624,24
115376,202857,265044,-4.4542392699,8.6189470052,-1.6893327556000002,25
115039,202751,264973,-4.3884366484,8.551947972399999,-1.6510475939999998,26
114745,202724,264964,-4.2400816472,8.7146599092,-1.6510475939999998,27
114609,202692,264953,-4.402793583999999,8.5100735769,-1.5996019081000001,28
114570,202727,264979,-4.5056849558,8.7182491431,-1.8089738856,29
114516,202743,264990,-4.3082770913,8.6608214007,-1.6749758199999998,30
114543,202747,265047,-4.237688824599999,8.6225362391,-1.5900306177,31
114607,202770,265062,-4.4315074552,8.6524465216,-1.7611174336,32
114708,202785,265079,-4.4494536247,8.694320917099999,-1.7419748528,33
114746,202797,265106,-4.3501514868,8.5675013193,-1.8269200550999998,34
114771,202799,265068,-4.3597227772,8.518448456,-1.79461695,35
114795,202799,265050,-4.1886359613,8.5471623272,-1.6558332392,36
114801,202791,265089,-4.3884366484,8.5531443837,-1.6797614652,37
114845,202788,265104,-4.1503507997,8.6572321668,-1.7048861025,38
114905,202802,265086,-4.4207397534999995,8.49452023,-1.7659030788,39
114965,202823,265104,-4.3884366484,8.5986080131,-1.6474583601,40
115023,202821,265090,-4.3932222936,8.5758761984,-1.7036896912000001,41
115132,202835,265074,-4.3633120111,8.6524465216,-1.6749758199999998,42
115203,202860,265067,-4.4602213264,8.662017812,-1.8077774743,43
115228,202828,265092,-4.2173498325,8.6835532154,-1.8173487647,44
115336,202838,265071,-4.3298124947,8.6428752312,-1.7850456596,45
115377,202853,265093,-4.3022950348,8.4813597057,-1.6139588437,46
115360,202857,265113,-4.354937132,8.6464644651,-1.8317057003,47
115251,202829,265041,-4.2173498325,8.419146318100001,-1.7659030788,48
114904,202731,264986,-4.4015971727,8.5986080131,-1.7659030788,49
114587,202653,264950,-4.2975093896,8.5794654323,-1.7335999736999999,50
114431,202646,264970,-4.3405801963999995,8.6321075295,-1.8556339263000001,51
114372,202667,264994,-4.2843488653,8.5854474888,-1.6606188843999998,52
114403,202647,265016,-4.402793583999999,8.419146318100001,-1.7132609816000002,53
114400,202665,265015,-4.3609191885,8.6608214007,-1.7084753364,54
114437,202714,265008,-4.2879380992,8.4382888989,-1.7144573929,55
114526,202721,265050,-4.2293139454999995,8.542376681999999,-1.6570296505,56
114558,202721,265070,-4.1647077353,8.5758761984,-1.8317057003,57
114634,202728,265072,-4.127618985,8.518448456,-1.6941184008,58
114594,202722,265088,-4.2269211229,8.566304908,-1.7132609816000002,59
114609,202737,265132,-4.2747775749,8.6428752312,-1.5852449725,60
114671,202726,265116,-4.2939201557,8.4897345848,-1.7563317884,61
114677,202744,265142,-4.4099720518000005,8.542376681999999,-1.7754743692000001,62
114742,202750,265101,-4.2448672924,8.6703926911,-1.7754743692000001,63
114765,202750,265173,-4.4123648744,8.5758761984,-1.6187444889,64
114807,202774,265181,-4.3501514868,8.5854474888,-1.7515461432000001,65
114813,202755,265230,-4.3405801963999995,8.529216157699999,-1.7048861025,66
114877,202783,265129,-4.4015971727,8.5579300289,-1.7132609816000002,67
114942,202760,265197,-4.3022950348,8.6129649487,-1.6570296505,68
114919,202753,265210,-4.4207397534999995,8.6333039408,-1.6606188843999998,69
114941,202785,265186,-4.3262232608,8.538787448099999,-1.79461695,70
114906,202776,265168,-4.235296002,8.5232341012,-1.6845471104,71
114981,202795,265139,-4.2412780585,8.7373917239,-1.746760498,72
115064,202787,265180,-4.2460637037,8.5615192628,-1.8604195715,73
115006,202754,265135,-4.2699919297,8.6225362391,-1.7994025952000001,74
114731,202662,265115,-4.3226340269,8.5710905532,-1.6187444889,75
114429,202608,265039,-4.3609191885,8.5950187792,-1.7324035624,76
114203,202596,265064,-4.3417766077,8.4801632944,-1.6701901747999999,77
114156,202586,265078,-4.3465622529,8.5232341012,-1.7790636031,78
114149,202603,265052,-4.3262232608,8.470592004,-1.6570296505,79
114173,202583,265102,-4.3836510032,8.5854474888,-1.6378870697,80
114216,202632,265125,-4.5020957219,8.7601235386,-1.6797614652,81
114230,202624,265108,-4.492524431500001,8.556733617599999,-1.6749758199999998,82
114309,202678,265161,-4.3597227772,8.6129649487,-1.6761722313,83
114289,202641,265208,-4.3082770913,8.556733617599999,-1.7551353771,84
114291,202655,265152,-4.3441694303,8.6476608764,-1.6510475939999998,85
114352,202675,265112,-4.2735811636,8.4765740605,-1.6474583601,86
114374,202672,265130,-4.3932222936,8.708677852700001,-1.7036896912000001,87
114420,202675,265158,-4.1611185014,8.590233134,-1.6426727149,88
114460,202641,265124,-4.3034914461,8.5818582549,-1.7563317884,89
114541,202638,265171,-4.211367776,8.6751783363,-1.6331014245,90
114569,202673,265155,-4.2975093896,8.6045900696,-1.5984054967999999,91
114630,202688,265202,-4.2077785421,8.5232341012,-1.6558332392,92
114732,202667,265156,-4.2987058009,8.542376681999999,-1.6462619487999999,93
114750,202688,265217,-4.354937132,8.518448456,-1.7132609816000002,94
114847,202723,265127,-4.4219361648,8.529216157699999,-1.5936198516,95
114885,202743,265161,-4.3405801963999995,8.6847496267,-1.6079767872,96
114972,202698,265190,-4.3453658416,8.694320917099999,-1.7084753364,97
115036,202734,265153,-4.402793583999999,8.6847496267,-1.603191142,98
115032,202755,265122,-4.3322053173,8.6321075295,-1.6271193679999998,99
115115,202759,265129,-4.3166519704,8.5998044244,-1.7180466268,100
115158,202784,265142,-4.2652062845000005,8.5710905532,-1.6319050132,101
115205,202774,265097,-4.2975093896,8.641678819900001,-1.5182459396999999,102
115287,202778,265063,-4.3369909625,8.6273218843,-1.6510475939999998,103
115338,202760,265136,-4.2652062845000005,8.566304908,-1.6594224731,104
115361,202793,265090,-4.3262232608,8.6081793035,-1.6366906583999998,105
115277,202697,265043,-4.3836510032,8.7517486595,-1.6845471104,106
115080,202655,265016,-4.3322053173,8.471788415299999,-1.6558332392,107
114927,202630,264986,-4.3453658416,8.5854474888,-1.6319050132,108
114860,202636,264963,-4.3369909625,8.5088771656,-1.5840485612,109
114887,202684,264988,-4.2496529376,8.49452023,-1.6283157793,110
114943,202680,264987,-4.1742790257,8.5758761984,-1.5421741657,111
114979,202688,264998,-4.3417766077,8.5531443837,-1.6175480776,112
115090,202718,264993,-4.402793583999999,8.6608214007,-1.6462619487999999,113
115167,202732,264977,-4.4075792292,8.6045900696,-1.698904046,114
115226,202750,264964,-4.1898323726,8.5579300289,-1.5326028753,115
115271,202771,264996,-4.1611185014,8.61416136,-1.5744772707999999,116
115331,202762,264997,-4.3980079388,8.6524465216,-1.5948162629,117
115342,202775,265010,-4.3501514868,8.4658063588,-1.6127624323999998,118
115409,202805,264932,-4.3884366484,8.5890367227,-1.6689937635,119
115475,202821,264994,-4.3884366484,8.6763747476,-1.6043875533,120
115531,202826,264954,-4.2879380992,8.7182491431,-1.7503497318999999,121
115552,202864,264949,-4.2843488653,8.5854474888,-1.6761722313,122
115634,202867,264906,-4.2400816472,8.7708912403,-1.5613167465000002,123
115717,202860,264926,-4.3465622529,8.6129649487,-1.6331014245,124
115701,202863,264913,-4.3453658416,8.5710905532,-1.5696916256,125
115758,202862,264852,-4.3417766077,8.5998044244,-1.6797614652,126
115810,202839,264842,-4.3740797127999995,8.5615192628,-1.6594224731,127
115679,202806,264795,-4.283152454,8.5770726097,-1.6654045296,128
115468,202762,264785,-4.3034914461,8.61416136,-1.746760498,129
115324,202735,264725,-4.3932222936,8.6991065623,-1.7132609816000002,130
115303,202750,264766,-4.2927237444,8.566304908,-1.6570296505,131
115283,202725,264731,-4.3166519704,8.5806618436,-1.746760498,132
115327,202754,264729,-4.3884366484,8.5040915204,-1.6474583601,133
115303,202787,264742,-4.2077785421,8.556733617599999,-1.5900306177,134
115426,202786,264698,-4.30708068,8.6010008357,-1.6797614652,135
115469,202788,264753,-4.3980079388,8.6572321668,-1.6845471104,136
115569,202803,264714,-4.2891345105,8.6560357555,-1.5469598109,137
115619,202816,264737,-4.3597227772,8.5770726097,-1.7898313048,138
115646,202838,264641,-4.30708068,8.6428752312,-1.6893327556000002,139
115663,202876,264660,-4.2987058009,8.590233134,-1.770688724,140
115755,202861,264653,-4.2556349941,8.6572321668,-1.6701901747999999,141
115773,202847,264675,-4.3932222936,8.569894141899999,-1.6474583601,142
115838,202869,264626,-4.4315074552,8.6093757148,-1.6474583601,143
115891,202875,264648,-4.4829531411,8.6799639815,-1.6235301341000001,144
115961,202894,264617,-4.3405801963999995,8.5651084967,-1.746760498,145
116018,202911,264637,-4.2544385828,8.556733617599999,-1.6522440053,146
116053,202911,264611,-4.387240237099999,8.6177505939,-1.6666009409,147
115950,202867,264571,-4.354937132,8.7517486595,-1.6797614652,148
115735,202823,264522,-4.3417766077,8.5722869645,-1.5708880369,149
115588,202783,264489,-4.2927237444,8.5627156741,-1.7623138449,150
115549,202788,264489,-4.1359938641000005,8.4813597057,-1.7276179172000001,151
115452,202786,264472,-4.378865358,8.5244305125,-1.5996019081000001,152
115511,202815,264442,-4.2975093896,8.7038922075,-1.7036896912000001,153
115548,202804,264446,-4.2604206393,8.628518295600001,-1.7611174336,154
115575,202845,264452,-4.2640098732,8.641678819900001,-1.6426727149,155
115678,202846,264471,-4.3884366484,8.590233134,-1.722832272,156
115696,202865,264446,-4.331008906,8.6333039408,-1.7371892076000002,157
115733,202825,264424,-4.2101713647,8.5758761984,-1.7886348934999998,158
115749,202823,264367,-4.1886359613,8.6476608764,-1.7563317884,159
115787,202855,264400,-4.3178483817,8.6045900696,-1.7324035624,160
115823,202867,264423,-4.283152454,8.5375910368,-1.7132609816000002,161
115854,202865,264348,-4.2400816472,8.5328053916,-1.7659030788,162
115909,202876,264411,-4.474578262,8.685946038,-1.698904046,163
115918,202880,264343,-4.2975093896,8.7385881352,-1.6941184008,164
116024,202856,264360,-4.30708068,8.695517328400001,-1.5708880369,165
116050,202893,264352,-4.2795632201,8.6189470052,-1.8173487647,166
116152,202859,264326,-4.402793583999999,8.7661055951,-1.7324035624,167
116147,202838,264330,-4.3657048337,8.556733617599999,-1.6845471104,168
116040,202830,264268,-4.3597227772,8.6991065623,-1.6941184008,169
115865,202765,264273,-4.474578262,8.596215190499999,-1.7371892076000002,170
115826,202752,264223,-4.331008906,8.4622171249,-1.6761722313,171
115807,202755,264219,-4.3836510032,8.590233134,-1.6809578765,172
115858,202766,264137,-4.3501514868,8.566304908,-1.6905291669,173
115911,202809,264189,-4.3034914461,8.5950187792,-1.7132609816000002,174
115982,202787,264182,-4.3417766077,8.475377649199999,-1.7611174336,175
116027,202801,264185,-4.2652062845000005,8.6751783363,-1.7611174336,176
116075,202837,264195,-4.2747775749,8.6081793035,-1.7611174336,177
116146,202781,264221,-4.2879380992,8.6991065623,-1.7611174336,178
116175,202797,264159,-4.3357945512,8.5244305125,-1.6749758199999998,179
116222,202809,264155,-4.3501514868,8.6799639815,-1.7371892076000002,180
116306,202831,264119,-4.2652062845000005,8.542376681999999,-1.698904046,181
116387,202822,264120,-4.3692940676,8.6524465216,-1.7180466268,182
116462,202829,264123,-4.2747775749,8.542376681999999,-1.7288143285,183
116529,202847,264126,-4.3680976563,8.6476608764,-1.770688724,184
116601,202888,264142,-4.1790646709,8.6045900696,-1.6893327556000002,185
116675,202875,264104,-4.3034914461,8.5758761984,-1.7850456596,186
116715,202856,264125,-4.283152454,8.556733617599999,-1.6941184008,187
116754,202830,264054,-4.2927237444,8.709874264,-1.7503497318999999,188
116731,202894,264068,-4.4398823343,8.6045900696,-1.6893327556000002,189
116695,202829,264054,-4.3884366484,8.7421773691,-1.7886348934999998,190
116569,202786,264028,-4.3633120111,8.5854474888,-1.6462619487999999,191
116685,202784,264043,-4.242474469799999,8.5890367227,-1.6893327556000002,192
116691,202779,263974,-4.30708068,8.5244305125,-1.698904046,193
116652,202782,264008,-4.3728833015,8.5280197464,-1.7132609816000002,194
116715,202786,263976,-4.2699919297,8.6847496267,-1.6522440053,195
116828,202818,263989,-4.4123648744,8.709874264,-1.5696916256,196
116866,202807,263964,-4.2640098732,8.628518295600001,-1.7036896912000001,197
116889,202864,263920,-4.2664026958,8.6010008357,-1.603191142,198
116944,202847,263919,-4.2221354777,8.5950187792,-1.746760498,199
116997,202834,263943,-4.1300118076,8.5950187792,-1.6845471104,200
116975,202815,263901,-4.2412780585,8.61416136,-1.6331014245,201
117009,202851,263902,-4.2640098732,8.7373917239,-1.6701901747999999,202
116986,202856,263849,-4.2017964856,8.5998044244,-1.6654045296,203
117088,202821,263872,-4.3585263658999995,8.5758761984,-1.6510475939999998,204
117151,202840,263868,-4.3118663252,8.4562350684,-1.6474583601,205
117171,202845,263897,-4.30708068,8.5950187792,-1.5708880369,206
117261,202865,263911,-4.2939201557,8.6237326504,-1.6558332392,207
117310,202829,263809,-4.2735811636,8.5328053916,-1.6271193679999998,208
117367,202857,263827,-4.3740797127999995,8.6333039408,-1.6235301341000001,209
117379,202855,263769,-4.283152454,8.5328053916,-1.5230315848999998,210
117363,202822,263809,-4.2508493489,8.542376681999999,-1.6414763036,211
117390,202859,263762,-4.4973100767,8.5938223679,-1.5696916256,212
117459,202866,263754,-4.2927237444,8.4670027701,-1.7084753364,213
117483,202860,263748,-4.3214376156,8.6129649487,-1.6462619487999999,214
117509,202866,263752,-4.3501514868,8.4957166413,-1.5708880369,215
117572,202893,263737,-4.3645084224,8.7373917239,-1.5900306177,216
117667,202905,263742,-4.3692940676,8.6105721261,-1.6235301341000001,217
117758,202915,263671,-4.450650036,8.6524465216,-1.6127624323999998,218
117817,202883,263649,-4.3980079388,8.5375910368,-1.579262916,219
117908,202936,263629,-4.3405801963999995,8.6608214007,-1.5649059803999998,220
117976,202957,263616,-4.3357945512,8.6010008357,-1.6366906583999998,221
118062,202968,263610,-4.4123648744,8.5758761984,-1.5649059803999998,222
118119,202961,263584,-4.2400816472,8.6895352719,-1.5744772707999999,223
118200,203000,263562,-4.3836510032,8.6189470052,-1.5804593273,224
118189,203023,263554,-4.2699919297,8.5615192628,-1.5182459396999999,225
118216,203004,263599,-4.382454591899999,8.6715891024,-1.5948162629,226
118266,203015,263565,-4.4255253987,8.7469630143,-1.5230315848999998,227
118311,202983,263542,-4.3884366484,8.628518295600001,-1.6366906583999998,228
118387,202984,263538,-4.2508493489,8.5375910368,-1.6319050132,229
118419,202985,263522,-4.3884366484,8.61416136,-1.5888342063999998,230
118450,202948,263519,-4.2568314054,8.6991065623,-1.6271193679999998,231
118525,202978,263479,-4.2927237444,8.6775711589,-1.6510475939999998,232
118504,202971,263465,-4.3118663252,8.61416136,-1.6462619487999999,233
118536,202969,263478,-4.3214376156,8.662017812,-1.6319050132,234
118501,202973,263511,-4.3357945512,8.6177505939,-1.6797614652,235
118467,202976,263415,-4.2843488653,8.6249290617,-1.6749758199999998,236
118444,203006,263430,-4.3597227772,8.7804625307,-1.6175480776,237
118444,203048,263433,-4.2891345105,8.6608214007,-1.5649059803999998,238
118415,202988,263425,-4.3357945512,8.4478601893,-1.6905291669,239
118427,202993,263426,-4.3645084224,8.7134634979,-1.6139588437,240
118467,203008,263390,-4.3226340269,8.5950187792,-1.6558332392,241
118467,202986,263395,-4.3393837851,8.5758761984,-1.7192430381,242
118459,203008,263406,-4.3214376156,8.5938223679,-1.6893327556000002,243
118464,203029,263460,-4.2735811636,8.638089586,-1.7515461432000001,244
118417,203027,263415,-4.3357945512,8.6703926911,-1.7144573929,245
118483,203030,263440,-4.2987058009,8.574679787100001,-1.6713865861,246
118485,203030,263503,-4.1527436223,8.638089586,-1.6594224731,247
118436,202967,263467,-4.3728833015,8.569894141899999,-1.6426727149,248
118321,202939,263418,-4.30708068,8.7290168448,-1.6414763036,249
118253,202937,263386,-4.2209390664,8.6524465216,-1.6474583601,250
118226,202949,263340,-4.2939201557,8.7266240222,-1.6175480776,251
118212,202922,263405,-4.2436708811,8.6763747476,-1.842473402,252
118239,202896,263344,-4.3046878574,8.6656070459,-1.7623138449,253
118258,202926,263384,-4.259224228,8.7792661194,-1.6474583601,254
118283,202976,263343,-4.2269211229,8.764909183799999,-1.6701901747999999,255
118361,202977,263440,-4.0881374121,8.5758761984,-1.5649059803999998,256
118472,203028,263351,-4.3022950348,8.6524465216,-1.6833506991,257
118534,203022,263316,-4.3453658416,8.6129649487,-1.6893327556000002,258
118624,203043,263327,-4.415954108299999,8.6464644651,-1.6510475939999998,259
118622,203047,263281,-4.1599220901,8.5770726097,-1.5900306177,260
118771,203022,263265,-4.3980079388,8.6751783363,-1.6235301341000001,261
118784,203063,263219,-4.1982072517,8.6608214007,-1.698904046,262
118816,203045,263242,-4.242474469799999,8.5818582549,-1.6462619487999999,263
118792,203076,263217,-4.1599220901,8.8139620471,-1.6450655375,264
118769,203056,263192,-4.1850467274,8.5555372063,-1.531406464,265
118800,203107,263238,-4.3692940676,8.7326060787,-1.5840485612,266
118800,203088,263199,-4.2269211229,8.7134634979,-1.6462619487999999,267
118830,203037,263169,-4.331008906,8.5531443837,-1.5613167465000002,268
118876,203041,263158,-4.0833517669,8.5483587385,-1.5373885205000002,269
118943,203033,263171,-4.146761565799999,8.7421773691,-1.6223337227999999,270
118960,203024,263110,-4.2269211229,8.5998044244,-1.5756736821000001,271
118995,203040,263162,-4.3082770913,8.5531443837,-1.6319050132,272
119068,203038,263129,-4.320241204299999,8.7469630143,-1.6366906583999998,273
119033,203037,263103,-4.2975093896,8.6907316832,-1.6510475939999998,274
119004,203055,263083,-4.3393837851,8.6476608764,-1.6378870697,275
119007,203054,263120,-4.1934216065,8.6428752312,-1.5469598109,276
119054,203094,263078,-4.2460637037,8.628518295600001,-1.5984054967999999,277
119129,203051,263093,-4.2723847523,8.5615192628,-1.6319050132,278
119178,203083,263077,-4.378865358,8.685946038,-1.6929219895,279
119156,203067,263017,-4.2544385828,8.6895352719,-1.6761722313,280
119175,203057,263053,-4.2699919297,8.5627156741,-1.6522440053,281
119105,203051,263004,-4.3728833015,8.6895352719,-1.7802600144,282
119092,203021,263032,-4.3405801963999995,8.5710905532,-1.7132609816000002,283
119072,203046,263038,-4.2496529376,8.694320917099999,-1.7096717476999999,284
119039,203075,263033,-4.1790646709,8.7038922075,-1.663011707,285
119036,203045,263020,-4.2317067681000005,8.6045900696,-1.7371892076000002,286
119033,203072,262983,-4.2544385828,8.5471623272,-1.7527425545,287
119072,203060,262990,-4.2675991071,8.6608214007,-1.698904046,288
119072,203034,263018,-4.2735811636,8.6512501103,-1.7335999736999999,289
119099,203031,262932,-4.1934216065,8.817551281,-1.722832272,290
119110,203065,263003,-4.2209390664,8.695517328400001,-1.722832272,291
119139,202985,262960,-4.3357945512,8.543573093300001,-1.6893327556000002,292
119093,203002,262931,-4.2915273330999995,8.542376681999999,-1.7084753364,293
119018,202993,262888,-4.2221354777,8.6321075295,-1.698904046,294
118956,203005,262938,-4.1934216065,8.6751783363,-1.6570296505,295
118906,202977,262903,-4.2544385828,8.7756768855,-1.7407784414999998,296
118828,202996,262932,-4.30708068,8.6093757148,-1.6342978358,297
118813,202989,262852,-4.2783668087999995,8.5005022865,-1.8293128776999998,298
118731,202972,262900,-4.2735811636,8.6189470052,-1.7419748528,299
118765,202976,262900,-4.3298124947,8.5890367227,-1.7802600144,300
118694,202957,262831,-4.2209390664,8.6333039408,-1.7036896912000001,301
118660,202999,262823,-4.4590249151000005,8.7003029736,-1.8173487647,302
118614,202958,262791,-4.3334017286,8.6895352719,-1.7419748528,303
118492,202931,262798,-4.097708702499999,8.5280197464,-1.7431712641,304
118618,202977,262792,-4.2436708811,8.6033936583,-1.7312071511,305
118526,202944,262796,-4.2891345105,8.761319949899999,-1.7647066674999998,306
118497,202954,262765,-4.3441694303,8.6608214007,-1.603191142,307
118460,202992,262720,-4.30708068,8.5806618436,-1.6187444889,308
118395,202909,262739,-4.3345981399,8.6799639815,-1.5421741657,309
118358,202947,262696,-4.4303110439,8.7278204335,-1.6127624323999998,310
118348,202975,262678,-4.3178483817,8.6273218843,-1.6606188843999998,311
118343,202953,262652,-4.3214376156,8.636893174699999,-1.5840485612,312
118277,202950,262690,-4.30708068,8.5770726097,-1.6905291669,313
118257,202959,262623,-4.3322053173,8.5758761984,-1.6139588437,314
118191,202913,262637,-4.2544385828,8.5196448673,-1.6570296505,315
118131,202903,262587,-4.2987058009,8.6524465216,-1.603191142,316
118000,202842,262566,-4.1802610821999995,8.556733617599999,-1.5888342063999998,317
117816,202827,262525,-4.2412780585,8.6464644651,-1.6187444889,318
117678,202836,262533,-4.2975093896,8.6763747476,-1.603191142,319
117531,202781,262510,-4.3884366484,8.5806618436,-1.6606188843999998,320
117440,202789,262503,-4.1647077353,8.605786480899999,-1.6426727149,321
117367,202807,262488,-4.2125641873,8.636893174699999,-1.4763715442,322
117344,202837,262462,-4.3322053173,8.5986080131,-1.603191142,323
117292,202865,262496,-4.3836510032,8.542376681999999,-1.6235301341000001,324
117226,202818,262486,-4.3226340269,8.5854474888,-1.5888342063999998,325
117208,202821,262459,-4.378865358,8.7984087002,-1.6845471104,326
117133,202818,262454,-4.2364924133,8.6237326504,-1.6414763036,327
117119,202849,262402,-4.3322053173,8.5986080131,-1.6319050132,328
117100,202828,262469,-4.2257247116,8.7421773691,-1.531406464,329
117115,202853,262454,-4.3657048337,8.5998044244,-1.5888342063999998,330
117174,202897,262408,-4.42672181,8.6129649487,-1.6043875533,331
117179,202882,262393,-4.402793583999999,8.6991065623,-1.6319050132,332
117178,202906,262429,-4.4638105603,8.5483587385,-1.5936198516,333
117193,202932,262377,-4.2604206393,8.6033936583,-1.7168502155,334
117224,202922,262410,-4.4362931003999995,8.6225362391,-1.5840485612,335
117233,202935,262336,-4.2939201557,8.6464644651,-1.5361921092,336
117290,202958,262412,-4.3633120111,8.4670027701,-1.5984054967999999,337
117285,202941,262369,-4.3597227772,8.6010008357,-1.6414763036,338
117306,202921,262341,-4.3465622529,8.5136628108,-1.6606188843999998,339
117177,202905,262327,-4.2496529376,8.709874264,-1.5517454561000001,340
117006,202881,262268,-4.1647077353,8.5280197464,-1.7838492483,341
116871,202884,262266,-4.3405801963999995,8.4957166413,-1.6283157793,342
116784,202887,262258,-4.3226340269,8.61416136,-1.5888342063999998,343
116724,202867,262231,-4.3022950348,8.569894141899999,-1.5744772707999999,344
116706,202891,262256,-4.3501514868,8.5579300289,-1.6175480776,345
116709,202888,262181,-4.4829531411,8.5531443837,-1.7132609816000002,346
116736,202873,262205,-4.382454591899999,8.5710905532,-1.6701901747999999,347
116726,202923,262176,-4.3597227772,8.5196448673,-1.6606188843999998,348
116717,202928,262156,-4.2987058009,8.566304908,-1.6797614652,349
116739,202905,262126,-4.3166519704,8.4143606729,-1.603191142,350
116737,202907,262139,-4.3561335433,8.4993058752,-1.6366906583999998,351
116765,202904,262156,-4.3322053173,8.7373917239,-1.5756736821000001,352
116755,202962,262125,-4.3932222936,8.5232341012,-1.6414763036,353
116753,202966,262147,-4.3226340269,8.6045900696,-1.5565311013,354
116841,202980,262090,-4.2807596314,8.6321075295,-1.5708880369,355
116805,202991,262092,-4.3022950348,8.566304908,-1.5469598109,356
116864,202980,262072,-4.3980079388,8.529216157699999,-1.5661023917,357
116855,202984,262064,-4.3932222936,8.5854474888,-1.7072789251,358
116906,202983,262057,-4.1934216065,8.569894141899999,-1.6929219895,359
116890,202963,262046,-4.3645084224,8.641678819900001,-1.6558332392,360
116836,202967,262030,-4.3465622529,8.5675013193,-1.7407784414999998,361
116571,202926,261946,-4.2927237444,8.5854474888,-1.7515461432000001,362
116480,202916,261999,-4.3369909625,8.529216157699999,-1.6606188843999998,363
116396,202897,261979,-4.5367916496,8.590233134,-1.6558332392,364
116358,202875,261916,-4.2843488653,8.694320917099999,-1.6474583601,365
116325,202905,261964,-4.3920258823,8.7421773691,-1.6319050132,366
116330,202937,261942,-4.3357945512,8.4658063588,-1.7324035624,367
116360,202946,261974,-4.3836510032,8.638089586,-1.6713865861,368
116387,202961,261948,-4.4111684631,8.5040915204,-1.6091731985,369
116390,202975,261965,-4.2257247116,8.4693955927,-1.7563317884,370
116383,202968,261956,-4.2987058009,8.7003029736,-1.7647066674999998,371
116404,202966,261936,-4.4554356812,8.7182491431,-1.7551353771,372
116424,202970,261939,-4.3034914461,8.5710905532,-1.6510475939999998,373
116435,202956,261934,-4.3106699139,8.6177505939,-1.7419748528,374
116472,202998,261926,-4.2556349941,8.6476608764,-1.6797614652,375
116495,203002,261959,-4.3322053173,8.6668034572,-1.531406464,376
116521,203042,261928,-4.5308095931,8.4909309961,-1.6510475939999998,377
116554,203004,261880,-4.2508493489,8.769694829,-1.6606188843999998,378
116576,203052,261880,-4.2173498325,8.4574314797,-1.6606188843999998,379
116622,203057,261876,-4.2723847523,8.5615192628,-1.6941184008,380
116589,203016,261822,-4.4039899953,8.6464644651,-1.6797614652,381
116490,203008,261892,-4.354937132,8.566304908,-1.5948162629,382
116321,202963,261805,-4.2735811636,8.5615192628,-1.6893327556000002,383
116173,202954,261844,-4.2807596314,8.6045900696,-1.6941184008,384
116039,202932,261827,-4.4542392699,8.6428752312,-1.7276179172000001,385
116004,202976,261789,-4.4877387863000004,8.5615192628,-1.7371892076000002,386
115932,202964,261848,-4.5020957219,8.5806618436,-1.7455640867,387
115933,202951,261842,-4.3645084224,8.6991065623,-1.7611174336,388
115956,202967,261835,-4.3884366484,8.5328053916,-1.6797614652,389
115984,202976,261790,-4.4075792292,8.5232341012,-1.6654045296,390
115959,202979,261787,-4.3633120111,8.5280197464,-1.6809578765,391
115935,202997,261854,-4.4362931003999995,8.5088771656,-1.6558332392,392
115923,202957,261790,-4.2412780585,8.6225362391,-1.6893327556000002,393
115884,203035,261771,-4.3334017286,8.5998044244,-1.6797614652,394
115921,203040,261795,-4.3609191885,8.6081793035,-1.6941184008,395
115968,203011,261797,-4.3657048337,8.717052731799999,-1.7036896912000001,396
115948,203025,261798,-4.2747775749,8.5471623272,-1.7407784414999998,397
115994,203034,261778,-4.378865358,8.6895352719,-1.7563317884,398
115973,203008,261797,-4.4410787456,8.6715891024,-1.698904046,399
116010,203055,261732,-4.4315074552,8.5471623272,-1.6079767872,400
116032,203014,261725,-4.4015971727,8.6895352719,-1.698904046,401
116036,203092,261720,-4.2747775749,8.6476608764,-1.79461695,402
116044,203048,261761,-4.4255253987,8.551947972399999,-1.8029918290999998,403
116085,203077,261751,-4.2687955184,8.761319949899999,-1.7898313048,404
116109,203056,261786,-4.378865358,8.638089586,-1.7659030788,405
116099,203052,261722,-4.2329031794,8.5328053916,-1.6606188843999998,406
116146,203076,261732,-4.2364924133,8.5603228515,-1.746760498,407
116187,203048,261763,-4.2281175342,8.6703926911,-1.7659030788,408
116194,203053,261767,-4.4303110439,8.5998044244,-1.6606188843999998,409
116190,203081,261683,-4.4219361648,8.5280197464,-1.6127624323999998,410
116212,203084,261702,-4.3597227772,8.685946038,-1.7503497318999999,411
116251,203071,261703,-4.4602213264,8.5280197464,-1.5469598109,412
116267,203099,261693,-4.2604206393,8.5710905532,-1.7036896912000001,413
116264,203066,261630,-4.331008906,8.6668034572,-1.6797614652,414
116240,203091,261679,-4.3082770913,8.6045900696,-1.6510475939999998,415
116280,203076,261682,-4.3214376156,8.6345003521,-1.603191142,416
116265,203056,261606,-4.4171505196,8.7409809578,-1.6462619487999999,417
116221,203068,261691,-4.402793583999999,8.574679787100001,-1.5840485612,418
116019,203039,261677,-4.2879380992,8.5471623272,-1.7036896912000001,419
115793,202962,261616,-4.2795632201,8.6428752312,-1.6845471104,420
115623,202954,261591,-4.3776689467,8.6512501103,-1.6737794087,421
115590,202999,261626,-4.42672181,8.638089586,-1.6510475939999998,422
115535,202963,261636,-4.1886359613,8.6237326504,-1.6833506991,423
115489,202959,261686,-4.283152454,8.5005022865,-1.6366906583999998,424
115511,202988,261635,-4.2652062845000005,8.6799639815,-1.7036896912000001,425
115516,203027,261664,-4.2161534212,8.7242311996,-1.7216358607,426
115382,203012,261640,-4.3393837851,8.6656070459,-1.6366906583999998,427
115404,202986,261664,-4.3752761241,8.5758761984,-1.5852449725,428
115343,203032,261690,-4.3322053173,8.5866439001,-1.6845471104,429
115381,203022,261629,-4.4398823343,8.694320917099999,-1.603191142,430
115357,203004,261698,-4.3513478981,8.7134634979,-1.6594224731,431
115361,203032,261668,-4.30708068,8.5531443837,-1.6749758199999998,432
115361,203054,261635,-4.3728833015,8.6799639815,-1.5421741657,433
115358,203051,261692,-4.2221354777,8.5758761984,-1.579262916,434
115389,203060,261766,-4.4458643908,8.7182491431,-1.5421741657,435
115388,203047,261699,-4.5212383027000005,8.4394853102,-1.507478238,436
115395,203065,261658,-4.2460637037,8.5136628108,-1.6127624323999998,437
115393,203102,261649,-4.2879380992,8.605786480899999,-1.6414763036,438
115441,203068,261646,-4.5080777784,8.5770726097,-1.6941184008,439
115461,203099,261659,-4.4123648744,8.6321075295,-1.4500504956,440
115531,203015,261679,-4.3597227772,8.7385881352,-1.698904046,441
115569,203098,261626,-4.2891345105,8.6524465216,-1.6223337227999999,442
115597,203144,261685,-4.3130627365,8.5005022865,-1.6319050132,443
115550,203153,261692,-4.4123648744,8.6847496267,-1.5469598109,444
115678,203155,261684,-4.450650036,8.5531443837,-1.5649059803999998,445
115692,203168,261684,-4.3728833015,8.584251077500001,-1.5936198516,446
115602,203090,261637,-4.2927237444,8.596215190499999,-1.5601203352,447
115371,203054,261701,-4.3082770913,8.4143606729,-1.6881363443,448
115200,203074,261672,-4.2544385828,8.5328053916,-1.7264215058999999,449
115135,203069,261654,-4.4638105603,8.5615192628,-1.6522440053,450
115091,203066,261729,-4.2783668087999995,8.5471623272,-1.6797614652,451
115067,203102,261738,-4.474578262,8.5459659159,-1.5984054967999999,452
115071,203098,261755,-4.3704904789,8.4478601893,-1.6654045296,453
115080,203125,261788,-4.3178483817,8.5471623272,-1.5984054967999999,454
115102,203119,261792,-4.354937132,8.662017812,-1.4991033588999998,455
115134,203101,261768,-4.3920258823,8.61416136,-1.5804593273,456
115124,203124,261857,-4.3645084224,8.7266240222,-1.579262916,457
115095,203130,261811,-4.2364924133,8.584251077500001,-1.5756736821000001,458
115139,203142,261838,-4.4327038665,8.638089586,-1.5230315848999998,459
115163,203144,261865,-4.4494536247,8.6751783363,-1.6091731985,460
115226,203170,261854,-4.378865358,8.5854474888,-1.6175480776,461
115267,203134,261896,-4.4554356812,8.641678819900001,-1.5182459396999999,462
115303,203204,261899,-4.2460637037,8.6464644651,-1.7072789251,463
115324,203159,261925,-4.4721854394000005,8.542376681999999,-1.6462619487999999,464
115364,203180,261880,-4.4793639072,8.584251077500001,-1.6977076347,465
115424,203225,261868,-4.42672181,8.694320917099999,-1.6737794087,466
115486,203212,261922,-4.2891345105,8.6321075295,-1.7084753364,467
115517,203141,261948,-4.2843488653,8.5232341012,-1.6606188843999998,468
115538,203176,261934,-4.2891345105,8.5232341012,-1.6235301341000001,469
115566,203220,261941,-4.2783668087999995,8.5232341012,-1.5804593273,470
115611,203200,261934,-4.3836510032,8.6560357555,-1.5708880369,471
115641,203225,261901,-4.3226340269,8.7038922075,-1.6127624323999998,472
115701,203209,261950,-4.3884366484,8.7050886188,-1.5278172301,473
115765,203204,261901,-4.3513478981,8.5806618436,-1.6666009409,474
115776,203197,261930,-4.42672181,8.566304908,-1.5649059803999998,475
115806,203224,261955,-4.331008906,8.6010008357,-1.5996019081000001,476
115883,203251,261910,-4.4829531411,8.6476608764,-1.7168502155,477
115874,203237,261916,-4.3357945512,8.4993058752,-1.6043875533,478
115863,203202,261965,-4.4063828179,8.681160392799999,-1.7084753364,479
115917,203221,261905,-4.2556349941,8.6751783363,-1.7084753364,480
115968,203231,261945,-4.3106699139,8.5710905532,-1.5804593273,481
115898,203194,261939,-4.4685962055,8.6093757148,-1.6331014245,482
115663,203103,261890,-4.3453658416,8.694320917099999,-1.7084753364,483
115443,203115,261932,-4.3752761241,8.5328053916,-1.5852449725,484
115305,203077,261942,-4.3752761241,8.5100735769,-1.6797614652,485
115259,203128,262013,-4.4255253987,8.6333039408,-1.6749758199999998,486
115228,203092,262046,-4.4554356812,8.6033936583,-1.6893327556000002,487
115166,203087,262049,-4.5164526575,8.6045900696,-1.7419748528,488
115241,203109,262126,-4.1982072517,8.638089586,-1.7611174336,489
115265,203120,262133,-4.2795632201,8.6177505939,-1.6749758199999998,490
115333,203127,262164,-4.3226340269,8.569894141899999,-1.7850456596,491
115310,203138,262184,-4.4219361648,8.6273218843,-1.6701901747999999,492
115275,203117,262183,-4.3836510032,8.518448456,-1.5804593273,493
115268,203121,262159,-4.492524431500001,8.6237326504,-1.6319050132,494
115353,203166,262218,-4.4362931003999995,8.6572321668,-1.6319050132,495
115315,203169,262264,-4.3776689467,8.6129649487,-1.6941184008,496
115409,203180,262241,-4.3597227772,8.5950187792,-1.7084753364,497
115395,203197,262297,-4.3453658416,8.6177505939,-1.6893327556000002,498
115472,203206,262281,-4.30708068,8.6608214007,-1.6893327556000002,499
115454,203192,262263,-4.402793583999999,8.7038922075,-1.6654045296,500
115466,203226,262346,-4.3980079388,8.5710905532,-1.6845471104,501
115533,203242,262300,-4.4135612857,8.6081793035,-1.5613167465000002,502
115548,203209,262320,-4.2879380992,8.5950187792,-1.6319050132,503
115610,203232,262307,-4.3836510032,8.6081793035,-1.7180466268,504
115613,203268,262310,-4.4554356812,8.4813597057,-1.6893327556000002,505
115692,203252,262371,-4.3944187049,8.6321075295,-1.6235301341000001,506
115676,203246,262287,-4.1455651545,8.471788415299999,-1.6319050132,507
115733,203256,262314,-4.3884366484,8.7134634979,-1.5936198516,508
115786,203227,262291,-4.4362931003999995,8.5651084967,-1.5134602944999997,509
115833,203267,262330,-4.1790646709,8.6321075295,-1.7551353771,510
115892,203266,262330,-4.247260115,8.5627156741,-1.7216358607,511
115909,203245,262356,-4.3417766077,8.5375910368,-1.6845471104,512
115871,203268,262267,-4.3226340269,8.6129649487,-1.722832272,513
115914,203248,262352,-4.3980079388,8.5998044244,-1.6175480776,514
115970,203215,262343,-4.4135612857,8.708677852700001,-1.6893327556000002,515
115919,203250,262353,-4.3645084224,8.49452023,-1.6331014245,516
115840,203209,262324,-4.3393837851,8.5938223679,-1.746760498,517
115536,203141,262296,-4.4446679795,8.6608214007,-1.6941184008,518
115311,203108,262347,-4.3836510032,8.5148592221,-1.6510475939999998,519
115190,203075,262374,-4.3645084224,8.6237326504,-1.7036896912000001,520
115100,203080,262389,-4.3034914461,8.6081793035,-1.5948162629,521
114978,203110,262444,-4.3944187049,8.5459659159,-1.7264215058999999,522
115060,203121,262452,-4.3166519704,8.4897345848,-1.6893327556000002,523
115116,203146,262514,-4.4039899953,8.5806618436,-1.7036896912000001,524
115072,203153,262497,-4.3740797127999995,8.6524465216,-1.6331014245,525
115073,203163,262520,-4.3968115275,8.6452680538,-1.7647066674999998,526
115031,203119,262575,-4.4829531411,8.6237326504,-1.6366906583999998,527
114983,203167,262597,-4.2759739861999995,8.6249290617,-1.6127624323999998,528
114965,203115,262596,-4.3369909625,8.7182491431,-1.5481562222,529
115005,203196,262617,-4.378865358,8.5280197464,-1.5948162629,530
114994,203151,262615,-4.2652062845000005,8.6189470052,-1.5601203352,531
115033,203172,262619,-4.2041893082,8.638089586,-1.6654045296,532
115011,203179,262652,-4.3166519704,8.5998044244,-1.5996019081000001,533
115035,203163,262610,-4.4494536247,8.5998044244,-1.5840485612,534
114956,203153,262662,-4.3740797127999995,8.8749790234,-1.5852449725,535
115094,203183,262644,-4.4327038665,8.543573093300001,-1.5804593273,536
115053,203179,262671,-4.2640098732,8.6177505939,-1.6223337227999999,537
115094,203174,262631,-4.3692940676,8.5052879317,-1.4847464232999998,538
115112,203183,262655,-4.4063828179,8.61416136,-1.6941184008,539
115141,203193,262595,-4.3884366484,8.7038922075,-1.6941184008,540
115150,203180,262691,-4.2364924133,8.6799639815,-1.5601203352,541
115166,203206,262685,-4.5176490688,8.4801632944,-1.6414763036,542
115188,203209,262638,-4.498506487999999,8.638089586,-1.6079767872,543
115290,203215,262645,-4.3501514868,8.5280197464,-1.5936198516,544
115290,203196,262647,-4.450650036,8.5471623272,-1.6319050132,545
115255,203192,262658,-4.3513478981,8.5651084967,-1.5230315848999998,546
115283,203178,262679,-4.3752761241,8.6991065623,-1.5661023917,547
115221,203179,262629,-4.3405801963999995,8.6105721261,-1.6187444889,548
115360,203211,262635,-4.3836510032,8.3952180921,-1.5218351736,549
115335,203159,262620,-4.3740797127999995,8.5328053916,-1.6223337227999999,550
115155,203090,262653,-4.4398823343,8.518448456,-1.5182459396999999,551
114894,203046,262616,-4.4685962055,8.6512501103,-1.5936198516,552
114735,203009,262633,-4.3405801963999995,8.566304908,-1.55533469,553
114624,203035,262657,-4.3645084224,8.6045900696,-1.5601203352,554
114643,203058,262699,-4.4937208428,8.5758761984,-1.5601203352,555
114617,203065,262727,-4.5020957219,8.6931245058,-1.5134602944999997,556
114651,203068,262738,-4.3645084224,8.5136628108,-1.5361921092,557
114687,203072,262803,-4.415954108299999,8.6093757148,-1.5278172301,558
114775,203075,262838,-4.5164526575,8.7050886188,-1.5936198516,559
114780,203143,262780,-4.271188340999999,8.7373917239,-1.6115660211,560
114756,203113,262810,-4.3884366484,8.7038922075,-1.6546368279,561
114771,203114,262796,-4.2269211229,8.6656070459,-1.4321043261,562
114812,203131,262854,-4.2448672924,8.5471623272,-1.5517454561000001,563
114847,203163,262807,-4.4279182213,8.5627156741,-1.5649059803999998,564
114877,203149,262882,-4.4410787456,8.638089586,-1.5840485612,565
114948,203184,262866,-4.2652062845000005,8.5938223679,-1.507478238,566
114969,203175,262853,-4.1886359613,8.6524465216,-1.6366906583999998,567
115047,203210,262835,-4.3501514868,8.5136628108,-1.6462619487999999,568
115100,203232,262890,-4.5032921331999995,8.638089586,-1.6701901747999999,569
115142,203220,262842,-4.4518464473,8.695517328400001,-1.5086746492999998,570
115180,203225,262846,-4.3417766077,8.6799639815,-1.5661023917,571
115218,203206,262848,-4.3704904789,8.685946038,-1.5696916256,572
115265,203292,262823,-4.3836510032,8.673981925,-1.7072789251,573
115325,203270,262838,-4.4697926167999995,8.5758761984,-1.6749758199999998,574
115369,203241,262827,-4.5355952383,8.628518295600001,-1.5852449725,575
115411,203251,262848,-4.2520457602,8.4861453509,-1.6558332392,576
115459,203261,262769,-4.2173498325,8.6177505939,-1.6354942471,577
115538,203248,262823,-4.3130627365,8.6093757148,-1.6929219895,578
115563,203267,262795,-4.4171505196,8.6273218843,-1.5601203352,579
115538,203260,262840,-4.3645084224,8.569894141899999,-1.5661023917,580
115643,203261,262810,-4.5068813671,8.6177505939,-1.7120645703,581
115675,203270,262821,-4.42672181,8.6189470052,-1.6414763036,582
115565,203198,262770,-4.3680976563,8.4993058752,-1.5385849318,583
115265,203167,262788,-4.3022950348,8.6572321668,-1.6462619487999999,584
115121,203157,262785,-4.3692940676,8.5998044244,-1.7790636031,585
115047,203167,262819,-4.4315074552,8.5040915204,-1.6809578765,586
115060,203170,262875,-4.402793583999999,8.5471623272,-1.7132609816000002,587
115094,203168,262857,-4.402793583999999,8.551947972399999,-1.5230315848999998,588
115122,203232,262869,-4.3704904789,8.6045900696,-1.7934205387,589
115180,203223,262909,-4.3645084224,8.5471623272,-1.5756736821000001,590
115246,203234,262942,-4.2987058009,8.5232341012,-1.6654045296,591
115250,203266,262878,-4.3369909625,8.6273218843,-1.6618152957,592
115274,203210,262894,-4.4315074552,8.5280197464,-1.7371892076000002,593
115300,203251,262942,-4.3453658416,8.5471623272,-1.7324035624,594
115257,203239,262951,-4.2795632201,8.4993058752,-1.5230315848999998,595
115325,203260,262881,-4.2508493489,8.6512501103,-1.7180466268,596
115379,203258,262950,-4.4171505196,8.6799639815,-1.6689937635,597
115398,203262,262910,-4.3836510032,8.4430745441,-1.6570296505,598
115429,203311,262947,-4.6002014485,8.5854474888,-1.7898313048,599
115488,203354,262995,-4.3166519704,8.551947972399999,-1.6558332392,600
115576,203318,262956,-4.4315074552,8.566304908,-1.6510475939999998,601
115567,203333,262950,-4.465006971599999,8.596215190499999,-1.7084753364,602
115602,203305,262948,-4.3597227772,8.3820575678,-1.5756736821000001,603
115643,203339,262956,-4.3274196721000004,8.5136628108,-1.7180466268,604
115596,203338,262994,-4.3214376156,8.7038922075,-1.7563317884,605
115715,203363,262964,-4.582255279,8.5758761984,-1.6079767872,606
115791,203381,262980,-4.5355952383,8.6333039408,-1.6761722313,607
115806,203358,262975,-4.3369909625,8.5758761984,-1.7168502155,608
115863,203365,262981,-4.3513478981,8.7003029736,-1.7324035624,609
115839,203354,262977,-4.2508493489,8.641678819900001,-1.6235301341000001,610
115666,203273,262942,-4.354937132,8.5088771656,-1.6893327556000002,611
115331,203244,262958,-4.2987058009,8.5854474888,-1.6797614652,612
115190,203172,262951,-4.4458643908,8.685946038,-1.7132609816000002,613
115113,203207,262943,-4.3597227772,8.628518295600001,-1.5936198516,614
115104,203243,262999,-4.378865358,8.6656070459,-1.6618152957,615
115123,203241,262994,-4.4123648744,8.5938223679,-1.6654045296,616
115118,203268,263096,-4.2939201557,8.5328053916,-1.7192430381,617
115207,203308,263062,-4.4733818507,8.5483587385,-1.6462619487999999,618
115172,203295,263005,-4.4183469309,8.5328053916,-1.7276179172000001,619
115184,203321,263023,-4.3657048337,8.5854474888,-1.7324035624,620
115147,203312,263093,-4.208974953399999,8.556733617599999,-1.7850456596,621
115149,203314,263115,-4.3262232608,8.556733617599999,-1.6845471104,622
115163,203300,263114,-4.4123648744,8.7266240222,-1.6498511827,623
115197,203325,263153,-4.4063828179,8.638089586,-1.7276179172000001,624
115219,203352,263101,-4.3501514868,8.5710905532,-1.603191142,625
115236,203348,263140,-4.2783668087999995,8.7230347883,-1.7036896912000001,626
115271,203339,263156,-4.5116670123,8.5998044244,-1.6701901747999999,627
115300,203394,263137,-4.4315074552,8.5758761984,-1.5852449725,628
115307,203356,263162,-4.3932222936,8.566304908,-1.6606188843999998,629
115351,203349,263118,-4.4554356812,8.6045900696,-1.6175480776,630
115352,203349,263131,-4.2855452766,8.694320917099999,-1.6558332392,631
115293,203334,263145,-4.3776689467,8.5950187792,-1.5936198516,632
115340,203341,263168,-4.2221354777,8.6428752312,-1.7180466268,633
115348,203332,263132,-4.4685962055,8.5854474888,-1.6510475939999998,634
115362,203348,263160,-4.3322053173,8.61416136,-1.6749758199999998,635
115346,203345,263186,-4.4219361648,8.5806618436,-1.7132609816000002,636
115379,203336,263135,-4.2735811636,8.5950187792,-1.5996019081000001,637
115335,203324,263176,-4.2496529376,8.5088771656,-1.5661023917,638
115379,203313,263158,-4.2939201557,8.4813597057,-1.6701901747999999,639
115396,203311,263120,-4.3657048337,8.5375910368,-1.6414763036,640
115410,203298,263123,-4.3118663252,8.4287176085,-1.5804593273,641
115448,203301,263121,-4.4841495524,8.628518295600001,-1.6139588437,642
115258,203241,263122,-4.4075792292,8.551947972399999,-1.6414763036,643
114956,203172,263047,-4.4171505196,8.5950187792,-1.5326028753,644
114682,203156,263064,-4.402793583999999,8.3940216808,-1.4560325521,645
114519,203156,263141,-4.4889351976,8.4335032537,-1.7324035624,646
114444,203191,263171,-4.3393837851,8.5866439001,-1.6366906583999998,647
114354,203160,263130,-4.283152454,8.551947972399999,-1.5840485612,648
114380,203194,263211,-4.2269211229,8.5615192628,-1.531406464,649
114417,203205,263186,-4.3405801963999995,8.6476608764,-1.6462619487999999,650
114414,203242,263219,-4.2927237444,8.7182491431,-1.6558332392,651
114445,203199,263224,-4.4362931003999995,8.7409809578,-1.5804593273,652
114383,203194,263240,-4.3980079388,8.6656070459,-1.5230315848999998,653
114357,203219,263257,-4.3214376156,8.7003029736,-1.5182459396999999,654
114345,203238,263227,-4.3980079388,8.5196448673,-1.5840485612,655
114337,203251,263291,-4.3357945512,8.4430745441,-1.5230315848999998,656
114341,203256,263277,-4.4602213264,8.6093757148,-1.6319050132,657
114398,203238,263292,-4.354937132,8.5950187792,-1.6654045296,658
114406,203205,263287,-4.4075792292,8.7804625307,-1.5840485612,659
114403,203237,263339,-4.3692940676,8.5148592221,-1.698904046,660
114417,203229,263310,-4.4494536247,8.6799639815,-1.4931213024,661
114457,203277,263353,-4.4171505196,8.551947972399999,-1.55533469,662
114503,203251,263361,-4.4554356812,8.556733617599999,-1.5649059803999998,663
114575,203244,263318,-4.3322053173,8.6703926911,-1.459621786,664
114616,203264,263353,-4.2699919297,8.4622171249,-1.6642081183,665
114629,203265,263380,-4.42672181,8.5088771656,-1.4943177136999999,666
114672,203267,263340,-4.2496529376,8.5950187792,-1.5984054967999999,667
114732,203245,263326,-4.5786660451,8.5340018029,-1.5756736821000001,668
114775,203244,263376,-4.4602213264,8.538787448099999,-1.55533469,669
114815,203281,263320,-4.2604206393,8.5878403114,-1.6163516663,670
114881,203269,263323,-4.2891345105,8.6273218843,-1.5409777544,671
114966,203207,263284,-4.4255253987,8.6428752312,-1.6127624323999998,672
114941,203311,263279,-4.4087756405,8.484948939599999,-1.6139588437,673
115075,203275,263287,-4.4219361648,8.628518295600001,-1.5649059803999998,674
115095,203252,263328,-4.3633120111,8.556733617599999,-1.3950155758,675
114841,203231,263231,-4.3405801963999995,8.7517486595,-1.5840485612,676
114643,203196,263241,-4.4398823343,8.4861453509,-1.5613167465000002,677
114496,203160,263264,-4.4315074552,8.5710905532,-1.6749758199999998,678
114489,203173,263266,-4.259224228,8.73380249,-1.5565311013,679
114541,203191,263279,-4.4327038665,8.529216157699999,-1.5421741657,680
114588,203235,263322,-4.3166519704,8.4801632944,-1.5996019081000001,681
114641,203266,263366,-4.2879380992,8.551947972399999,-1.6235301341000001,682
114733,203246,263373,-4.3214376156,8.6895352719,-1.6366906583999998,683
114774,203271,263391,-4.3836510032,8.6608214007,-1.5517454561000001,684
114797,203321,263395,-4.2795632201,8.5986080131,-1.7264215058999999,685
114775,203283,263404,-4.4554356812,8.6524465216,-1.5421741657,686
114837,203341,263414,-4.3357945512,8.5328053916,-1.5852449725,687
114854,203323,263455,-4.295116567,8.538787448099999,-1.6043875533,688
114881,203311,263436,-4.3932222936,8.6763747476,-1.6127624323999998,689
114940,203336,263384,-4.2556349941,8.7122670866,-1.7359927963,690
115000,203332,263460,-4.3704904789,8.542376681999999,-1.5984054967999999,691
115049,203340,263473,-4.3453658416,8.6524465216,-1.7048861025,692
115113,203374,263483,-4.2747775749,8.641678819900001,-1.5613167465000002,693
115168,203357,263437,-4.2843488653,8.7756768855,-1.6797614652,694
115235,203363,263455,-4.3369909625,8.636893174699999,-1.579262916,695
115266,203380,263490,-4.4171505196,8.5854474888,-1.7455640867,696
115302,203383,263473,-4.2460637037,8.6560357555,-1.722832272,697
115386,203394,263466,-4.331008906,8.6512501103,-1.6845471104,698
115412,203385,263517,-4.3357945512,8.628518295600001,-1.6797614652,699
115463,203428,263477,-4.450650036,8.6668034572,-1.7180466268,700
115453,203389,263466,-4.3740797127999995,8.6476608764,-1.6091731985,701
115247,203325,263448,-4.2687955184,8.61416136,-1.7084753364,702
114946,203267,263447,-4.3453658416,8.638089586,-1.6319050132,703
114875,203278,263471,-4.3322053173,8.7134634979,-1.6366906583999998,704
114802,203217,263467,-4.4422751569,8.6560357555,-1.6797614652,705
114854,203290,263503,-4.2125641873,8.5280197464,-1.7180466268,706
114904,203285,263501,-4.3453658416,8.6333039408,-1.6091731985,707
114890,203363,263565,-4.3740797127999995,8.628518295600001,-1.6654045296,708
114962,203356,263638,-4.3178483817,8.6560357555,-1.5948162629,709
115023,203367,263594,-4.2496529376,8.518448456,-1.7419748528,710
114981,203362,263575,-4.4315074552,8.5806618436,-1.6845471104,711
114995,203363,263625,-4.354937132,8.5328053916,-1.6893327556000002,712
114995,203380,263568,-4.3262232608,8.5950187792,-1.7407784414999998,713
115006,203365,263658,-4.2209390664,8.5471623272,-1.5708880369,714
115016,203373,263626,-4.474578262,8.5471623272,-1.7371892076000002,715
115061,203433,263662,-4.2544385828,8.5052879317,-1.6618152957,716
115109,203375,263679,-4.3752761241,8.5603228515,-1.6331014245,717
115129,203392,263703,-4.3920258823,8.5710905532,-1.6713865861,718
115167,203381,263657,-4.3130627365,8.5148592221,-1.6402798923,719
115182,203377,263682,-4.3800617693,8.6656070459,-1.770688724,720
115255,203386,263720,-4.3034914461,8.6715891024,-1.7742779578999999,721
115254,203415,263698,-4.2747775749,8.5375910368,-1.7276179172000001,722
115238,203411,263753,-4.3896330597,8.7134634979,-1.698904046,723
115287,203415,263732,-4.2927237444,8.4981094639,-1.6797614652,724
115214,203376,263715,-4.3609191885,8.6524465216,-1.8137595308,725
114941,203300,263671,-4.3657048337,8.6799639815,-1.7371892076000002,726
114708,203254,263656,-4.354937132,8.4335032537,-1.7036896912000001,727
114666,203280,263728,-4.2891345105,8.5280197464,-1.7982061838999999,728
114605,203296,263760,-4.4602213264,8.5758761984,-1.722832272,729
114635,203231,263802,-4.4841495524,8.769694829,-1.6749758199999998,730
114638,203268,263839,-4.2843488653,8.6033936583,-1.7084753364,731
114677,203349,263863,-4.2891345105,8.6703926911,-1.6558332392,732
114702,203333,263941,-4.3178483817,8.5818582549,-1.7192430381,733
114739,203345,263920,-4.2699919297,8.7517486595,-1.6618152957,734
114737,203339,263913,-4.3345981399,8.5316089803,-1.7371892076000002,735
114687,203326,263946,-4.2317067681000005,8.5758761984,-1.7132609816000002,736
114699,203341,263958,-4.4315074552,8.6093757148,-1.6426727149,737
114768,203336,263908,-4.3118663252,8.681160392799999,-1.6893327556000002,738
114748,203342,263986,-4.3178483817,8.4993058752,-1.7132609816000002,739
114827,203334,264000,-4.2699919297,8.5088771656,-1.7216358607,740
114847,203377,264030,-4.4733818507,8.590233134,-1.6845471104,741
114854,203352,264058,-4.3836510032,8.4813597057,-1.7563317884,742
114886,203388,264086,-4.2939201557,8.5998044244,-1.6893327556000002,743
114907,203339,264054,-4.4889351976,8.6189470052,-1.6606188843999998,744
114970,203373,264079,-4.387240237099999,8.7960158776,-1.6187444889,745
114993,203354,264124,-4.4075792292,8.641678819900001,-1.6701901747999999,746
114993,203365,264034,-4.1802610821999995,8.6201434165,-1.7096717476999999,747
115020,203354,264093,-4.5451665287,8.6321075295,-1.7694923127,748
115073,203342,264110,-4.4362931003999995,8.590233134,-1.7934205387,749
115092,203390,264087,-4.1599220901,8.5914295453,-1.5948162629,750
115138,203382,264116,-4.2795632201,8.7026957962,-1.7132609816000002,751
115135,203398,264108,-4.3130627365,8.5854474888,-1.6079767872,752
115233,203394,264070,-4.2927237444,8.4861453509,-1.5696916256,753
115153,203397,264118,-4.4638105603,8.5651084967,-1.698904046,754
114973,203261,264003,-4.4123648744,8.556733617599999,-1.6414763036,755
114660,203240,264015,-4.4602213264,8.7290168448,-1.6079767872,756
114466,203190,264032,-4.2699919297,8.5938223679,-1.6079767872,757
114432,203187,264042,-4.2652062845000005,8.4000037373,-1.531406464,758
114432,203230,264110,-4.4458643908,8.7194455544,-1.6043875533,759
114387,203218,264128,-4.3692940676,8.6476608764,-1.5852449725,760
114371,203232,264124,-4.4123648744,8.6225362391,-1.5134602944999997,761
114411,203219,264144,-4.378865358,8.6608214007,-1.6414763036,762
114446,203297,264227,-4.354937132,8.6703926911,-1.5230315848999998,763
114499,203282,264270,-4.3453658416,8.6847496267,-1.6893327556000002,764
114468,203286,264222,-4.378865358,8.5710905532,-1.5613167465000002,765
114444,203292,264241,-4.3226340269,8.6847496267,-1.6666009409,766
114458,203290,264288,-4.4961136654,8.556733617599999,-1.5134602944999997,767
114475,203264,264301,-4.450650036,8.6751783363,-1.5134602944999997,768
114498,203264,264274,-4.3262232608,8.685946038,-1.5936198516,769
114532,203276,264328,-4.2927237444,8.61416136,-1.7036896912000001,770
114599,203314,264295,-4.3453658416,8.4610207136,-1.6797614652,771
114659,203287,264306,-4.402793583999999,8.4993058752,-1.6175480776,772
114747,203290,264357,-4.2640098732,8.638089586,-1.6127624323999998,773
114794,203316,264310,-4.42672181,8.6273218843,-1.6366906583999998,774
114842,203351,264302,-4.3262232608,8.5950187792,-1.6749758199999998,775
114964,203355,264313,-4.2927237444,8.6237326504,-1.5840485612,776
114992,203336,264357,-4.2843488653,8.471788415299999,-1.6271193679999998,777
115089,203391,264346,-4.3657048337,8.6991065623,-1.5613167465000002,778
115147,203353,264366,-4.2783668087999995,8.6703926911,-1.7312071511,779
115212,203415,264346,-4.2699919297,8.6476608764,-1.5469598109,780
115278,203411,264358,-4.3130627365,8.4574314797,-1.6366906583999998,781
115347,203442,264330,-4.2460637037,8.6273218843,-1.5708880369,782
115416,203434,264363,-4.42672181,8.6225362391,-1.5517454561000001,783
115467,203445,264320,-4.4973100767,8.5710905532,-1.6175480776,784
115531,203453,264371,-4.1934216065,8.6560357555,-1.5888342063999998,785
115627,203456,264328,-4.474578262,8.5052879317,-1.7084753364,786
115690,203489,264352,-4.354937132,8.6081793035,-1.6079767872,787
115699,203497,264342,-4.4315074552,8.61416136,-1.6235301341000001,788
115662,203418,264267,-4.3118663252,8.6428752312,-1.6510475939999998,789
115318,203307,264245,-4.2891345105,8.419146318100001,-1.6319050132,790
115152,203291,264266,-4.3322053173,8.6273218843,-1.6462619487999999,791
115107,203274,264236,-4.1479579771,8.5088771656,-1.7371892076000002,792
115084,203363,264319,-4.3369909625,8.5483587385,-1.6558332392,793
115112,203370,264277,-4.3489550755,8.6608214007,-1.6654045296,794
115180,203376,264356,-4.5020957219,8.5854474888,-1.5744772707999999,795
115202,203377,264413,-4.4075792292,8.6464644651,-1.6319050132,796
115235,203412,264325,-4.3645084224,8.4813597057,-1.6366906583999998,797
115219,203413,264350,-4.4542392699,8.5651084967,-1.6941184008,798
115233,203411,264395,-4.4542392699,8.518448456,-1.6713865861,799
115179,203438,264285,-4.474578262,8.650053698999999,-1.698904046,800
115201,203440,264370,-4.2939201557,8.6321075295,-1.5744772707999999,801
115276,203403,264380,-4.5212383027000005,8.6045900696,-1.7659030788,802
115281,203420,264404,-4.3740797127999995,8.590233134,-1.6271193679999998,803
115295,203413,264361,-4.492524431500001,8.574679787100001,-1.6941184008,804
115372,203451,264444,-4.3322053173,8.641678819900001,-1.6713865861,805
115424,203432,264484,-4.259224228,8.6045900696,-1.7886348934999998,806
115485,203452,264451,-4.3896330597,8.6476608764,-1.6426727149,807
115510,203442,264477,-4.4446679795,8.641678819900001,-1.6510475939999998,808
115572,203452,264415,-4.3369909625,8.5854474888,-1.6414763036,809
115609,203472,264428,-4.5116670123,8.5316089803,-1.6474583601,810
115673,203448,264432,-4.3944187049,8.5950187792,-1.6654045296,811
115735,203514,264452,-4.4458643908,8.5914295453,-1.6761722313,812
115757,203473,264452,-4.3896330597,8.7134634979,-1.6689937635,813
115820,203486,264394,-4.3022950348,8.6560357555,-1.7036896912000001,814
115839,203459,264430,-4.3226340269,8.7326060787,-1.6941184008,815
115886,203495,264496,-4.3453658416,8.5950187792,-1.6905291669,816
115879,203452,264443,-4.3561335433,8.5100735769,-1.5613167465000002,817
115682,203416,264395,-4.3800617693,8.641678819900001,-1.6797614652,818
115456,203377,264332,-4.3980079388,8.5794654323,-1.8041882404,819
115319,203322,264343,-4.4075792292,8.6177505939,-1.7371892076000002,820
115218,203374,264403,-4.5164526575,8.6907316832,-1.6414763036,821
115306,203379,264370,-4.4697926167999995,8.5028951091,-1.6426727149,822
115323,203379,264441,-4.3980079388,8.5758761984,-1.6893327556000002,823
115374,203412,264427,-4.4362931003999995,8.6081793035,-1.6079767872,824
115466,203428,264427,-4.3034914461,8.5627156741,-1.6845471104,825
115474,203427,264474,-4.4135612857,8.5375910368,-1.6271193679999998,826
115508,203443,264436,-4.3561335433,8.6129649487,-1.7563317884,827
115488,203447,264448,-4.2329031794,8.4861453509,-1.6378870697,828
115551,203428,264491,-4.3920258823,8.6033936583,-1.5936198516,829
115570,203456,264497,-4.4135612857,8.4909309961,-1.7850456596,830
115639,203479,264533,-4.3501514868,8.641678819900001,-1.5900306177,831
115677,203476,264509,-4.2017964856,8.551947972399999,-1.6223337227999999,832
115742,203471,264558,-4.3501514868,8.5615192628,-1.6558332392,833
115760,203496,264536,-4.2699919297,8.590233134,-1.6139588437,834
115837,203481,264537,-4.3609191885,8.5950187792,-1.6378870697,835
115895,203502,264525,-4.4123648744,8.543573093300001,-1.6043875533,836
115962,203522,264579,-4.3980079388,8.6476608764,-1.5996019081000001,837
115996,203514,264569,-4.4446679795,8.6189470052,-1.6091731985,838
116000,203542,264601,-4.3178483817,8.6321075295,-1.6187444889,839
116006,203490,264593,-4.4039899953,8.7230347883,-1.6139588437,840
116024,203542,264581,-4.3405801963999995,8.6273218843,-1.6654045296,841
116023,203539,264552,-4.354937132,8.7182491431,-1.6941184008,842
115967,203510,264618,-4.3369909625,8.5758761984,-1.6701901747999999,843
115900,203509,264493,-4.3453658416,8.569894141899999,-1.6809578765,844
115516,203366,264457,-4.4315074552,8.5710905532,-1.5900306177,845
115245,203301,264438,-4.3884366484,8.5854474888,-1.7036896912000001,846
115080,203357,264489,-4.3585263658999995,8.542376681999999,-1.5900306177,847
114986,203326,264545,-4.4315074552,8.5794654323,-1.7036896912000001,848
114977,203324,264559,-4.3980079388,8.5280197464,-1.7132609816000002,849
114928,203332,264501,-4.4075792292,8.6105721261,-1.7312071511,850
114960,203341,264577,-4.2687955184,8.5866439001,-1.722832272,851
114988,203370,264576,-4.4087756405,8.5854474888,-1.6319050132,852
115015,203366,264533,-4.2508493489,8.4813597057,-1.6319050132,853
115028,203374,264615,-4.4781674959,8.6237326504,-1.6606188843999998,854
114946,203349,264566,-4.3022950348,8.5088771656,-1.5840485612,855
114948,203377,264590,-4.4123648744,8.6201434165,-1.6498511827,856
114977,203382,264598,-4.3166519704,8.4670027701,-1.5421741657,857
115030,203347,264605,-4.3561335433,8.641678819900001,-1.6175480776,858
115042,203335,264590,-4.4075792292,8.6907316832,-1.5996019081000001,859
115063,203339,264627,-4.1982072517,8.6428752312,-1.6139588437,860
115060,203347,264642,-4.378865358,8.6991065623,-1.6510475939999998,861
115118,203361,264600,-4.3800617693,8.590233134,-1.6606188843999998,862
115148,203379,264619,-4.4219361648,8.6273218843,-1.6366906583999998,863
115162,203382,264674,-4.3034914461,8.7373917239,-1.6271193679999998,864
115203,203412,264663,-4.2687955184,8.6129649487,-1.7371892076000002,865
115244,203391,264648,-4.3369909625,8.6333039408,-1.6893327556000002,866
115287,203408,264661,-4.3262232608,8.6093757148,-1.5361921092,867
115318,203428,264635,-4.3561335433,8.6895352719,-1.6654045296,868
115298,203388,264658,-4.4015971727,8.590233134,-1.8017954178,869
115377,203411,264631,-4.3932222936,8.5196448673,-1.6701901747999999,870
115247,203330,264607,-4.1934216065,8.6991065623,-1.603191142,871
114914,203277,264571,-4.242474469799999,8.6560357555,-1.6079767872,872
114655,203217,264501,-4.4793639072,8.5471623272,-1.6893327556000002,873
114563,203257,264561,-4.3884366484,8.6273218843,-1.6331014245,874
114586,203265,264575,-4.4542392699,8.7601235386,-1.6319050132,875
114593,203259,264557,-4.4733818507,8.6177505939,-1.6235301341000001,876
114641,203273,264612,-4.3022950348,8.6524465216,-1.6701901747999999,877
114681,203321,264606,-4.3405801963999995,8.7314096674,-1.6271193679999998,878
114769,203331,264607,-4.4362931003999995,8.49452023,-1.5565311013,879
114830,203341,264695,-4.4398823343,8.5615192628,-1.543370577,880
114828,203339,264622,-4.3848474145,8.628518295600001,-1.6091731985,881
114852,203344,264635,-4.2125641873,8.6129649487,-1.5505490447999999,882
114938,203321,264692,-4.402793583999999,8.5088771656,-1.5517454561000001,883
115027,203370,264652,-4.4255253987,8.5914295453,-1.6331014245,884
115078,203378,264585,-4.2652062845000005,8.5411802707,-1.6139588437,885
115137,203364,264707,-4.474578262,8.574679787100001,-1.6606188843999998,886
115194,203382,264668,-4.378865358,8.5806618436,-1.6797614652,887
115268,203372,264702,-4.353740720699999,8.6189470052,-1.6175480776,888
115313,203422,264720,-4.4362931003999995,8.6428752312,-1.5936198516,889
115416,203454,264711,-4.3417766077,8.697910151,-1.6331014245,890
115440,203415,264668,-4.3405801963999995,8.6045900696,-1.7180466268,891
115528,203434,264655,-4.4554356812,8.590233134,-1.7180466268,892
115634,203483,264691,-4.3980079388,8.61416136,-1.5373885205000002,893
115690,203475,264687,-4.3178483817,8.6703926911,-1.6606188843999998,894
115719,203445,264710,-4.4171505196,8.681160392799999,-1.5804593273,895
115676,203435,264663,-4.3226340269,8.542376681999999,-1.5756736821000001,896
115417,203390,264614,-4.247260115,8.5710905532,-1.6223337227999999,897
115164,203331,264562,-4.2927237444,8.6189470052,-1.6402798923,898
115095,203332,264560,-4.4398823343,8.6751783363,-1.6749758199999998,899
115082,203317,264582,-4.3944187049,8.551947972399999,-1.6654045296,900
115090,203335,264600,-4.3226340269,8.5328053916,-1.6845471104,901
115155,203388,264629,-4.2652062845000005,8.5806618436,-1.6366906583999998,902
115223,203399,264656,-4.3405801963999995,8.590233134,-1.6797614652,903
115303,203392,264639,-4.3465622529,8.4670027701,-1.6701901747999999,904
115349,203439,264631,-4.2556349941,8.6464644651,-1.5852449725,905
115345,203400,264661,-4.3322053173,8.6045900696,-1.6522440053,906
115418,203405,264651,-4.3561335433,8.590233134,-1.5756736821000001,907
115422,203400,264674,-4.3609191885,8.6033936583,-1.6331014245,908
115431,203432,264729,-4.3178483817,8.4478601893,-1.6857435217,909
115512,203401,264730,-4.5308095931,8.6799639815,-1.6797614652,910
115562,203466,264657,-4.3369909625,8.470592004,-1.6271193679999998,911
115632,203445,264712,-4.3274196721000004,8.566304908,-1.7647066674999998,912
115685,203498,264732,-4.4315074552,8.4681991814,-1.6510475939999998,913
115728,203485,264733,-4.3465622529,8.5710905532,-1.6606188843999998,914
115755,203492,264773,-4.2987058009,8.5328053916,-1.5577275125999999,915
115839,203502,264748,-4.4709890281,8.5950187792,-1.6366906583999998,916
115840,203536,264767,-4.4793639072,8.49452023,-1.6654045296,917
115930,203562,264774,-4.3645084224,8.5471623272,-1.6797614652,918
115904,203514,264741,-4.3980079388,8.5615192628,-1.603191142,919
115997,203548,264787,-4.378865358,8.6189470052,-1.6845471104,920
115997,203548,264762,-4.3692940676,8.6608214007,-1.6331014245,921
115884,203481,264693,-4.2687955184,8.4562350684,-1.7084753364,922
115536,203398,264614,-4.42672181,8.5375910368,-1.698904046,923
115323,203365,264637,-4.4362931003999995,8.5794654323,-1.6845471104,924
115185,203372,264611,-4.4111684631,8.590233134,-1.7312071511,925
115169,203367,264630,-4.4207397534999995,8.566304908,-1.6331014245,926
115205,203377,264625,-4.3441694303,8.4526458345,-1.6462619487999999,927
115257,203400,264690,-4.3645084224,8.7038922075,-1.7407784414999998,928
115318,203415,264697,-4.4554356812,8.636893174699999,-1.698904046,929
115347,203447,264744,-4.3609191885,8.5806618436,-1.722832272,930
115406,203438,264706,-4.3752761241,8.542376681999999,-1.6654045296,931
115444,203396,264759,-4.4219361648,8.5232341012,-1.6319050132,932
115382,203415,264760,-4.510470601,8.542376681999999,-1.6414763036,933
115419,203409,264794,-4.2939201557,8.5603228515,-1.6235301341000001,934
115459,203384,264783,-4.3884366484,8.5328053916,-1.7419748528,935
115508,203461,264727,-4.4303110439,8.5615192628,-1.7551353771,936
115563,203456,264775,-4.3262232608,8.7373917239,-1.6187444889,937
115625,203470,264779,-4.4075792292,8.574679787100001,-1.6558332392,938
115684,203484,264800,-4.2735811636,8.5471623272,-1.6845471104,939
115758,203502,264774,-4.42672181,8.471788415299999,-1.6223337227999999,940
115834,203523,264817,-4.2783668087999995,8.7517486595,-1.6701901747999999,941
115845,203507,264793,-4.3716868902,8.6225362391,-1.6510475939999998,942
115901,203564,264852,-4.5212383027000005,8.638089586,-1.7742779578999999,943
115910,203560,264838,-4.4362931003999995,8.49452023,-1.6893327556000002,944
115989,203611,264854,-4.2927237444,8.6129649487,-1.7001004573,945
115974,203590,264784,-4.2747775749,8.4909309961,-1.6199409001999998,946
115954,203596,264813,-4.2269211229,8.49452023,-1.6941184008,947
115857,203510,264812,-4.4937208428,8.542376681999999,-1.7419748528,948
115531,203461,264751,-4.2891345105,8.6608214007,-1.7455640867,949
115209,203411,264722,-4.2735811636,8.5232341012,-1.6618152957,950
115070,203407,264687,-4.4171505196,8.574679787100001,-1.6749758199999998,951
115028,203375,264750,-4.3968115275,8.6847496267,-1.6043875533,952
115005,203398,264746,-4.4398823343,8.6715891024,-1.5948162629,953
114991,203384,264727,-4.4841495524,8.61416136,-1.7551353771,954
114998,203432,264776,-4.3214376156,8.6237326504,-1.698904046,955
115007,203454,264778,-4.3465622529,8.596215190499999,-1.7036896912000001,956
115025,203439,264749,-4.2508493489,8.5232341012,-1.6893327556000002,957
114978,203428,264803,-4.3178483817,8.5758761984,-1.6223337227999999,958
114984,203407,264787,-4.2173498325,8.574679787100001,-1.6809578765,959
114964,203423,264751,-4.3800617693,8.6225362391,-1.5852449725,960
114980,203402,264806,-4.2364924133,8.4993058752,-1.7694923127,961
115006,203427,264757,-4.3405801963999995,8.5758761984,-1.7515461432000001,962
115024,203383,264769,-4.3405801963999995,8.6033936583,-1.7455640867,963
115077,203388,264795,-4.354937132,8.653642932899999,-1.7024932798999999,964
115109,203405,264843,-4.3704904789,8.7050886188,-1.5804593273,965
115178,203430,264766,-4.5116670123,8.6093757148,-1.5601203352,966
115186,203448,264805,-4.402793583999999,8.6225362391,-1.6749758199999998,967
115208,203466,264822,-4.2041893082,8.6464644651,-1.5373885205000002,968
115240,203473,264795,-4.283152454,8.419146318100001,-1.7024932798999999,969
115285,203422,264777,-4.4075792292,8.6847496267,-1.5804593273,970
115287,203433,264745,-4.3453658416,8.685946038,-1.7036896912000001,971
115367,203500,264801,-4.4937208428,8.5998044244,-1.5888342063999998,972
115376,203475,264784,-4.3932222936,8.6572321668,-1.6701901747999999,973
115361,203423,264761,-4.3453658416,8.6751783363,-1.6845471104,974
115105,203359,264694,-4.4829531411,8.6129649487,-1.5230315848999998,975
114861,203289,264638,-4.2987058009,8.5986080131,-1.698904046,976
114711,203284,264666,-4.3740797127999995,8.538787448099999,-1.5230315848999998,977
114675,203326,264713,-4.4841495524,8.681160392799999,-1.7024932798999999,978
114741,203320,264745,-4.3465622529,8.5938223679,-1.5948162629,979
114679,203338,264668,-4.2269211229,8.5998044244,-1.7072789251,980
114675,203323,264750,-4.2795632201,8.5328053916,-1.6977076347,981
114725,203367,264796,-4.3800617693,8.6428752312,-1.6319050132,982
114747,203377,264774,-4.3118663252,8.7278204335,-1.7359927963,983
114782,203361,264749,-4.319044793,8.5950187792,-1.6414763036,984
114764,203387,264773,-4.3932222936,8.590233134,-1.6079767872,985
114771,203358,264726,-4.4458643908,8.6560357555,-1.5505490447999999,986
114783,203379,264734,-4.3357945512,8.7146599092,-1.6271193679999998,987
114856,203400,264744,-4.237688824599999,8.5998044244,-1.531406464,988
114908,203392,264755,-4.4315074552,8.769694829,-1.5373885205000002,989
114955,203388,264749,-4.474578262,8.6512501103,-1.5661023917,990
115040,203383,264766,-4.3740797127999995,8.4514494232,-1.6271193679999998,991
115074,203431,264769,-4.3740797127999995,8.641678819900001,-1.5086746492999998,992
115184,203426,264784,-4.2508493489,8.584251077500001,-1.6319050132,993
115179,203468,264789,-4.450650036,8.5854474888,-1.4847464232999998,994
115255,203429,264729,-4.3752761241,8.6991065623,-1.5684952143000002,995
115304,203487,264761,-4.3082770913,8.470592004,-1.6271193679999998,996
115391,203482,264760,-4.354937132,8.5531443837,-1.5517454561000001,997
115417,203471,264741,-4.4841495524,8.7230347883,-1.5948162629,998
115422,203450,264714,-4.402793583999999,8.5890367227,-1.5421741657,999
115185,203410,264702,-4.1563328562,8.6584285781,-1.6510475939999998,1000
114866,203355,264683,-4.2891345105,8.6799639815,-1.6091731985,1001
114747,203359,264664,-4.4494536247,8.5005022865,-1.5936198516,1002
114721,203313,264713,-4.4207397534999995,8.6476608764,-1.6498511827,1003
114675,203355,264718,-4.42672181,8.5280197464,-1.5278172301,1004
114716,203373,264704,-4.3920258823,8.6560357555,-1.6366906583999998,1005
114770,203405,264709,-4.4446679795,8.5615192628,-1.6558332392,1006
114851,203435,264740,-4.4458643908,8.590233134,-1.5936198516,1007
114894,203441,264699,-4.2747775749,8.6321075295,-1.579262916,1008
114946,203418,264723,-4.2747775749,8.5375910368,-1.6414763036,1009
114936,203453,264732,-4.3740797127999995,8.6715891024,-1.6366906583999998,1010
114965,203422,264675,-4.5643091095,8.5627156741,-1.5421741657,1011
115041,203459,264700,-4.527220359199999,8.6045900696,-1.603191142,1012
115113,203447,264668,-4.378865358,8.4993058752,-1.6522440053,1013
115169,203485,264737,-4.2987058009,8.6321075295,-1.6929219895,1014
115238,203487,264714,-4.4446679795,8.556733617599999,-1.7371892076000002,1015
115322,203545,264728,-4.3884366484,8.5196448673,-1.5744772707999999,1016
115366,203500,264747,-4.4075792292,8.551947972399999,-1.7180466268,1017
115422,203528,264720,-4.4781674959,8.6321075295,-1.6953148121,1018
115524,203526,264722,-4.3322053173,8.5052879317,-1.6522440053,1019
115556,203560,264714,-4.4889351976,8.566304908,-1.5517454561000001,1020
115616,203570,264727,-4.354937132,8.5806618436,-1.722832272,1021
115691,203552,264746,-4.4111684631,8.5280197464,-1.8125631194999998,1022
115661,203556,264722,-4.3836510032,8.662017812,-1.5565311013,1023
115729,203592,264718,-4.3226340269,8.5005022865,-1.7371892076000002,1024
115780,203583,264650,-4.2699919297,8.6129649487,-1.5996019081000001,1025
115823,203635,264725,-4.3274196721000004,8.6428752312,-1.7503497318999999,1026
115864,203575,264662,-4.4362931003999995,8.638089586,-1.6749758199999998,1027
115914,203603,264647,-4.3118663252,8.4993058752,-1.6462619487999999,1028
115949,203602,264639,-4.3752761241,8.5375910368,-1.6414763036,1029
115977,203649,264646,-4.3597227772,8.5471623272,-1.6905291669,1030
116023,203616,264596,-4.3645084224,8.6189470052,-1.6845471104,1031
116063,203603,264653,-4.3130627365,8.5998044244,-1.6378870697,1032
116038,203624,264599,-4.2029928969000006,8.5040915204,-1.6235301341000001,1033
115858,203518,264543,-4.4075792292,8.7038922075,-1.5948162629,1034
115504,203422,264497,-4.402793583999999,8.628518295600001,-1.5840485612,1035
115240,203408,264447,-4.3417766077,8.6129649487,-1.6929219895,1036
115106,203404,264487,-4.3800617693,8.6703926911,-1.6462619487999999,1037
115100,203420,264490,-4.4458643908,8.5986080131,-1.6474583601,1038
115186,203413,264495,-4.3884366484,8.6787675702,-1.5900306177,1039
115176,203428,264509,-4.2927237444,8.5758761984,-1.7515461432000001,1040
115182,203472,264511,-4.4279182213,8.3665042209,-1.6606188843999998,1041
115249,203473,264598,-4.378865358,8.6703926911,-1.6235301341000001,1042
115266,203485,264562,-4.582255279,8.5268233351,-1.6474583601,1043
115239,203472,264485,-4.3082770913,8.628518295600001,-1.6558332392,1044
115260,203471,264522,-4.3178483817,8.5375910368,-1.698904046,1045
115283,203467,264538,-4.3752761241,8.5507515611,-1.5996019081000001,1046
115315,203467,264501,-4.42672181,8.5471623272,-1.7659030788,1047
115349,203490,264524,-4.3752761241,8.419146318100001,-1.7503497318999999,1048
115409,203480,264513,-4.283152454,8.5890367227,-1.6426727149,1049
115417,203506,264540,-4.4171505196,8.4263247859,-1.6366906583999998,1050
115451,203507,264533,-4.2699919297,8.5040915204,-1.6558332392,1051
115503,203486,264499,-4.4087756405,8.6033936583,-1.6319050132,1052
115451,203471,264520,-4.2747775749,8.5615192628,-1.7659030788,1053
115425,203487,264567,-4.2556349941,8.518448456,-1.7132609816000002,1054
115419,203500,264523,-4.4315074552,8.636893174699999,-1.6797614652,1055
115425,203456,264539,-4.3932222936,8.5758761984,-1.6666009409,1056
115420,203427,264574,-4.259224228,8.475377649199999,-1.5900306177,1057
115452,203484,264496,-4.331008906,8.6129649487,-1.6474583601,1058
115423,203482,264545,-4.3980079388,8.7230347883,-1.6522440053,1059
115460,203436,264496,-4.3776689467,8.5710905532,-1.6797614652,1060
115469,203509,264492,-4.30708068,8.694320917099999,-1.6606188843999998,1061
115476,203459,264480,-4.3357945512,8.5998044244,-1.6223337227999999,1062
115528,203466,264471,-4.4697926167999995,8.7026957962,-1.7647066674999998,1063
115549,203487,264465,-4.474578262,8.628518295600001,-1.722832272,1064
115515,203460,264473,-4.1934216065,8.6237326504,-1.5984054967999999,1065
115453,203408,264462,-4.4638105603,8.5375910368,-1.6797614652,1066
115120,203303,264428,-4.3657048337,8.6608214007,-1.6701901747999999,1067
114747,203253,264389,-4.3561335433,8.5806618436,-1.7180466268,1068
114651,203291,264360,-4.4350966891,8.6333039408,-1.6510475939999998,1069
114636,203299,264389,-4.354937132,8.6608214007,-1.6366906583999998,1070
114567,203274,264372,-4.2173498325,8.5794654323,-1.6654045296,1071
114584,203308,264399,-4.3214376156,8.5722869645,-1.5696916256,1072
114612,203341,264435,-4.30708068,8.6081793035,-1.6845471104,1073
114638,203318,264425,-4.402793583999999,8.556733617599999,-1.5996019081000001,1074
114635,203300,264379,-4.2987058009,8.7373917239,-1.5804593273,1075
114608,203288,264405,-4.3609191885,8.405985793800001,-1.5565311013,1076
114588,203264,264392,-4.5116670123,8.6799639815,-1.5744772707999999,1077
114589,203275,264374,-4.3884366484,8.7038922075,-1.6606188843999998,1078
114604,203298,264388,-4.2412780585,8.5950187792,-1.5038890041,1079
114636,203300,264415,-4.2364924133,8.681160392799999,-1.6606188843999998,1080
114675,203305,264394,-4.4877387863000004,8.6177505939,-1.6510475939999998,1081
114651,203281,264392,-4.2891345105,8.6847496267,-1.5888342063999998,1082
114709,203308,264417,-4.3692940676,8.5758761984,-1.6366906583999998,1083
114741,203343,264441,-4.2125641873,8.6237326504,-1.5840485612,1084
114789,203306,264410,-4.2329031794,8.6751783363,-1.4608181972999998,1085
114802,203320,264415,-4.2652062845000005,8.6476608764,-1.6701901747999999,1086
114843,203332,264421,-4.4075792292,8.6572321668,-1.6558332392,1087
114895,203339,264380,-4.3932222936,8.484948939599999,-1.6079767872,1088
114924,203304,264359,-4.5080777784,8.542376681999999,-1.5326028753,1089
114908,203316,264423,-4.3800617693,8.5531443837,-1.5613167465000002,1090
114979,203329,264375,-4.2269211229,8.5890367227,-1.5696916256,1091
115038,203354,264363,-4.3920258823,8.6799639815,-1.6079767872,1092
115041,203338,264372,-4.3405801963999995,8.5651084967,-1.5182459396999999,1093
115069,203290,264291,-4.4231325760999995,8.542376681999999,-1.5804593273,1094
114817,203201,264302,-4.492524431500001,8.7038922075,-1.5182459396999999,1095
114554,203166,264280,-4.3932222936,8.708677852700001,-1.5601203352,1096
114414,203169,264304,-4.4255253987,8.817551281,-1.6223337227999999,1097
114365,203169,264282,-4.3980079388,8.6093757148,-1.6701901747999999,1098
114355,203182,264338,-4.3465622529,8.5375910368,-1.4847464232999998,1099
114411,203242,264315,-4.3980079388,8.5950187792,-1.5936198516,1100
114464,203260,264341,-4.4123648744,8.556733617599999,-1.5421741657,1101
114546,203273,264329,-4.4685962055,8.4765740605,-1.55533469,1102
114606,203259,264365,-4.3178483817,8.6464644651,-1.6079767872,1103
114640,203298,264329,-4.3680976563,8.590233134,-1.5517454561000001,1104
114578,203300,264389,-4.3561335433,8.7134634979,-1.5840485612,1105
114650,203260,264395,-4.5164526575,8.5998044244,-1.5840485612,1106
114717,203287,264371,-4.4494536247,8.6177505939,-1.6701901747999999,1107
114782,203321,264326,-4.3836510032,8.6572321668,-1.5517454561000001,1108
114855,203315,264361,-4.4315074552,8.5998044244,-1.5804593273,1109
114953,203294,264376,-4.1599220901,8.6045900696,-1.6845471104,1110
114969,203300,264342,-4.3082770913,8.5244305125,-1.5481562222,1111
115065,203326,264345,-4.1886359613,8.6428752312,-1.6797614652,1112
115137,203334,264376,-4.4554356812,8.6512501103,-1.6797614652,1113
115165,203353,264309,-4.4123648744,8.5136628108,-1.6606188843999998,1114
115248,203356,264358,-4.2029928969000006,8.6010008357,-1.5086746492999998,1115
115296,203356,264352,-4.3274196721000004,8.6033936583,-1.746760498,1116
115401,203357,264353,-4.3740797127999995,8.7038922075,-1.5936198516,1117
115446,203394,264348,-4.4315074552,8.5950187792,-1.6271193679999998,1118
115486,203358,264307,-4.4315074552,8.3856468017,-1.7084753364,1119
115539,203378,264348,-4.3345981399,8.5722869645,-1.7324035624,1120
115586,203376,264345,-4.2939201557,8.4646099475,-1.7192430381,1121
115521,203355,264304,-4.4398823343,8.6273218843,-1.6271193679999998,1122
115271,203261,264264,-4.3369909625,8.5998044244,-1.6187444889,1123
115011,203197,264210,-4.3645084224,8.4957166413,-1.4991033588999998,1124
114885,203193,264236,-4.5786660451,8.6081793035,-1.6893327556000002,1125
114817,203206,264223,-4.3405801963999995,8.708677852700001,-1.6797614652,1126
114831,203240,264214,-4.242474469799999,8.584251077500001,-1.6666009409,1127
114841,203256,264278,-4.2783668087999995,8.5196448673,-1.6091731985,1128
114910,203275,264298,-4.3226340269,8.5340018029,-1.6414763036,1129
114958,203285,264308,-4.3178483817,8.6189470052,-1.6797614652,1130
114999,203295,264348,-4.3513478981,8.5758761984,-1.6893327556000002,1131
114986,203272,264296,-4.402793583999999,8.685946038,-1.698904046,1132
114988,203278,264328,-4.3262232608,8.5615192628,-1.6127624323999998,1133
114988,203257,264331,-4.331008906,8.5806618436,-1.5613167465000002,1134
114990,203278,264256,-4.30708068,8.556733617599999,-1.7180466268,1135
115058,203255,264384,-4.3597227772,8.5483587385,-1.6283157793,1136
115139,203264,264323,-4.3800617693,8.6273218843,-1.7048861025,1137
115187,203302,264305,-4.4793639072,8.4670027701,-1.7096717476999999,1138
115272,203296,264316,-4.3214376156,8.61416136,-1.6749758199999998,1139
115349,203325,264376,-4.4542392699,8.793623055,-1.6283157793,1140
115379,203320,264324,-4.3633120111,8.5758761984,-1.6091731985,1141
115412,203279,264311,-4.3609191885,8.417949906799999,-1.6474583601,1142
115466,203285,264347,-4.378865358,8.774480474199999,-1.6977076347,1143
115492,203340,264338,-4.3405801963999995,8.4801632944,-1.5996019081000001,1144
115552,203296,264331,-4.3489550755,8.5938223679,-1.7371892076000002,1145
115624,203293,264287,-4.2783668087999995,8.551947972399999,-1.7383856189,1146
115652,203353,264315,-4.2520457602,8.590233134,-1.6893327556000002,1147
115671,203300,264345,-4.2317067681000005,8.4478601893,-1.7084753364,1148
115569,203226,264252,-4.3884366484,8.6225362391,-1.7084753364,1149
115248,203169,264212,-4.2209390664,8.4789668831,-1.6414763036,1150
115055,203158,264208,-4.5308095931,8.7469630143,-1.6043875533,1151
115039,203192,264277,-4.2891345105,8.5375910368,-1.7132609816000002,1152
115062,203172,264245,-4.331008906,8.628518295600001,-1.6139588437,1153
115060,203204,264275,-4.3022950348,8.6081793035,-1.6893327556000002,1154
115118,203238,264322,-4.4697926167999995,8.475377649199999,-1.7515461432000001,1155
115127,203224,264319,-4.3214376156,8.5471623272,-1.7515461432000001,1156
115189,203236,264326,-4.42672181,8.6703926911,-1.6618152957,1157
115148,203211,264390,-4.331008906,8.5375910368,-1.6319050132,1158
115116,203261,264350,-4.2927237444,8.5950187792,-1.7503497318999999,1159
115061,203189,264351,-4.4733818507,8.6237326504,-1.7551353771,1160
115074,203236,264365,-4.5248275366,8.5806618436,-1.6666009409,1161
115061,203205,264354,-4.3118663252,8.484948939599999,-1.6474583601,1162
115086,203195,264367,-4.3178483817,8.5196448673,-1.6043875533,1163
115093,203243,264325,-4.378865358,8.484948939599999,-1.6139588437,1164
115133,203224,264345,-4.3992043501,8.49452023,-1.7276179172000001,1165
115178,203244,264332,-4.402793583999999,8.5950187792,-1.5852449725,1166
115200,203217,264407,-4.331008906,8.542376681999999,-1.7180466268,1167
115230,203228,264380,-4.5726839886,8.6033936583,-1.5469598109,1168
115277,203203,264394,-4.3226340269,8.5986080131,-1.6366906583999998,1169
115210,203209,264423,-4.3357945512,8.717052731799999,-1.7132609816000002,1170
115268,203254,264363,-4.5032921331999995,8.5232341012,-1.6414763036,1171
115295,203220,264351,-4.4063828179,8.636893174699999,-1.5852449725,1172
115164,203155,264376,-4.3034914461,8.542376681999999,-1.6510475939999998,1173
114882,203091,264281,-4.3884366484,8.5854474888,-1.5086746492999998,1174
114666,203055,264319,-4.450650036,8.596215190499999,-1.5852449725,1175
114596,203042,264291,-4.4422751569,8.542376681999999,-1.6606188843999998,1176
114483,203019,264288,-4.3944187049,8.6668034572,-1.6701901747999999,1177
114496,203049,264354,-4.3920258823,8.6093757148,-1.6749758199999998,1178
114531,203058,264384,-4.3214376156,8.8079799906,-1.5936198516,1179
114600,203079,264381,-4.2137605985999995,8.5710905532,-1.7850456596,1180
114663,203109,264421,-4.2364924133,8.6093757148,-1.4943177136999999,1181
114667,203086,264407,-4.42672181,8.7230347883,-1.6654045296,1182
114693,203110,264446,-4.3357945512,8.4083786164,-1.6797614652,1183
114677,203101,264427,-4.5595234643,8.6991065623,-1.4560325521,1184
114727,203126,264409,-4.5678983434,8.5998044244,-1.6271193679999998,1185
114784,203112,264481,-4.3178483817,8.6093757148,-1.6079767872,1186
114780,203114,264413,-4.558327053,8.6608214007,-1.7036896912000001,1187
114832,203099,264432,-4.4171505196,8.6476608764,-1.6749758199999998,1188
114837,203141,264474,-4.5128634236,8.6847496267,-1.6546368279,1189
114872,203091,264474,-4.42672181,8.6081793035,-1.5098710606,1190
114948,203122,264472,-4.4039899953,8.7050886188,-1.5134602944999997,1191
115005,203125,264430,-4.2412780585,8.708677852700001,-1.6319050132,1192
115034,203139,264472,-4.5320060043999995,8.551947972399999,-1.4644074312,1193
115065,203126,264505,-4.4075792292,8.5328053916,-1.7180466268,1194
115136,203117,264487,-4.4889351976,8.628518295600001,-1.6558332392,1195
115205,203174,264488,-4.492524431500001,8.6476608764,-1.6223337227999999,1196
115230,203154,264450,-4.2077785421,8.6333039408,-1.55533469,1197
115074,203085,264428,-4.4171505196,8.6895352719,-1.5278172301,1198
114766,202991,264382,-4.4111684631,8.6560357555,-1.6749758199999998,1199
114555,203004,264363,-4.3932222936,8.5483587385,-1.5002997702,1200
114504,203016,264395,-4.5116670123,8.6093757148,-1.6785650538999999,1201
114500,203030,264446,-4.2939201557,8.6321075295,-1.6689937635,1202
114526,203034,264417,-4.3334017286,8.5998044244,-1.5936198516,1203
114596,203077,264472,-4.3513478981,8.636893174699999,-1.507478238,1204
114645,203105,264462,-4.3692940676,8.5340018029,-1.531406464,1205
114743,203076,264502,-4.3022950348,8.5710905532,-1.6654045296,1206
114787,203121,264499,-4.2687955184,8.6129649487,-1.5900306177,1207
114808,203121,264472,-4.4937208428,8.6428752312,-1.6606188843999998,1208
114813,203085,264489,-4.3836510032,8.5328053916,-1.6749758199999998,1209
114826,203121,264505,-4.3405801963999995,8.6476608764,-1.6426727149,1210
114871,203126,264511,-4.4291146326,8.6656070459,-1.5852449725,1211
114958,203135,264518,-4.3274196721000004,8.6512501103,-1.7934205387,1212
114977,203160,264565,-4.3645084224,8.6991065623,-1.6522440053,1213
115089,203127,264567,-4.4123648744,8.5806618436,-1.7132609816000002,1214
115223,203171,264593,-4.3609191885,8.6033936583,-1.6462619487999999,1215
115284,203188,264552,-4.3166519704,8.6189470052,-1.5505490447999999,1216
115354,203192,264564,-4.3369909625,8.6189470052,-1.55533469,1217
115424,203193,264584,-4.4602213264,8.694320917099999,-1.5601203352,1218
115497,203205,264546,-4.3920258823,8.5986080131,-1.6414763036,1219
115536,203229,264542,-4.3405801963999995,8.4478601893,-1.6749758199999998,1220
115567,203249,264582,-4.378865358,8.538787448099999,-1.6091731985,1221
115626,203263,264570,-4.4075792292,8.5998044244,-1.6570296505,1222
115663,203232,264608,-4.2699919297,8.5363946255,-1.6510475939999998,1223
115514,203179,264521,-4.4075792292,8.685946038,-1.6558332392,1224
115142,203114,264459,-4.3262232608,8.596215190499999,-1.6283157793,1225
115006,203081,264426,-4.2927237444,8.5471623272,-1.6127624323999998,1226
114913,203084,264422,-4.3657048337,8.5280197464,-1.6223337227999999,1227
114947,203071,264443,-4.3417766077,8.5651084967,-1.6558332392,1228
114950,203103,264467,-4.3465622529,8.5232341012,-1.6618152957,1229
115052,203118,264511,-4.4087756405,8.5232341012,-1.6319050132,1230
115079,203153,264545,-4.3082770913,8.5615192628,-1.6235301341000001,1231
115053,203160,264543,-4.3501514868,8.5555372063,-1.6797614652,1232
115147,203158,264574,-4.3034914461,8.5100735769,-1.7742779578999999,1233
115163,203173,264540,-4.2185462438,8.5100735769,-1.698904046,1234
115180,203184,264549,-4.42672181,8.5232341012,-1.6043875533,1235
115210,203137,264575,-4.4733818507,8.584251077500001,-1.6522440053,1236
115275,203137,264661,-4.5080777784,8.574679787100001,-1.5948162629,1237
115308,203171,264579,-4.42672181,8.5758761984,-1.603191142,1238
115389,203159,264589,-4.3609191885,8.628518295600001,-1.7036896912000001,1239
115442,203208,264544,-4.4542392699,8.6321075295,-1.6331014245,1240
115484,203179,264642,-4.3274196721000004,8.6608214007,-1.722832272,1241
115539,203225,264628,-4.3465622529,8.6608214007,-1.7276179172000001,1242
115579,203203,264598,-4.3274196721000004,8.6476608764,-1.6319050132,1243
115649,203267,264631,-4.378865358,8.5758761984,-1.7001004573,1244
115659,203224,264595,-4.4446679795,8.5770726097,-1.7180466268,1245
115719,203266,264610,-4.2939201557,8.61416136,-1.7180466268,1246
115821,203278,264637,-4.4171505196,8.6560357555,-1.5613167465000002,1247
115800,203261,264642,-4.2125641873,8.5710905532,-1.6606188843999998,1248
115807,203245,264629,-4.2053857195,8.5232341012,-1.698904046,1249
115633,203178,264557,-4.2975093896,8.5758761984,-1.6845471104,1250
115326,203146,264503,-4.3334017286,8.5136628108,-1.722832272,1251
115067,203088,264489,-4.3022950348,8.6572321668,-1.5744772707999999,1252
115001,203048,264537,-4.3992043501,8.6512501103,-1.6797614652,1253
115015,203110,264556,-4.30708068,8.6093757148,-1.6235301341000001,1254
115084,203052,264523,-4.3501514868,8.6512501103,-1.7120645703,1255
115115,203131,264591,-4.237688824599999,8.6715891024,-1.7503497318999999,1256
115152,203149,264646,-4.4207397534999995,8.61416136,-1.6366906583999998,1257
115266,203157,264667,-4.3513478981,8.4801632944,-1.6809578765,1258
115310,203134,264643,-4.2975093896,8.6093757148,-1.7324035624,1259
115260,203181,264592,-4.2807596314,8.49452023,-1.5996019081000001,1260
115277,203144,264635,-4.3501514868,8.636893174699999,-1.6091731985,1261
115307,203169,264651,-4.474578262,8.6321075295,-1.6091731985,1262
115356,203121,264653,-4.474578262,8.551947972399999,-1.7180466268,1263
115399,203162,264689,-4.4638105603,8.574679787100001,-1.7276179172000001,1264
115436,203197,264694,-4.3453658416,8.6799639815,-1.6857435217,1265
115524,203179,264671,-4.2891345105,8.556733617599999,-1.6319050132,1266
115518,203196,264732,-4.4039899953,8.5806618436,-1.6319050132,1267
115563,203179,264666,-4.4961136654,8.5328053916,-1.6701901747999999,1268
115588,203207,264692,-4.4877387863000004,8.628518295600001,-1.6043875533,1269
115581,203221,264748,-4.3585263658999995,8.5280197464,-1.698904046,1270
115590,203211,264754,-4.3692940676,8.6608214007,-1.6558332392,1271
115600,203232,264730,-4.402793583999999,8.5710905532,-1.746760498,1272
115629,203221,264663,-4.378865358,8.584251077500001,-1.6941184008,1273
115612,203202,264743,-4.3884366484,8.5088771656,-1.7527425545,1274
115403,203104,264679,-4.3465622529,8.4478601893,-1.6977076347,1275
115052,203054,264585,-4.2652062845000005,8.7804625307,-1.7048861025,1276
114896,202989,264616,-4.3405801963999995,8.7134634979,-1.6953148121,1277
114731,203053,264647,-4.342973019,8.5806618436,-1.5505490447999999,1278
114798,203014,264644,-4.3178483817,8.5758761984,-1.6187444889,1279
114864,203031,264671,-4.1886359613,8.4323068424,-1.7312071511,1280
114868,203062,264679,-4.2807596314,8.590233134,-1.6797614652,1281
114903,203037,264668,-4.3597227772,8.5471623272,-1.6235301341000001,1282
114916,203084,264739,-4.3884366484,8.6656070459,-1.6893327556000002,1283
114916,203120,264667,-4.4398823343,8.5615192628,-1.7168502155,1284
114875,203081,264709,-4.2879380992,8.5806618436,-1.5457633996,1285
114843,203097,264687,-4.4123648744,8.5818582549,-1.603191142,1286
114917,203082,264726,-4.2604206393,8.551947972399999,-1.6701901747999999,1287
114923,203074,264657,-4.42672181,8.5651084967,-1.5517454561000001,1288
115000,203073,264649,-4.378865358,8.5244305125,-1.591227029,1289
115017,203073,264740,-4.3932222936,8.6045900696,-1.6606188843999998,1290
115090,203074,264708,-4.3465622529,8.5471623272,-1.5038890041,1291
115137,203079,264770,-4.5032921331999995,8.6273218843,-1.7503497318999999,1292
115166,203065,264740,-4.2747775749,8.5280197464,-1.5996019081000001,1293
115202,203084,264749,-4.4123648744,8.6464644651,-1.6223337227999999,1294
115217,203106,264719,-4.3513478981,8.551947972399999,-1.5457633996,1295
115286,203124,264720,-4.2939201557,8.662017812,-1.6785650538999999,1296
115303,203130,264711,-4.3501514868,8.6273218843,-1.5984054967999999,1297
115333,203101,264759,-4.2939201557,8.5052879317,-1.6749758199999998,1298
115331,203113,264703,-4.2783668087999995,8.590233134,-1.5134602944999997,1299
115129,203056,264666,-4.4458643908,8.566304908,-1.5421741657,1300
114800,202963,264638,-4.3322053173,8.73380249,-1.5457633996,1301
114627,202944,264624,-4.4362931003999995,8.708677852700001,-1.4225330357,1302
114529,202947,264665,-4.3609191885,8.5040915204,-1.579262916,1303
114508,202936,264678,-4.3405801963999995,8.6991065623,-1.6271193679999998,1304
114502,202947,264665,-4.2939201557,8.4610207136,-1.5708880369,1305
114554,202997,264722,-4.378865358,8.6129649487,-1.5361921092,1306
114627,202999,264744,-4.4219361648,8.5854474888,-1.6606188843999998,1307
114680,203037,264747,-4.2173498325,8.6847496267,-1.6175480776,1308
114756,203060,264731,-4.4889351976,8.7553378934,-1.5744772707999999,1309
114791,203039,264746,-4.2173498325,8.5088771656,-1.5421741657,1310
114810,203052,264750,-4.3884366484,8.590233134,-1.6163516663,1311
114887,203078,264746,-4.3214376156,8.5854474888,-1.5601203352,1312
114905,203037,264747,-4.3597227772,8.6512501103,-1.4751751328999998,1313
114985,203076,264745,-4.4554356812,8.6895352719,-1.6462619487999999,1314
115110,203064,264785,-4.2927237444,8.628518295600001,-1.6450655375,1315
115224,203060,264765,-4.30708068,8.538787448099999,-1.6127624323999998,1316
115232,203079,264819,-4.354937132,8.4765740605,-1.7168502155,1317
115321,203101,264836,-4.3214376156,8.6189470052,-1.5326028753,1318
115413,203117,264811,-4.474578262,8.745766603,-1.6091731985,1319
115448,203122,264776,-4.2783668087999995,8.5998044244,-1.5457633996,1320
115491,203138,264798,-4.3752761241,8.7804625307,-1.7407784414999998,1321
115551,203154,264814,-4.3178483817,8.6512501103,-1.6127624323999998,1322
115657,203186,264770,-4.3453658416,8.556733617599999,-1.5888342063999998,1323
115683,203183,264846,-4.4470608021,8.551947972399999,-1.6055839645999999,1324
115792,203203,264804,-4.1611185014,8.7565343047,-1.7407784414999998,1325
115840,203192,264777,-4.2747775749,8.4622171249,-1.5134602944999997,1326
115735,203141,264755,-4.4171505196,8.6333039408,-1.5840485612,1327
115403,203065,264634,-4.2843488653,8.6847496267,-1.5613167465000002,1328
115180,202983,264636,-4.3166519704,8.662017812,-1.6498511827,1329
115155,203029,264674,-4.331008906,8.590233134,-1.6606188843999998,1330
115179,203068,264681,-4.354937132,8.638089586,-1.7754743692000001,1331
115172,203058,264675,-4.3166519704,8.5040915204,-1.6941184008,1332
115256,203068,264682,-4.378865358,8.4993058752,-1.6749758199999998,1333
115281,203097,264743,-4.378865358,8.556733617599999,-1.6510475939999998,1334
115358,203135,264740,-4.4123648744,8.708677852700001,-1.6223337227999999,1335
115413,203128,264752,-4.4362931003999995,8.542376681999999,-1.5708880369,1336
115400,203128,264739,-4.3968115275,8.5950187792,-1.7419748528,1337
115433,203111,264736,-4.3645084224,8.628518295600001,-1.6558332392,1338
115449,203108,264710,-4.2987058009,8.551947972399999,-1.6905291669,1339
115490,203082,264742,-4.2173498325,8.6333039408,-1.7324035624,1340
115561,203140,264720,-4.3489550755,8.6129649487,-1.6749758199999998,1341
115629,203164,264781,-4.354937132,8.556733617599999,-1.6378870697,1342
115706,203180,264789,-4.3692940676,8.6321075295,-1.6462619487999999,1343
115785,203169,264807,-4.3597227772,8.551947972399999,-1.6941184008,1344
115805,203188,264797,-4.4697926167999995,8.6703926911,-1.6713865861,1345
115876,203190,264815,-4.4303110439,8.5531443837,-1.6462619487999999,1346
115903,203232,264828,-4.3884366484,8.5758761984,-1.6414763036,1347
115958,203212,264802,-4.3274196721000004,8.7517486595,-1.603191142,1348
116004,203235,264777,-4.4458643908,8.584251077500001,-1.6929219895,1349
116048,203233,264744,-4.259224228,8.6835532154,-1.5565311013,1350
116088,203258,264774,-4.3369909625,8.5052879317,-1.7371892076000002,1351
116121,203275,264767,-4.4327038665,8.6129649487,-1.5948162629,1352
115973,203208,264746,-4.3896330597,8.7469630143,-1.7934205387,1353
115674,203103,264631,-4.3657048337,8.7182491431,-1.6079767872,1354
115454,203076,264602,-4.4554356812,8.6428752312,-1.5948162629,1355
115391,203081,264663,-4.3800617693,8.5052879317,-1.6283157793,1356
115389,203063,264699,-4.2987058009,8.6428752312,-1.6474583601,1357
115416,203125,264687,-4.2879380992,8.6895352719,-1.5230315848999998,1358
115452,203136,264733,-4.4255253987,8.628518295600001,-1.770688724,1359
115527,203165,264761,-4.3645084224,8.4562350684,-1.5948162629,1360
115628,203184,264692,-4.4362931003999995,8.5124663995,-1.6701901747999999,1361
115639,203181,264766,-4.3214376156,8.584251077500001,-1.5852449725,1362
115620,203169,264769,-4.3896330597,8.6045900696,-1.6893327556000002,1363
115643,203156,264758,-4.2544385828,8.4861453509,-1.7180466268,1364
115690,203139,264735,-4.4315074552,8.584251077500001,-1.722832272,1365
115719,203216,264749,-4.3322053173,8.5040915204,-1.6498511827,1366
115769,203151,264750,-4.3322053173,8.590233134,-1.5565311013,1367
115818,203201,264813,-4.3645084224,8.636893174699999,-1.519442351,1368
115893,203207,264808,-4.3513478981,8.636893174699999,-1.5230315848999998,1369
115938,203238,264822,-4.3609191885,8.6991065623,-1.6139588437,1370
115943,203282,264841,-4.3980079388,8.5615192628,-1.5804593273,1371
116025,203272,264780,-4.4590249151000005,8.6464644651,-1.5146567058,1372
116096,203263,264843,-4.3932222936,8.5088771656,-1.5565311013,1373
116095,203252,264777,-4.3405801963999995,8.5375910368,-1.6941184008,1374
116153,203274,264759,-4.3501514868,8.638089586,-1.6139588437,1375
116189,203300,264816,-4.3082770913,8.7182491431,-1.5565311013,1376
116204,203269,264771,-4.402793583999999,8.5196448673,-1.6319050132,1377
115961,203170,264739,-4.3884366484,8.4969130526,-1.6654045296,1378
115630,203095,264694,-4.3357945512,8.6560357555,-1.6139588437,1379
115451,203126,264648,-4.4602213264,8.5040915204,-1.6426727149,1380
115355,203087,264702,-4.2987058009,8.640482408599999,-1.6426727149,1381
115319,203125,264749,-4.3178483817,8.5890367227,-1.6749758199999998,1382
115281,203128,264730,-4.331008906,8.6177505939,-1.6797614652,1383
115260,203133,264727,-4.3740797127999995,8.5280197464,-1.7563317884,1384
115327,203153,264762,-4.3645084224,8.6129649487,-1.6043875533,1385
115313,203116,264771,-4.3920258823,8.5866439001,-1.6845471104,1386
115339,203132,264786,-4.5643091095,8.6668034572,-1.6043875533,1387
115316,203107,264775,-4.450650036,8.5005022865,-1.7371892076000002,1388
115291,203116,264803,-4.4171505196,8.628518295600001,-1.6845471104,1389
115242,203108,264739,-4.3680976563,8.6333039408,-1.6462619487999999,1390
115245,203107,264780,-4.2939201557,8.5950187792,-1.7647066674999998,1391
115284,203148,264762,-4.4398823343,8.638089586,-1.6462619487999999,1392
115260,203116,264793,-4.4171505196,8.697910151,-1.746760498,1393
115321,203142,264783,-4.4362931003999995,8.4861453509,-1.5744772707999999,1394
115353,203156,264760,-4.3274196721000004,8.5854474888,-1.6127624323999998,1395
115368,203127,264797,-4.2317067681000005,8.5340018029,-1.5852449725,1396
115404,203183,264828,-4.3980079388,8.8271225714,-1.7120645703,1397
115462,203161,264804,-4.402793583999999,8.566304908,-1.6127624323999998,1398
115464,203209,264736,-4.3597227772,8.590233134,-1.6606188843999998,1399
115503,203191,264766,-4.3836510032,8.6799639815,-1.603191142,1400
115513,203188,264787,-4.5020957219,8.6751783363,-1.5649059803999998,1401
115525,203183,264803,-4.5080777784,8.6847496267,-1.5278172301,1402
115478,203141,264769,-4.4590249151000005,8.5196448673,-1.7072789251,1403
115582,203153,264745,-4.3082770913,8.5615192628,-1.5948162629,1404
115530,203163,264734,-4.3357945512,8.5758761984,-1.6606188843999998,1405
115307,203066,264680,-4.570291166,8.6572321668,-1.5421741657,1406
115024,202958,264661,-4.2221354777,8.6045900696,-1.6079767872,1407
114827,202952,264654,-4.402793583999999,8.4430745441,-1.5708880369,1408
114711,202959,264692,-4.4602213264,8.6333039408,-1.6833506991,1409
114659,202950,264661,-4.378865358,8.6524465216,-1.6079767872,1410
114670,203015,264679,-4.331008906,8.5148592221,-1.5661023917,1411
114669,203022,264761,-4.2604206393,8.6333039408,-1.6259229567,1412
114711,203019,264750,-4.3369909625,8.4622171249,-1.5888342063999998,1413
114728,203009,264729,-4.353740720699999,8.695517328400001,-1.6259229567,1414
114749,203086,264751,-4.4422751569,8.7182491431,-1.5744772707999999,1415
114751,203058,264768,-4.3453658416,8.4430745441,-1.6606188843999998,1416
114773,203018,264739,-4.3417766077,8.6572321668,-1.6223337227999999,1417
114792,203060,264752,-4.402793583999999,8.6165541826,-1.5278172301,1418
114850,203052,264789,-4.3178483817,8.596215190499999,-1.6606188843999998,1419
114836,202998,264779,-4.4123648744,8.6524465216,-1.6319050132,1420
114817,203031,264760,-4.3561335433,8.6189470052,-1.6079767872,1421
114833,203027,264790,-4.2556349941,8.6045900696,-1.6175480776,1422
114975,203030,264785,-4.4685962055,8.7326060787,-1.5948162629,1423
115055,203036,264763,-4.3417766077,8.5328053916,-1.4608181972999998,1424
115145,203091,264775,-4.2652062845000005,8.5280197464,-1.5708880369,1425
115187,203084,264807,-4.2939201557,8.7708912403,-1.5086746492999998,1426
115242,203118,264773,-4.2747775749,8.6524465216,-1.6462619487999999,1427
115349,203150,264796,-4.2975093896,8.6799639815,-1.4931213024,1428
115445,203114,264807,-4.3501514868,8.6895352719,-1.6893327556000002,1429
115522,203095,264764,-4.3884366484,8.542376681999999,-1.5744772707999999,1430
115582,203168,264766,-4.3597227772,8.695517328400001,-1.5361921092,1431
115606,203164,264784,-4.5499521739,8.5040915204,-1.4847464232999998,1432
115488,203102,264720,-4.2508493489,8.6656070459,-1.7168502155,1433
115223,202984,264703,-4.1527436223,8.4813597057,-1.6163516663,1434
115028,202960,264604,-4.4075792292,8.6560357555,-1.5134602944999997,1435
115014,202995,264674,-4.1958144290999995,8.6847496267,-1.5517454561000001,1436
115041,203012,264643,-4.3322053173,8.7661055951,-1.6319050132,1437
115012,203054,264676,-4.3118663252,8.5998044244,-1.6462619487999999,1438
115109,203083,264675,-4.2891345105,8.6189470052,-1.7276179172000001,1439
115186,203096,264719,-4.4733818507,8.6512501103,-1.5230315848999998,1440
115154,203103,264721,-4.3645084224,8.5615192628,-1.5948162629,1441
115283,203115,264716,-4.4123648744,8.5531443837,-1.6606188843999998,1442
115293,203123,264710,-4.486542375,8.7326060787,-1.6737794087,1443
115334,203103,264738,-4.3609191885,8.641678819900001,-1.7503497318999999,1444
115321,203134,264732,-4.4685962055,8.5471623272,-1.6929219895,1445
115394,203148,264771,-4.3740797127999995,8.5363946255,-1.6127624323999998,1446
115464,203091,264704,-4.2783668087999995,8.6476608764,-1.6797614652,1447
115510,203157,264718,-4.2652062845000005,8.638089586,-1.6654045296,1448
115619,203138,264713,-4.2077785421,8.556733617599999,-1.6331014245,1449
115687,203153,264699,-4.4063828179,8.566304908,-1.5517454561000001,1450
115749,203147,264693,-4.4554356812,8.4394853102,-1.6223337227999999,1451
115810,203114,264706,-4.3465622529,8.5854474888,-1.6953148121,1452
115889,203182,264725,-4.3501514868,8.5806618436,-1.6331014245,1453
115919,203201,264766,-4.3884366484,8.5148592221,-1.6845471104,1454
115956,203236,264715,-4.3740797127999995,8.584251077500001,-1.7084753364,1455
116014,203215,264673,-4.2412780585,8.590233134,-1.6749758199999998,1456
115938,203203,264647,-4.4279182213,8.5710905532,-1.7048861025,1457
115712,203099,264614,-4.4590249151000005,8.7003029736,-1.6833506991,1458
115460,203054,264557,-4.3752761241,8.5088771656,-1.5421741657,1459
115345,203092,264583,-4.4123648744,8.7038922075,-1.6546368279,1460
115367,203067,264600,-4.5738803999,8.6081793035,-1.7276179172000001,1461
115383,203084,264649,-4.3453658416,8.5232341012,-1.6462619487999999,1462
115444,203109,264641,-4.4123648744,8.4801632944,-1.5613167465000002,1463
115510,203045,264633,-4.354937132,8.6129649487,-1.6893327556000002,1464
115603,203162,264684,-4.5547378191000005,8.5854474888,-1.5744772707999999,1465
115667,203181,264642,-4.3262232608,8.4993058752,-1.5565311013,1466
115660,203146,264677,-4.2987058009,8.6081793035,-1.6654045296,1467
115635,203182,264671,-4.2891345105,8.49452023,-1.6749758199999998,1468
115668,203142,264658,-4.3836510032,8.4909309961,-1.5936198516,1469
115724,203141,264663,-4.3465622529,8.5758761984,-1.5984054967999999,1470
115778,203153,264659,-4.3800617693,8.5052879317,-1.5744772707999999,1471
115800,203177,264700,-4.3980079388,8.484948939599999,-1.5852449725,1472
115880,203150,264737,-4.237688824599999,8.542376681999999,-1.6941184008,1473
115919,203187,264662,-4.4889351976,8.6703926911,-1.6797614652,1474
116004,203242,264706,-4.5499521739,8.542376681999999,-1.6666009409,1475
115999,203233,264664,-4.3178483817,8.6524465216,-1.6845471104,1476
116089,203217,264701,-4.5080777784,8.7182491431,-1.5996019081000001,1477
116145,203268,264718,-4.4446679795,8.6321075295,-1.6127624323999998,1478
116118,203270,264681,-4.2460637037,8.5998044244,-1.6414763036,1479
116154,203272,264676,-4.3118663252,8.721838377,-1.6594224731,1480
116243,203278,264676,-4.2604206393,8.5950187792,-1.7084753364,1481
116236,203221,264654,-4.4015971727,8.5507515611,-1.6426727149,1482
116030,203165,264644,-4.3369909625,8.566304908,-1.8077774743,1483
115695,203081,264542,-4.2843488653,8.4993058752,-1.7276179172000001,1484
115429,203076,264538,-4.30708068,8.6524465216,-1.6618152957,1485
115357,203062,264523,-4.4398823343,8.569894141899999,-1.5326028753,1486
115334,203087,264584,-4.3022950348,8.628518295600001,-1.7754743692000001,1487
115346,203122,264590,-4.3357945512,8.5280197464,-1.6941184008,1488
115374,203101,264632,-4.2269211229,8.6668034572,-1.7132609816000002,1489
115419,203167,264647,-4.4219361648,8.6572321668,-1.7084753364,1490
115501,203152,264638,-4.378865358,8.638089586,-1.6857435217,1491
115528,203146,264661,-4.3465622529,8.694320917099999,-1.603191142,1492
115541,203144,264657,-4.3884366484,8.61416136,-1.6426727149,1493
115527,203133,264665,-4.4327038665,8.4897345848,-1.6510475939999998,1494
115531,203121,264645,-4.4638105603,8.4837525283,-1.7276179172000001,1495
115581,203113,264659,-4.2783668087999995,8.5316089803,-1.6510475939999998,1496
115615,203049,264721,-4.3034914461,8.6189470052,-1.5852449725,1497
115526,203125,264699,-4.2939201557,8.484948939599999,-1.6426727149,1498
115568,203176,264734,-4.354937132,8.5244305125,-1.7551353771,1499
115648,203164,264790,-4.415954108299999,8.5950187792,-1.8029918290999998,1500
115620,203191,264765,-4.6683968926,8.5005022865,-1.6283157793,1501
115636,203198,264777,-4.354937132,8.5998044244,-1.7180466268,1502
115661,203161,264753,-4.3776689467,8.5854474888,-1.7563317884,1503
115742,203204,264751,-4.4697926167999995,8.5854474888,-1.6414763036,1504
115672,203171,264773,-4.3980079388,8.6703926911,-1.6558332392,1505
115678,203202,264738,-4.3597227772,8.362914987,-1.6654045296,1506
115700,203186,264805,-4.3932222936,8.681160392799999,-1.7036896912000001,1507
115689,203224,264771,-4.2556349941,8.6572321668,-1.5278172301,1508
115708,203214,264745,-4.4542392699,8.4765740605,-1.5613167465000002,1509
115745,203161,264723,-4.3585263658999995,8.6225362391,-1.6522440053,1510
115566,203071,264690,-4.402793583999999,8.5710905532,-1.6845471104,1511
115164,203025,264603,-4.4123648744,8.4813597057,-1.5326028753,1512
114902,202941,264589,-4.3226340269,8.7373917239,-1.7216358607,1513
114785,202990,264633,-4.2927237444,8.4382888989,-1.5708880369,1514
114720,202973,264660,-4.3166519704,8.6333039408,-1.4811571894,1515
114683,202988,264635,-4.3274196721000004,8.7038922075,-1.5756736821000001,1516
114708,202986,264666,-4.402793583999999,8.6668034572,-1.5613167465000002,1517
114776,203005,264708,-4.2269211229,8.484948939599999,-1.6462619487999999,1518
