green,red,IR,acc_x,acc_y,acc_z,sample_index
130462,192885,241151,-1.3088739621999999,-9.1154576947,-2.8402804262,1
130124,192862,241131,-1.2969098492,-9.1633141467,-2.7708885708000004,2
129924,192848,241147,-1.1856435983,-9.2267239456,-2.87138712,3
129825,192846,241146,-1.3052847283,-9.2410808812,-2.7972096194,4
129848,192876,241135,-1.2000005339,-9.2674019298,-2.8618158296000002,5
129863,192905,241143,-1.1641081949,-9.1513500337,-2.8043880872,6
129934,192850,241112,-1.1904292435000001,-9.1417787433,-2.8187450228000004,7
129914,192875,241121,-1.1210373881,-9.2386880586,-2.8211378454,8
129977,192884,241120,-1.1784651305,-9.1776710823,-2.7840490951,9
130051,192877,241081,-1.3076775509,-9.1860459614,-2.8163522002,10
130129,192894,241085,-1.4165509792000002,-9.1956172518,-2.8115665549999997,11
130246,192878,241100,-1.3112667848,-9.2458665264,-2.8402804262,12
130381,192881,241085,-1.2047861791,-9.148957211099999,-2.8570301844,13
130539,192929,241126,-1.2945170266,-9.219545477799999,-2.8295127245,14
130726,192950,241150,-1.2035897678,-9.2985086236,-2.8522445392,15
130921,192895,241145,-1.2335000503,-9.2434737038,-2.7780670386,16
131050,192928,241187,-1.2646067441000002,-9.248259349,-2.9144579268,17
131186,192966,241191,-1.2430713407,-9.219545477799999,-2.8271199019,18
131235,192956,241139,-1.256231865,-9.2171526552,-2.7900311516,19
130928,192909,241162,-1.1916256548,-9.274580397600001,-2.7625136916999997,20
130454,192926,241124,-1.2586246876,-9.265009107200001,-2.835494781,21
130011,192806,241096,-1.1581261384000001,-9.3248296722,-2.9096722816000002,22
129687,192857,241114,-1.328016543,-9.2554378168,-2.9288148624,23
129428,192805,241103,-1.2239287599,-9.1501536224,-2.7744778047,24
129291,192798,241073,-1.2634103328,-9.188438784,-2.7792634499,25
129301,192817,241103,-1.1617153723,-9.1609213241,-2.8115665549999997,26
129331,192827,241082,-1.2466605746,-9.162117735399999,-2.8295127245,27
129383,192810,241090,-1.3387842447,-9.273383986299999,-2.835494781,28
129446,192851,241104,-1.2993026717999998,-9.2039921309,-2.8606194183,29
129531,192821,241102,-1.2107682356,-9.2087777761,-2.8582265956999997,30
129543,192817,241057,-1.3447663012,-9.284151688,-2.8091737324,31
129648,192816,241083,-1.2311072277,-9.1896351953,-2.8534409504999996,32
129743,192861,241085,-1.1916256548,-9.224331123,-2.8570301844,33
129875,192845,241095,-1.2945170266,-9.1202433399,-2.7900311516,34
130027,192906,241108,-1.1569297271,-9.1465643885,-2.7996024420000003,35
130198,192874,241111,-1.2693923893,-9.1369930981,-2.8761727652,36
130369,192896,241114,-1.2969098492,-9.2183490665,-2.7003003040999998,37
130565,192898,241170,-1.2370892842,-9.3116691479,-2.8067809098,38
130718,192927,241142,-1.1832507757,-9.1680997919,-2.8079773211,39
130904,192937,241104,-1.4153545679,-9.207581364800001,-2.883351233,40
131115,192925,241147,-1.2418749294,-9.3284189061,-2.8570301844,41
130998,192937,241135,-1.3064811396,-9.3164547931,-2.8737799425999997,42
130593,192874,241176,-1.1210373881,-9.1238325738,-2.7852455064000003,43
130141,192860,241119,-1.3375878334,-9.1872423727,-2.8091737324,44
129801,192828,241135,-1.2358928729,-9.3116691479,-2.8151557889,45
129473,192802,241106,-1.3375878334,-9.2913301558,-2.8283163132,46
129341,192828,241086,-1.1569297271,-9.2626162846,-2.7912275628999996,47
129301,192807,241078,-1.2490533972,-9.108279226899999,-2.7972096194,48
129388,192821,241121,-1.3351950108,-9.0915294687,-2.8283163132,49
129459,192852,241121,-1.2897313814,-9.1465643885,-2.8905297008,50
129517,192848,241114,-1.2945170266,-9.2554378168,-2.8079773211,51
129605,192837,241104,-1.3782658175999998,-9.2685983411,-2.8163522002,52
129658,192850,241115,-1.3974083984,-9.117850517299999,-2.8091737324,53
129703,192830,241141,-1.3507483577,-9.178867493599999,-2.7529424013,54
129866,192879,241148,-1.2370892842,-9.1142612834,-2.883351233,55
130050,192851,241090,-1.2993026717999998,-9.0652084201,-2.9168507494,56
130233,192908,241160,-1.3734801723999999,-9.1800639049,-2.8043880872,57
130387,192918,241194,-1.3459627125,-9.1298146303,-2.8953153460000003,58
130557,192900,241198,-1.2346964616,-9.2889373332,-2.7421746995999996,59
130740,192904,241175,-1.2478569859,-9.2051885422,-2.8307091358,60
130937,192920,241160,-1.3543375915999998,-9.3260260835,-2.8247270792999997,61
131111,192905,241180,-1.3112667848,-9.2793660428,-2.8474588940000003,62
131248,192940,241163,-1.3220344865,-9.21236701,-2.8606194183,63
131146,192882,241153,-1.2023933565,-9.2231347117,-2.7266213527,64
130721,192905,241159,-1.2119646469,-9.1680997919,-2.8366911923,65
130333,192845,241143,-1.2729816232,-9.1944208405,-2.8019952646,66
130035,192826,241178,-1.3375878334,-9.224331123,-2.7672993369,67
129813,192828,241082,-1.2849457361999999,-9.1704926145,-2.7744778047,68
129678,192813,241121,-1.2167502921,-9.3415794304,-2.8378876036,69
129701,192828,241074,-1.2191431147,-9.2674019298,-2.8570301844,70
129803,192803,241101,-1.2287144051,-9.2937229784,-2.8737799425999997,71
129826,192837,241121,-1.1521440819,-9.2566342281,-2.8319055471,72
129844,192835,241098,-1.1066804525,-9.1920280179,-2.787638329,73
129907,192821,241140,-1.2873385588,-9.2099741874,-2.7708885708000004,74
129975,192824,241082,-1.220339526,-9.1908316066,-2.7433711108999996,75
130056,192835,241130,-1.2370892842,-9.2973122123,-2.8809584104000003,76
130160,192858,241120,-1.2215359373,-9.148957211099999,-2.7361926431000003,77
130289,192862,241137,-1.4249258583,-9.0628155975,-2.7242285301,78
130408,192883,241142,-1.2861421475,-9.037690960199999,-2.7553352239,79
130576,192871,241125,-1.2023933565,-9.1561356789,-2.9563323222999998,80
130749,192878,241108,-1.2705888006,-9.2219383004,-2.8450660714,81
130912,192912,241156,-1.1772687192,-9.1274218077,-2.8666014748,82
131058,192923,241134,-1.2275179938,-9.2374916473,-2.7768706272999997,83
131257,192899,241172,-1.2011969452,-9.3020978575,-2.8271199019,84
131386,192897,241203,-1.2933206153,-9.3499543095,-2.8331019584000003,85
131248,192895,241156,-1.1425727915,-9.1680997919,-2.8594230069999997,86
130811,192858,241159,-1.2538390423999999,-9.3248296722,-2.7302105866,87
130352,192776,241142,-1.4033904549,-9.2578306394,-2.8390840148999996,88
129938,192790,241153,-1.2406785181,-9.2386880586,-2.8378876036,89
129623,192776,241130,-1.2813565023,-9.3009014462,-2.7828526838,90
129390,192784,241094,-1.2610175101999999,-9.272187575,-2.8905297008,91
129305,192761,241136,-1.172483074,-9.1680997919,-2.7720849821,92
129331,192801,241105,-1.1976077113,-9.3667040677,-2.8558337731,93
129376,192787,241102,-1.3184452526,-9.1501536224,-2.7948167968,94
129445,192778,241102,-1.3339985995,-9.153742856300001,-2.8319055471,95
129469,192802,241129,-1.2897313814,-9.207581364800001,-2.7780670386,96
129546,192807,241068,-1.3064811396,-9.1357966868,-2.8546373618,97
129629,192793,241109,-1.1653046062,-9.272187575,-2.7469603447999997,98
129693,192843,241096,-1.3483555351,-9.1692962032,-2.7924239742,99
129825,192765,241097,-1.3136596074,-9.3248296722,-2.7972096194,100
129977,192843,241147,-1.3304093655999998,-9.1896351953,-2.8761727652,101
130146,192889,241134,-1.1988041226,-9.3260260835,-2.7864419177,102
130300,192837,241151,-1.2598210989,-9.2267239456,-2.7481567560999998,103
130481,192880,241128,-1.1868400096,-9.2518485829,-2.8067809098,104
130709,192893,241169,-1.328016543,-9.2697947524,-2.8378876036,105
130833,192914,241173,-1.1545369045,-9.2590270507,-2.8522445392,106
131015,192915,241172,-1.3447663012,-9.2386880586,-2.8307091358,107
131196,192916,241175,-1.1641081949,-9.2219383004,-2.8570301844,108
131354,192970,241209,-1.2586246876,-9.2315095908,-2.7385854657,109
131248,192909,241176,-1.2251251712,-9.2458665264,-2.7864419177,110
130869,192921,241175,-1.3746765837,-9.1633141467,-2.8103701436999997,111
130437,192857,241175,-1.3746765837,-9.1633141467,-2.8103701436999997,112
130050,192824,241177,-1.3746765837,-9.1633141467,-2.8103701436999997,113
129757,192803,241139,-1.3746765837,-9.1633141467,-2.8103701436999997,114
129570,192825,241141,-1.3746765837,-9.1633141467,-2.8103701436999997,115
129524,192853,241137,-1.3746765837,-9.1633141467,-2.8103701436999997,116
129555,192803,241131,-1.3746765837,-9.1633141467,-2.8103701436999997,117
129627,192807,241139,-1.3746765837,-9.1633141467,-2.8103701436999997,118
129707,192816,241102,-1.3746765837,-9.1633141467,-2.8103701436999997,119
129760,192844,241193,-1.3746765837,-9.1633141467,-2.8103701436999997,120
129862,192837,241154,-1.3746765837,-9.1633141467,-2.8103701436999997,121
129929,192862,241182,-1.3746765837,-9.1633141467,-2.8103701436999997,122
130039,192878,241176,-1.3746765837,-9.1633141467,-2.8103701436999997,123
130188,192869,241120,-1.3746765837,-9.1633141467,-2.8103701436999997,124
130346,192893,241131,-1.3746765837,-9.1633141467,-2.8103701436999997,125
130494,192901,241161,-1.3746765837,-9.1633141467,-2.8103701436999997,126
130690,192927,241184,-1.3746765837,-9.1633141467,-2.8103701436999997,127
130857,192934,241214,-1.2143574695,-9.2386880586,-2.8893332895,128
131040,192921,241196,-1.2143574695,-9.2386880586,-2.8893332895,129
131234,192956,241220,-1.2143574695,-9.2386880586,-2.8893332895,130
131445,192968,241244,-1.2143574695,-9.2386880586,-2.8893332895,131
131619,192956,241274,-1.2143574695,-9.2386880586,-2.8893332895,132
131820,193000,241259,-1.2143574695,-9.2386880586,-2.8893332895,133
132007,192974,241254,-1.2143574695,-9.2386880586,-2.8893332895,134
132110,192998,241259,-1.2143574695,-9.2386880586,-2.8893332895,135
132067,193016,241285,-1.2143574695,-9.2386880586,-2.8893332895,136
131704,192940,241234,-1.2143574695,-9.2386880586,-2.8893332895,137
131319,192931,241230,-1.2143574695,-9.2386880586,-2.8893332895,138
131002,192917,241242,-1.2143574695,-9.2386880586,-2.8893332895,139
130804,192894,241187,-1.2143574695,-9.2386880586,-2.8893332895,140
130685,192890,241207,-1.2143574695,-9.2386880586,-2.8893332895,141
130678,192893,241196,-1.2143574695,-9.2386880586,-2.8893332895,142
130756,192926,241178,-1.2143574695,-9.2386880586,-2.8893332895,143
130886,192915,241202,-1.2143574695,-9.2386880586,-2.8893332895,144
130931,192939,241222,-1.2143574695,-9.2386880586,-2.8893332895,145
131006,192959,241227,-1.2143574695,-9.2386880586,-2.8893332895,146
131089,192935,241253,-1.2143574695,-9.2386880586,-2.8893332895,147
131186,192953,241237,-1.2143574695,-9.2386880586,-2.8893332895,148
131302,192975,241233,-1.2143574695,-9.2386880586,-2.8893332895,149
131429,192955,241243,-1.2143574695,-9.2386880586,-2.8893332895,150
131548,193013,241276,-1.2143574695,-9.2386880586,-2.8893332895,151
131740,193004,241256,-1.2143574695,-9.2386880586,-2.8893332895,152
131887,192989,241296,-1.2107682356,-9.2685983411,-2.7529424013,153
132092,193029,241300,-1.2107682356,-9.2685983411,-2.7529424013,154
132237,193035,241252,-1.2107682356,-9.2685983411,-2.7529424013,155
132394,193020,241297,-1.2107682356,-9.2685983411,-2.7529424013,156
132560,193022,241312,-1.2107682356,-9.2685983411,-2.7529424013,157
132670,193051,241284,-1.2107682356,-9.2685983411,-2.7529424013,158
132571,192971,241298,-1.2107682356,-9.2685983411,-2.7529424013,159
132221,192998,241263,-1.2107682356,-9.2685983411,-2.7529424013,160
131847,192945,241217,-1.2107682356,-9.2685983411,-2.7529424013,161
131552,192935,241234,-1.2107682356,-9.2685983411,-2.7529424013,162
131346,192904,241214,-1.2107682356,-9.2685983411,-2.7529424013,163
131223,192923,241231,-1.2107682356,-9.2685983411,-2.7529424013,164
131178,192883,241191,-1.2107682356,-9.2685983411,-2.7529424013,165
131255,192921,241170,-1.2107682356,-9.2685983411,-2.7529424013,166
131327,192903,241204,-1.2107682356,-9.2685983411,-2.7529424013,167
131332,192914,241170,-1.2107682356,-9.2685983411,-2.7529424013,168
131415,192898,241157,-1.2107682356,-9.2685983411,-2.7529424013,169
131454,192908,241139,-1.2107682356,-9.2685983411,-2.7529424013,170
131517,192932,241193,-1.2107682356,-9.2685983411,-2.7529424013,171
131599,192939,241177,-1.2107682356,-9.2685983411,-2.7529424013,172
131715,192931,241203,-1.2107682356,-9.2685983411,-2.7529424013,173
131813,192955,241238,-1.2107682356,-9.2685983411,-2.7529424013,174
131943,192966,241225,-1.2107682356,-9.2685983411,-2.7529424013,175
132116,192924,241216,-1.2107682356,-9.2685983411,-2.7529424013,176
132244,192987,241273,-1.2107682356,-9.2685983411,-2.7529424013,177
132380,192994,241170,-1.2107682356,-9.2685983411,-2.7529424013,178
132533,192975,241243,-1.2107682356,-9.2685983411,-2.7529424013,179
132497,192971,241215,-1.2107682356,-9.2685983411,-2.7529424013,180
132176,192952,241230,-1.2107682356,-9.2685983411,-2.7529424013,181
131741,192914,241198,-1.2107682356,-9.2685983411,-2.7529424013,182
131336,192912,241168,-1.2107682356,-9.2685983411,-2.7529424013,183
131026,192879,241167,-1.2107682356,-9.2685983411,-2.7529424013,184
130806,192840,241097,-1.2107682356,-9.2685983411,-2.7529424013,185
130646,192857,241124,-1.2107682356,-9.2685983411,-2.7529424013,186
130631,192827,241168,-1.2107682356,-9.2685983411,-2.7529424013,187
130715,192873,241155,-1.2107682356,-9.2685983411,-2.7529424013,188
130747,192845,241135,-1.2107682356,-9.2685983411,-2.7529424013,189
130782,192849,241152,-1.2107682356,-9.2685983411,-2.7529424013,190
130833,192886,241063,-1.2107682356,-9.2685983411,-2.7529424013,191
130855,192870,241125,-1.2107682356,-9.2685983411,-2.7529424013,192
130945,192870,241153,-1.2107682356,-9.2685983411,-2.7529424013,193
131049,192882,241119,-1.2107682356,-9.2685983411,-2.7529424013,194
131613,192919,241144,-1.3088739621999999,-9.3188476157,-2.8378876036,195
131741,192930,241150,-1.3088739621999999,-9.3188476157,-2.8378876036,196
131925,192916,241163,-1.3088739621999999,-9.3188476157,-2.8378876036,197
132106,192977,241162,-1.3088739621999999,-9.3188476157,-2.8378876036,198
132180,192970,241155,-1.3088739621999999,-9.3188476157,-2.8378876036,199
131952,192904,241135,-1.3088739621999999,-9.3188476157,-2.8378876036,200
131537,192868,241161,-1.3088739621999999,-9.3188476157,-2.8378876036,201
131158,192854,241153,-1.3088739621999999,-9.3188476157,-2.8378876036,202
130835,192809,241091,-1.3088739621999999,-9.3188476157,-2.8378876036,203
130642,192835,241125,-1.3088739621999999,-9.3188476157,-2.8378876036,204
130508,192830,241129,-1.3088739621999999,-9.3188476157,-2.8378876036,205
130529,192814,241088,-1.3088739621999999,-9.3188476157,-2.8378876036,206
130582,192814,241082,-1.3088739621999999,-9.3188476157,-2.8378876036,207
130633,192790,241131,-1.3088739621999999,-9.3188476157,-2.8378876036,208
130695,192839,241112,-1.3088739621999999,-9.3188476157,-2.8378876036,209
130735,192837,241107,-1.3088739621999999,-9.3188476157,-2.8378876036,210
130815,192837,241087,-1.3088739621999999,-9.3188476157,-2.8378876036,211
130900,192844,241079,-1.3088739621999999,-9.3188476157,-2.8378876036,212
131035,192845,241085,-1.3088739621999999,-9.3188476157,-2.8378876036,213
131162,192874,241096,-1.3088739621999999,-9.3188476157,-2.8378876036,214
131318,192887,241131,-1.3088739621999999,-9.3188476157,-2.8378876036,215
131481,192861,241128,-1.3088739621999999,-9.3188476157,-2.8378876036,216
131664,192874,241131,-1.3088739621999999,-9.3188476157,-2.8378876036,217
131837,192928,241180,-1.3088739621999999,-9.3188476157,-2.8378876036,218
131985,192916,241153,-1.3088739621999999,-9.3188476157,-2.8378876036,219
132219,192958,241188,-1.3088739621999999,-9.3188476157,-2.8378876036,220
132403,192972,241136,-1.3088739621999999,-9.3188476157,-2.8378876036,221
132580,192971,241168,-1.3088739621999999,-9.3188476157,-2.8378876036,222
132697,192986,241229,-1.3088739621999999,-9.3188476157,-2.8378876036,223
132631,192984,241212,-1.3088739621999999,-9.3188476157,-2.8378876036,224
132331,192911,241208,-1.3088739621999999,-9.3188476157,-2.8378876036,225
132029,192910,241166,-1.3088739621999999,-9.3188476157,-2.8378876036,226
131812,192882,241170,-1.3088739621999999,-9.3188476157,-2.8378876036,227
131647,192870,241195,-1.3088739621999999,-9.3188476157,-2.8378876036,228
131543,192863,241113,-1.3088739621999999,-9.3188476157,-2.8378876036,229
131572,192870,241150,-1.3088739621999999,-9.3188476157,-2.8378876036,230
131648,192897,241150,-1.3088739621999999,-9.3188476157,-2.8378876036,231
131731,192888,241144,-1.3088739621999999,-9.3188476157,-2.8378876036,232
131761,192889,241148,-1.3088739621999999,-9.3188476157,-2.8378876036,233
131841,192899,241154,-1.3088739621999999,-9.3188476157,-2.8378876036,234
131876,192884,241116,-1.3088739621999999,-9.3188476157,-2.8378876036,235
131990,192881,241123,-1.3088739621999999,-9.3188476157,-2.8378876036,236
132869,192873,241155,-1.280160091,-9.1561356789,-2.787638329,237
132820,192894,241136,-1.280160091,-9.1561356789,-2.787638329,238
132814,192917,241133,-1.280160091,-9.1561356789,-2.787638329,239
132862,192923,241146,-1.280160091,-9.1561356789,-2.787638329,240
132885,192906,241190,-1.280160091,-9.1561356789,-2.787638329,241
132944,192905,241158,-1.280160091,-9.1561356789,-2.787638329,242
133013,192906,241155,-1.280160091,-9.1561356789,-2.787638329,243
133050,192943,241167,-1.280160091,-9.1561356789,-2.787638329,244
133107,192911,241170,-1.280160091,-9.1561356789,-2.787638329,245
133181,192907,241190,-1.280160091,-9.1561356789,-2.787638329,246
133280,192947,241154,-1.280160091,-9.1561356789,-2.787638329,247
133381,192976,241170,-1.280160091,-9.1561356789,-2.787638329,248
133492,192979,241175,-1.280160091,-9.1561356789,-2.787638329,249
133628,192998,241197,-1.280160091,-9.1561356789,-2.787638329,250
133742,192996,241195,-1.3244273091,-9.229116768199999,-2.7780670386,251
133860,193022,241172,-1.3244273091,-9.229116768199999,-2.7780670386,252
133987,193018,241234,-1.3244273091,-9.229116768199999,-2.7780670386,253
134147,193059,241232,-1.3244273091,-9.229116768199999,-2.7780670386,254
134252,193049,241213,-1.3244273091,-9.229116768199999,-2.7780670386,255
134385,193058,241201,-1.3244273091,-9.229116768199999,-2.7780670386,256
134544,193072,241259,-1.3316057769,-9.2662055185,-2.8905297008,257
134637,193040,241252,-1.2729816232,-9.2793660428,-2.8378876036,258
134440,193055,241226,-1.2466605746,-9.2434737038,-2.8019952646,259
134208,192991,241220,-1.1808579531,-9.3511507208,-2.7290141752999997,260
133945,193001,241183,-1.3148560187,-9.2219383004,-2.75174599,261
133734,192943,241148,-1.3686945272,-9.1585285015,-2.8091737324,262
133611,192994,241176,-1.2239287599,-9.2578306394,-2.7828526838,263
133560,192934,241167,-1.1330015010999999,-9.233902413400001,-2.8809584104000003,264
133554,192962,241193,-1.1736794853,-9.175278259699999,-2.8689942974,265
133570,192955,241166,-1.1054840412,-9.1238325738,-2.7708885708000004,266
133621,192957,241189,-1.2849457361999999,-9.1417787433,-2.8666014748,267
133623,192984,241158,-1.3088739621999999,-9.1609213241,-2.7720849821,268
133648,192969,241199,-1.3112667848,-9.1992064857,-2.7684957482,269
133682,192953,241192,-1.1748758966000001,-9.2709911637,-2.8247270792999997,270
133724,192998,241140,-1.3375878334,-9.1238325738,-2.823530668,271
133754,192981,241156,-1.2059825904,-9.2171526552,-2.7900311516,272
133823,192957,241168,-1.2215359373,-9.148957211099999,-2.8115665549999997,273
133922,192975,241145,-1.2646067441000002,-9.1274218077,-2.8103701436999997,274
133993,193005,241209,-1.3543375915999998,-9.116654106,-2.8761727652,275
134116,192986,241198,-1.2717852119000002,-9.1106720495,-2.8175486115,276
134243,193005,241182,-1.1066804525,-9.2566342281,-2.8211378454,277
134316,193051,241237,-1.1856435983,-9.2135634213,-2.8594230069999997,278
134424,192991,241194,-1.3998012210000002,-9.1549392676,-2.7122644171,279
134512,193041,241194,-1.2849457361999999,-9.176474671,-2.8905297008,280
134643,193033,241194,-1.2646067441000002,-9.2279203569,-2.7481567560999998,281
134764,193045,241252,-1.3088739621999999,-9.176474671,-2.8785655878,282
134853,193060,241224,-1.1964113,-9.2410808812,-2.9288148624,283
134826,193039,241234,-1.2047861791,-9.117850517299999,-2.8139593776000003,284
134531,193002,241247,-1.2215359373,-9.2051885422,-2.8450660714,285
134211,192981,241199,-1.2634103328,-9.2578306394,-2.8450660714,286
133891,192920,241176,-1.2717852119000002,-9.2506521716,-2.7122644171,287
133638,192927,241131,-1.2717852119000002,-9.2506521716,-2.7122644171,288
133424,192872,241134,-1.2717852119000002,-9.2506521716,-2.7122644171,289
133322,192947,241146,-1.2717852119000002,-9.2506521716,-2.7122644171,290
133272,192938,241120,-1.2717852119000002,-9.2506521716,-2.7122644171,291
133301,192947,241155,-1.2717852119000002,-9.2506521716,-2.7122644171,292
133307,192914,241145,-1.2717852119000002,-9.2506521716,-2.7122644171,293
133312,192928,241161,-1.2717852119000002,-9.2506521716,-2.7122644171,294
133268,192959,241124,-1.2717852119000002,-9.2506521716,-2.7122644171,295
133295,192935,241154,-1.2717852119000002,-9.2506521716,-2.7122644171,296
133333,192926,241160,-1.2717852119000002,-9.2506521716,-2.7122644171,297
133374,192967,241132,-1.2717852119000002,-9.2506521716,-2.7122644171,298
133443,192958,241137,-1.2717852119000002,-9.2506521716,-2.7122644171,299
133517,192980,241173,-1.2717852119000002,-9.2506521716,-2.7122644171,300
133620,192978,241171,-1.2717852119000002,-9.2506521716,-2.7122644171,301
133711,192970,241147,-1.2717852119000002,-9.2506521716,-2.7122644171,302
133815,193001,241159,-1.2717852119000002,-9.2506521716,-2.7122644171,303
133941,193026,241176,-1.2717852119000002,-9.2506521716,-2.7122644171,304
134094,193083,241246,-1.2717852119000002,-9.2506521716,-2.7122644171,305
134221,193088,241185,-1.2717852119000002,-9.2506521716,-2.7122644171,306
134356,193100,241215,-1.2717852119000002,-9.2506521716,-2.7122644171,307
134452,193069,241207,-1.2993026717999998,-9.206384953499999,-2.835494781,308
134318,193035,241234,-1.2993026717999998,-9.206384953499999,-2.835494781,309
133916,192988,241204,-1.2993026717999998,-9.206384953499999,-2.835494781,310
133499,192957,241209,-1.2993026717999998,-9.206384953499999,-2.835494781,311
133143,192933,241208,-1.2813565023,-9.1118684608,-2.8689942974,312
132871,192968,241157,-1.3160524299999998,-9.0939222913,-2.9551359109999997,313
132652,192936,241118,-1.3232308977999998,-9.3260260835,-2.7409782883,314
132514,192918,241131,-1.4500504956,-9.2506521716,-2.7505495787000003,315
132518,192934,241080,-1.2753744458,-9.2685983411,-2.8139593776000003,316
132504,192965,241135,-1.1832507757,-9.2147598326,-2.9024938138,317
132510,192921,241087,-1.2598210989,-9.1118684608,-2.8259234905999997,318
132510,192918,241118,-1.1018948073,-9.1429751546,-2.7912275628999996,319
132518,192942,241134,-1.2526426310999998,-9.1704926145,-2.8522445392,320
132512,192918,241093,-1.256231865,-9.2506521716,-2.8283163132,321
132526,192919,241101,-1.4069796888000001,-9.2506521716,-2.8761727652,322
132564,192913,241114,-1.2658031554,-9.1980100744,-2.8761727652,323
132643,192962,241117,-1.2382856955,-9.2279203569,-2.8259234905999997,324
132730,192966,241168,-1.2873385588,-9.1381895094,-2.8594230069999997,325
132802,192953,241116,-1.3603196481,-9.2458665264,-2.8307091358,326
132913,192992,241155,-1.3531411803,-9.3296153174,-2.7972096194,327
133043,192999,241130,-1.2023933565,-9.09272588,-2.7409782883,328
133142,192989,241093,-1.2658031554,-9.1740818484,-2.8139593776000003,329
133304,192975,241113,-1.3363914221,-9.2530449942,-2.7553352239,330
133428,193031,241142,-1.2478569859,-9.2685983411,-2.8618158296000002,331
133537,193038,241158,-1.2490533972,-9.1011007591,-2.8522445392,332
133685,193059,241153,-1.3507483577,-9.1860459614,-2.8043880872,333
133774,193062,241179,-1.2358928729,-9.219545477799999,-2.8642086522,334
133870,193076,241173,-1.1665010175000001,-9.153742856300001,-2.87138712,335
133488,193003,241152,-1.2622139215000001,-9.1860459614,-2.8618158296000002,336
132908,192954,241144,-1.1389835576,-9.1274218077,-2.8115665549999997,337
132354,192926,241120,-1.4021940436,-9.1716890258,-2.8426732488,338
131850,192924,241102,-1.2873385588,-9.2267239456,-2.8570301844,339
131623,192937,241076,-1.2729816232,-9.0879402348,-2.8570301844,340
131442,192886,241090,-1.3483555351,-9.2039921309,-2.8139593776000003,341
131359,192897,241107,-1.1736794853,-9.3044906801,-2.7637101029999998,342
131382,192895,241084,-1.2586246876,-9.1298146303,-2.8378876036,343
131332,192901,241092,-1.3016954943999999,-9.1346002755,-2.8666014748,344
131285,192921,241098,-1.2346964616,-9.1561356789,-2.8366911923,345
131237,192905,241036,-1.3411770673,-9.2506521716,-2.8007988533,346
131182,192895,241070,-1.2765708571,-9.176474671,-2.775674216,347
131175,192901,241086,-1.244267752,-9.2315095908,-2.8402804262,348
131150,192876,241064,-1.3902299306,-9.1932244292,-2.8701907087,349
131192,192912,241052,-1.1497512593,-9.2985086236,-2.8043880872,350
131279,192881,241071,-1.1880364209,-9.1740818484,-2.8307091358,351
131235,192930,241068,-1.2658031554,-9.2530449942,-2.8809584104000003,352
131420,192884,241056,-1.2239287599,-9.121439751199999,-2.8522445392,353
131548,192935,241061,-1.1521440819,-9.2099741874,-2.9096722816000002,354
131663,192987,241132,-1.2275179938,-9.286544510599999,-2.8438696600999998,355
131842,192993,241121,-1.2454641632999999,-9.164510558,-2.87138712,356
131930,192980,241130,-1.3112667848,-9.4097748745,-2.9240292172,357
132070,192984,241079,-1.172483074,-9.1824567275,-2.8414768375,358
132151,192995,241129,-1.1210373881,-9.1393859207,-2.9048866364,359
131887,192972,241114,-1.2155538808,-9.2099741874,-2.8331019584000003,360
131266,192902,241105,-1.1425727915,-9.188438784,-2.8139593776000003,361
130538,192854,241110,-1.0827522265,-9.1477607998,-2.7194428849,362
129888,192803,240999,-1.2155538808,-9.2279203569,-2.8809584104000003,363
129387,192817,241070,-1.3423734786,-9.148957211099999,-2.8474588940000003,364
129045,192786,241031,-1.1641081949,-9.2530449942,-2.7649065143000002,365
128886,192760,241018,-1.2011969452,-9.1932244292,-2.8043880872,366
128845,192791,241043,-1.2299108163999999,-9.248259349,-2.8546373618,367
128816,192791,241033,-1.1688938401,-9.2829552767,-2.8450660714,368
128753,192787,240996,-1.2921242039999998,-9.2793660428,-2.823530668,369
128581,192719,240962,-1.304088317,-9.148957211099999,-2.835494781,370
128359,192721,240912,-1.1449656141,-9.1118684608,-2.8187450228000004,371
128213,192660,240920,-1.2658031554,-9.296115801,-2.7625136916999997,372
128117,192670,240968,-1.2981062605,-9.2877409219,-2.835494781,373
128079,192654,240915,-1.3112667848,-9.2027957196,-2.8570301844,374
128158,192723,240941,-1.2897313814,-9.1381895094,-2.7218357075,375
128262,192705,240897,-1.3208380752,-9.330811728699999,-2.8007988533,376
128377,192704,240956,-1.3064811396,-9.2015993083,-2.8642086522,377
128541,192735,240903,-1.1940184774,-9.2051885422,-2.8546373618,378
128717,192737,240970,-1.220339526,-9.1477607998,-2.8642086522,379
128841,192771,240988,-1.112662509,-9.1669033806,-2.8953153460000003,380
129017,192775,241002,-1.2418749294,-9.2099741874,-2.8390840148999996,381
129218,192792,241004,-1.0791629926,-9.1202433399,-2.7768706272999997,382
129414,192789,241015,-1.2825529136,-9.2709911637,-2.7577280465,383
129562,192796,240991,-1.160518961,-9.274580397600001,-2.8857440556,384
129279,192780,241016,-1.2729816232,-9.265009107200001,-2.8378876036,385
128717,192756,241053,-1.220339526,-9.1836531388,-2.8474588940000003,386
128238,192700,240942,-1.220339526,-9.1836531388,-2.8474588940000003,387
127939,192658,240953,-1.220339526,-9.1836531388,-2.8474588940000003,388
127846,192659,240910,-1.220339526,-9.1836531388,-2.8474588940000003,389
127920,192674,240929,-1.220339526,-9.1836531388,-2.8474588940000003,390
128219,192687,240843,-1.2897313814,-9.308079914,-2.8522445392,391
128680,192690,240819,-1.2155538808,-9.1262253964,-2.8474588940000003,392
129113,192681,240840,-1.232303639,-9.1393859207,-2.8498517166,393
129434,192633,240844,-1.2346964616,-9.1980100744,-2.8881368781999996,394
129591,192595,240860,-1.2311072277,-9.327222494799999,-2.8175486115,395
129690,192646,240926,-1.2215359373,-9.290133744499999,-2.8666014748,396
129751,192651,240997,-1.2035897678,-9.3427758417,-2.8091737324,397
129778,192682,241029,-1.2729816232,-9.1692962032,-2.8055844984999996,398
129883,192744,241115,-1.2538390423999999,-9.1609213241,-2.8761727652,399
129956,192781,241103,-1.1353943237,-9.1704926145,-2.7960132080999998,400
130103,192792,241137,-1.2394821068,-9.2027957196,-2.8043880872,401
130233,192786,241164,-1.2514462198,-9.2697947524,-2.8402804262,402
130377,192845,241180,-1.2000005339,-9.1669033806,-2.8378876036,403
130520,192864,241178,-1.2191431147,-9.2817588654,-2.8857440556,404
130709,192871,241163,-1.2490533972,-9.1896351953,-2.8019952646,405
130915,192958,241222,-1.2681959779999998,-9.2458665264,-2.7661029256000003,406
131188,192928,241308,-1.3603196481,-9.140582332,-2.7672993369,407
131444,192917,241237,-1.3627124707,-9.2303131795,-2.7529424013,408
131437,192784,241086,-1.3627124707,-9.2303131795,-2.7529424013,409
130775,192486,240754,-1.3627124707,-9.2303131795,-2.7529424013,410
130205,192305,240647,-1.3627124707,-9.2303131795,-2.7529424013,411
130192,192373,240705,-1.3627124707,-9.2303131795,-2.7529424013,412
130071,192532,240833,-1.3627124707,-9.2303131795,-2.7529424013,413
129731,192602,240934,-1.3627124707,-9.2303131795,-2.7529424013,414
129348,192604,240896,-1.3627124707,-9.2303131795,-2.7529424013,415
129009,192579,240949,-1.3627124707,-9.2303131795,-2.7529424013,416
128735,192581,240898,-1.3627124707,-9.2303131795,-2.7529424013,417
128622,192632,240963,-1.3627124707,-9.2303131795,-2.7529424013,418
128745,192643,240955,-1.3627124707,-9.2303131795,-2.7529424013,419
128925,192668,240949,-1.3627124707,-9.2303131795,-2.7529424013,420
129196,192666,240887,-1.3627124707,-9.2303131795,-2.7529424013,421
129599,192723,240891,-1.3627124707,-9.2303131795,-2.7529424013,422
129976,192717,240922,-1.3627124707,-9.2303131795,-2.7529424013,423
130374,192752,240922,-1.3627124707,-9.2303131795,-2.7529424013,424
130919,192822,240954,-1.3627124707,-9.2303131795,-2.7529424013,425
131907,192848,240929,-1.3627124707,-9.2303131795,-2.7529424013,426
133007,192892,240941,-1.3627124707,-9.2303131795,-2.7529424013,427
134057,192943,240963,-1.3627124707,-9.2303131795,-2.7529424013,428
134842,193006,241063,-1.3627124707,-9.2303131795,-2.7529424013,429
135592,193070,241110,-1.3627124707,-9.2303131795,-2.7529424013,430
136220,192984,241019,-1.3627124707,-9.2303131795,-2.7529424013,431
136560,192626,240823,-1.3627124707,-9.2303131795,-2.7529424013,432
136719,192389,240680,-1.3627124707,-9.2303131795,-2.7529424013,433
136820,192409,240771,-1.3627124707,-9.2303131795,-2.7529424013,434
136907,192464,240879,-1.3627124707,-9.2303131795,-2.7529424013,435
137030,192535,240893,-1.3627124707,-9.2303131795,-2.7529424013,436
137114,192611,241035,-1.3627124707,-9.2303131795,-2.7529424013,437
137217,192645,241079,-1.3627124707,-9.2303131795,-2.7529424013,438
137214,192667,241068,-1.3627124707,-9.2303131795,-2.7529424013,439
136980,192647,241134,-1.3627124707,-9.2303131795,-2.7529424013,440
136618,192657,241147,-1.3627124707,-9.2303131795,-2.7529424013,441
136181,192658,241102,-1.3627124707,-9.2303131795,-2.7529424013,442
135831,192668,241111,-1.3627124707,-9.2303131795,-2.7529424013,443
135578,192656,241110,-1.3627124707,-9.2303131795,-2.7529424013,444
135402,192663,241109,-1.3627124707,-9.2303131795,-2.7529424013,445
135313,192674,241120,-1.3627124707,-9.2303131795,-2.7529424013,446
135254,192688,241127,-1.3627124707,-9.2303131795,-2.7529424013,447
135234,192703,241123,-1.3627124707,-9.2303131795,-2.7529424013,448
135157,192702,241115,-1.3627124707,-9.2303131795,-2.7529424013,449
135677,192797,241104,-1.2837493249,-9.224331123,-2.8019952646,450
135765,192834,241161,-1.2837493249,-9.224331123,-2.8019952646,451
135823,192824,241168,-1.2837493249,-9.224331123,-2.8019952646,452
135917,192820,241196,-1.2837493249,-9.224331123,-2.8019952646,453
135994,192854,241143,-1.2837493249,-9.224331123,-2.8019952646,454
135993,192829,241173,-1.2837493249,-9.224331123,-2.8019952646,455
135775,192800,241150,-1.2837493249,-9.224331123,-2.8019952646,456
135381,192748,241107,-1.2837493249,-9.224331123,-2.8019952646,457
134963,192763,241082,-1.2837493249,-9.224331123,-2.8019952646,458
134596,192738,241063,-1.2837493249,-9.224331123,-2.8019952646,459
134342,192748,241044,-1.2837493249,-9.224331123,-2.8019952646,460
134190,192755,241067,-1.2837493249,-9.224331123,-2.8019952646,461
134106,192732,241069,-1.2837493249,-9.224331123,-2.8019952646,462
134077,192736,241086,-1.2837493249,-9.224331123,-2.8019952646,463
134024,192740,241086,-1.2837493249,-9.224331123,-2.8019952646,464
134006,192753,241098,-1.2837493249,-9.224331123,-2.8019952646,465
133960,192738,241071,-1.2837493249,-9.224331123,-2.8019952646,466
133931,192762,241079,-1.2837493249,-9.224331123,-2.8019952646,467
133878,192770,241012,-1.2837493249,-9.224331123,-2.8019952646,468
133862,192746,241051,-1.2837493249,-9.224331123,-2.8019952646,469
133871,192755,241033,-1.2837493249,-9.224331123,-2.8019952646,470
133896,192761,241073,-1.2837493249,-9.224331123,-2.8019952646,471
133949,192775,241037,-1.2837493249,-9.224331123,-2.8019952646,472
133991,192751,241061,-1.2837493249,-9.224331123,-2.8019952646,473
134042,192787,241058,-1.2837493249,-9.224331123,-2.8019952646,474
134121,192791,241072,-1.2837493249,-9.224331123,-2.8019952646,475
134213,192831,241074,-1.3938191645,-9.3164547931,-2.7421746995999996,476
134267,192809,241100,-1.3938191645,-9.3164547931,-2.7421746995999996,477
134362,192853,241094,-1.3938191645,-9.3164547931,-2.7421746995999996,478
134442,192833,241040,-1.3938191645,-9.3164547931,-2.7421746995999996,479
134549,192842,241064,-1.3938191645,-9.3164547931,-2.7421746995999996,480
134619,192874,241084,-1.3938191645,-9.3164547931,-2.7421746995999996,481
134524,192811,241087,-1.3938191645,-9.3164547931,-2.7421746995999996,482
134148,192802,241016,-1.3938191645,-9.3164547931,-2.7421746995999996,483
133686,192770,241018,-1.3938191645,-9.3164547931,-2.7421746995999996,484
133231,192729,241006,-1.3938191645,-9.3164547931,-2.7421746995999996,485
132886,192753,240969,-1.3938191645,-9.3164547931,-2.7421746995999996,486
132641,192765,240966,-1.3938191645,-9.3164547931,-2.7421746995999996,487
132518,192755,240955,-1.3938191645,-9.3164547931,-2.7421746995999996,488
132480,192733,240971,-1.3938191645,-9.3164547931,-2.7421746995999996,489
132453,192762,240940,-1.3938191645,-9.3164547931,-2.7421746995999996,490
132419,192728,240985,-1.3938191645,-9.3164547931,-2.7421746995999996,491
132388,192706,240967,-1.3938191645,-9.3164547931,-2.7421746995999996,492
132353,192718,240966,-1.3938191645,-9.3164547931,-2.7421746995999996,493
132301,192740,240901,-1.3938191645,-9.3164547931,-2.7421746995999996,494
132317,192725,240930,-1.3938191645,-9.3164547931,-2.7421746995999996,495
132330,192730,240936,-1.3938191645,-9.3164547931,-2.7421746995999996,496
132396,192746,240938,-1.3938191645,-9.3164547931,-2.7421746995999996,497
132459,192751,240948,-1.3938191645,-9.3164547931,-2.7421746995999996,498
132525,192765,240925,-1.3938191645,-9.3164547931,-2.7421746995999996,499
132647,192776,240924,-1.3938191645,-9.3164547931,-2.7421746995999996,500
132730,192767,240936,-1.3938191645,-9.3164547931,-2.7421746995999996,501
132868,192825,240925,-1.3938191645,-9.3164547931,-2.7421746995999996,502
132948,192796,240908,-1.3938191645,-9.3164547931,-2.7421746995999996,503
133081,192823,240943,-1.3938191645,-9.3164547931,-2.7421746995999996,504
133182,192825,240963,-1.3938191645,-9.3164547931,-2.7421746995999996,505
133298,192852,240979,-1.3938191645,-9.3164547931,-2.7421746995999996,506
133440,192860,240931,-1.3938191645,-9.3164547931,-2.7421746995999996,507
133484,192860,240994,-1.3938191645,-9.3164547931,-2.7421746995999996,508
133229,192811,240929,-1.3938191645,-9.3164547931,-2.7421746995999996,509
132824,192786,240933,-1.3938191645,-9.3164547931,-2.7421746995999996,510
132429,192773,240887,-1.3938191645,-9.3164547931,-2.7421746995999996,511
132141,192745,240973,-1.3938191645,-9.3164547931,-2.7421746995999996,512
131953,192752,240922,-1.3938191645,-9.3164547931,-2.7421746995999996,513
131872,192738,240904,-1.3938191645,-9.3164547931,-2.7421746995999996,514
131847,192743,240911,-1.3938191645,-9.3164547931,-2.7421746995999996,515
131903,192754,240905,-1.3938191645,-9.3164547931,-2.7421746995999996,516
131941,192780,240877,-1.3938191645,-9.3164547931,-2.7421746995999996,517
131268,192697,240826,-1.1832507757,-9.1202433399,-2.7744778047,518
131343,192669,240775,-1.1832507757,-9.1202433399,-2.7744778047,519
131433,192734,240820,-1.1832507757,-9.1202433399,-2.7744778047,520
131515,192728,240787,-1.1832507757,-9.1202433399,-2.7744778047,521
131606,192712,240790,-1.1832507757,-9.1202433399,-2.7744778047,522
131748,192723,240811,-1.1832507757,-9.1202433399,-2.7744778047,523
131885,192745,240744,-1.1832507757,-9.1202433399,-2.7744778047,524
132000,192744,240833,-1.1832507757,-9.1202433399,-2.7744778047,525
132105,192766,240841,-1.1832507757,-9.1202433399,-2.7744778047,526
132229,192755,240871,-1.1832507757,-9.1202433399,-2.7744778047,527
132282,192741,240832,-1.1832507757,-9.1202433399,-2.7744778047,528
132101,192721,240828,-1.1832507757,-9.1202433399,-2.7744778047,529
131563,192680,240774,-1.1832507757,-9.1202433399,-2.7744778047,530
130893,192636,240815,-1.1832507757,-9.1202433399,-2.7744778047,531
130345,192605,240744,-1.1832507757,-9.1202433399,-2.7744778047,532
129896,192597,240762,-1.1832507757,-9.1202433399,-2.7744778047,533
129556,192580,240723,-1.1832507757,-9.1202433399,-2.7744778047,534
129430,192582,240750,-1.1832507757,-9.1202433399,-2.7744778047,535
129336,192569,240724,-1.1832507757,-9.1202433399,-2.7744778047,536
129372,192583,240684,-1.1832507757,-9.1202433399,-2.7744778047,537
129360,192588,240695,-1.1832507757,-9.1202433399,-2.7744778047,538
129319,192554,240703,-1.1832507757,-9.1202433399,-2.7744778047,539
129272,192566,240681,-1.1832507757,-9.1202433399,-2.7744778047,540
129222,192553,240661,-1.1832507757,-9.1202433399,-2.7744778047,541
129252,192583,240688,-1.1832507757,-9.1202433399,-2.7744778047,542
129293,192567,240652,-1.1832507757,-9.1202433399,-2.7744778047,543
129364,192569,240720,-1.1832507757,-9.1202433399,-2.7744778047,544
129480,192543,240699,-1.1832507757,-9.1202433399,-2.7744778047,545
129628,192556,240670,-1.1832507757,-9.1202433399,-2.7744778047,546
129768,192614,240719,-1.1832507757,-9.1202433399,-2.7744778047,547
129922,192592,240744,-1.1832507757,-9.1202433399,-2.7744778047,548
130099,192621,240687,-1.1832507757,-9.1202433399,-2.7744778047,549
130251,192621,240759,-1.1832507757,-9.1202433399,-2.7744778047,550
130448,192630,240740,-1.1832507757,-9.1202433399,-2.7744778047,551
130624,192660,240755,-1.1832507757,-9.1202433399,-2.7744778047,552
130799,192679,240728,-1.1832507757,-9.1202433399,-2.7744778047,553
130968,192649,240742,-1.1832507757,-9.1202433399,-2.7744778047,554
131051,192680,240812,-1.1832507757,-9.1202433399,-2.7744778047,555
130718,192655,240788,-1.1832507757,-9.1202433399,-2.7744778047,556
130119,192625,240765,-1.1832507757,-9.1202433399,-2.7744778047,557
129532,192562,240742,-1.1832507757,-9.1202433399,-2.7744778047,558
129052,192534,240703,-1.1832507757,-9.1202433399,-2.7744778047,559
128972,192515,240707,-1.2861421475,-9.1848495501,-2.75174599,560
128984,192536,240708,-1.2861421475,-9.1848495501,-2.75174599,561
129023,192522,240708,-1.2861421475,-9.1848495501,-2.75174599,562
129120,192524,240726,-1.2861421475,-9.1848495501,-2.75174599,563
129225,192522,240695,-1.2861421475,-9.1848495501,-2.75174599,564
129383,192550,240715,-1.2861421475,-9.1848495501,-2.75174599,565
129502,192556,240718,-1.2861421475,-9.1848495501,-2.75174599,566
129682,192569,240759,-1.2861421475,-9.1848495501,-2.75174599,567
129864,192597,240755,-1.2861421475,-9.1848495501,-2.75174599,568
129972,192576,240767,-1.2861421475,-9.1848495501,-2.75174599,569
129661,192560,240786,-1.2861421475,-9.1848495501,-2.75174599,570
129046,192493,240743,-1.2861421475,-9.1848495501,-2.75174599,571
128445,192474,240683,-1.3722837611,-9.2937229784,-2.7529424013,572
127946,192455,240685,-1.3722837611,-9.2937229784,-2.7529424013,573
127636,192453,240671,-1.3722837611,-9.2937229784,-2.7529424013,574
127445,192419,240653,-1.3722837611,-9.2937229784,-2.7529424013,575
127422,192412,240681,-1.3722837611,-9.2937229784,-2.7529424013,576
127494,192433,240678,-1.3722837611,-9.2937229784,-2.7529424013,577
127578,192443,240636,-1.3722837611,-9.2937229784,-2.7529424013,578
127666,192438,240656,-1.3722837611,-9.2937229784,-2.7529424013,579
127707,192445,240686,-1.3722837611,-9.2937229784,-2.7529424013,580
127721,192432,240657,-1.3722837611,-9.2937229784,-2.7529424013,581
127790,192439,240676,-1.3722837611,-9.2937229784,-2.7529424013,582
127915,192458,240698,-1.3722837611,-9.2937229784,-2.7529424013,583
128073,192477,240661,-1.3722837611,-9.2937229784,-2.7529424013,584
128199,192453,240718,-1.3351950108,-9.2614198733,-2.7445675222,585
128426,192501,240669,-1.3351950108,-9.2614198733,-2.7445675222,586
128613,192488,240679,-1.3351950108,-9.2614198733,-2.7445675222,587
128819,192508,240741,-1.280160091,-9.3571327773,-2.7373890544,588
128794,192501,240765,-1.3220344865,-9.2015993083,-2.7182464736,589
128397,192480,240730,-1.3615160593999998,-9.175278259699999,-2.8019952646,590
127778,192431,240688,-1.3399806559999998,-9.175278259699999,-2.7780670386,591
127253,192369,240697,-1.256231865,-9.3379901965,-2.7074787719,592
126905,192408,240636,-1.2849457361999999,-9.286544510599999,-2.7194428849,593
126645,192384,240646,-1.3076775509,-9.2410808812,-2.7146572396999997,594
126555,192349,240667,-1.3866406967,-9.272187575,-2.7086751831999996,595
126648,192370,240671,-1.2885349701,-9.274580397600001,-2.7481567560999998,596
126804,192406,240694,-1.3854442854000002,-9.1298146303,-2.7302105866,597
126917,192364,240646,-1.2705888006,-9.2219383004,-2.7218357075,598
127000,192361,240657,-1.1437692028,-9.2027957196,-2.7996024420000003,599
127070,192416,240699,-1.2538390423999999,-9.1597249128,-2.6452653843,600
127199,192428,240715,-1.2311072277,-9.2590270507,-2.691925425,601
127409,192427,240699,-1.2287144051,-9.1968136631,-2.7732813934,602
127513,192420,240715,-1.3256237203999999,-9.2506521716,-2.7637101029999998,603
127729,192446,240744,-1.3495519463999999,-9.178867493599999,-2.6309084487,604
127985,192462,240709,-1.3004990831,-9.2985086236,-2.703889538,605
128209,192480,240734,-1.1569297271,-9.2530449942,-2.7613172804,606
128456,192500,240738,-1.1976077113,-9.21236701,-2.7792634499,607
128696,192493,240766,-1.3854442854000002,-9.3667040677,-2.7481567560999998,608
128939,192520,240775,-1.4189438018,-9.2578306394,-2.8163522002,609
129092,192526,240760,-1.3962119871,-9.286544510599999,-2.7828526838,610
129015,192484,240787,-1.3423734786,-9.1429751546,-2.7445675222,611
128522,192460,240762,-1.3328021881999998,-9.175278259699999,-2.7134608283999997,612
128018,192442,240742,-1.2454641632999999,-9.1824567275,-2.5974089322999996,613
127583,192426,240770,-1.1976077113,-9.2147598326,-2.7852455064000003,614
127333,192432,240748,-1.4009976323,-9.2554378168,-2.7194428849,615
127255,192425,240726,-1.2837493249,-9.1980100744,-2.7266213527,616
127312,192408,240708,-1.2765708571,-9.1513500337,-2.7242285301,617
127465,192439,240777,-1.2765708571,-9.1513500337,-2.7242285301,618
127628,192440,240717,-1.2765708571,-9.1513500337,-2.7242285301,619
127716,192443,240776,-1.2765708571,-9.1513500337,-2.7242285301,620
127793,192463,240733,-1.2765708571,-9.1513500337,-2.7242285301,621
127880,192450,240750,-1.2765708571,-9.1513500337,-2.7242285301,622
127992,192461,240750,-1.2765708571,-9.1513500337,-2.7242285301,623
128109,192477,240697,-1.2765708571,-9.1513500337,-2.7242285301,624
128275,192424,240788,-1.2765708571,-9.1513500337,-2.7242285301,625
128470,192487,240748,-1.2765708571,-9.1513500337,-2.7242285301,626
128668,192497,240724,-1.2765708571,-9.1513500337,-2.7242285301,627
128870,192469,240755,-1.2765708571,-9.1513500337,-2.7242285301,628
129060,192509,240785,-1.2765708571,-9.1513500337,-2.7242285301,629
129240,192526,240759,-1.2765708571,-9.1513500337,-2.7242285301,630
129441,192531,240782,-1.2765708571,-9.1513500337,-2.7242285301,631
129624,192531,240798,-1.2765708571,-9.1513500337,-2.7242285301,632
129637,192524,240801,-1.2765708571,-9.1513500337,-2.7242285301,633
129281,192487,240802,-1.2765708571,-9.1513500337,-2.7242285301,634
128675,192441,240755,-1.2765708571,-9.1513500337,-2.7242285301,635
128153,192421,240786,-1.2765708571,-9.1513500337,-2.7242285301,636
127778,192419,240713,-1.2765708571,-9.1513500337,-2.7242285301,637
127529,192371,240662,-1.2765708571,-9.1513500337,-2.7242285301,638
127435,192378,240643,-1.2765708571,-9.1513500337,-2.7242285301,639
127480,192426,240703,-1.2765708571,-9.1513500337,-2.7242285301,640
127591,192436,240688,-1.2765708571,-9.1513500337,-2.7242285301,641
127678,192360,240740,-1.2765708571,-9.1513500337,-2.7242285301,642
127723,192436,240749,-1.2765708571,-9.1513500337,-2.7242285301,643
127755,192376,240740,-1.2765708571,-9.1513500337,-2.7242285301,644
127851,192439,240723,-1.2765708571,-9.1513500337,-2.7242285301,645
127972,192424,240750,-1.2765708571,-9.1513500337,-2.7242285301,646
128113,192403,240713,-1.2765708571,-9.1513500337,-2.7242285301,647
128303,192443,240755,-1.2765708571,-9.1513500337,-2.7242285301,648
128489,192458,240761,-1.2765708571,-9.1513500337,-2.7242285301,649
128663,192465,240741,-1.2765708571,-9.1513500337,-2.7242285301,650
128878,192494,240807,-1.2765708571,-9.1513500337,-2.7242285301,651
129091,192501,240777,-1.2765708571,-9.1513500337,-2.7242285301,652
129308,192512,240804,-1.2765708571,-9.1513500337,-2.7242285301,653
129548,192550,240824,-1.2765708571,-9.1513500337,-2.7242285301,654
129733,192534,240805,-1.2765708571,-9.1513500337,-2.7242285301,655
129979,192534,240822,-1.2765708571,-9.1513500337,-2.7242285301,656
130170,192568,240903,-1.2765708571,-9.1513500337,-2.7242285301,657
130391,192570,240860,-1.2765708571,-9.1513500337,-2.7242285301,658
131119,192636,240851,-1.3268201317000001,-9.2315095908,-2.6727828442,659
130886,192569,240865,-1.3268201317000001,-9.2315095908,-2.6727828442,660
130323,192567,240855,-1.3268201317000001,-9.2315095908,-2.6727828442,661
129753,192544,240825,-1.3268201317000001,-9.2315095908,-2.6727828442,662
129277,192508,240816,-1.3268201317000001,-9.2315095908,-2.6727828442,663
128917,192499,240780,-1.3268201317000001,-9.2315095908,-2.6727828442,664
128693,192479,240704,-1.3268201317000001,-9.2315095908,-2.6727828442,665
128615,192487,240821,-1.3268201317000001,-9.2315095908,-2.6727828442,666
128662,192476,240779,-1.3268201317000001,-9.2315095908,-2.6727828442,667
128734,192482,240816,-1.3268201317000001,-9.2315095908,-2.6727828442,668
128769,192485,240777,-1.3268201317000001,-9.2315095908,-2.6727828442,669
128812,192485,240790,-1.3268201317000001,-9.2315095908,-2.6727828442,670
128833,192487,240783,-1.3268201317000001,-9.2315095908,-2.6727828442,671
128881,192525,240767,-1.3268201317000001,-9.2315095908,-2.6727828442,672
129001,192484,240798,-1.3268201317000001,-9.2315095908,-2.6727828442,673
129129,192502,240781,-1.3268201317000001,-9.2315095908,-2.6727828442,674
129299,192522,240823,-1.3268201317000001,-9.2315095908,-2.6727828442,675
129461,192555,240855,-1.3268201317000001,-9.2315095908,-2.6727828442,676
129700,192547,240819,-1.3268201317000001,-9.2315095908,-2.6727828442,677
129907,192568,240831,-1.3268201317000001,-9.2315095908,-2.6727828442,678
130104,192607,240852,-1.3268201317000001,-9.2315095908,-2.6727828442,679
130330,192616,240867,-1.3268201317000001,-9.2315095908,-2.6727828442,680
130549,192589,240836,-1.3268201317000001,-9.2315095908,-2.6727828442,681
130765,192653,240907,-1.3268201317000001,-9.2315095908,-2.6727828442,682
130966,192656,240849,-1.3268201317000001,-9.2315095908,-2.6727828442,683
131208,192642,240867,-1.3268201317000001,-9.2315095908,-2.6727828442,684
131413,192652,240904,-1.3268201317000001,-9.2315095908,-2.6727828442,685
131634,192698,240862,-1.3268201317000001,-9.2315095908,-2.6727828442,686
131822,192685,240910,-1.3268201317000001,-9.2315095908,-2.6727828442,687
131999,192737,240962,-1.3268201317000001,-9.2315095908,-2.6727828442,688
131996,192710,240938,-1.3268201317000001,-9.2315095908,-2.6727828442,689
131653,192695,240921,-1.3268201317000001,-9.2315095908,-2.6727828442,690
131243,192627,240907,-1.3268201317000001,-9.2315095908,-2.6727828442,691
130911,192610,240895,-1.3268201317000001,-9.2315095908,-2.6727828442,692
130709,192611,240851,-1.3268201317000001,-9.2315095908,-2.6727828442,693
130578,192603,240902,-1.3268201317000001,-9.2315095908,-2.6727828442,694
130602,192602,240865,-1.3268201317000001,-9.2315095908,-2.6727828442,695
130705,192646,240896,-1.3268201317000001,-9.2315095908,-2.6727828442,696
130808,192636,240926,-1.3268201317000001,-9.2315095908,-2.6727828442,697
130884,192632,240873,-1.3268201317000001,-9.2315095908,-2.6727828442,698
130926,192638,240910,-1.3268201317000001,-9.2315095908,-2.6727828442,699
130934,192642,240875,-1.3268201317000001,-9.2315095908,-2.6727828442,700
131342,192557,240764,-1.2885349701,-9.207581364800001,-2.7948167968,701
131389,192616,240756,-1.2885349701,-9.207581364800001,-2.7948167968,702
131429,192609,240698,-1.2885349701,-9.207581364800001,-2.7948167968,703
131416,192606,240715,-1.2885349701,-9.207581364800001,-2.7948167968,704
131460,192609,240715,-1.2885349701,-9.207581364800001,-2.7948167968,705
131492,192583,240757,-1.2885349701,-9.207581364800001,-2.7948167968,706
131555,192627,240748,-1.2885349701,-9.207581364800001,-2.7948167968,707
131660,192620,240754,-1.2885349701,-9.207581364800001,-2.7948167968,708
131792,192595,240725,-1.2885349701,-9.207581364800001,-2.7948167968,709
131891,192622,240751,-1.2885349701,-9.207581364800001,-2.7948167968,710
132030,192636,240767,-1.2885349701,-9.207581364800001,-2.7948167968,711
132147,192658,240756,-1.2885349701,-9.207581364800001,-2.7948167968,712
132315,192657,240786,-1.2885349701,-9.207581364800001,-2.7948167968,713
132479,192659,240809,-1.2885349701,-9.207581364800001,-2.7948167968,714
132617,192671,240781,-1.2885349701,-9.207581364800001,-2.7948167968,715
132496,192627,240750,-1.2885349701,-9.207581364800001,-2.7948167968,716
132056,192592,240699,-1.2885349701,-9.207581364800001,-2.7948167968,717
131548,192545,240737,-1.2885349701,-9.207581364800001,-2.7948167968,718
131113,192530,240718,-1.2885349701,-9.207581364800001,-2.7948167968,719
130773,192505,240705,-1.2885349701,-9.207581364800001,-2.7948167968,720
130480,192517,240618,-1.2885349701,-9.207581364800001,-2.7948167968,721
130383,192526,240654,-1.2885349701,-9.207581364800001,-2.7948167968,722
130364,192508,240710,-1.2885349701,-9.207581364800001,-2.7948167968,723
130396,192547,240630,-1.2885349701,-9.207581364800001,-2.7948167968,724
130472,192504,240658,-1.2885349701,-9.207581364800001,-2.7948167968,725
130479,192524,240677,-1.2885349701,-9.207581364800001,-2.7948167968,726
130562,192518,240652,-1.2777672683999999,-9.1944208405,-2.7337998205,727
130589,192528,240641,-1.2777672683999999,-9.1944208405,-2.7337998205,728
130655,192558,240656,-1.2777672683999999,-9.1944208405,-2.7337998205,729
130762,192535,240709,-1.2777672683999999,-9.1944208405,-2.7337998205,730
130909,192575,240713,-1.2777672683999999,-9.1944208405,-2.7337998205,731
131069,192585,240720,-1.2777672683999999,-9.1944208405,-2.7337998205,732
131257,192594,240668,-1.2777672683999999,-9.1944208405,-2.7337998205,733
131445,192631,240696,-1.2777672683999999,-9.1944208405,-2.7337998205,734
131627,192616,240763,-1.2777672683999999,-9.1944208405,-2.7337998205,735
131809,192614,240729,-1.2777672683999999,-9.1944208405,-2.7337998205,736
132004,192674,240692,-1.2777672683999999,-9.1944208405,-2.7337998205,737
132149,192664,240754,-1.2777672683999999,-9.1944208405,-2.7337998205,738
132002,192611,240736,-1.2777672683999999,-9.1944208405,-2.7337998205,739
131572,192585,240699,-1.2777672683999999,-9.1944208405,-2.7337998205,740
131120,192542,240658,-1.2777672683999999,-9.1944208405,-2.7337998205,741
130799,192559,240646,-1.2777672683999999,-9.1944208405,-2.7337998205,742
130558,192509,240662,-1.2777672683999999,-9.1944208405,-2.7337998205,743
130405,192529,240706,-1.2777672683999999,-9.1944208405,-2.7337998205,744
130388,192519,240675,-1.2777672683999999,-9.1944208405,-2.7337998205,745
130514,192538,240659,-1.2777672683999999,-9.1944208405,-2.7337998205,746
130594,192564,240665,-1.2777672683999999,-9.1944208405,-2.7337998205,747
130658,192566,240706,-1.2777672683999999,-9.1944208405,-2.7337998205,748
130738,192540,240663,-1.2777672683999999,-9.1944208405,-2.7337998205,749
130809,192567,240649,-1.2777672683999999,-9.1944208405,-2.7337998205,750
130884,192559,240665,-1.2777672683999999,-9.1944208405,-2.7337998205,751
131003,192583,240685,-1.2777672683999999,-9.1944208405,-2.7337998205,752
131127,192584,240657,-1.2777672683999999,-9.1944208405,-2.7337998205,753
131315,192579,240719,-1.2777672683999999,-9.1944208405,-2.7337998205,754
131472,192644,240705,-1.2777672683999999,-9.1944208405,-2.7337998205,755
131650,192637,240700,-1.2777672683999999,-9.1944208405,-2.7337998205,756
131844,192658,240711,-1.2777672683999999,-9.1944208405,-2.7337998205,757
132022,192650,240765,-1.2777672683999999,-9.1944208405,-2.7337998205,758
132202,192651,240735,-1.2777672683999999,-9.1944208405,-2.7337998205,759
132357,192660,240709,-1.2777672683999999,-9.1944208405,-2.7337998205,760
132478,192646,240744,-1.2777672683999999,-9.1944208405,-2.7337998205,761
132333,192628,240717,-1.2777672683999999,-9.1944208405,-2.7337998205,762
131899,192596,240680,-1.2777672683999999,-9.1944208405,-2.7337998205,763
131434,192543,240685,-1.2777672683999999,-9.1944208405,-2.7337998205,764
131024,192548,240731,-1.2777672683999999,-9.1944208405,-2.7337998205,765
130753,192519,240624,-1.2777672683999999,-9.1944208405,-2.7337998205,766
130577,192504,240601,-1.2777672683999999,-9.1944208405,-2.7337998205,767
130539,192509,240683,-1.2777672683999999,-9.1944208405,-2.7337998205,768
130698,192526,240700,-1.3172488413,-9.3128655592,-2.7302105866,769
130774,192512,240594,-1.3172488413,-9.3128655592,-2.7302105866,770
130832,192522,240665,-1.3172488413,-9.3128655592,-2.7302105866,771
130904,192526,240644,-1.3172488413,-9.3128655592,-2.7302105866,772
130999,192545,240640,-1.3172488413,-9.3128655592,-2.7302105866,773
131149,192521,240651,-1.3172488413,-9.3128655592,-2.7302105866,774
131286,192584,240670,-1.3172488413,-9.3128655592,-2.7302105866,775
131418,192593,240713,-1.3172488413,-9.3128655592,-2.7302105866,776
131591,192553,240676,-1.3172488413,-9.3128655592,-2.7302105866,777
131773,192615,240703,-1.3172488413,-9.3128655592,-2.7302105866,778
131953,192622,240700,-1.3172488413,-9.3128655592,-2.7302105866,779
132096,192613,240701,-1.3172488413,-9.3128655592,-2.7302105866,780
132267,192616,240722,-1.3172488413,-9.3128655592,-2.7302105866,781
132464,192639,240696,-1.3016954943999999,-9.2087777761,-2.7433711108999996,782
132603,192651,240738,-1.3016954943999999,-9.2087777761,-2.7433711108999996,783
132449,192607,240679,-1.3016954943999999,-9.2087777761,-2.7433711108999996,784
131970,192577,240681,-1.3016954943999999,-9.2087777761,-2.7433711108999996,785
131490,192546,240659,-1.3016954943999999,-9.2087777761,-2.7433711108999996,786
131027,192526,240667,-1.3016954943999999,-9.2087777761,-2.7433711108999996,787
130697,192491,240621,-1.3016954943999999,-9.2087777761,-2.7433711108999996,788
130444,192482,240661,-1.3016954943999999,-9.2087777761,-2.7433711108999996,789
130333,192474,240637,-1.3016954943999999,-9.2087777761,-2.7433711108999996,790
130330,192496,240577,-1.3016954943999999,-9.2087777761,-2.7433711108999996,791
130384,192484,240614,-1.3016954943999999,-9.2087777761,-2.7433711108999996,792
130427,192490,240621,-1.3016954943999999,-9.2087777761,-2.7433711108999996,793
130481,192498,240619,-1.2885349701,-9.284151688,-2.7984060307000003,794
130511,192493,240670,-1.2885349701,-9.284151688,-2.7984060307000003,795
130552,192490,240602,-1.2885349701,-9.284151688,-2.7984060307000003,796
130662,192539,240627,-1.3232308977999998,-9.1824567275,-2.6991038927999997,797
130786,192511,240623,-1.3615160593999998,-9.229116768199999,-2.7254249414,798
130900,192575,240635,-1.2921242039999998,-9.2350988247,-2.8127629663000002,799
131088,192557,240668,-1.328016543,-9.260223461999999,-2.8211378454,800
131272,192566,240661,-1.2969098492,-9.273383986299999,-2.7445675222,801
131458,192582,240683,-1.2550354537,-9.2674019298,-2.7086751831999996,802
131627,192586,240692,-1.2729816232,-9.2015993083,-2.7445675222,803
131829,192601,240683,-1.2287144051,-9.2518485829,-2.7493531674,804
132044,192638,240735,-1.2287144051,-9.2518485829,-2.7493531674,805
132229,192669,240765,-1.2287144051,-9.2518485829,-2.7493531674,806
132440,192647,240734,-1.2287144051,-9.2518485829,-2.7493531674,807
132606,192676,240764,-1.2287144051,-9.2518485829,-2.7493531674,808
132798,192664,240748,-1.2287144051,-9.2518485829,-2.7493531674,809
132982,192658,240773,-1.2287144051,-9.2518485829,-2.7493531674,810
132993,192665,240725,-1.2287144051,-9.2518485829,-2.7493531674,811
132667,192621,240754,-1.2287144051,-9.2518485829,-2.7493531674,812
132228,192613,240749,-1.2287144051,-9.2518485829,-2.7493531674,813
131878,192587,240755,-1.2287144051,-9.2518485829,-2.7493531674,814
131637,192547,240687,-1.2287144051,-9.2518485829,-2.7493531674,815
131461,192559,240725,-1.2287144051,-9.2518485829,-2.7493531674,816
131412,192556,240609,-1.2287144051,-9.2518485829,-2.7493531674,817
131446,192584,240658,-1.2287144051,-9.2518485829,-2.7493531674,818
131524,192594,240703,-1.2287144051,-9.2518485829,-2.7493531674,819
131552,192576,240681,-1.2287144051,-9.2518485829,-2.7493531674,820
131552,192559,240702,-1.2287144051,-9.2518485829,-2.7493531674,821
131546,192539,240678,-1.2287144051,-9.2518485829,-2.7493531674,822
131594,192539,240669,-1.2287144051,-9.2518485829,-2.7493531674,823
131620,192588,240674,-1.2287144051,-9.2518485829,-2.7493531674,824
131715,192574,240719,-1.2287144051,-9.2518485829,-2.7493531674,825
131797,192579,240726,-1.2287144051,-9.2518485829,-2.7493531674,826
131921,192620,240695,-1.2287144051,-9.2518485829,-2.7493531674,827
132036,192576,240690,-1.2287144051,-9.2518485829,-2.7493531674,828
132165,192622,240729,-1.2287144051,-9.2518485829,-2.7493531674,829
132311,192618,240656,-1.2287144051,-9.2518485829,-2.7493531674,830
132466,192641,240714,-1.2287144051,-9.2518485829,-2.7493531674,831
132595,192610,240731,-1.2287144051,-9.2518485829,-2.7493531674,832
132757,192616,240688,-1.2287144051,-9.2518485829,-2.7493531674,833
132913,192645,240734,-1.2287144051,-9.2518485829,-2.7493531674,834
133027,192641,240738,-1.2287144051,-9.2518485829,-2.7493531674,835
132949,192664,240725,-1.2287144051,-9.2518485829,-2.7493531674,836
132534,192603,240709,-1.2287144051,-9.2518485829,-2.7493531674,837
132010,192555,240672,-1.2287144051,-9.2518485829,-2.7493531674,838
131526,192542,240687,-1.2287144051,-9.2518485829,-2.7493531674,839
131127,192493,240611,-1.2287144051,-9.2518485829,-2.7493531674,840
130844,192511,240637,-1.2287144051,-9.2518485829,-2.7493531674,841
130684,192520,240625,-1.2287144051,-9.2518485829,-2.7493531674,842
130665,192499,240630,-1.2287144051,-9.2518485829,-2.7493531674,843
130691,192514,240601,-1.2287144051,-9.2518485829,-2.7493531674,844
130709,192495,240643,-1.2287144051,-9.2518485829,-2.7493531674,845
131217,192579,240653,-1.2418749294,-9.1250289851,-2.7182464736,846
131381,192586,240642,-1.2418749294,-9.1250289851,-2.7182464736,847
131547,192580,240684,-1.2418749294,-9.1250289851,-2.7182464736,848
131710,192602,240716,-1.2418749294,-9.1250289851,-2.7182464736,849
131908,192627,240678,-1.2418749294,-9.1250289851,-2.7182464736,850
132081,192654,240675,-1.2418749294,-9.1250289851,-2.7182464736,851
132272,192656,240749,-1.2418749294,-9.1250289851,-2.7182464736,852
132453,192662,240740,-1.2418749294,-9.1250289851,-2.7182464736,853
132609,192676,240786,-1.2418749294,-9.1250289851,-2.7182464736,854
132765,192721,240754,-1.2418749294,-9.1250289851,-2.7182464736,855
132818,192700,240784,-1.2418749294,-9.1250289851,-2.7182464736,856
132495,192664,240718,-1.2418749294,-9.1250289851,-2.7182464736,857
131906,192607,240695,-1.2418749294,-9.1250289851,-2.7182464736,858
131431,192583,240723,-1.2418749294,-9.1250289851,-2.7182464736,859
131055,192567,240699,-1.2418749294,-9.1250289851,-2.7182464736,860
130820,192555,240710,-1.2418749294,-9.1250289851,-2.7182464736,861
130695,192551,240694,-1.2418749294,-9.1250289851,-2.7182464736,862
130680,192555,240663,-1.2418749294,-9.1250289851,-2.7182464736,863
130721,192542,240641,-1.2418749294,-9.1250289851,-2.7182464736,864
130738,192570,240678,-1.2418749294,-9.1250289851,-2.7182464736,865
130709,192547,240694,-1.2418749294,-9.1250289851,-2.7182464736,866
130671,192543,240646,-1.2418749294,-9.1250289851,-2.7182464736,867
130669,192530,240651,-1.2418749294,-9.1250289851,-2.7182464736,868
130687,192514,240642,-1.2418749294,-9.1250289851,-2.7182464736,869
130738,192557,240688,-1.2418749294,-9.1250289851,-2.7182464736,870
130825,192546,240614,-1.2418749294,-9.1250289851,-2.7182464736,871
130931,192563,240673,-1.2418749294,-9.1250289851,-2.7182464736,872
131029,192561,240707,-1.2418749294,-9.1250289851,-2.7182464736,873
131146,192587,240626,-1.2418749294,-9.1250289851,-2.7182464736,874
131307,192571,240694,-1.2418749294,-9.1250289851,-2.7182464736,875
131441,192599,240715,-1.2418749294,-9.1250289851,-2.7182464736,876
131580,192605,240687,-1.2418749294,-9.1250289851,-2.7182464736,877
131741,192592,240735,-1.2418749294,-9.1250289851,-2.7182464736,878
131884,192614,240674,-1.2418749294,-9.1250289851,-2.7182464736,879
131916,192622,240713,-1.2418749294,-9.1250289851,-2.7182464736,880
131574,192538,240736,-1.2418749294,-9.1250289851,-2.7182464736,881
130892,192531,240658,-1.2418749294,-9.1250289851,-2.7182464736,882
130129,192487,240617,-1.2418749294,-9.1250289851,-2.7182464736,883
129564,192464,240593,-1.2418749294,-9.1250289851,-2.7182464736,884
129132,192430,240595,-1.2418749294,-9.1250289851,-2.7182464736,885
128891,192407,240585,-1.2418749294,-9.1250289851,-2.7182464736,886
128816,192432,240622,-1.2418749294,-9.1250289851,-2.7182464736,887
130481,192546,240685,-1.3615160593999998,-9.2781696315,-2.7924239742,888
129833,192481,240681,-1.3615160593999998,-9.2781696315,-2.7924239742,889
129207,192474,240675,-1.3615160593999998,-9.2781696315,-2.7924239742,890
128749,192469,240642,-1.3615160593999998,-9.2781696315,-2.7924239742,891
128514,192426,240644,-1.3615160593999998,-9.2781696315,-2.7924239742,892
128362,192411,240663,-1.3615160593999998,-9.2781696315,-2.7924239742,893
128364,192463,240634,-1.3615160593999998,-9.2781696315,-2.7924239742,894
128463,192455,240613,-1.3615160593999998,-9.2781696315,-2.7924239742,895
128547,192469,240634,-1.3615160593999998,-9.2781696315,-2.7924239742,896
128646,192463,240704,-1.3615160593999998,-9.2781696315,-2.7924239742,897
128705,192472,240636,-1.3615160593999998,-9.2781696315,-2.7924239742,898
128774,192463,240680,-1.3615160593999998,-9.2781696315,-2.7924239742,899
128871,192516,240648,-1.3615160593999998,-9.2781696315,-2.7924239742,900
128988,192479,240640,-1.3615160593999998,-9.2781696315,-2.7924239742,901
129122,192473,240644,-1.3615160593999998,-9.2781696315,-2.7924239742,902
129314,192524,240694,-1.3615160593999998,-9.2781696315,-2.7924239742,903
129511,192511,240668,-1.3615160593999998,-9.2781696315,-2.7924239742,904
129716,192510,240671,-1.3615160593999998,-9.2781696315,-2.7924239742,905
129911,192546,240670,-1.3615160593999998,-9.2781696315,-2.7924239742,906
130131,192540,240715,-1.3615160593999998,-9.2781696315,-2.7924239742,907
130348,192581,240723,-1.3615160593999998,-9.2781696315,-2.7924239742,908
130590,192596,240707,-1.3615160593999998,-9.2781696315,-2.7924239742,909
130765,192609,240718,-1.3615160593999998,-9.2781696315,-2.7924239742,910
130982,192602,240735,-1.3615160593999998,-9.2781696315,-2.7924239742,911
131199,192644,240744,-1.3615160593999998,-9.2781696315,-2.7924239742,912
131307,192602,240752,-1.3615160593999998,-9.2781696315,-2.7924239742,913
131128,192614,240749,-1.3615160593999998,-9.2781696315,-2.7924239742,914
130788,192554,240750,-1.3615160593999998,-9.2781696315,-2.7924239742,915
130439,192559,240736,-1.3615160593999998,-9.2781696315,-2.7924239742,916
130254,192567,240737,-1.3615160593999998,-9.2781696315,-2.7924239742,917
130101,192563,240736,-1.3615160593999998,-9.2781696315,-2.7924239742,918
130109,192558,240746,-1.3615160593999998,-9.2781696315,-2.7924239742,919
130199,192546,240758,-1.3615160593999998,-9.2781696315,-2.7924239742,920
130314,192579,240802,-1.3615160593999998,-9.2781696315,-2.7924239742,921
130462,192604,240721,-1.3615160593999998,-9.2781696315,-2.7924239742,922
130614,192603,240764,-1.3615160593999998,-9.2781696315,-2.7924239742,923
130734,192603,240778,-1.3615160593999998,-9.2781696315,-2.7924239742,924
130813,192627,240767,-1.3615160593999998,-9.2781696315,-2.7924239742,925
130939,192601,240760,-1.3615160593999998,-9.2781696315,-2.7924239742,926
131080,192633,240787,-1.3615160593999998,-9.2781696315,-2.7924239742,927
131236,192644,240793,-1.3615160593999998,-9.2781696315,-2.7924239742,928
131402,192640,240765,-1.3615160593999998,-9.2781696315,-2.7924239742,929
135620,192908,240959,-1.2909277927,-9.224331123,-2.7481567560999998,930
135705,192898,240990,-1.2909277927,-9.224331123,-2.7481567560999998,931
135786,192900,240966,-1.2909277927,-9.224331123,-2.7481567560999998,932
135830,192941,240934,-1.2909277927,-9.224331123,-2.7481567560999998,933
135951,192875,241009,-1.2909277927,-9.224331123,-2.7481567560999998,934
136024,192927,240969,-1.2909277927,-9.224331123,-2.7481567560999998,935
136118,192913,240967,-1.2909277927,-9.224331123,-2.7481567560999998,936
136166,192894,240961,-1.2909277927,-9.224331123,-2.7481567560999998,937
136256,192929,241037,-1.2909277927,-9.224331123,-2.7481567560999998,938
136365,192935,240989,-1.2909277927,-9.224331123,-2.7481567560999998,939
136429,192957,240976,-1.2909277927,-9.224331123,-2.7481567560999998,940
136536,192955,240978,-1.2909277927,-9.224331123,-2.7481567560999998,941
136636,192934,240964,-1.2909277927,-9.224331123,-2.7481567560999998,942
136701,192963,240990,-1.2909277927,-9.224331123,-2.7481567560999998,943
136812,192994,240987,-1.2909277927,-9.224331123,-2.7481567560999998,944
136873,192951,241004,-1.2909277927,-9.224331123,-2.7481567560999998,945
136898,192963,240978,-1.2909277927,-9.224331123,-2.7481567560999998,946
136895,192940,240999,-1.2909277927,-9.224331123,-2.7481567560999998,947
136866,192954,240980,-1.2909277927,-9.224331123,-2.7481567560999998,948
136868,192966,241001,-1.2909277927,-9.224331123,-2.7481567560999998,949
136862,192940,240990,-1.2909277927,-9.224331123,-2.7481567560999998,950
136880,192921,241031,-1.2909277927,-9.224331123,-2.7481567560999998,951
136949,192953,241008,-1.2909277927,-9.224331123,-2.7481567560999998,952
136971,192945,241022,-1.2909277927,-9.224331123,-2.7481567560999998,953
137039,192974,240992,-1.2909277927,-9.224331123,-2.7481567560999998,954
137087,192998,241002,-1.2909277927,-9.224331123,-2.7481567560999998,955
137141,192974,241036,-1.2909277927,-9.224331123,-2.7481567560999998,956
137207,192990,241004,-1.2909277927,-9.224331123,-2.7481567560999998,957
137267,192975,241035,-1.2909277927,-9.224331123,-2.7481567560999998,958
137331,192988,241018,-1.2909277927,-9.224331123,-2.7481567560999998,959
137356,193035,240995,-1.2909277927,-9.224331123,-2.7481567560999998,960
137444,193032,241033,-1.2909277927,-9.224331123,-2.7481567560999998,961
137507,193034,241037,-1.2909277927,-9.224331123,-2.7481567560999998,962
137543,193040,241024,-1.2909277927,-9.224331123,-2.7481567560999998,963
137650,193036,241044,-1.2909277927,-9.224331123,-2.7481567560999998,964
137736,193077,241038,-1.2909277927,-9.224331123,-2.7481567560999998,965
137795,193041,241062,-1.2909277927,-9.224331123,-2.7481567560999998,966
137849,193054,241049,-1.2909277927,-9.224331123,-2.7481567560999998,967
137940,193048,241078,-1.2909277927,-9.224331123,-2.7481567560999998,968
137978,193068,241017,-1.3686945272,-9.1836531388,-2.7493531674,969
138062,193086,241054,-1.3686945272,-9.1836531388,-2.7493531674,970
138151,193094,241035,-1.3686945272,-9.1836531388,-2.7493531674,971
138188,193061,241033,-1.3686945272,-9.1836531388,-2.7493531674,972
138134,193058,241027,-1.3686945272,-9.1836531388,-2.7493531674,973
138059,193023,241058,-1.3686945272,-9.1836531388,-2.7493531674,974
138000,193024,241031,-1.3686945272,-9.1836531388,-2.7493531674,975
137938,193033,241072,-1.3686945272,-9.1836531388,-2.7493531674,976
137903,193015,241015,-1.3686945272,-9.1836531388,-2.7493531674,977
137893,193038,241080,-1.3686945272,-9.1836531388,-2.7493531674,978
137883,193039,241042,-1.3686945272,-9.1836531388,-2.7493531674,979
137906,193050,241031,-1.3686945272,-9.1836531388,-2.7493531674,980
137891,193024,241011,-1.3686945272,-9.1836531388,-2.7493531674,981
137926,193009,241039,-1.3686945272,-9.1836531388,-2.7493531674,982
137899,193051,241011,-1.3686945272,-9.1836531388,-2.7493531674,983
137912,193044,241045,-1.3686945272,-9.1836531388,-2.7493531674,984
137929,193043,241019,-1.3686945272,-9.1836531388,-2.7493531674,985
137956,193077,241048,-1.3686945272,-9.1836531388,-2.7493531674,986
137989,193064,241007,-1.3686945272,-9.1836531388,-2.7493531674,987
138050,193087,241055,-1.3686945272,-9.1836531388,-2.7493531674,988
138055,193074,241029,-1.3686945272,-9.1836531388,-2.7493531674,989
138104,193074,241069,-1.3686945272,-9.1836531388,-2.7493531674,990
138155,193091,241058,-1.3686945272,-9.1836531388,-2.7493531674,991
138187,193098,241013,-1.3686945272,-9.1836531388,-2.7493531674,992
138223,193111,241049,-1.3686945272,-9.1836531388,-2.7493531674,993
138289,193096,241065,-1.3686945272,-9.1836531388,-2.7493531674,994
138325,193086,241049,-1.3686945272,-9.1836531388,-2.7493531674,995
138363,193102,241077,-1.3686945272,-9.1836531388,-2.7493531674,996
138346,193065,241064,-1.3686945272,-9.1836531388,-2.7493531674,997
138229,193060,241020,-1.3686945272,-9.1836531388,-2.7493531674,998
138039,193047,241020,-1.3686945272,-9.1836531388,-2.7493531674,999
137816,193043,241039,-1.3686945272,-9.1836531388,-2.7493531674,1000
137610,193023,241035,-1.3686945272,-9.1836531388,-2.7493531674,1001
137417,193002,241023,-1.3686945272,-9.1836531388,-2.7493531674,1002
137315,193036,241012,-1.3686945272,-9.1836531388,-2.7493531674,1003
137217,193044,240981,-1.3686945272,-9.1836531388,-2.7493531674,1004
137135,193036,240980,-1.3686945272,-9.1836531388,-2.7493531674,1005
137101,193026,241003,-1.3686945272,-9.1836531388,-2.7493531674,1006
137008,193023,241009,-1.3686945272,-9.1836531388,-2.7493531674,1007
136957,193036,240976,-1.3686945272,-9.1836531388,-2.7493531674,1008
136873,193051,241038,-1.3686945272,-9.1836531388,-2.7493531674,1009
136826,193058,240969,-1.3686945272,-9.1836531388,-2.7493531674,1010
129940,192736,240515,-1.3052847283,-9.2267239456,-2.7804598612,1011
129887,192728,240541,-1.3052847283,-9.2267239456,-2.7804598612,1012
129817,192676,240552,-1.3052847283,-9.2267239456,-2.7804598612,1013
129769,192703,240575,-1.3052847283,-9.2267239456,-2.7804598612,1014
129733,192679,240583,-1.3052847283,-9.2267239456,-2.7804598612,1015
129707,192678,240540,-1.3052847283,-9.2267239456,-2.7804598612,1016
129772,192685,240496,-1.3052847283,-9.2267239456,-2.7804598612,1017
129826,192670,240569,-1.3052847283,-9.2267239456,-2.7804598612,1018
129919,192692,240526,-1.3052847283,-9.2267239456,-2.7804598612,1019
130027,192683,240547,-1.3052847283,-9.2267239456,-2.7804598612,1020
130131,192722,240509,-1.3052847283,-9.2267239456,-2.7804598612,1021
130256,192721,240516,-1.3052847283,-9.2267239456,-2.7804598612,1022
130400,192702,240508,-1.3052847283,-9.2267239456,-2.7804598612,1023
130512,192701,240560,-1.3052847283,-9.2267239456,-2.7804598612,1024
130678,192713,240549,-1.3052847283,-9.2267239456,-2.7804598612,1025
130794,192735,240561,-1.3052847283,-9.2267239456,-2.7804598612,1026
130949,192738,240571,-1.3052847283,-9.2267239456,-2.7804598612,1027
131107,192730,240556,-1.2071790017,-9.207581364800001,-2.8043880872,1028
131057,192728,240537,-1.2071790017,-9.207581364800001,-2.8043880872,1029
130667,192699,240597,-1.2071790017,-9.207581364800001,-2.8043880872,1030
130096,192661,240564,-1.2071790017,-9.207581364800001,-2.8043880872,1031
129603,192624,240538,-1.2071790017,-9.207581364800001,-2.8043880872,1032
129260,192604,240521,-1.2071790017,-9.207581364800001,-2.8043880872,1033
128988,192632,240528,-1.2071790017,-9.207581364800001,-2.8043880872,1034
128864,192592,240489,-1.2071790017,-9.207581364800001,-2.8043880872,1035
128844,192614,240522,-1.2071790017,-9.207581364800001,-2.8043880872,1036
128929,192624,240487,-1.2071790017,-9.207581364800001,-2.8043880872,1037
128965,192611,240518,-1.2071790017,-9.207581364800001,-2.8043880872,1038
128974,192592,240518,-1.2071790017,-9.207581364800001,-2.8043880872,1039
129011,192631,240507,-1.2071790017,-9.207581364800001,-2.8043880872,1040
129037,192575,240521,-1.2071790017,-9.207581364800001,-2.8043880872,1041
129097,192607,240520,-1.2071790017,-9.207581364800001,-2.8043880872,1042
129200,192616,240529,-1.2071790017,-9.207581364800001,-2.8043880872,1043
129298,192621,240576,-1.2071790017,-9.207581364800001,-2.8043880872,1044
129462,192644,240552,-1.2071790017,-9.207581364800001,-2.8043880872,1045
129652,192654,240575,-1.2071790017,-9.207581364800001,-2.8043880872,1046
129828,192631,240560,-1.2071790017,-9.207581364800001,-2.8043880872,1047
130004,192678,240595,-1.2071790017,-9.207581364800001,-2.8043880872,1048
130216,192675,240590,-1.2071790017,-9.207581364800001,-2.8043880872,1049
130396,192724,240605,-1.2071790017,-9.207581364800001,-2.8043880872,1050
130583,192710,240596,-1.2071790017,-9.207581364800001,-2.8043880872,1051
130797,192708,240550,-1.2071790017,-9.207581364800001,-2.8043880872,1052
130968,192765,240624,-1.2071790017,-9.207581364800001,-2.8043880872,1053
131086,192761,240639,-1.2071790017,-9.207581364800001,-2.8043880872,1054
130877,192696,240689,-1.2071790017,-9.207581364800001,-2.8043880872,1055
130494,192682,240648,-1.2741780345,-9.1956172518,-2.7505495787000003,1056
130131,192646,240589,-1.2741780345,-9.1956172518,-2.7505495787000003,1057
129911,192661,240625,-1.2741780345,-9.1956172518,-2.7505495787000003,1058
129749,192635,240598,-1.2741780345,-9.1956172518,-2.7505495787000003,1059
129681,192674,240593,-1.2741780345,-9.1956172518,-2.7505495787000003,1060
129745,192647,240568,-1.4201402131,-9.207581364800001,-2.7457639335,1061
129859,192671,240669,-1.4201402131,-9.207581364800001,-2.7457639335,1062
129977,192663,240574,-1.4201402131,-9.207581364800001,-2.7457639335,1063
129996,192694,240672,-1.4201402131,-9.207581364800001,-2.7457639335,1064
130000,192677,240584,-1.4201402131,-9.207581364800001,-2.7457639335,1065
130027,192687,240593,-1.4201402131,-9.207581364800001,-2.7457639335,1066
130088,192667,240580,-1.4201402131,-9.207581364800001,-2.7457639335,1067
130203,192647,240613,-1.4201402131,-9.207581364800001,-2.7457639335,1068
130299,192662,240646,-1.4201402131,-9.207581364800001,-2.7457639335,1069
130432,192677,240651,-1.4201402131,-9.207581364800001,-2.7457639335,1070
130553,192691,240560,-1.4201402131,-9.207581364800001,-2.7457639335,1071
130682,192685,240640,-1.4201402131,-9.207581364800001,-2.7457639335,1072
130837,192711,240648,-1.4201402131,-9.207581364800001,-2.7457639335,1073
130984,192732,240635,-1.4201402131,-9.207581364800001,-2.7457639335,1074
131127,192705,240605,-1.4201402131,-9.207581364800001,-2.7457639335,1075
131245,192710,240644,-1.4201402131,-9.207581364800001,-2.7457639335,1076
131204,192716,240619,-1.4201402131,-9.207581364800001,-2.7457639335,1077
130888,192663,240604,-1.4201402131,-9.207581364800001,-2.7457639335,1078
130378,192622,240575,-1.4201402131,-9.207581364800001,-2.7457639335,1079
129953,192614,240573,-1.4201402131,-9.207581364800001,-2.7457639335,1080
129630,192577,240594,-1.4201402131,-9.207581364800001,-2.7457639335,1081
129392,192594,240566,-1.4201402131,-9.207581364800001,-2.7457639335,1082
129294,192589,240564,-1.4201402131,-9.207581364800001,-2.7457639335,1083
129299,192586,240535,-1.4201402131,-9.207581364800001,-2.7457639335,1084
129378,192575,240505,-1.4201402131,-9.207581364800001,-2.7457639335,1085
129395,192621,240549,-1.4201402131,-9.207581364800001,-2.7457639335,1086
129421,192593,240562,-1.4201402131,-9.207581364800001,-2.7457639335,1087
129438,192594,240575,-1.4201402131,-9.207581364800001,-2.7457639335,1088
129499,192620,240568,-1.4201402131,-9.207581364800001,-2.7457639335,1089
129562,192616,240571,-1.4201402131,-9.207581364800001,-2.7457639335,1090
129630,192602,240564,-1.4201402131,-9.207581364800001,-2.7457639335,1091
129732,192629,240563,-1.4201402131,-9.207581364800001,-2.7457639335,1092
129889,192624,240560,-1.4201402131,-9.207581364800001,-2.7457639335,1093
130057,192622,240608,-1.4201402131,-9.207581364800001,-2.7457639335,1094
130209,192606,240576,-1.4201402131,-9.207581364800001,-2.7457639335,1095
130352,192652,240595,-1.4201402131,-9.207581364800001,-2.7457639335,1096
130511,192662,240580,-1.4201402131,-9.207581364800001,-2.7457639335,1097
130690,192641,240633,-1.4201402131,-9.207581364800001,-2.7457639335,1098
130861,192669,240618,-1.4201402131,-9.207581364800001,-2.7457639335,1099
130945,192699,240604,-1.4201402131,-9.207581364800001,-2.7457639335,1100
130735,192638,240613,-1.4201402131,-9.207581364800001,-2.7457639335,1101
130259,192616,240614,-1.4201402131,-9.207581364800001,-2.7457639335,1102
128874,192564,240539,-1.2741780345,-9.1609213241,-2.8630122409,1103
128904,192541,240577,-1.2741780345,-9.1609213241,-2.8630122409,1104
128987,192579,240542,-1.2741780345,-9.1609213241,-2.8630122409,1105
129036,192569,240582,-1.2741780345,-9.1609213241,-2.8630122409,1106
129052,192542,240577,-1.2741780345,-9.1609213241,-2.8630122409,1107
129095,192559,240570,-1.2741780345,-9.1609213241,-2.8630122409,1108
129156,192581,240552,-1.2741780345,-9.1609213241,-2.8630122409,1109
129269,192592,240521,-1.2741780345,-9.1609213241,-2.8630122409,1110
129405,192562,240544,-1.3591232368,-9.2853480993,-2.823530668,1111
129556,192605,240578,-1.3591232368,-9.2853480993,-2.823530668,1112
129734,192608,240557,-1.2538390423999999,-9.2267239456,-2.823530668,1113
129920,192657,240595,-1.2538390423999999,-9.2267239456,-2.823530668,1114
130143,192671,240576,-1.2538390423999999,-9.2267239456,-2.823530668,1115
130328,192666,240638,-1.2370892842,-9.1824567275,-2.7218357075,1116
130540,192677,240584,-1.3184452526,-9.0987079365,-2.7134608283999997,1117
130717,192674,240623,-1.2358928729,-9.1956172518,-2.715853651,1118
130760,192662,240630,-1.3064811396,-9.2410808812,-2.7900311516,1119
130442,192670,240654,-1.2454641632999999,-9.165706969299999,-2.7050859493,1120
130014,192631,240622,-1.1449656141,-9.188438784,-2.7457639335,1121
129661,192580,240617,-1.3734801723999999,-9.175278259699999,-2.739781877,1122
129419,192589,240543,-1.2095718243,-9.165706969299999,-2.7349962318,1123
129252,192605,240569,-1.3076775509,-9.345168664300001,-2.7050859493,1124
129248,192581,240618,-1.3639088819999998,-9.1944208405,-2.6763720781,1125
129341,192598,240601,-1.2406785181,-9.224331123,-2.7613172804,1126
129473,192620,240614,-1.3124631961,-9.2111705987,-2.691925425,1127
129580,192611,240576,-1.3710873497999998,-9.2458665264,-2.7230321187999995,1128
129700,192631,240628,-1.3339985995,-9.2985086236,-2.7529424013,1129
129757,192708,240612,-1.43569356,-9.2027957196,-2.715853651,1130
129898,192668,240619,-1.3651052933,-9.274580397600001,-2.7780670386,1131
130052,192659,240668,-1.3004990831,-9.140582332,-2.7469603447999997,1132
130242,192721,240693,-1.3244273091,-9.3128655592,-2.8295127245,1133
130469,192717,240635,-1.232303639,-9.1800639049,-2.7373890544,1134
130685,192715,240657,-1.4392827939,-9.2279203569,-2.7457639335,1135
130873,192726,240703,-1.375872995,-9.096315113900001,-2.7254249414,1136
131119,192752,240711,-1.2406785181,-9.3284189061,-2.7373890544,1137
131334,192754,240710,-1.387837108,-9.1274218077,-2.7445675222,1138
131557,192755,240716,-1.3339985995,-9.274580397600001,-2.7146572396999997,1139
131525,192702,240713,-1.3866406967,-9.232706002099999,-2.703889538,1140
131206,192698,240690,-1.4105689227,-9.233902413400001,-2.7780670386,1141
130806,192670,240660,-1.3615160593999998,-9.0341017263,-2.7696921595,1142
130474,192695,240676,-1.3746765837,-9.1501536224,-2.823530668,1143
130247,192635,240609,-1.3698909385,-9.220741889100001,-2.6225335696,1144
130165,192651,240589,-1.2837493249,-9.1513500337,-2.7708885708000004,1145
130172,192650,240648,-1.3435698899,-9.2506521716,-2.7661029256000003,1146
130252,192674,240635,-1.2358928729,-9.284151688,-2.7505495787000003,1147
130367,192645,240630,-1.220339526,-9.3702933016,-2.7086751831999996,1148
130372,192655,240634,-1.3447663012,-9.274580397600001,-2.7062823606,1149
130388,192646,240637,-1.3112667848,-9.3188476157,-2.7134608283999997,1150
130449,192670,240625,-1.3543375915999998,-9.3619184225,-2.8307091358,1151
130461,192660,240617,-1.3328021881999998,-9.2267239456,-2.7469603447999997,1152
130579,192636,240635,-1.3184452526,-9.265009107200001,-2.7074787719,1153
130643,192641,240648,-1.3615160593999998,-9.1956172518,-2.7469603447999997,1154
130745,192646,240612,-1.4261222696,-9.1669033806,-2.823530668,1155
130845,192636,240582,-1.3830514628000001,-9.2518485829,-2.7768706272999997,1156
130935,192650,240613,-1.2717852119000002,-9.2267239456,-2.7661029256000003,1157
131095,192651,240551,-1.3686945272,-9.0939222913,-2.75174599,1158
130999,192648,240539,-1.2705888006,-9.224331123,-2.8223342567,1159
130573,192617,240531,-1.2430713407,-9.1740818484,-2.7924239742,1160
130068,192651,240572,-1.3686945272,-9.3427758417,-2.7182464736,1161
129586,192557,240533,-1.3124631961,-9.260223461999999,-2.7206392962,1162
129308,192506,240500,-1.3974083984,-9.165706969299999,-2.7373890544,1163
129045,192534,240491,-1.4021940436,-9.1800639049,-2.7445675222,1164
128969,192494,240497,-1.2335000503,-9.2949193897,-2.7828526838,1165
128963,192501,240534,-1.4045868662,-9.1549392676,-2.6799613119999997,1166
129045,192522,240506,-1.3471591237999998,-9.3044906801,-2.7086751831999996,1167
129069,192504,240549,-1.3471591237999998,-9.3044906801,-2.7086751831999996,1168
129115,192527,240485,-1.3471591237999998,-9.3044906801,-2.7086751831999996,1169
129149,192531,240498,-1.3471591237999998,-9.3044906801,-2.7086751831999996,1170
129220,192541,240476,-1.3471591237999998,-9.3044906801,-2.7086751831999996,1171
129300,192546,240518,-1.3471591237999998,-9.3044906801,-2.7086751831999996,1172
129441,192545,240507,-1.3974083984,-9.2458665264,-2.7481567560999998,1173
129577,192550,240539,-1.3974083984,-9.2458665264,-2.7481567560999998,1174
129730,192549,240491,-1.411765334,-9.1848495501,-2.6548366747000003,1175
129884,192563,240510,-1.3016954943999999,-9.224331123,-2.7601208691,1176
129983,192558,240548,-1.2586246876,-9.2458665264,-2.7589244578,1177
129800,192547,240570,-1.304088317,-9.3164547931,-2.7708885708000004,1178
129322,192505,240520,-1.304088317,-9.3164547931,-2.7708885708000004,1179
128815,192478,240489,-1.304088317,-9.3164547931,-2.7708885708000004,1180
128416,192489,240493,-1.304088317,-9.3164547931,-2.7708885708000004,1181
128135,192422,240431,-1.304088317,-9.3164547931,-2.7708885708000004,1182
127942,192453,240431,-1.304088317,-9.3164547931,-2.7708885708000004,1183
127960,192463,240455,-1.304088317,-9.3164547931,-2.7708885708000004,1184
128022,192456,240425,-1.304088317,-9.3164547931,-2.7708885708000004,1185
128124,192453,240425,-1.3555340029,-9.1740818484,-2.8019952646,1186
128208,192470,240481,-1.3555340029,-9.1740818484,-2.8019952646,1187
128250,192448,240501,-1.3902299306,-9.3140619705,-2.6644079651,1188
128332,192476,240492,-1.3926227532000002,-9.236295236,-2.7924239742,1189
128462,192479,240456,-1.3926227532000002,-9.236295236,-2.7924239742,1190
128581,192472,240498,-1.3926227532000002,-9.236295236,-2.7924239742,1191
128713,192489,240471,-1.3926227532000002,-9.236295236,-2.7924239742,1192
128901,192524,240504,-1.3926227532000002,-9.236295236,-2.7924239742,1193
129090,192485,240526,-1.3926227532000002,-9.236295236,-2.7924239742,1194
129289,192518,240484,-1.3926227532000002,-9.236295236,-2.7924239742,1195
129389,192501,240481,-1.3926227532000002,-9.236295236,-2.7924239742,1196
129141,192486,240457,-1.3926227532000002,-9.236295236,-2.7924239742,1197
128671,192456,240449,-1.3926227532000002,-9.236295236,-2.7924239742,1198
128240,192449,240485,-1.3926227532000002,-9.236295236,-2.7924239742,1199
127926,192417,240422,-1.3926227532000002,-9.236295236,-2.7924239742,1200
127714,192418,240470,-1.3926227532000002,-9.236295236,-2.7924239742,1201
127643,192432,240467,-1.3926227532000002,-9.236295236,-2.7924239742,1202
127680,192438,240448,-1.3926227532000002,-9.236295236,-2.7924239742,1203
127820,192440,240490,-1.3926227532000002,-9.236295236,-2.7924239742,1204
127945,192461,240454,-1.3926227532000002,-9.236295236,-2.7924239742,1205
128067,192473,240484,-1.3926227532000002,-9.236295236,-2.7924239742,1206
128142,192462,240493,-1.3926227532000002,-9.236295236,-2.7924239742,1207
128262,192459,240474,-1.3926227532000002,-9.236295236,-2.7924239742,1208
128385,192499,240502,-1.3926227532000002,-9.236295236,-2.7924239742,1209
128560,192495,240486,-1.3926227532000002,-9.236295236,-2.7924239742,1210
128757,192496,240528,-1.3926227532000002,-9.236295236,-2.7924239742,1211
128985,192513,240549,-1.3926227532000002,-9.236295236,-2.7924239742,1212
129217,192513,240530,-1.3926227532000002,-9.236295236,-2.7924239742,1213
129415,192557,240553,-1.3926227532000002,-9.236295236,-2.7924239742,1214
129647,192575,240582,-1.3926227532000002,-9.236295236,-2.7924239742,1215
129776,192567,240543,-1.3926227532000002,-9.236295236,-2.7924239742,1216
129524,192538,240527,-1.3926227532000002,-9.236295236,-2.7924239742,1217
129132,192495,240580,-1.3926227532000002,-9.236295236,-2.7924239742,1218
128790,192491,240521,-1.3926227532000002,-9.236295236,-2.7924239742,1219
128577,192487,240617,-1.3926227532000002,-9.236295236,-2.7924239742,1220
128450,192493,240516,-1.3926227532000002,-9.236295236,-2.7924239742,1221
128430,192493,240483,-1.3926227532000002,-9.236295236,-2.7924239742,1222
128542,192486,240473,-1.3926227532000002,-9.236295236,-2.7924239742,1223
128716,192488,240453,-1.3926227532000002,-9.236295236,-2.7924239742,1224
128847,192498,240510,-1.3926227532000002,-9.236295236,-2.7924239742,1225
128934,192495,240523,-1.3926227532000002,-9.236295236,-2.7924239742,1226
129042,192505,240517,-1.3926227532000002,-9.236295236,-2.7924239742,1227
129156,192531,240524,-1.3926227532000002,-9.236295236,-2.7924239742,1228
129303,192498,240519,-1.3926227532000002,-9.236295236,-2.7924239742,1229
129447,192519,240540,-1.3926227532000002,-9.236295236,-2.7924239742,1230
129031,192469,240516,-1.4333007374,-9.3104727366,-2.7445675222,1231
129112,192449,240501,-1.4333007374,-9.3104727366,-2.7445675222,1232
129172,192456,240490,-1.4333007374,-9.3104727366,-2.7445675222,1233
129247,192447,240494,-1.4333007374,-9.3104727366,-2.7445675222,1234
129349,192511,240540,-1.4333007374,-9.3104727366,-2.7445675222,1235
129483,192470,240497,-1.4333007374,-9.3104727366,-2.7445675222,1236
129630,192529,240548,-1.4333007374,-9.3104727366,-2.7445675222,1237
129781,192493,240505,-1.4333007374,-9.3104727366,-2.7445675222,1238
129979,192541,240524,-1.4333007374,-9.3104727366,-2.7445675222,1239
130126,192527,240500,-1.4333007374,-9.3104727366,-2.7445675222,1240
130311,192516,240514,-1.4333007374,-9.3104727366,-2.7445675222,1241
130504,192533,240570,-1.4333007374,-9.3104727366,-2.7445675222,1242
130702,192558,240516,-1.4333007374,-9.3104727366,-2.7445675222,1243
130840,192586,240551,-1.4333007374,-9.3104727366,-2.7445675222,1244
130684,192502,240541,-1.4333007374,-9.3104727366,-2.7445675222,1245
130351,192462,240513,-1.4333007374,-9.3104727366,-2.7445675222,1246
130008,192475,240497,-1.4333007374,-9.3104727366,-2.7445675222,1247
129706,192432,240494,-1.4333007374,-9.3104727366,-2.7445675222,1248
129510,192427,240471,-1.4333007374,-9.3104727366,-2.7445675222,1249
129342,192430,240507,-1.4333007374,-9.3104727366,-2.7445675222,1250
129357,192437,240476,-1.4333007374,-9.3104727366,-2.7445675222,1251
129426,192432,240499,-1.4333007374,-9.3104727366,-2.7445675222,1252
129507,192461,240490,-1.4333007374,-9.3104727366,-2.7445675222,1253
129590,192418,240506,-1.4333007374,-9.3104727366,-2.7445675222,1254
129651,192451,240482,-1.4333007374,-9.3104727366,-2.7445675222,1255
129742,192467,240489,-1.4333007374,-9.3104727366,-2.7445675222,1256
129844,192510,240511,-1.4333007374,-9.3104727366,-2.7445675222,1257
129944,192485,240534,-1.4333007374,-9.3104727366,-2.7445675222,1258
130096,192492,240512,-1.4333007374,-9.3104727366,-2.7445675222,1259
130260,192498,240523,-1.4333007374,-9.3104727366,-2.7445675222,1260
130454,192526,240495,-1.4333007374,-9.3104727366,-2.7445675222,1261
130627,192537,240498,-1.4333007374,-9.3104727366,-2.7445675222,1262
130785,192495,240564,-1.4333007374,-9.3104727366,-2.7445675222,1263
130994,192556,240562,-1.4333007374,-9.3104727366,-2.7445675222,1264
131174,192592,240547,-1.4333007374,-9.3104727366,-2.7445675222,1265
131366,192585,240564,-1.4333007374,-9.3104727366,-2.7445675222,1266
131540,192582,240551,-1.4333007374,-9.3104727366,-2.7445675222,1267
131721,192579,240573,-1.4333007374,-9.3104727366,-2.7445675222,1268
131898,192604,240591,-1.2478569859,-9.2267239456,-2.6907290137,1269
132097,192625,240604,-1.2478569859,-9.2267239456,-2.6907290137,1270
132258,192641,240589,-1.2478569859,-9.2267239456,-2.6907290137,1271
132377,192638,240623,-1.2478569859,-9.2267239456,-2.6907290137,1272
132380,192615,240656,-1.2478569859,-9.2267239456,-2.6907290137,1273
132106,192575,240603,-1.2478569859,-9.2267239456,-2.6907290137,1274
131777,192534,240551,-1.2478569859,-9.2267239456,-2.6907290137,1275
131483,192516,240545,-1.2478569859,-9.2267239456,-2.6907290137,1276
131317,192519,240554,-1.2478569859,-9.2267239456,-2.6907290137,1277
131195,192507,240543,-1.2478569859,-9.2267239456,-2.6907290137,1278
131169,192549,240565,-1.2478569859,-9.2267239456,-2.6907290137,1279
131192,192529,240593,-1.2478569859,-9.2267239456,-2.6907290137,1280
131269,192543,240589,-1.2478569859,-9.2267239456,-2.6907290137,1281
131323,192570,240617,-1.2478569859,-9.2267239456,-2.6907290137,1282
131352,192520,240596,-1.2478569859,-9.2267239456,-2.6907290137,1283
131410,192576,240616,-1.2478569859,-9.2267239456,-2.6907290137,1284
131489,192575,240572,-1.2478569859,-9.2267239456,-2.6907290137,1285
131581,192547,240570,-1.2478569859,-9.2267239456,-2.6907290137,1286
131668,192574,240581,-1.2478569859,-9.2267239456,-2.6907290137,1287
131804,192596,240600,-1.2478569859,-9.2267239456,-2.6907290137,1288
131972,192606,240576,-1.2478569859,-9.2267239456,-2.6907290137,1289
132136,192625,240656,-1.2478569859,-9.2267239456,-2.6907290137,1290
132293,192628,240609,-1.2478569859,-9.2267239456,-2.6907290137,1291
132443,192639,240603,-1.2478569859,-9.2267239456,-2.6907290137,1292
132622,192660,240639,-1.2478569859,-9.2267239456,-2.6907290137,1293
132749,192687,240685,-1.2478569859,-9.2267239456,-2.6907290137,1294
132947,192700,240627,-1.2478569859,-9.2267239456,-2.6907290137,1295
133091,192738,240683,-1.2478569859,-9.2267239456,-2.6907290137,1296
133261,192697,240708,-1.2478569859,-9.2267239456,-2.6907290137,1297
133429,192725,240731,-1.2478569859,-9.2267239456,-2.6907290137,1298
133586,192734,240668,-1.2478569859,-9.2267239456,-2.6907290137,1299
133681,192758,240713,-1.2478569859,-9.2267239456,-2.6907290137,1300
133579,192721,240663,-1.2478569859,-9.2267239456,-2.6907290137,1301
133311,192680,240631,-1.2478569859,-9.2267239456,-2.6907290137,1302
133089,192675,240629,-1.2478569859,-9.2267239456,-2.6907290137,1303
132939,192655,240651,-1.2478569859,-9.2267239456,-2.6907290137,1304
132838,192650,240692,-1.2478569859,-9.2267239456,-2.6907290137,1305
132818,192654,240639,-1.2478569859,-9.2267239456,-2.6907290137,1306
132845,192697,240669,-1.2478569859,-9.2267239456,-2.6907290137,1307
132915,192671,240661,-1.2478569859,-9.2267239456,-2.6907290137,1308
132983,192694,240669,-1.2478569859,-9.2267239456,-2.6907290137,1309
133043,192702,240721,-1.2478569859,-9.2267239456,-2.6907290137,1310
133510,192748,240657,-1.2526426310999998,-9.1836531388,-2.7218357075,1311
133427,192710,240614,-1.2526426310999998,-9.1836531388,-2.7218357075,1312
133088,192684,240612,-1.2526426310999998,-9.1836531388,-2.7218357075,1313
132751,192683,240620,-1.2526426310999998,-9.1836531388,-2.7218357075,1314
132484,192649,240569,-1.2526426310999998,-9.1836531388,-2.7218357075,1315
132309,192638,240591,-1.2526426310999998,-9.1836531388,-2.7218357075,1316
132225,192613,240596,-1.2526426310999998,-9.1836531388,-2.7218357075,1317
132243,192624,240635,-1.2526426310999998,-9.1836531388,-2.7218357075,1318
132334,192653,240601,-1.2526426310999998,-9.1836531388,-2.7218357075,1319
132429,192653,240588,-1.2526426310999998,-9.1836531388,-2.7218357075,1320
132457,192665,240551,-1.2526426310999998,-9.1836531388,-2.7218357075,1321
132472,192698,240622,-1.2526426310999998,-9.1836531388,-2.7218357075,1322
132502,192670,240586,-1.2526426310999998,-9.1836531388,-2.7218357075,1323
132530,192660,240571,-1.2526426310999998,-9.1836531388,-2.7218357075,1324
132641,192667,240553,-1.2526426310999998,-9.1836531388,-2.7218357075,1325
132716,192649,240559,-1.2526426310999998,-9.1836531388,-2.7218357075,1326
132811,192664,240587,-1.2526426310999998,-9.1836531388,-2.7218357075,1327
132931,192679,240597,-1.2526426310999998,-9.1836531388,-2.7218357075,1328
133067,192673,240535,-1.2526426310999998,-9.1836531388,-2.7218357075,1329
133171,192685,240552,-1.2526426310999998,-9.1836531388,-2.7218357075,1330
133302,192671,240597,-1.2526426310999998,-9.1836531388,-2.7218357075,1331
133362,192680,240595,-1.2526426310999998,-9.1836531388,-2.7218357075,1332
133220,192687,240604,-1.2526426310999998,-9.1836531388,-2.7218357075,1333
132801,192626,240581,-1.2526426310999998,-9.1836531388,-2.7218357075,1334
132358,192567,240555,-1.2526426310999998,-9.1836531388,-2.7218357075,1335
132020,192564,240511,-1.2526426310999998,-9.1836531388,-2.7218357075,1336
131714,192575,240495,-1.2526426310999998,-9.1836531388,-2.7218357075,1337
131542,192562,240530,-1.2526426310999998,-9.1836531388,-2.7218357075,1338
131482,192570,240504,-1.2526426310999998,-9.1836531388,-2.7218357075,1339
131521,192546,240500,-1.2526426310999998,-9.1836531388,-2.7218357075,1340
131557,192563,240508,-1.2526426310999998,-9.1836531388,-2.7218357075,1341
131554,192562,240477,-1.2526426310999998,-9.1836531388,-2.7218357075,1342
131584,192566,240487,-1.2526426310999998,-9.1836531388,-2.7218357075,1343
131617,192565,240484,-1.2526426310999998,-9.1836531388,-2.7218357075,1344
131638,192582,240500,-1.2526426310999998,-9.1836531388,-2.7218357075,1345
131714,192564,240522,-1.2526426310999998,-9.1836531388,-2.7218357075,1346
131811,192584,240472,-1.2526426310999998,-9.1836531388,-2.7218357075,1347
131901,192575,240511,-1.2526426310999998,-9.1836531388,-2.7218357075,1348
132027,192587,240501,-1.2526426310999998,-9.1836531388,-2.7218357075,1349
132139,192632,240564,-1.2526426310999998,-9.1836531388,-2.7218357075,1350
132282,192634,240533,-1.2526426310999998,-9.1836531388,-2.7218357075,1351
132424,192630,240529,-1.2526426310999998,-9.1836531388,-2.7218357075,1352
130818,192527,240442,-1.3316057769,-9.1561356789,-2.7972096194,1353
130998,192532,240483,-1.3316057769,-9.1561356789,-2.7972096194,1354
131180,192539,240489,-1.3316057769,-9.1561356789,-2.7972096194,1355
131339,192547,240477,-1.3316057769,-9.1561356789,-2.7972096194,1356
131525,192582,240500,-1.3316057769,-9.1561356789,-2.7972096194,1357
131646,192577,240532,-1.3316057769,-9.1561356789,-2.7972096194,1358
131364,192548,240469,-1.3316057769,-9.1561356789,-2.7972096194,1359
130958,192495,240453,-1.3316057769,-9.1561356789,-2.7972096194,1360
130563,192470,240481,-1.3316057769,-9.1561356789,-2.7972096194,1361
130286,192425,240441,-1.3316057769,-9.1561356789,-2.7972096194,1362
130121,192454,240419,-1.3316057769,-9.1561356789,-2.7972096194,1363
130044,192502,240450,-1.3316057769,-9.1561356789,-2.7972096194,1364
130075,192451,240418,-1.3316057769,-9.1561356789,-2.7972096194,1365
130177,192499,240491,-1.3316057769,-9.1561356789,-2.7972096194,1366
130275,192494,240514,-1.3316057769,-9.1561356789,-2.7972096194,1367
130323,192486,240477,-1.3316057769,-9.1561356789,-2.7972096194,1368
130399,192495,240472,-1.3316057769,-9.1561356789,-2.7972096194,1369
130464,192497,240492,-1.3316057769,-9.1561356789,-2.7972096194,1370
130588,192497,240485,-1.3316057769,-9.1561356789,-2.7972096194,1371
130713,192524,240480,-1.3316057769,-9.1561356789,-2.7972096194,1372
130839,192528,240462,-1.3316057769,-9.1561356789,-2.7972096194,1373
130984,192542,240541,-1.3316057769,-9.1561356789,-2.7972096194,1374
131183,192509,240456,-1.3316057769,-9.1561356789,-2.7972096194,1375
131334,192539,240498,-1.3316057769,-9.1561356789,-2.7972096194,1376
131514,192534,240467,-1.3316057769,-9.1561356789,-2.7972096194,1377
131711,192601,240542,-1.3316057769,-9.1561356789,-2.7972096194,1378
131805,192587,240522,-1.3316057769,-9.1561356789,-2.7972096194,1379
131634,192543,240548,-1.3316057769,-9.1561356789,-2.7972096194,1380
131225,192507,240505,-1.3316057769,-9.1561356789,-2.7972096194,1381
130832,192488,240470,-1.3316057769,-9.1561356789,-2.7972096194,1382
130593,192435,240476,-1.3316057769,-9.1561356789,-2.7972096194,1383
130416,192449,240448,-1.3316057769,-9.1561356789,-2.7972096194,1384
130333,192460,240448,-1.3316057769,-9.1561356789,-2.7972096194,1385
130360,192439,240484,-1.3316057769,-9.1561356789,-2.7972096194,1386
130436,192448,240430,-1.3316057769,-9.1561356789,-2.7972096194,1387
130496,192497,240468,-1.3316057769,-9.1561356789,-2.7972096194,1388
130501,192442,240405,-1.3316057769,-9.1561356789,-2.7972096194,1389
130538,192447,240477,-1.3316057769,-9.1561356789,-2.7972096194,1390
130629,192468,240403,-1.3316057769,-9.1561356789,-2.7972096194,1391
130693,192466,240434,-1.3316057769,-9.1561356789,-2.7972096194,1392
130797,192483,240427,-1.3316057769,-9.1561356789,-2.7972096194,1393
130871,192462,240460,-1.3316057769,-9.1561356789,-2.7972096194,1394
130685,192436,240480,-1.3471591237999998,-9.236295236,-2.7469603447999997,1395
130816,192432,240489,-1.3471591237999998,-9.236295236,-2.7469603447999997,1396
130948,192447,240509,-1.3471591237999998,-9.236295236,-2.7469603447999997,1397
131087,192471,240516,-1.3471591237999998,-9.236295236,-2.7469603447999997,1398
131210,192480,240513,-1.3471591237999998,-9.236295236,-2.7469603447999997,1399
131373,192476,240547,-1.3471591237999998,-9.236295236,-2.7469603447999997,1400
131549,192463,240514,-1.3471591237999998,-9.236295236,-2.7469603447999997,1401
131684,192521,240530,-1.3471591237999998,-9.236295236,-2.7469603447999997,1402
131759,192507,240568,-1.3471591237999998,-9.236295236,-2.7469603447999997,1403
131494,192484,240523,-1.3471591237999998,-9.236295236,-2.7469603447999997,1404
131077,192444,240574,-1.3471591237999998,-9.236295236,-2.7469603447999997,1405
130604,192391,240519,-1.3471591237999998,-9.236295236,-2.7469603447999997,1406
130248,192374,240471,-1.3471591237999998,-9.236295236,-2.7469603447999997,1407
129979,192348,240455,-1.3471591237999998,-9.236295236,-2.7469603447999997,1408
129801,192363,240461,-1.3471591237999998,-9.236295236,-2.7469603447999997,1409
129731,192295,240426,-1.3471591237999998,-9.236295236,-2.7469603447999997,1410
129812,192383,240492,-1.3471591237999998,-9.236295236,-2.7469603447999997,1411
129856,192399,240482,-1.3471591237999998,-9.236295236,-2.7469603447999997,1412
129882,192402,240467,-1.3471591237999998,-9.236295236,-2.7469603447999997,1413
129932,192418,240499,-1.3471591237999998,-9.236295236,-2.7469603447999997,1414
129933,192374,240447,-1.3471591237999998,-9.236295236,-2.7469603447999997,1415
130041,192395,240486,-1.3471591237999998,-9.236295236,-2.7469603447999997,1416
130077,192409,240480,-1.3471591237999998,-9.236295236,-2.7469603447999997,1417
130220,192439,240504,-1.3471591237999998,-9.236295236,-2.7469603447999997,1418
130352,192395,240451,-1.3471591237999998,-9.236295236,-2.7469603447999997,1419
130522,192429,240510,-1.3471591237999998,-9.236295236,-2.7469603447999997,1420
130644,192430,240500,-1.3471591237999998,-9.236295236,-2.7469603447999997,1421
130826,192465,240496,-1.3471591237999998,-9.236295236,-2.7469603447999997,1422
131005,192465,240522,-1.3471591237999998,-9.236295236,-2.7469603447999997,1423
131157,192478,240545,-1.3471591237999998,-9.236295236,-2.7469603447999997,1424
131337,192456,240537,-1.3471591237999998,-9.236295236,-2.7469603447999997,1425
131383,192461,240487,-1.3471591237999998,-9.236295236,-2.7469603447999997,1426
131162,192417,240517,-1.3471591237999998,-9.236295236,-2.7469603447999997,1427
130715,192423,240486,-1.3471591237999998,-9.236295236,-2.7469603447999997,1428
130276,192379,240513,-1.3471591237999998,-9.236295236,-2.7469603447999997,1429
129926,192352,240487,-1.3471591237999998,-9.236295236,-2.7469603447999997,1430
129692,192334,240495,-1.3471591237999998,-9.236295236,-2.7469603447999997,1431
129535,192347,240449,-1.3471591237999998,-9.236295236,-2.7469603447999997,1432
129510,192366,240450,-1.3471591237999998,-9.236295236,-2.7469603447999997,1433
129580,192379,240418,-1.3471591237999998,-9.236295236,-2.7469603447999997,1434
129626,192350,240425,-1.3471591237999998,-9.236295236,-2.7469603447999997,1435
129680,192387,240472,-1.3471591237999998,-9.236295236,-2.7469603447999997,1436
127985,192164,240457,-1.2897313814,-9.2626162846,-2.7206392962,1437
128080,192188,240446,-1.2897313814,-9.2626162846,-2.7206392962,1438
128205,192172,240458,-1.2897313814,-9.2626162846,-2.7206392962,1439
128338,192204,240454,-1.2897313814,-9.2626162846,-2.7206392962,1440
128495,192193,240469,-1.2897313814,-9.2626162846,-2.7206392962,1441
128655,192182,240489,-1.2897313814,-9.2626162846,-2.7206392962,1442
128715,192192,240454,-1.2897313814,-9.2626162846,-2.7206392962,1443
128415,192168,240442,-1.2897313814,-9.2626162846,-2.7206392962,1444
127918,192131,240471,-1.2897313814,-9.2626162846,-2.7206392962,1445
127445,192078,240408,-1.2897313814,-9.2626162846,-2.7206392962,1446
127055,192055,240377,-1.2897313814,-9.2626162846,-2.7206392962,1447
126764,192036,240420,-1.2897313814,-9.2626162846,-2.7206392962,1448
126622,192049,240383,-1.2897313814,-9.2626162846,-2.7206392962,1449
126626,192072,240401,-1.2897313814,-9.2626162846,-2.7206392962,1450
126695,192072,240344,-1.2897313814,-9.2626162846,-2.7206392962,1451
126776,192042,240395,-1.2897313814,-9.2626162846,-2.7206392962,1452
126854,192062,240356,-1.2897313814,-9.2626162846,-2.7206392962,1453
126888,192055,240357,-1.2897313814,-9.2626162846,-2.7206392962,1454
126954,192066,240384,-1.2897313814,-9.2626162846,-2.7206392962,1455
127048,192011,240349,-1.2897313814,-9.2626162846,-2.7206392962,1456
127194,192041,240463,-1.1629117836,-9.229116768199999,-2.8139593776000003,1457
127333,192060,240394,-1.1629117836,-9.229116768199999,-2.8139593776000003,1458
127494,192081,240388,-1.1629117836,-9.229116768199999,-2.8139593776000003,1459
127677,192088,240432,-1.1629117836,-9.229116768199999,-2.8139593776000003,1460
127844,192106,240423,-1.1629117836,-9.229116768199999,-2.8139593776000003,1461
128020,192097,240444,-1.1629117836,-9.229116768199999,-2.8139593776000003,1462
127946,192061,240450,-1.1629117836,-9.229116768199999,-2.8139593776000003,1463
127539,192084,240432,-1.1629117836,-9.229116768199999,-2.8139593776000003,1464
127054,192012,240413,-1.1629117836,-9.229116768199999,-2.8139593776000003,1465
126610,192002,240376,-1.1629117836,-9.229116768199999,-2.8139593776000003,1466
126254,191983,240373,-1.1629117836,-9.229116768199999,-2.8139593776000003,1467
126014,192004,240419,-1.1629117836,-9.229116768199999,-2.8139593776000003,1468
126039,191944,240377,-1.1629117836,-9.229116768199999,-2.8139593776000003,1469
126119,192001,240365,-1.1629117836,-9.229116768199999,-2.8139593776000003,1470
126235,191977,240383,-1.1629117836,-9.229116768199999,-2.8139593776000003,1471
126331,192013,240388,-1.1629117836,-9.229116768199999,-2.8139593776000003,1472
126413,192017,240413,-1.1629117836,-9.229116768199999,-2.8139593776000003,1473
126495,192022,240406,-1.1629117836,-9.229116768199999,-2.8139593776000003,1474
126610,192023,240407,-1.1629117836,-9.229116768199999,-2.8139593776000003,1475
126742,192036,240461,-1.1629117836,-9.229116768199999,-2.8139593776000003,1476
126900,192074,240464,-1.1629117836,-9.229116768199999,-2.8139593776000003,1477
127125,192069,240450,-1.1629117836,-9.229116768199999,-2.8139593776000003,1478
127302,192094,240472,-1.1629117836,-9.229116768199999,-2.8139593776000003,1479
127511,192101,240437,-1.1629117836,-9.229116768199999,-2.8139593776000003,1480
127723,192112,240490,-1.1629117836,-9.229116768199999,-2.8139593776000003,1481
127914,192147,240510,-1.1629117836,-9.229116768199999,-2.8139593776000003,1482
127835,192129,240505,-1.1629117836,-9.229116768199999,-2.8139593776000003,1483
127428,192034,240480,-1.1629117836,-9.229116768199999,-2.8139593776000003,1484
126878,192024,240406,-1.1629117836,-9.229116768199999,-2.8139593776000003,1485
126404,192026,240437,-1.1629117836,-9.229116768199999,-2.8139593776000003,1486
126066,191951,240456,-1.1629117836,-9.229116768199999,-2.8139593776000003,1487
125852,191986,240429,-1.1629117836,-9.229116768199999,-2.8139593776000003,1488
125831,192015,240411,-1.1629117836,-9.229116768199999,-2.8139593776000003,1489
125940,192015,240467,-1.1629117836,-9.229116768199999,-2.8139593776000003,1490
125996,191982,240396,-1.1629117836,-9.229116768199999,-2.8139593776000003,1491
126072,191982,240425,-1.1629117836,-9.229116768199999,-2.8139593776000003,1492
126101,191989,240429,-1.1629117836,-9.229116768199999,-2.8139593776000003,1493
126125,191998,240394,-1.1629117836,-9.229116768199999,-2.8139593776000003,1494
126183,191977,240434,-1.1629117836,-9.229116768199999,-2.8139593776000003,1495
126290,192000,240425,-1.1629117836,-9.229116768199999,-2.8139593776000003,1496
126426,192003,240407,-1.1629117836,-9.229116768199999,-2.8139593776000003,1497
126600,192031,240397,-1.1629117836,-9.229116768199999,-2.8139593776000003,1498
129247,192268,240619,-1.2825529136,-9.1058864043,-2.775674216,1499
128842,192242,240605,-1.2825529136,-9.1058864043,-2.775674216,1500
128423,192207,240623,-1.2825529136,-9.1058864043,-2.775674216,1501
128088,192211,240566,-1.2825529136,-9.1058864043,-2.775674216,1502
127892,192186,240554,-1.2825529136,-9.1058864043,-2.775674216,1503
127784,192187,240589,-1.2825529136,-9.1058864043,-2.775674216,1504
127839,192234,240601,-1.2825529136,-9.1058864043,-2.775674216,1505
127926,192194,240634,-1.2825529136,-9.1058864043,-2.775674216,1506
127980,192222,240577,-1.2825529136,-9.1058864043,-2.775674216,1507
128026,192266,240599,-1.2825529136,-9.1058864043,-2.775674216,1508
128054,192221,240585,-1.2825529136,-9.1058864043,-2.775674216,1509
128110,192236,240546,-1.2825529136,-9.1058864043,-2.775674216,1510
128175,192235,240550,-1.2825529136,-9.1058864043,-2.775674216,1511
128273,192239,240555,-1.2825529136,-9.1058864043,-2.775674216,1512
128382,192271,240615,-1.2825529136,-9.1058864043,-2.775674216,1513
128521,192271,240604,-1.2825529136,-9.1058864043,-2.775674216,1514
128682,192244,240661,-1.2825529136,-9.1058864043,-2.775674216,1515
128831,192276,240585,-1.2825529136,-9.1058864043,-2.775674216,1516
128997,192305,240589,-1.2825529136,-9.1058864043,-2.775674216,1517
129146,192314,240595,-1.2825529136,-9.1058864043,-2.775674216,1518
129321,192287,240635,-1.2825529136,-9.1058864043,-2.775674216,1519
129510,192331,240638,-1.2825529136,-9.1058864043,-2.775674216,1520
129668,192325,240604,-1.2825529136,-9.1058864043,-2.775674216,1521
129849,192343,240601,-1.2825529136,-9.1058864043,-2.775674216,1522
129994,192368,240628,-1.2825529136,-9.1058864043,-2.775674216,1523
129962,192328,240646,-1.2825529136,-9.1058864043,-2.775674216,1524
129627,192298,240634,-1.2825529136,-9.1058864043,-2.775674216,1525
129215,192327,240630,-1.2825529136,-9.1058864043,-2.775674216,1526
128846,192298,240628,-1.2825529136,-9.1058864043,-2.775674216,1527
128569,192281,240637,-1.2825529136,-9.1058864043,-2.775674216,1528
128383,192254,240615,-1.2825529136,-9.1058864043,-2.775674216,1529
128282,192293,240575,-1.2825529136,-9.1058864043,-2.775674216,1530
128333,192283,240604,-1.2825529136,-9.1058864043,-2.775674216,1531
128399,192332,240632,-1.2825529136,-9.1058864043,-2.775674216,1532
128473,192328,240594,-1.2825529136,-9.1058864043,-2.775674216,1533
128543,192307,240648,-1.2825529136,-9.1058864043,-2.775674216,1534
128570,192356,240650,-1.2825529136,-9.1058864043,-2.775674216,1535
128661,192360,240715,-1.2825529136,-9.1058864043,-2.775674216,1536
128787,192378,240680,-1.2825529136,-9.1058864043,-2.775674216,1537
128942,192442,240720,-1.2825529136,-9.1058864043,-2.775674216,1538
129123,192368,240739,-1.2825529136,-9.1058864043,-2.775674216,1539
129309,192424,240762,-1.2825529136,-9.1058864043,-2.775674216,1540
