green,red,IR,acc_x,acc_y,acc_z,sample_index
92418,215671,243538,8.952745757899999,-0.09690931529999999,4.1359938641000005,1
92340,215654,243418,8.930013943199999,-0.1483550012,4.0689948312999995,2
91949,215512,243413,8.9156570076,-0.040677984199999996,3.960121403,3
91527,215491,243412,8.8618184991,-0.22492532440000002,4.1826539048,4
91281,215520,243374,8.8366938618,-0.2679961312,4.1108692268,5
91195,215560,243429,8.8953180155,-0.31704899449999996,4.1252261624,6
91282,215548,243424,8.961120637,-0.1950150419,4.0594235409,7
91424,215648,243482,8.9216390641,-0.3266202849,4.1012979364,8
91613,215635,243502,8.952745757899999,-0.3182454058,4.151547211,9
91788,215701,243474,8.8366938618,-0.0777667345,4.0881374121,10
91901,215686,243514,8.841479506999999,-0.1902293967,4.06779842,11
91980,215727,243506,8.8450687409,-0.24765713909999998,3.9613178143,12
92039,215671,243510,8.709874264,-0.2859423007,4.1060835816,13
92043,215636,243463,8.8821574912,-0.10169496049999999,4.0534414844,14
92130,215637,243457,8.873782612100001,-0.2919243572,4.1228333398,15
92179,215637,243396,8.939585233599999,-0.25363919560000003,4.139583098,16
92257,215634,243449,8.8905323703,-0.2703889538,4.1371902754,17
92296,215624,243455,8.9156570076,-0.311066938,4.0510486617999995,18
92379,215655,243402,8.8127656358,-0.3062812928,4.0905302347,19
92454,215646,243435,8.9742811613,-0.32901310749999996,4.1072799929,20
92533,215641,243438,8.7732840629,-0.1591227029,4.0247276132000005,21
92608,215667,243412,8.9575314031,-0.382851616,3.9984065645999998,22
92710,215627,243444,8.931210354500001,-0.2919243572,4.0402809601,23
92803,215651,243419,8.926424709299999,-0.41874395499999995,4.113262049399999,24
92723,215605,243372,8.8486579748,-0.2596212521,4.0905302347,25
92461,215539,243337,8.7708912403,-0.24646072779999997,4.0761732991,26
92001,215497,243292,8.9024964833,-0.2835494781,4.0402809601,27
91762,215481,243306,8.7828553533,-0.24765713909999998,3.9804603951,28
91665,215516,243349,8.8008015228,-0.4606183505,4.0749768878,29
91733,215574,243422,8.9072821285,-0.3002992363,4.091726646,30
91827,215590,243412,8.8821574912,-0.346959277,4.0390845488,31
91951,215659,243409,8.8845503138,-0.1698904046,4.1730826144,32
92116,215693,243498,8.9455672901,-0.2105683888,4.126422573699999,33
92326,215706,243481,8.8606220878,-0.16869399329999998,4.0630127748,34
92379,215723,243503,8.8905323703,-0.3086741154,4.0103706776,35
92392,215673,243402,8.8558364426,-0.155533469,4.1623149127,36
92458,215661,243452,8.8701933782,-0.1304088317,4.0366917262,37
92473,215632,243452,8.805587167999999,-0.35413774480000004,4.127618985,38
92494,215699,243470,8.8031943454,-0.12083754129999999,4.103690759,39
92623,215713,243458,8.7984087002,-0.31704899449999996,4.1599220901,40
92688,215685,243449,8.901300072,-0.3852444386,4.139583098,41
92793,215680,243481,8.8390866844,-0.2703889538,4.1910287839,42
92861,215707,243431,8.8689969669,-0.2560320182,4.1347974528,43
92896,215736,243423,8.8546400313,-0.33499516399999996,4.0869410008000004,44
92982,215711,243465,8.6105721261,-0.2907279459,4.0534414844,45
93016,215721,243410,9.0628155975,-0.2165504453,4.1347974528,46
92928,215679,243397,8.8821574912,-0.0921236701,4.2281175342,47
92625,215577,243301,8.8965144268,-0.0323031051,4.0953158799,48
92194,215517,243269,8.8821574912,-0.1734796385,4.0869410008000004,49
91855,215486,243273,8.8438723296,-0.20338992099999997,4.1838503161,50
91728,215499,243312,8.8223369262,-0.3984049629,4.2221354777,51
91760,215588,243428,8.8797646686,-0.20458633229999998,4.103690759,52
91854,215616,243377,8.7840517646,-0.16630117069999997,4.1934216065,53
92019,215621,243477,8.944370878800001,-0.1543370577,4.113262049399999,54
92196,215665,243410,8.8390866844,-0.215354034,4.1012979364,55
92342,215663,243487,8.9659062822,-0.1495514125,4.1539400336,56
92395,215624,243446,8.7385881352,-0.2584248408,4.1096728155,57
92477,215667,243429,8.859425676499999,-0.24047867129999997,3.9696926934,58
92509,215623,243403,8.8701933782,-0.12442677519999999,4.146761565799999,59
92534,215617,243457,8.9228354754,-0.2883351233,4.1347974528,60
92598,215619,243434,8.85344362,-0.1387837108,4.1443687432,61
92638,215627,243450,8.7433737804,-0.2333002035,4.1694933805000005,62
92711,215624,243466,8.9563349918,-0.19980068709999999,4.0606199522,63
92762,215621,243428,8.8366938618,-0.19381863059999999,4.1108692268,64
92862,215636,243435,8.9898345082,-0.1304088317,4.2245283003,65
92930,215657,243426,8.8941216042,-0.25363919560000003,4.1084764042,66
92997,215636,243427,8.6273218843,-0.2979064137,4.0247276132000005,67
93053,215685,243424,8.97308475,-0.2727817764,4.1431723319,68
93046,215664,243346,8.8247297488,-0.11246266220000001,4.1060835816,69
92763,215537,243313,8.829515394,-0.15672988029999999,4.1324046302,70
92253,215473,243326,8.9359959997,-0.1746760498,3.9936209194,71
91924,215432,243285,8.9647098709,-0.2584248408,4.115654872,72
91759,215439,243302,8.885746725099999,-0.1890329854,4.1108692268,73
91730,215485,243406,8.9359959997,-0.2691925425,4.1886359613,74
91846,215563,243400,8.8797646686,-0.12442677519999999,4.1072799929,75
91969,215593,243458,8.8151584584,-0.1543370577,4.1192441059,76
92154,215622,243470,8.9048893059,-0.16271193679999998,4.1060835816,77
92291,215641,243490,8.8390866844,-0.18185451760000002,4.1216369285,78
92383,215604,243491,8.8343010392,-0.24047867129999997,4.1180476945999995,79
92464,215631,243506,8.769694829,-0.1734796385,3.9672998708,80
92522,215627,243491,8.9276211206,-0.1387837108,4.1012979364,81
92586,215625,243509,8.9826560404,-0.16271193679999998,4.1623149127,82
92580,215594,243538,8.73380249,-0.0801595571,4.1300118076,83
92642,215596,243507,8.952745757899999,-0.30747770409999997,4.1431723319,84
92719,215626,243473,8.7601235386,-0.1304088317,4.0845481781999995,85
92777,215613,243443,8.7637127725,-0.1531406464,4.092923057299999,86
92855,215611,243433,8.913264185,-0.2321037922,4.0725840652,87
92932,215627,243458,8.8247297488,-0.0753739119,4.0450666053,88
93012,215628,243431,8.8151584584,-0.1507478238,4.0606199522,89
93085,215628,243476,8.819944103600001,-0.08374879099999999,4.0259240245,90
93136,215613,243485,8.9778703952,-0.2237289131,4.115654872,91
93124,215579,243424,8.8797646686,-0.11246266220000001,4.0450666053,92
92846,215510,243399,8.864211321700001,-0.1387837108,4.0582271296000005,93
92380,215422,243381,8.937192411,-0.2823530668,3.984049629,94
92030,215436,243348,8.916853418899999,-0.1363908882,3.9649070482,95
91914,215423,243407,8.918049830200001,-0.1710868159,4.1742790257,96
91930,215507,243504,8.8701933782,-0.23928226,4.1204405172000005,97
92028,215545,243529,8.7984087002,-0.0681954441,4.0821553556,98
92198,215594,243564,8.9324067658,-0.1423729447,4.055834307,99
92393,215652,243580,8.8678005556,-0.0849452023,4.1886359613,100
92550,215638,243651,8.916853418899999,-0.0131605243,4.0701912426,101
92675,215644,243610,8.817551281,-0.179461695,4.0606199522,102
92725,215613,243596,8.7517486595,-0.06340979890000001,4.103690759,103
92789,215611,243582,8.764909183799999,-0.1854437515,4.1718862031,104
92852,215667,243609,8.7852481759,-0.1579262916,4.1288153963,105
92902,215637,243596,8.7589271273,-0.24885355039999998,4.1300118076,106
92958,215672,243612,8.8749790234,-0.23928226,4.1204405172000005,107
93033,215690,243588,8.85344362,-0.21296121140000002,4.0905302347,108
93144,215660,243607,8.8079799906,-0.18185451760000002,4.1766718483,109
93224,215661,243627,8.7673020064,-0.2943171798,4.079762533,110
93314,215691,243603,8.8438723296,-0.3397808092,4.115654872,111
93401,215658,243636,8.817551281,-0.2201396792,4.079762533,112
93477,215660,243664,8.8666041443,-0.299102825,4.1060835816,113
93578,215710,243626,8.9108713624,-0.12083754129999999,4.1168512833,114
93625,215664,243693,8.998209387300001,-0.2919243572,4.2963129783,115
93570,215644,243588,8.8845503138,-0.20458633229999998,4.1324046302,116
93177,215494,243520,8.885746725099999,-0.3397808092,4.0402809601,117
92791,215472,243514,8.8426759183,-0.2775674216,4.1252261624,118
92625,215501,243622,8.9024964833,-0.32542387359999997,4.1144584607,119
92575,215589,243634,8.828318982699999,-0.23569302609999998,4.2412780585,120
92742,215621,243701,8.7302132561,-0.2727817764,4.1180476945999995,121
92908,215686,243738,8.7230347883,-0.3732803256,4.2125641873,122
93120,215689,243796,8.8989072494,-0.39122649509999996,4.1730826144,123
93279,215720,243756,8.709874264,-0.2596212521,4.2065821308,124
93417,215709,243767,8.7349989013,-0.3493520996,4.1060835816,125
93472,215721,243733,8.829515394,-0.35413774480000004,4.0091742663,126
93516,215743,243702,8.7828553533,-0.346959277,4.06779842,127
93617,215709,243792,8.7840517646,-0.35413774480000004,4.1886359613,128
93635,215690,243784,8.8235333375,-0.25363919560000003,4.1706897918,129
93716,215681,243766,8.9718883387,-0.2285145583,4.1120656381,130
93807,215683,243800,8.8749790234,-0.33858439789999994,4.0342989036,131
93893,215699,243751,8.8869431364,-0.346959277,4.0725840652,132
93953,215691,243781,8.8043907567,-0.394815729,4.0941194686,133
94042,215752,243795,8.8474615635,-0.3613162126,4.1347974528,134
94137,215718,243765,8.8402830957,-0.20937197749999997,4.1048871703,135
94208,215787,243807,8.8809610799,-0.3158525832,4.0115670889,136
94301,215778,243763,8.8689969669,-0.2943171798,4.1347974528,137
94332,215770,243731,8.9072821285,-0.36011980130000004,4.0845481781999995,138
94129,215629,243680,8.8701933782,-0.4594219392,4.0941194686,139
93751,215583,243666,8.865407733,-0.2656033086,4.0582271296000005,140
93458,215577,243705,8.9599242257,-0.4019941968,4.1108692268,141
93362,215635,243777,8.85344362,-0.38763726119999997,4.151547211,142
93358,215673,243785,8.793623055,-0.2297109696,4.1946180178,143
93495,215731,243905,8.717052731799999,-0.3684946804,4.1120656381,144
93682,215760,243866,8.873782612100001,-0.2237289131,4.1324046302,145
93840,215822,243886,8.9336031771,-0.2967100024,4.2221354777,146
93984,215869,243914,8.9742811613,-0.20937197749999997,4.0654055974,147
94040,215808,243916,8.8845503138,-0.3206382284,4.0390845488,148
94100,215863,243881,8.7864445872,-0.32542387359999997,4.0749768878,149
94125,215796,243891,8.781658942,-0.20578274359999998,4.1431723319,150
94143,215789,243854,8.8103728132,-0.3565305674,4.163511324,151
94194,215775,243944,8.8354974505,-0.346959277,4.1539400336,152
94289,215790,243938,8.7122670866,-0.24047867129999997,4.0941194686,153
94335,215834,243893,8.7840517646,-0.3900300838,4.2604206393,154
94454,215813,243905,8.8366938618,-0.2679961312,4.2747775749,155
94530,215881,243955,8.8797646686,-0.3026920589,4.1659041466,156
94602,215901,243895,8.73380249,-0.3816552047,4.139583098,157
94679,215888,243902,8.7888374098,-0.299102825,4.0031922098,158
94722,215873,243900,9.0221376133,-0.2967100024,4.2604206393,159
94645,215797,243900,8.831908216599999,-0.2620140747,4.2735811636,160
94317,215742,243850,8.952745757899999,-0.33260234139999995,4.0187455567,161
93913,215685,243809,8.846265152199999,-0.4019941968,4.1108692268,162
93650,215712,243835,8.9623170483,-0.1866401628,4.1958144290999995,163
93486,215727,243885,8.7266240222,-0.32303105099999996,4.1730826144,164
93511,215745,243886,8.8103728132,-0.33738798659999997,4.2520457602,165
93635,215790,243957,8.8821574912,-0.25363919560000003,4.0773697104,166
93763,215803,243987,8.926424709299999,-0.31345976059999997,4.2699919297,167
93982,215889,243985,8.685946038,-0.24167508259999998,4.1563328562,168
94094,215858,244014,8.7625163612,-0.16151552549999998,4.2041893082,169
94146,215867,244015,8.7768732968,-0.263210486,4.0821553556,170
94172,215876,244043,8.831908216599999,-0.1471585899,4.1192441059,171
94217,215826,244007,8.7948194663,-0.21894326790000002,4.2221354777,172
94139,215865,244007,8.9036928946,-0.3062812928,4.1587256788,173
94190,215854,243958,8.8809610799,-0.24885355039999998,4.1443687432,174
94256,215851,244007,8.8008015228,-0.3361915753,4.163511324,175
94348,215825,243959,8.831908216599999,-0.2225325018,4.0989051138,176
94449,215883,243982,8.7888374098,-0.2823530668,4.1814574935,177
94547,215876,243979,8.7984087002,-0.0466600407,4.0845481781999995,178
94578,215892,243970,8.7792661194,-0.1710868159,4.139583098,179
94654,215894,244015,8.817551281,-0.2297109696,4.019941968,180
94713,215881,243912,9.0580299523,-0.3062812928,4.1443687432,181
94637,215823,243946,8.873782612100001,-0.0658026215,4.242474469799999,182
94275,215684,243914,8.7912302324,-0.23928226,4.0630127748,183
93827,215666,243894,8.939585233599999,-0.1710868159,4.0486558392,184
93547,215674,243881,9.0185483794,0.0526420972,4.103690759,185
93483,215690,243943,8.916853418899999,-0.215354034,4.1790646709,186
93479,215725,243992,8.9192462415,-0.08135596839999999,4.1730826144,187
93567,215824,244058,8.8343010392,-0.0777667345,4.0666020087,188
93711,215819,244081,8.918049830200001,-0.2763710103,4.0941194686,189
93876,215928,244073,8.7349989013,-0.1483550012,4.2006000743,190
93976,215873,244057,8.9156570076,-0.2225325018,4.1443687432,191
94020,215874,244059,8.829515394,-0.287138712,4.0606199522,192
94054,215855,244022,8.9144605963,-0.179461695,4.1371902754,193
94098,215845,244003,8.6727855137,-0.2919243572,4.1671005579,194
94129,215851,244038,8.7505522482,-0.1782652837,4.0869410008000004,195
94164,215860,244011,8.7876409985,-0.1962114532,4.1431723319,196
94216,215825,244012,8.8343010392,-0.191425808,4.0749768878,197
94253,215857,243986,9.0317089037,-0.1459621786,4.140779509300001,198
94322,215860,243999,8.9060857172,-0.1363908882,4.0893338234,199
94385,215814,244009,8.817551281,-0.1651047594,4.1228333398,200
94462,215856,244022,8.9623170483,-0.2883351233,4.007977855,201
94502,215832,243984,8.769694829,-0.1830509289,4.031906081,202
94557,215856,243958,8.8929251929,-0.2333002035,4.1479579771,203
94586,215796,243979,8.7864445872,-0.19860427579999998,4.2640098732,204
94406,215768,243907,8.829515394,-0.08374879099999999,4.0043886211,205
93955,215697,243875,8.8558364426,-0.3038884702,3.9349967657,206
93569,215614,243868,8.8438723296,-0.2560320182,4.1551364449,207
93376,215667,243896,8.7290168448,-0.0658026215,4.2221354777,208
93339,215704,243897,8.9276211206,-0.2009970984,4.1563328562,209
93412,215744,243977,8.876175434699999,-0.1890329854,3.9696926934,210
93544,215827,244022,8.7996051115,-0.3302095188,4.0749768878,211
93663,215814,243991,8.9359959997,-0.16630117069999997,4.146761565799999,212
93796,215856,243967,8.873782612100001,-0.21296121140000002,4.1706897918,213
93899,215839,243996,8.9240318867,-0.3206382284,4.1072799929,214
93965,215782,243983,8.873782612100001,-0.25363919560000003,4.007977855,215
93952,215846,243968,8.876175434699999,-0.2105683888,4.1886359613,216
93864,215832,243931,8.8366938618,-0.2931207685,4.146761565799999,217
93996,215813,243987,8.8390866844,-0.10648060570000001,4.2257247116,218
94060,215835,243900,8.8701933782,-0.1842473402,4.1347974528,219
94128,215817,243960,8.8103728132,-0.2584248408,4.2364924133,220
94185,215861,243937,8.673981925,-0.394815729,4.1096728155,221
94245,215846,243995,8.673981925,-0.394815729,4.1096728155,222
94327,215840,243940,8.673981925,-0.394815729,4.1096728155,223
94377,215861,243963,8.673981925,-0.394815729,4.1096728155,224
94441,215860,243971,8.673981925,-0.394815729,4.1096728155,225
94503,215839,243973,8.673981925,-0.394815729,4.1096728155,226
94544,215859,243914,8.673981925,-0.394815729,4.1096728155,227
94529,215821,243851,8.673981925,-0.394815729,4.1096728155,228
94238,215684,243793,8.673981925,-0.394815729,4.1096728155,229
93833,215637,243833,8.673981925,-0.394815729,4.1096728155,230
93535,215679,243838,8.673981925,-0.394815729,4.1096728155,231
93443,215696,243853,8.673981925,-0.394815729,4.1096728155,232
93452,215753,243846,8.673981925,-0.394815729,4.1096728155,233
93560,215795,243939,8.673981925,-0.394815729,4.1096728155,234
93687,215817,243864,8.673981925,-0.394815729,4.1096728155,235
93815,215825,243881,8.673981925,-0.394815729,4.1096728155,236
93903,215832,243864,8.817551281,-0.31944181709999997,4.151547211,237
93961,215836,243879,8.817551281,-0.31944181709999997,4.151547211,238
94010,215827,243865,8.817551281,-0.31944181709999997,4.151547211,239
94017,215792,243830,8.817551281,-0.31944181709999997,4.151547211,240
94039,215807,243848,8.817551281,-0.31944181709999997,4.151547211,241
94069,215829,243820,8.817551281,-0.31944181709999997,4.151547211,242
94111,215826,243865,8.817551281,-0.31944181709999997,4.151547211,243
94167,215802,243835,8.817551281,-0.31944181709999997,4.151547211,244
94232,215838,243805,8.817551281,-0.31944181709999997,4.151547211,245
94300,215852,243846,8.817551281,-0.31944181709999997,4.151547211,246
94360,215870,243809,8.817551281,-0.31944181709999997,4.151547211,247
94418,215804,243790,8.817551281,-0.31944181709999997,4.151547211,248
94503,215863,243818,8.817551281,-0.31944181709999997,4.151547211,249
94535,215833,243817,8.817551281,-0.31944181709999997,4.151547211,250
94549,215803,243782,8.817551281,-0.31944181709999997,4.151547211,251
94409,215760,243708,8.817551281,-0.31944181709999997,4.151547211,252
94021,215676,243640,8.817551281,-0.31944181709999997,4.151547211,253
93688,215666,243651,8.817551281,-0.31944181709999997,4.151547211,254
93538,215678,243680,8.817551281,-0.31944181709999997,4.151547211,255
93487,215746,243702,8.9898345082,-0.2261217357,3.9900316855,256
93570,215763,243763,8.9898345082,-0.2261217357,3.9900316855,257
93660,215798,243753,8.9898345082,-0.2261217357,3.9900316855,258
93822,215839,243743,8.9898345082,-0.2261217357,3.9900316855,259
93919,215851,243763,8.9898345082,-0.2261217357,3.9900316855,260
93996,215847,243705,8.9898345082,-0.2261217357,3.9900316855,261
94031,215804,243701,8.9898345082,-0.2261217357,3.9900316855,262
94043,215821,243694,8.7361953126,-0.3302095188,4.1192441059,263
94044,215827,243704,8.8247297488,-0.3182454058,4.091726646,264
94068,215851,243722,8.6321075295,-0.16630117069999997,4.0905302347,265
94092,215835,243727,8.6321075295,-0.16630117069999997,4.0905302347,266
94142,215862,243678,8.6321075295,-0.16630117069999997,4.0905302347,267
94183,215860,243683,8.6321075295,-0.16630117069999997,4.0905302347,268
94242,215884,243667,8.6321075295,-0.16630117069999997,4.0905302347,269
94277,215894,243682,8.6321075295,-0.16630117069999997,4.0905302347,270
94319,215896,243704,8.6321075295,-0.16630117069999997,4.0905302347,271
94380,215891,243691,8.6321075295,-0.16630117069999997,4.0905302347,272
94413,215876,243671,8.6321075295,-0.16630117069999997,4.0905302347,273
94304,215854,243642,8.6321075295,-0.16630117069999997,4.0905302347,274
93931,215734,243550,8.6321075295,-0.16630117069999997,4.0905302347,275
93518,215701,243567,8.6321075295,-0.16630117069999997,4.0905302347,276
93250,215710,243558,8.6321075295,-0.16630117069999997,4.0905302347,277
93139,215756,243535,8.6321075295,-0.16630117069999997,4.0905302347,278
93130,215742,243609,8.6321075295,-0.16630117069999997,4.0905302347,279
93225,215846,243656,8.6321075295,-0.16630117069999997,4.0905302347,280
93359,215834,243619,8.6321075295,-0.16630117069999997,4.0905302347,281
93460,215871,243638,8.6321075295,-0.16630117069999997,4.0905302347,282
93532,215879,243638,8.6321075295,-0.16630117069999997,4.0905302347,283
93568,215852,243599,8.6321075295,-0.16630117069999997,4.0905302347,284
93561,215873,243634,8.6321075295,-0.16630117069999997,4.0905302347,285
93564,215860,243595,8.6321075295,-0.16630117069999997,4.0905302347,286
93594,215823,243556,8.6321075295,-0.16630117069999997,4.0905302347,287
93610,215813,243612,8.6321075295,-0.16630117069999997,4.0905302347,288
93659,215799,243582,8.6321075295,-0.16630117069999997,4.0905302347,289
93715,215811,243593,8.6321075295,-0.16630117069999997,4.0905302347,290
93765,215844,243568,8.6321075295,-0.16630117069999997,4.0905302347,291
93804,215834,243522,8.6321075295,-0.16630117069999997,4.0905302347,292
93875,215835,243513,8.6321075295,-0.16630117069999997,4.0905302347,293
93913,215856,243505,8.6321075295,-0.16630117069999997,4.0905302347,294
93926,215834,243483,8.6321075295,-0.16630117069999997,4.0905302347,295
93877,215776,243489,8.6321075295,-0.16630117069999997,4.0905302347,296
93491,215711,243353,8.6321075295,-0.16630117069999997,4.0905302347,297
93030,215641,243375,8.6321075295,-0.16630117069999997,4.0905302347,298
92692,215598,243360,8.6321075295,-0.16630117069999997,4.0905302347,299
92558,215626,243349,8.6321075295,-0.16630117069999997,4.0905302347,300
92536,215673,243449,8.8953180155,-0.1651047594,4.0893338234,301
92630,215695,243417,8.8953180155,-0.1651047594,4.0893338234,302
92754,215760,243478,8.8953180155,-0.1651047594,4.0893338234,303
92879,215722,243486,8.8953180155,-0.1651047594,4.0893338234,304
93022,215825,243427,8.8953180155,-0.1651047594,4.0893338234,305
93063,215761,243413,8.8953180155,-0.1651047594,4.0893338234,306
93105,215744,243441,8.8953180155,-0.1651047594,4.0893338234,307
93133,215760,243468,8.8079799906,-0.0945164927,4.0713876539,308
93151,215710,243451,8.769694829,-0.1363908882,4.0869410008000004,309
93182,215727,243452,8.9419780562,-0.155533469,4.0654055974,310
93221,215744,243409,8.846265152199999,-0.2009970984,4.1060835816,311
93304,215782,243420,8.7972122889,-0.0693918554,4.0618163635,312
93348,215760,243434,8.926424709299999,-0.0753739119,4.091726646,313
93403,215738,243430,8.8701933782,-0.2201396792,4.0869410008000004,314
93488,215791,243452,8.7972122889,-0.0658026215,4.1072799929,315
93548,215735,243379,8.8845503138,-0.1866401628,4.0965122912,316
93602,215746,243357,8.7900338211,-0.1220339526,4.0606199522,317
93648,215758,243360,8.944370878800001,-0.18783657410000001,4.163511324,318
93657,215736,243357,8.9060857172,-0.1292124204,4.199403663,319
93435,215650,243265,8.876175434699999,-0.215354034,4.0462630166,320
92956,215585,243247,8.9324067658,-0.2225325018,3.9672998708,321
92567,215529,243214,9.0257268472,-0.1782652837,4.0606199522,322
92417,215584,243278,8.8558364426,-0.1890329854,4.055834307,323
92381,215584,243310,8.8127656358,-0.34337004309999997,4.0869410008000004,324
92379,215636,243338,8.7768732968,-0.1411765334,3.9469608787,325
92540,215660,243400,8.8917287816,-0.2297109696,4.0749768878,326
92720,215689,243351,8.7768732968,-0.24167508259999998,4.1898323726,327
92811,215707,243425,8.9240318867,-0.0705882667,4.1563328562,328
92918,215688,243395,8.9455672901,-0.1471585899,4.0654055974,329
92979,215692,243375,8.8510507974,-0.2787638329,4.1048871703,330
92986,215692,243402,8.7278204335,-0.2691925425,4.1671005579,331
93045,215690,243368,8.6775711589,-0.2943171798,4.2340995907,332
93083,215694,243386,8.8678005556,-0.20578274359999998,4.0761732991,333
93137,215695,243399,8.817551281,-0.2656033086,4.1647077353,334
93218,215704,243379,8.865407733,-0.3182454058,4.0761732991,335
93293,215704,243442,8.6775711589,-0.2656033086,4.1228333398,336
93351,215713,243416,8.8474615635,-0.2560320182,4.0689948312999995,337
93432,215715,243389,8.8127656358,-0.251246373,4.0223347905999995,338
93481,215749,243358,8.817551281,-0.31345976059999997,4.06779842,339
93571,215694,243402,8.841479506999999,-0.39361931769999997,4.0953158799,340
93622,215737,243380,8.7661055951,-0.131605243,4.1371902754,341
93694,215743,243350,8.8390866844,-0.3050848815,4.2604206393,342
93747,215681,243369,8.8438723296,-0.2799602442,4.0785661217,343
93627,215627,243298,8.833104627900001,-0.20937197749999997,4.115654872,344
93218,215544,243271,8.8833539025,-0.3050848815,4.0857445895,345
92895,215526,243253,8.8522472087,-0.3158525832,4.1970108404,346
92673,215526,243278,8.7326060787,-0.2321037922,4.1694933805000005,347
92648,215564,243337,8.9072821285,-0.1734796385,4.1970108404,348
92694,215594,243328,8.7050886188,-0.251246373,4.139583098,349
92820,215665,243415,8.817551281,-0.2883351233,4.0821553556,350
92993,215660,243333,8.8091764019,-0.2069791549,4.163511324,351
93130,215685,243374,8.8008015228,-0.3421736318,4.1084764042,352
93243,215699,243464,8.793623055,-0.311066938,4.0881374121,353
93302,215692,243395,8.819944103600001,-0.32542387359999997,4.0953158799,354
93336,215692,243363,8.818747692299999,-0.4510470601,4.091726646,355
93364,215690,243389,8.793623055,-0.2261217357,4.1060835816,356
93388,215675,243425,8.8307118053,-0.1962114532,4.18743955,357
93454,215672,243387,8.8666041443,-0.18783657410000001,4.0630127748,358
93523,215701,243399,8.930013943199999,-0.2344966148,4.0414773714,359
93574,215684,243409,8.8905323703,-0.2787638329,4.0893338234,360
93644,215685,243366,8.7840517646,-0.3122633493,4.0749768878,361
93728,215756,243367,8.8223369262,-0.3014956476,4.2017964856,362
93792,215708,243371,8.817551281,-0.3146561719,4.055834307,363
93858,215688,243369,9.0233340246,-0.1782652837,4.0414773714,364
93938,215672,243417,8.7720876516,-0.23928226,4.0390845488,365
93979,215723,243332,8.8558364426,-0.3158525832,4.0474594279,366
93979,215680,243329,8.8343010392,-0.3206382284,4.1300118076,367
93749,215594,243298,8.817551281,-0.25363919560000003,4.0821553556,368
93325,215536,243267,8.7780697081,-0.3266202849,4.1096728155,369
93090,215539,243321,8.9958165647,-0.28953153460000003,4.0462630166,370
92986,215560,243335,8.7720876516,-0.31944181709999997,4.1240297511,371
93045,215618,243309,8.7876409985,-0.2237289131,3.9672998708,372
93156,215616,243401,8.9671026935,-0.21415762270000002,4.0031922098,373
93360,215686,243428,8.885746725099999,-0.3732803256,4.2029928969000006,374
93464,215743,243444,8.8630149104,-0.2967100024,4.1347974528,375
93574,215733,243414,8.7469630143,-0.3050848815,4.0965122912,376
93629,215726,243461,8.8031943454,-0.37567314820000003,4.0055850324,377
93676,215731,243427,8.9001036607,-0.3278166962,4.1168512833,378
93693,215724,243426,8.864211321700001,-0.2691925425,4.1838503161,379
93700,215713,243423,8.8510507974,-0.2297109696,4.1730826144,380
93728,215724,243424,8.8474615635,-0.3014956476,4.151547211,381
93779,215753,243481,8.7864445872,-0.2919243572,4.0055850324,382
93853,215736,243461,8.8402830957,-0.4390829471,4.1443687432,383
93921,215744,243440,8.694320917099999,-0.287138712,4.1922251952,384
93993,215751,243431,8.7409809578,-0.263210486,4.1383866867,385
94050,215780,243515,8.818747692299999,-0.22492532440000002,4.2520457602,386
94149,215779,243476,8.8522472087,-0.1830509289,4.0749768878,387
94224,215817,243438,8.8486579748,-0.3732803256,4.1096728155,388
94199,215758,243425,8.8845503138,-0.1591227029,4.1982072517,389
93973,215669,243359,8.8689969669,-0.1651047594,4.1359938641000005,390
93568,215566,243415,8.9324067658,-0.19980068709999999,4.1491543884,391
93205,215594,243334,8.8163548697,-0.2524427843,4.2388852359,392
93058,215588,243411,8.7708912403,-0.1974078645,4.2125641873,393
93052,215651,243456,8.8223369262,-0.346959277,4.3274196721000004,394
93132,215661,243477,8.7242311996,-0.2117648001,4.2640098732,395
93238,215726,243499,8.757730716,-0.25363919560000003,4.091726646,396
93422,215719,243510,8.877371846,-0.25363919560000003,4.2173498325,397
93545,215814,243593,8.7804625307,-0.2165504453,4.18743955,398
93663,215751,243561,8.8127656358,-0.21894326790000002,4.0869410008000004,399
93693,215775,243577,8.7684984177,-0.31704899449999996,4.0785661217,400
93703,215779,243504,8.8510507974,-0.2775674216,4.0893338234,401
93728,215764,243540,8.7960158776,-0.24287149389999999,4.1742790257,402
93755,215746,243548,8.8343010392,-0.251246373,4.1108692268,403
93777,215782,243517,8.817551281,-0.263210486,4.1563328562,404
93865,215790,243557,8.831908216599999,-0.2524427843,4.1084764042,405
93905,215761,243537,8.8223369262,-0.2117648001,4.1431723319,406
94014,215795,243532,8.8749790234,-0.3062812928,4.0630127748,407
94085,215778,243512,8.781658942,-0.25363919560000003,4.1084764042,408
94155,215797,243537,8.841479506999999,-0.2524427843,4.1252261624,409
94208,215772,243528,8.8019979341,-0.251246373,3.9768711611999996,410
94278,215791,243469,8.8785682573,-0.24646072779999997,4.320241204299999,411
94204,215706,243462,8.829515394,-0.1519442351,4.2747775749,412
93888,215634,243418,8.8713897895,-0.3062812928,4.0965122912,413
93484,215598,243375,8.9120677737,-0.2333002035,4.0606199522,414
93232,215577,243355,8.8606220878,-0.2656033086,4.1288153963,415
93150,215605,243552,8.8833539025,-0.2117648001,4.211367776,416
93149,215646,243485,8.8438723296,-0.21296121140000002,4.1012979364,417
93269,215680,243544,8.805587167999999,-0.1603191142,4.0450666053,418
93426,215713,243549,8.9766739839,-0.2285145583,4.0630127748,419
93572,215763,243590,8.7948194663,-0.1363908882,4.1898323726,420
93618,215822,243674,8.8785682573,-0.062213387599999996,4.0510486617999995,421
93805,215781,243602,8.7912302324,-0.16749758199999998,4.0773697104,422
93850,215793,243633,8.9048893059,-0.09930213789999999,4.1479579771,423
93821,215776,243624,8.7673020064,-0.2799602442,4.1060835816,424
93902,215767,243629,8.7433737804,-0.2763710103,4.0654055974,425
93964,215765,243610,8.752945070800001,-0.191425808,4.0486558392,426
94048,215805,243638,8.9240318867,-0.20338992099999997,4.0965122912,427
94113,215792,243674,8.8151584584,-0.2009970984,4.0630127748,428
94219,215806,243626,8.7864445872,-0.1256231865,4.1216369285,429
94283,215806,243648,8.8510507974,-0.24167508259999998,4.115654872,430
94350,215828,243634,8.8247297488,-0.1399801221,4.1419759206,431
94446,215797,243642,8.8869431364,-0.24047867129999997,4.0283168471,432
94504,215840,243647,8.819944103600001,-0.0586241537,3.9314075318,433
94577,215810,243640,8.9862452743,-0.32542387359999997,4.1587256788,434
94600,215780,243643,8.8953180155,-0.1471585899,4.2281175342,435
94445,215715,243568,8.7912302324,-0.1256231865,4.06779842,436
94035,215589,243506,8.8139620471,-0.2620140747,3.9792639838,437
93709,215618,243535,8.901300072,-0.2069791549,4.0749768878,438
93567,215632,243557,8.8151584584,-0.19381863059999999,4.0821553556,439
93551,215639,243559,8.8450687409,-0.1387837108,4.1563328562,440
93626,215727,243649,8.7888374098,-0.1160518961,3.9972101532999997,441
93766,215785,243757,8.8917287816,-0.1782652837,4.0342989036,442
93955,215779,243734,8.8905323703,-0.2703889538,4.127618985,443
94109,215813,243755,8.828318982699999,-0.1866401628,4.1814574935,444
94218,215818,243830,8.8247297488,-0.263210486,4.0821553556,445
94266,215786,243812,8.8163548697,-0.2069791549,4.0606199522,446
94300,215819,243759,8.8701933782,-0.23688943739999999,4.1108692268,447
94336,215800,243787,8.818747692299999,-0.2117648001,4.1539400336,448
94396,215848,243773,8.8127656358,-0.22492532440000002,4.1539400336,449
94461,215813,243793,8.846265152199999,-0.2081755662,4.1443687432,450
94559,215820,243776,8.8366938618,-0.3242274623,4.1300118076,451
94582,215840,243750,8.8689969669,-0.24646072779999997,4.1443687432,452
94682,215829,243803,8.8749790234,-0.25363919560000003,4.1850467274,453
94754,215864,243798,8.73380249,-0.382851616,4.1347974528,454
94830,215847,243815,8.7122670866,-0.251246373,4.1790646709,455
94897,215871,243766,8.7517486595,-0.2715853651,4.1371902754,456
94954,215849,243801,8.7888374098,-0.39122649509999996,4.0486558392,457
95039,215815,243774,8.7517486595,-0.24885355039999998,4.1982072517,458
95076,215828,243772,8.8223369262,-0.2069791549,4.1850467274,459
94860,215710,243714,8.8977108381,-0.34456645439999994,4.1012979364,460
94461,215684,243664,8.9563349918,-0.2333002035,4.031906081,461
94168,215650,243686,8.9359959997,-0.3672982691,4.1336010414999995,462
94012,215692,243713,8.7720876516,-0.215354034,4.1084764042,463
94022,215732,243782,8.9228354754,-0.2931207685,4.223331889,464
94095,215776,243822,8.6907316832,-0.19860427579999998,4.0725840652,465
94254,215856,243831,8.9359959997,-0.31345976059999997,4.1778682596,466
94382,215830,243876,8.9120677737,-0.24167508259999998,4.1778682596,467
94567,215863,243908,8.7517486595,-0.2584248408,4.115654872,468
94602,215870,243886,8.8845503138,-0.39960137419999997,4.055834307,469
94613,215822,243875,8.85344362,-0.33738798659999997,4.06779842,470
94686,215853,243825,8.8450687409,-0.20937197749999997,4.1347974528,471
94673,215833,243894,8.8247297488,-0.2105683888,4.1060835816,472
94657,215832,243814,8.8881395477,-0.2285145583,4.103690759,473
94748,215811,243859,8.8390866844,-0.2739781877,4.1383866867,474
94829,215829,243819,8.8163548697,-0.1387837108,4.1886359613,475
94903,215903,243837,8.7625163612,-0.2380858487,4.0893338234,476
94941,215851,243847,8.6991065623,-0.33499516399999996,4.0725840652,477
95023,215868,243808,8.805587167999999,-0.3565305674,4.06779842,478
95116,215900,243885,8.8905323703,-0.3804587934,4.0462630166,479
95167,215889,243874,8.8366938618,-0.2763710103,3.9756747499,480
95235,215864,243894,8.864211321700001,-0.4199403663,4.091726646,481
95245,215834,243821,8.6871424493,-0.34576286570000003,4.1611185014,482
95070,215742,243740,8.819944103600001,-0.24167508259999998,4.1312082188999995,483
94665,215672,243728,8.8103728132,-0.2763710103,4.1024943476999995,484
94350,215731,243761,8.877371846,-0.2644068973,4.1958144290999995,485
94199,215697,243835,8.8450687409,-0.2213360905,4.1730826144,486
94170,215743,243804,8.7637127725,-0.42233318890000004,4.1084764042,487
94242,215803,243876,8.7828553533,-0.251246373,4.140779509300001,488
94378,215816,243936,8.846265152199999,-0.2608176634,4.1359938641000005,489
94533,215929,243935,8.73380249,-0.15672988029999999,4.1359938641000005,490
94652,215920,243950,8.8486579748,-0.3014956476,4.1587256788,491
94685,215900,243935,8.9084785398,-0.263210486,4.1144584607,492
94680,215860,243889,8.885746725099999,-0.1926222193,4.0965122912,493
94671,215893,243866,8.8953180155,-0.311066938,4.1192441059,494
94702,215884,243899,8.9778703952,-0.2835494781,4.1766718483,495
94712,215868,243888,8.8546400313,-0.1399801221,4.163511324,496
94751,215909,243888,8.8546400313,-0.1399801221,4.163511324,497
94814,215902,243960,8.8546400313,-0.1399801221,4.163511324,498
94871,215917,243860,8.8546400313,-0.1399801221,4.163511324,499
94934,215917,243876,8.8546400313,-0.1399801221,4.163511324,500
95004,215986,243929,8.8546400313,-0.1399801221,4.163511324,501
95063,215950,243934,8.8546400313,-0.1399801221,4.163511324,502
95108,215935,243970,8.8546400313,-0.1399801221,4.163511324,503
95096,215933,243853,8.8546400313,-0.1399801221,4.163511324,504
94825,215824,243836,8.8546400313,-0.1399801221,4.163511324,505
94350,215740,243845,8.8546400313,-0.1399801221,4.163511324,506
93956,215734,243805,8.8546400313,-0.1399801221,4.163511324,507
93746,215724,243828,8.8546400313,-0.1399801221,4.163511324,508
93683,215792,243832,8.8546400313,-0.1399801221,4.163511324,509
93737,215820,243915,8.8546400313,-0.1399801221,4.163511324,510
93836,215873,243963,8.8546400313,-0.1399801221,4.163511324,511
93969,215906,243934,8.8546400313,-0.1399801221,4.163511324,512
94077,215949,243980,8.8546400313,-0.1399801221,4.163511324,513
94148,215885,243932,8.8546400313,-0.1399801221,4.163511324,514
94177,215901,243933,8.8546400313,-0.1399801221,4.163511324,515
94176,215923,243932,8.8546400313,-0.1399801221,4.163511324,516
94192,215892,243941,8.8546400313,-0.1399801221,4.163511324,517
94214,215907,243897,8.8546400313,-0.1399801221,4.163511324,518
94246,215853,243911,8.9575314031,-0.2727817764,4.06779842,519
94311,215883,243912,8.9575314031,-0.2727817764,4.06779842,520
94348,215885,243902,8.9575314031,-0.2727817764,4.06779842,521
94432,215935,243871,8.9575314031,-0.2727817764,4.06779842,522
94462,215933,243874,8.9575314031,-0.2727817764,4.06779842,523
94519,215939,243893,8.9575314031,-0.2727817764,4.06779842,524
94587,215894,243865,8.9575314031,-0.2727817764,4.06779842,525
94626,215895,243861,8.9575314031,-0.2727817764,4.06779842,526
94472,215826,243763,8.9575314031,-0.2727817764,4.06779842,527
94046,215725,243752,8.9575314031,-0.2727817764,4.06779842,528
93587,215649,243704,8.9575314031,-0.2727817764,4.06779842,529
93318,215692,243778,8.9575314031,-0.2727817764,4.06779842,530
93231,215704,243845,8.9575314031,-0.2727817764,4.06779842,531
93245,215730,243820,8.9575314031,-0.2727817764,4.06779842,532
93328,215765,243849,8.9575314031,-0.2727817764,4.06779842,533
93454,215825,243933,8.9575314031,-0.2727817764,4.06779842,534
93598,215850,243933,8.9575314031,-0.2727817764,4.06779842,535
93700,215850,243903,8.9575314031,-0.2727817764,4.06779842,536
93764,215884,243933,8.9575314031,-0.2727817764,4.06779842,537
93767,215838,243878,8.9958165647,-0.1591227029,4.0845481781999995,538
93779,215858,243895,8.9958165647,-0.1591227029,4.0845481781999995,539
93834,215845,243873,8.9958165647,-0.1591227029,4.0845481781999995,540
93876,215835,243841,8.9958165647,-0.1591227029,4.0845481781999995,541
93929,215869,243941,8.846265152199999,-0.2021935097,4.1419759206,542
93963,215824,243831,8.846265152199999,-0.2021935097,4.1419759206,543
94030,215841,243857,8.846265152199999,-0.2021935097,4.1419759206,544
94079,215873,243862,8.846265152199999,-0.2021935097,4.1419759206,545
94190,215836,243903,8.846265152199999,-0.2021935097,4.1419759206,546
94228,215862,243880,8.846265152199999,-0.2021935097,4.1419759206,547
94279,215841,243842,8.846265152199999,-0.2021935097,4.1419759206,548
94349,215804,243854,8.846265152199999,-0.2021935097,4.1419759206,549
94327,215797,243797,8.846265152199999,-0.2021935097,4.1419759206,550
94013,215698,243797,8.846265152199999,-0.2021935097,4.1419759206,551
93562,215664,243737,8.846265152199999,-0.2021935097,4.1419759206,552
93190,215631,243696,8.846265152199999,-0.2021935097,4.1419759206,553
93082,215656,243743,8.846265152199999,-0.2021935097,4.1419759206,554
93063,215672,243764,8.846265152199999,-0.2021935097,4.1419759206,555
93158,215749,243825,8.846265152199999,-0.2021935097,4.1419759206,556
93266,215752,243854,8.846265152199999,-0.2021935097,4.1419759206,557
93409,215776,243869,8.846265152199999,-0.2021935097,4.1419759206,558
93528,215791,243870,8.846265152199999,-0.2021935097,4.1419759206,559
93616,215764,243888,8.846265152199999,-0.2021935097,4.1419759206,560
93664,215800,243855,8.846265152199999,-0.2021935097,4.1419759206,561
93688,215785,243839,8.846265152199999,-0.2021935097,4.1419759206,562
93718,215796,243849,8.846265152199999,-0.2021935097,4.1419759206,563
93742,215801,243838,8.876175434699999,-0.19381863059999999,3.9828532177,564
93803,215769,243885,8.876175434699999,-0.19381863059999999,3.9828532177,565
93863,215787,243819,8.876175434699999,-0.19381863059999999,3.9828532177,566
93957,215804,243820,8.876175434699999,-0.19381863059999999,3.9828532177,567
94006,215797,243802,8.876175434699999,-0.19381863059999999,3.9828532177,568
94075,215822,243811,8.876175434699999,-0.19381863059999999,3.9828532177,569
94148,215836,243807,8.876175434699999,-0.19381863059999999,3.9828532177,570
94243,215821,243867,8.876175434699999,-0.19381863059999999,3.9828532177,571
94297,215834,243813,8.876175434699999,-0.19381863059999999,3.9828532177,572
94340,215794,243749,8.876175434699999,-0.19381863059999999,3.9828532177,573
94347,215791,243739,8.876175434699999,-0.19381863059999999,3.9828532177,574
94110,215688,243709,8.876175434699999,-0.19381863059999999,3.9828532177,575
93714,215618,243636,8.876175434699999,-0.19381863059999999,3.9828532177,576
93411,215626,243646,8.876175434699999,-0.19381863059999999,3.9828532177,577
93282,215627,243645,8.876175434699999,-0.19381863059999999,3.9828532177,578
93303,215664,243725,8.876175434699999,-0.19381863059999999,3.9828532177,579
93387,215760,243737,8.876175434699999,-0.19381863059999999,3.9828532177,580
93518,215733,243779,8.876175434699999,-0.19381863059999999,3.9828532177,581
93669,215776,243799,8.876175434699999,-0.19381863059999999,3.9828532177,582
93786,215783,243777,8.876175434699999,-0.19381863059999999,3.9828532177,583
93861,215789,243726,8.876175434699999,-0.19381863059999999,3.9828532177,584
93892,215764,243728,8.876175434699999,-0.19381863059999999,3.9828532177,585
93923,215773,243723,8.876175434699999,-0.19381863059999999,3.9828532177,586
93937,215770,243733,8.876175434699999,-0.19381863059999999,3.9828532177,587
93968,215755,243699,8.876175434699999,-0.19381863059999999,3.9828532177,588
94021,215773,243712,8.876175434699999,-0.19381863059999999,3.9828532177,589
94085,215794,243703,8.876175434699999,-0.19381863059999999,3.9828532177,590
94159,215817,243653,8.876175434699999,-0.19381863059999999,3.9828532177,591
94210,215789,243660,8.876175434699999,-0.19381863059999999,3.9828532177,592
94279,215795,243670,8.876175434699999,-0.19381863059999999,3.9828532177,593
94358,215817,243689,8.876175434699999,-0.19381863059999999,3.9828532177,594
94433,215763,243675,8.876175434699999,-0.19381863059999999,3.9828532177,595
94468,215800,243665,8.876175434699999,-0.19381863059999999,3.9828532177,596
94506,215778,243688,8.876175434699999,-0.19381863059999999,3.9828532177,597
94348,215730,243591,8.876175434699999,-0.19381863059999999,3.9828532177,598
94017,215640,243527,8.876175434699999,-0.19381863059999999,3.9828532177,599
93684,215618,243570,8.876175434699999,-0.19381863059999999,3.9828532177,600
93532,215678,243592,8.876175434699999,-0.19381863059999999,3.9828532177,601
93510,215712,243655,8.876175434699999,-0.19381863059999999,3.9828532177,602
93592,215725,243645,8.876175434699999,-0.19381863059999999,3.9828532177,603
93701,215784,243649,8.876175434699999,-0.19381863059999999,3.9828532177,604
93842,215822,243632,8.876175434699999,-0.19381863059999999,3.9828532177,605
93759,215836,243463,8.73380249,-0.25363919560000003,4.0713876539,606
93804,215778,243476,8.73380249,-0.25363919560000003,4.0713876539,607
93857,215811,243439,8.73380249,-0.25363919560000003,4.0713876539,608
93920,215837,243444,8.73380249,-0.25363919560000003,4.0713876539,609
93957,215827,243442,8.73380249,-0.25363919560000003,4.0713876539,610
93999,215801,243412,8.73380249,-0.25363919560000003,4.0713876539,611
94066,215819,243372,8.73380249,-0.25363919560000003,4.0713876539,612
94014,215750,243340,8.73380249,-0.25363919560000003,4.0713876539,613
93724,215685,243315,8.73380249,-0.25363919560000003,4.0713876539,614
93259,215601,243279,8.73380249,-0.25363919560000003,4.0713876539,615
92926,215599,243278,8.73380249,-0.25363919560000003,4.0713876539,616
92790,215610,243325,8.73380249,-0.25363919560000003,4.0713876539,617
92777,215641,243359,8.73380249,-0.25363919560000003,4.0713876539,618
92826,215669,243383,8.73380249,-0.25363919560000003,4.0713876539,619
92958,215748,243424,8.73380249,-0.25363919560000003,4.0713876539,620
93092,215738,243462,8.73380249,-0.25363919560000003,4.0713876539,621
93218,215785,243430,8.73380249,-0.25363919560000003,4.0713876539,622
93295,215774,243438,8.73380249,-0.25363919560000003,4.0713876539,623
93328,215788,243399,8.73380249,-0.25363919560000003,4.0713876539,624
93377,215737,243376,8.73380249,-0.25363919560000003,4.0713876539,625
93411,215760,243419,8.73380249,-0.25363919560000003,4.0713876539,626
93443,215741,243408,8.73380249,-0.25363919560000003,4.0713876539,627
93485,215754,243405,8.73380249,-0.25363919560000003,4.0713876539,628
93521,215748,243336,8.73380249,-0.25363919560000003,4.0713876539,629
93594,215721,243324,8.73380249,-0.25363919560000003,4.0713876539,630
93653,215742,243359,8.73380249,-0.25363919560000003,4.0713876539,631
93720,215778,243347,8.73380249,-0.25363919560000003,4.0713876539,632
93792,215794,243358,8.73380249,-0.25363919560000003,4.0713876539,633
93843,215719,243316,8.73380249,-0.25363919560000003,4.0713876539,634
93882,215763,243280,8.73380249,-0.25363919560000003,4.0713876539,635
93763,215681,243245,8.73380249,-0.25363919560000003,4.0713876539,636
93365,215602,243221,8.73380249,-0.25363919560000003,4.0713876539,637
92966,215559,243162,8.73380249,-0.25363919560000003,4.0713876539,638
92733,215558,243233,8.73380249,-0.25363919560000003,4.0713876539,639
92693,215607,243249,8.73380249,-0.25363919560000003,4.0713876539,640
92721,215648,243327,8.73380249,-0.25363919560000003,4.0713876539,641
92843,215714,243361,8.73380249,-0.25363919560000003,4.0713876539,642
93000,215739,243315,8.73380249,-0.25363919560000003,4.0713876539,643
93145,215744,243364,8.73380249,-0.25363919560000003,4.0713876539,644
93252,215743,243325,8.73380249,-0.25363919560000003,4.0713876539,645
93320,215738,243339,8.73380249,-0.25363919560000003,4.0713876539,646
93337,215687,243313,8.73380249,-0.25363919560000003,4.0713876539,647
92830,215589,243253,8.8031943454,-0.2009970984,4.2819560427,648
92956,215642,243298,8.8031943454,-0.2009970984,4.2819560427,649
93114,215710,243293,8.8031943454,-0.2009970984,4.2819560427,650
93233,215709,243321,8.8031943454,-0.2009970984,4.2819560427,651
93334,215697,243306,8.8031943454,-0.2009970984,4.2819560427,652
93392,215682,243307,8.8031943454,-0.2009970984,4.2819560427,653
93429,215682,243275,8.8031943454,-0.2009970984,4.2819560427,654
93458,215673,243231,8.8031943454,-0.2009970984,4.2819560427,655
93501,215662,243267,8.8031943454,-0.2009970984,4.2819560427,656
93539,215687,243299,8.8031943454,-0.2009970984,4.2819560427,657
93588,215653,243253,8.8031943454,-0.2009970984,4.2819560427,658
93645,215717,243214,8.8031943454,-0.2009970984,4.2819560427,659
93711,215673,243244,8.8031943454,-0.2009970984,4.2819560427,660
93778,215665,243234,8.8031943454,-0.2009970984,4.2819560427,661
93844,215676,243196,8.8031943454,-0.2009970984,4.2819560427,662
93909,215745,243280,8.8031943454,-0.2009970984,4.2819560427,663
93986,215661,243220,8.8031943454,-0.2009970984,4.2819560427,664
94005,215637,243203,8.8031943454,-0.2009970984,4.2819560427,665
93737,215564,243138,8.8031943454,-0.2009970984,4.2819560427,666
93328,215504,243143,8.8031943454,-0.2009970984,4.2819560427,667
93045,215539,243124,8.8031943454,-0.2009970984,4.2819560427,668
92921,215534,243175,8.8031943454,-0.2009970984,4.2819560427,669
92928,215603,243206,8.8031943454,-0.2009970984,4.2819560427,670
93053,215645,243239,8.8031943454,-0.2009970984,4.2819560427,671
93171,215625,243246,8.8031943454,-0.2009970984,4.2819560427,672
93333,215693,243285,8.8031943454,-0.2009970984,4.2819560427,673
93458,215698,243310,8.8031943454,-0.2009970984,4.2819560427,674
93508,215639,243305,8.8031943454,-0.2009970984,4.2819560427,675
93551,215653,243273,8.8031943454,-0.2009970984,4.2819560427,676
93584,215670,243229,8.8031943454,-0.2009970984,4.2819560427,677
93591,215684,243281,8.8031943454,-0.2009970984,4.2819560427,678
93639,215664,243247,8.8031943454,-0.2009970984,4.2819560427,679
93696,215624,243256,8.8031943454,-0.2009970984,4.2819560427,680
93745,215675,243238,8.8031943454,-0.2009970984,4.2819560427,681
93803,215714,243274,8.8031943454,-0.2009970984,4.2819560427,682
93853,215681,243310,8.8031943454,-0.2009970984,4.2819560427,683
93940,215690,243239,8.8031943454,-0.2009970984,4.2819560427,684
94021,215725,243255,8.8031943454,-0.2009970984,4.2819560427,685
94059,215666,243259,8.8031943454,-0.2009970984,4.2819560427,686
94016,215596,243211,8.8031943454,-0.2009970984,4.2819560427,687
93688,215514,243184,8.8031943454,-0.2009970984,4.2819560427,688
93285,215495,243167,8.8031943454,-0.2009970984,4.2819560427,689
92716,215431,243224,8.7062850301,-0.24646072779999997,4.1778682596,690
92483,215463,243311,8.7062850301,-0.24646072779999997,4.1778682596,691
92431,215496,243337,8.7062850301,-0.24646072779999997,4.1778682596,692
92483,215547,243389,8.7062850301,-0.24646072779999997,4.1778682596,693
92614,215597,243434,8.7062850301,-0.24646072779999997,4.1778682596,694
92757,215609,243508,8.7062850301,-0.24646072779999997,4.1778682596,695
92905,215680,243504,8.7062850301,-0.24646072779999997,4.1778682596,696
93040,215641,243501,8.7062850301,-0.24646072779999997,4.1778682596,697
93112,215626,243461,8.7062850301,-0.24646072779999997,4.1778682596,698
93142,215619,243496,8.7062850301,-0.24646072779999997,4.1778682596,699
93179,215603,243470,8.7062850301,-0.24646072779999997,4.1778682596,700
93230,215605,243467,8.7062850301,-0.24646072779999997,4.1778682596,701
93286,215637,243477,8.7062850301,-0.24646072779999997,4.1778682596,702
93327,215628,243485,8.7062850301,-0.24646072779999997,4.1778682596,703
93392,215641,243497,8.7062850301,-0.24646072779999997,4.1778682596,704
93493,215659,243491,8.7062850301,-0.24646072779999997,4.1778682596,705
93564,215643,243504,8.7062850301,-0.24646072779999997,4.1778682596,706
93619,215580,243498,8.7062850301,-0.24646072779999997,4.1778682596,707
93683,215649,243417,8.7062850301,-0.24646072779999997,4.1778682596,708
93741,215661,243458,8.7062850301,-0.24646072779999997,4.1778682596,709
93726,215573,243435,8.7062850301,-0.24646072779999997,4.1778682596,710
93382,215535,243375,8.7062850301,-0.24646072779999997,4.1778682596,711
92951,215450,243369,8.7062850301,-0.24646072779999997,4.1778682596,712
92682,215449,243349,8.7062850301,-0.24646072779999997,4.1778682596,713
92596,215492,243454,8.7062850301,-0.24646072779999997,4.1778682596,714
92640,215529,243511,8.7062850301,-0.24646072779999997,4.1778682596,715
92761,215554,243491,8.7062850301,-0.24646072779999997,4.1778682596,716
92900,215622,243575,8.7062850301,-0.24646072779999997,4.1778682596,717
93067,215597,243578,8.7062850301,-0.24646072779999997,4.1778682596,718
93202,215634,243629,8.7062850301,-0.24646072779999997,4.1778682596,719
93278,215626,243595,8.7062850301,-0.24646072779999997,4.1778682596,720
93343,215631,243647,8.7062850301,-0.24646072779999997,4.1778682596,721
93372,215653,243587,8.7062850301,-0.24646072779999997,4.1778682596,722
93438,215652,243628,8.7062850301,-0.24646072779999997,4.1778682596,723
93473,215666,243594,8.7062850301,-0.24646072779999997,4.1778682596,724
93553,215664,243638,8.7062850301,-0.24646072779999997,4.1778682596,725
93629,215637,243617,8.7062850301,-0.24646072779999997,4.1778682596,726
93707,215647,243616,8.7062850301,-0.24646072779999997,4.1778682596,727
93878,215690,243659,8.828318982699999,-0.311066938,4.2604206393,728
93965,215666,243617,8.828318982699999,-0.311066938,4.2604206393,729
94051,215671,243597,8.828318982699999,-0.311066938,4.2604206393,730
94091,215647,243603,8.828318982699999,-0.311066938,4.2604206393,731
93972,215605,243532,8.828318982699999,-0.311066938,4.2604206393,732
93592,215505,243518,8.828318982699999,-0.311066938,4.2604206393,733
93255,215484,243547,8.828318982699999,-0.311066938,4.2604206393,734
93114,215496,243564,8.828318982699999,-0.311066938,4.2604206393,735
93097,215555,243619,8.828318982699999,-0.311066938,4.2604206393,736
93197,215598,243647,8.828318982699999,-0.311066938,4.2604206393,737
93356,215610,243729,8.828318982699999,-0.311066938,4.2604206393,738
93551,215681,243802,8.828318982699999,-0.311066938,4.2604206393,739
93702,215724,243754,8.828318982699999,-0.311066938,4.2604206393,740
93799,215725,243739,8.828318982699999,-0.311066938,4.2604206393,741
93857,215666,243723,8.828318982699999,-0.311066938,4.2604206393,742
93878,215656,243701,8.828318982699999,-0.311066938,4.2604206393,743
93907,215642,243699,8.828318982699999,-0.311066938,4.2604206393,744
93970,215659,243672,8.828318982699999,-0.311066938,4.2604206393,745
94046,215696,243692,8.828318982699999,-0.311066938,4.2604206393,746
94109,215653,243695,8.828318982699999,-0.311066938,4.2604206393,747
94178,215670,243709,8.828318982699999,-0.311066938,4.2604206393,748
94241,215717,243729,8.828318982699999,-0.311066938,4.2604206393,749
94321,215712,243724,8.828318982699999,-0.311066938,4.2604206393,750
94438,215705,243753,8.828318982699999,-0.311066938,4.2604206393,751
94486,215664,243665,8.828318982699999,-0.311066938,4.2604206393,752
94539,215677,243713,8.828318982699999,-0.311066938,4.2604206393,753
94471,215657,243672,8.828318982699999,-0.311066938,4.2604206393,754
94172,215512,243606,8.828318982699999,-0.311066938,4.2604206393,755
93799,215517,243633,8.828318982699999,-0.311066938,4.2604206393,756
93606,215547,243632,8.828318982699999,-0.311066938,4.2604206393,757
93601,215594,243653,8.828318982699999,-0.311066938,4.2604206393,758
93660,215642,243699,8.828318982699999,-0.311066938,4.2604206393,759
93812,215685,243814,8.828318982699999,-0.311066938,4.2604206393,760
93983,215715,243847,8.828318982699999,-0.311066938,4.2604206393,761
94138,215758,243806,8.828318982699999,-0.311066938,4.2604206393,762
94244,215765,243798,8.828318982699999,-0.311066938,4.2604206393,763
94298,215737,243846,8.828318982699999,-0.311066938,4.2604206393,764
94326,215763,243840,8.828318982699999,-0.311066938,4.2604206393,765
94345,215753,243834,8.828318982699999,-0.311066938,4.2604206393,766
94379,215739,243828,8.828318982699999,-0.311066938,4.2604206393,767
94412,215713,243823,8.828318982699999,-0.311066938,4.2604206393,768
94456,215768,243755,8.828318982699999,-0.311066938,4.2604206393,769
93604,215660,243817,8.8091764019,-0.3337987527,4.0833517669,770
93600,215719,243841,8.8091764019,-0.3337987527,4.0833517669,771
93690,215745,243863,8.8091764019,-0.3337987527,4.0833517669,772
93838,215803,243880,8.8091764019,-0.3337987527,4.0833517669,773
93994,215813,243946,8.8091764019,-0.3337987527,4.0833517669,774
94091,215851,243970,8.8091764019,-0.3337987527,4.0833517669,775
94178,215850,243922,8.8091764019,-0.3337987527,4.0833517669,776
94186,215801,243912,8.8091764019,-0.3337987527,4.0833517669,777
94203,215780,243933,8.8091764019,-0.3337987527,4.0833517669,778
94228,215809,243906,8.873782612100001,-0.191425808,4.1300118076,779
94249,215779,243901,8.873782612100001,-0.191425808,4.1300118076,780
94314,215777,243903,8.873782612100001,-0.191425808,4.1300118076,781
94362,215810,243905,8.873782612100001,-0.191425808,4.1300118076,782
94413,215793,243903,8.873782612100001,-0.191425808,4.1300118076,783
94465,215809,243935,8.873782612100001,-0.191425808,4.1300118076,784
94507,215832,243863,8.873782612100001,-0.191425808,4.1300118076,785
94567,215810,243879,8.873782612100001,-0.191425808,4.1300118076,786
94612,215781,243931,8.873782612100001,-0.191425808,4.1300118076,787
94463,215730,243810,8.873782612100001,-0.191425808,4.1300118076,788
94049,215607,243715,8.918049830200001,-0.2967100024,4.1910287839,789
93579,215580,243790,8.918049830200001,-0.2967100024,4.1910287839,790
93317,215585,243785,8.918049830200001,-0.2967100024,4.1910287839,791
93219,215606,243812,8.918049830200001,-0.2967100024,4.1910287839,792
93255,215666,243872,8.918049830200001,-0.2967100024,4.1910287839,793
93368,215732,243917,8.918049830200001,-0.2967100024,4.1910287839,794
93496,215778,243979,8.793623055,-0.1160518961,4.1730826144,795
93622,215785,243969,8.793623055,-0.1160518961,4.1730826144,796
93729,215780,243996,8.9120677737,-0.1746760498,4.1814574935,797
93779,215762,243961,8.8343010392,-0.24287149389999999,4.0893338234,798
93787,215724,243917,8.916853418899999,-0.25363919560000003,4.2891345105,799
93793,215773,243945,8.8343010392,-0.1734796385,4.146761565799999,800
93819,215756,243952,8.764909183799999,-0.2177468566,4.2006000743,801
93855,215760,243922,8.7254276109,-0.2835494781,4.0654055974,802
93924,215745,243923,8.7517486595,-0.044267218100000005,4.0893338234,803
93954,215727,243928,8.7888374098,-0.2009970984,4.0342989036,804
94008,215762,243922,8.7888374098,-0.2009970984,4.0342989036,805
94070,215763,243928,8.7888374098,-0.2009970984,4.0342989036,806
94154,215756,243898,8.7888374098,-0.2009970984,4.0342989036,807
94183,215786,243888,8.707481441399999,-0.2775674216,4.0570307183,808
94288,215777,243923,8.9096749511,-0.2297109696,4.0127635002,809
94281,215754,243914,8.9001036607,-0.16271193679999998,4.2843488653,810
94080,215651,243855,8.7625163612,-0.179461695,4.1898323726,811
93627,215534,243792,8.930013943199999,-0.1363908882,4.1048871703,812
93226,215549,243756,8.8343010392,-0.17706887240000002,4.043870194,813
93028,215527,243804,8.873782612100001,-0.0610169763,4.1862431387,814
93005,215604,243887,8.877371846,-0.2069791549,4.2209390664,815
93041,215667,243940,8.7960158776,-0.0299102825,3.9984065645999998,816
93195,215707,243952,8.8271225714,-0.21296121140000002,4.0510486617999995,817
93326,215740,243977,8.926424709299999,-0.11246266220000001,4.1982072517,818
93452,215747,243964,8.793623055,-0.09092725880000001,4.115654872,819
93570,215760,244003,8.8522472087,-0.1866401628,4.0247276132000005,820
93605,215778,243957,8.872586200799999,-0.2177468566,4.1838503161,821
93613,215785,243945,8.9886380969,-0.1591227029,4.1252261624,822
93650,215753,243976,8.916853418899999,-0.1519442351,4.1611185014,823
93659,215713,243981,8.8438723296,-0.20578274359999998,4.0701912426,824
93685,215727,243942,8.9072821285,-0.1387837108,4.1324046302,825
93745,215750,243954,8.8618184991,-0.215354034,4.1455651545,826
93782,215754,243883,8.8618184991,-0.215354034,4.1455651545,827
93875,215750,243961,8.8618184991,-0.215354034,4.1455651545,828
93939,215731,243969,8.8618184991,-0.215354034,4.1455651545,829
93961,215737,243916,8.8618184991,-0.215354034,4.1455651545,830
94017,215740,243935,8.8618184991,-0.215354034,4.1455651545,831
94089,215734,243928,8.8618184991,-0.215354034,4.1455651545,832
94130,215709,243934,8.8618184991,-0.215354034,4.1455651545,833
94083,215703,243872,8.8618184991,-0.215354034,4.1455651545,834
93724,215573,243885,8.8618184991,-0.215354034,4.1455651545,835
93269,215528,243848,8.8618184991,-0.215354034,4.1455651545,836
93042,215534,243895,8.8618184991,-0.215354034,4.1455651545,837
92967,215570,243873,8.8618184991,-0.215354034,4.1455651545,838
93000,215596,243917,8.8618184991,-0.215354034,4.1455651545,839
93135,215643,244007,8.8618184991,-0.215354034,4.1455651545,840
93308,215685,244012,8.8618184991,-0.215354034,4.1455651545,841
93443,215703,243996,8.8618184991,-0.215354034,4.1455651545,842
93555,215727,244019,8.8618184991,-0.215354034,4.1455651545,843
93606,215725,243986,8.8618184991,-0.215354034,4.1455651545,844
93653,215713,243959,8.8618184991,-0.215354034,4.1455651545,845
93674,215667,243969,8.8618184991,-0.215354034,4.1455651545,846
93703,215707,243966,8.8618184991,-0.215354034,4.1455651545,847
93722,215714,243987,8.8618184991,-0.215354034,4.1455651545,848
93782,215702,243973,8.8618184991,-0.215354034,4.1455651545,849
93854,215709,244010,8.8618184991,-0.215354034,4.1455651545,850
93921,215716,243976,8.8618184991,-0.215354034,4.1455651545,851
93980,215695,243933,8.8618184991,-0.215354034,4.1455651545,852
93971,215703,244006,8.8031943454,-0.2775674216,4.1563328562,853
94134,215744,243971,8.8031943454,-0.2775674216,4.1563328562,854
94212,215770,243966,8.8031943454,-0.2775674216,4.1563328562,855
94268,215735,243923,8.8031943454,-0.2775674216,4.1563328562,856
94266,215704,243902,8.8031943454,-0.2775674216,4.1563328562,857
94013,215601,243851,8.8031943454,-0.2775674216,4.1563328562,858
93601,215514,243814,8.8031943454,-0.2775674216,4.1563328562,859
93285,215509,243869,8.8031943454,-0.2775674216,4.1563328562,860
93206,215560,243894,8.8031943454,-0.2775674216,4.1563328562,861
93222,215615,243920,8.8031943454,-0.2775674216,4.1563328562,862
93328,215661,243988,8.8031943454,-0.2775674216,4.1563328562,863
93477,215702,244034,8.8031943454,-0.2775674216,4.1563328562,864
93647,215688,244061,8.8031943454,-0.2775674216,4.1563328562,865
93777,215732,244055,8.8031943454,-0.2775674216,4.1563328562,866
93845,215694,244025,8.8031943454,-0.2775674216,4.1563328562,867
93874,215699,243969,8.8031943454,-0.2775674216,4.1563328562,868
93920,215734,243984,8.8031943454,-0.2775674216,4.1563328562,869
93924,215714,243992,8.8031943454,-0.2775674216,4.1563328562,870
93980,215644,243974,8.8031943454,-0.2775674216,4.1563328562,871
94028,215704,244011,8.8031943454,-0.2775674216,4.1563328562,872
94094,215715,243951,8.8031943454,-0.2775674216,4.1563328562,873
94167,215708,243988,8.8031943454,-0.2775674216,4.1563328562,874
94220,215725,243971,8.8031943454,-0.2775674216,4.1563328562,875
94300,215755,244010,8.8031943454,-0.2775674216,4.1563328562,876
94390,215762,244032,8.8031943454,-0.2775674216,4.1563328562,877
94452,215775,244002,8.8031943454,-0.2775674216,4.1563328562,878
94499,215760,243954,8.8031943454,-0.2775674216,4.1563328562,879
94418,215725,243980,8.8031943454,-0.2775674216,4.1563328562,880
94051,215603,243911,8.8031943454,-0.2775674216,4.1563328562,881
93626,215585,243923,8.8031943454,-0.2775674216,4.1563328562,882
93388,215563,243928,8.8031943454,-0.2775674216,4.1563328562,883
93326,215589,243888,8.8031943454,-0.2775674216,4.1563328562,884
93357,215642,244030,8.8031943454,-0.2775674216,4.1563328562,885
93488,215724,244080,8.8031943454,-0.2775674216,4.1563328562,886
93651,215725,244044,8.8031943454,-0.2775674216,4.1563328562,887
93793,215780,244077,8.8031943454,-0.2775674216,4.1563328562,888
93855,215798,244054,8.8031943454,-0.2775674216,4.1563328562,889
93906,215746,244040,8.8031943454,-0.2775674216,4.1563328562,890
93913,215748,244058,8.8031943454,-0.2775674216,4.1563328562,891
93917,215761,244097,8.8031943454,-0.2775674216,4.1563328562,892
93925,215752,244048,8.8031943454,-0.2775674216,4.1563328562,893
93984,215779,244014,8.8031943454,-0.2775674216,4.1563328562,894
93346,215732,244057,8.9084785398,-0.2321037922,4.127618985,895
93412,215763,244081,8.9084785398,-0.2321037922,4.127618985,896
93448,215694,244023,8.9084785398,-0.2321037922,4.127618985,897
93448,215737,244053,8.9084785398,-0.2321037922,4.127618985,898
93490,215719,244051,8.9084785398,-0.2321037922,4.127618985,899
93487,215733,244054,8.9084785398,-0.2321037922,4.127618985,900
93538,215676,244070,8.9084785398,-0.2321037922,4.127618985,901
93593,215689,243993,8.9084785398,-0.2321037922,4.127618985,902
93630,215687,244039,8.9084785398,-0.2321037922,4.127618985,903
93708,215752,244072,8.9084785398,-0.2321037922,4.127618985,904
93764,215756,244014,8.9084785398,-0.2321037922,4.127618985,905
93823,215693,244041,8.9084785398,-0.2321037922,4.127618985,906
93890,215718,243967,8.9084785398,-0.2321037922,4.127618985,907
93888,215666,243945,8.9084785398,-0.2321037922,4.127618985,908
93626,215605,243906,8.9084785398,-0.2321037922,4.127618985,909
93136,215501,243894,8.9084785398,-0.2321037922,4.127618985,910
92759,215446,243858,8.9084785398,-0.2321037922,4.127618985,911
92588,215503,243947,8.9084785398,-0.2321037922,4.127618985,912
92582,215525,243988,8.9084785398,-0.2321037922,4.127618985,913
92647,215593,243988,8.9084785398,-0.2321037922,4.127618985,914
92765,215627,244078,8.9084785398,-0.2321037922,4.127618985,915
92929,215660,244033,8.9084785398,-0.2321037922,4.127618985,916
93071,215713,244065,8.9084785398,-0.2321037922,4.127618985,917
93133,215656,243988,8.9084785398,-0.2321037922,4.127618985,918
93153,215661,244021,8.9084785398,-0.2321037922,4.127618985,919
93172,215645,244036,8.9084785398,-0.2321037922,4.127618985,920
93206,215645,243971,8.9084785398,-0.2321037922,4.127618985,921
93268,215683,243972,8.9084785398,-0.2321037922,4.127618985,922
93296,215657,244079,8.9084785398,-0.2321037922,4.127618985,923
93376,215657,243995,8.9084785398,-0.2321037922,4.127618985,924
93454,215678,244023,8.9084785398,-0.2321037922,4.127618985,925
93489,215675,243994,8.9084785398,-0.2321037922,4.127618985,926
93573,215631,243991,8.9084785398,-0.2321037922,4.127618985,927
93630,215714,244007,8.9084785398,-0.2321037922,4.127618985,928
93700,215693,243988,8.9084785398,-0.2321037922,4.127618985,929
93748,215663,243962,8.9084785398,-0.2321037922,4.127618985,930
93713,215593,243919,8.9084785398,-0.2321037922,4.127618985,931
93434,215525,243871,8.9084785398,-0.2321037922,4.127618985,932
92980,215453,243879,8.9084785398,-0.2321037922,4.127618985,933
92722,215501,243837,8.9084785398,-0.2321037922,4.127618985,934
92615,215480,243922,8.9084785398,-0.2321037922,4.127618985,935
92656,215531,243939,8.9084785398,-0.2321037922,4.127618985,936
93129,215598,243757,8.6991065623,-0.227318147,4.2317067681000005,937
93166,215564,243675,8.6991065623,-0.227318147,4.2317067681000005,938
93197,215591,243649,8.6991065623,-0.227318147,4.2317067681000005,939
93254,215564,243676,8.6991065623,-0.227318147,4.2317067681000005,940
93319,215640,243718,8.6991065623,-0.227318147,4.2317067681000005,941
93364,215584,243677,8.6991065623,-0.227318147,4.2317067681000005,942
93431,215609,243683,8.6991065623,-0.227318147,4.2317067681000005,943
93437,215565,243607,8.6991065623,-0.227318147,4.2317067681000005,944
93185,215475,243579,8.6991065623,-0.227318147,4.2317067681000005,945
92697,215374,243525,8.6991065623,-0.227318147,4.2317067681000005,946
92295,215363,243503,8.6991065623,-0.227318147,4.2317067681000005,947
92064,215380,243546,8.6991065623,-0.227318147,4.2317067681000005,948
91994,215407,243526,8.6991065623,-0.227318147,4.2317067681000005,949
92067,215452,243546,8.6991065623,-0.227318147,4.2317067681000005,950
92147,215475,243636,8.6991065623,-0.227318147,4.2317067681000005,951
92290,215529,243583,8.6991065623,-0.227318147,4.2317067681000005,952
92396,215479,243567,8.6991065623,-0.227318147,4.2317067681000005,953
92488,215521,243626,8.6991065623,-0.227318147,4.2317067681000005,954
92489,215496,243641,8.6991065623,-0.227318147,4.2317067681000005,955
92513,215504,243547,8.6991065623,-0.227318147,4.2317067681000005,956
92522,215493,243626,8.6991065623,-0.227318147,4.2317067681000005,957
92560,215478,243568,8.6991065623,-0.227318147,4.2317067681000005,958
92593,215515,243574,8.6991065623,-0.227318147,4.2317067681000005,959
92643,215492,243574,8.6991065623,-0.227318147,4.2317067681000005,960
92710,215535,243564,8.6991065623,-0.227318147,4.2317067681000005,961
92755,215500,243571,8.6991065623,-0.227318147,4.2317067681000005,962
92834,215510,243537,8.6991065623,-0.227318147,4.2317067681000005,963
92876,215532,243486,8.6991065623,-0.227318147,4.2317067681000005,964
92925,215505,243514,8.6991065623,-0.227318147,4.2317067681000005,965
92909,215463,243525,8.6991065623,-0.227318147,4.2317067681000005,966
92575,215391,243447,8.6991065623,-0.227318147,4.2317067681000005,967
92081,215281,243383,8.6991065623,-0.227318147,4.2317067681000005,968
91773,215281,243387,8.6991065623,-0.227318147,4.2317067681000005,969
91640,215303,243449,8.6991065623,-0.227318147,4.2317067681000005,970
91661,215345,243439,8.6991065623,-0.227318147,4.2317067681000005,971
91742,215419,243451,8.6991065623,-0.227318147,4.2317067681000005,972
91898,215443,243525,8.6991065623,-0.227318147,4.2317067681000005,973
92042,215431,243559,8.6991065623,-0.227318147,4.2317067681000005,974
92161,215485,243537,8.8689969669,-0.2775674216,4.127618985,975
92231,215474,243521,8.8689969669,-0.2775674216,4.127618985,976
92293,215476,243475,8.8689969669,-0.2775674216,4.127618985,977
92296,215433,243505,8.8689969669,-0.2775674216,4.127618985,978
92328,215440,243478,8.8689969669,-0.2775674216,4.127618985,979
92379,215432,243492,8.8689969669,-0.2775674216,4.127618985,980
92458,215407,243536,8.8689969669,-0.2775674216,4.127618985,981
92494,215441,243518,8.8689969669,-0.2775674216,4.127618985,982
92556,215473,243463,8.8689969669,-0.2775674216,4.127618985,983
92636,215458,243452,8.8689969669,-0.2775674216,4.127618985,984
92707,215448,243426,8.8689969669,-0.2775674216,4.127618985,985
92777,215462,243464,8.8689969669,-0.2775674216,4.127618985,986
92834,215491,243450,8.8689969669,-0.2775674216,4.127618985,987
92792,215433,243424,8.8689969669,-0.2775674216,4.127618985,988
92457,215296,243345,8.8689969669,-0.2775674216,4.127618985,989
92035,215279,243343,8.8689969669,-0.2775674216,4.127618985,990
91799,215279,243297,8.8689969669,-0.2775674216,4.127618985,991
91746,215301,243373,8.8689969669,-0.2775674216,4.127618985,992
91805,215298,243440,8.8689969669,-0.2775674216,4.127618985,993
91928,215419,243395,8.8689969669,-0.2775674216,4.127618985,994
92088,215412,243444,8.8689969669,-0.2775674216,4.127618985,995
92235,215478,243516,8.8689969669,-0.2775674216,4.127618985,996
92338,215413,243456,8.8689969669,-0.2775674216,4.127618985,997
92384,215407,243449,8.8689969669,-0.2775674216,4.127618985,998
92427,215415,243445,8.8689969669,-0.2775674216,4.127618985,999
92438,215378,243402,8.8689969669,-0.2775674216,4.127618985,1000
92521,215402,243411,8.8354974505,-0.2703889538,4.0163527341,1001
92527,215391,243382,8.8354974505,-0.2703889538,4.0163527341,1002
92602,215377,243427,8.8354974505,-0.2703889538,4.0163527341,1003
92653,215413,243326,8.8354974505,-0.2703889538,4.0163527341,1004
92729,215435,243399,8.8354974505,-0.2703889538,4.0163527341,1005
92804,215467,243338,8.7888374098,-0.2775674216,4.0749768878,1006
92890,215457,243416,8.7792661194,-0.24646072779999997,4.0223347905999995,1007
92956,215406,243327,8.8965144268,-0.2763710103,4.2400816472,1008
92958,215385,243366,8.817551281,-0.3206382284,4.1347974528,1009
92648,215301,243270,8.8845503138,-0.2165504453,4.0809589443,1010
92241,215215,243276,8.663214223299999,-0.382851616,4.0510486617999995,1011
92001,215239,243278,8.7625163612,-0.3038884702,4.2532421715,1012
91934,215284,243291,8.7708912403,-0.4570291166,4.1623149127,1013
91996,215318,243327,8.6799639815,-0.3780659708,4.0462630166,1014
92132,215348,243380,8.8797646686,-0.2524427843,4.0283168471,1015
92261,215426,243374,8.8713897895,-0.1926222193,4.1443687432,1016
92408,215435,243369,8.889335959,-0.2775674216,4.091726646,1017
92509,215428,243342,8.8941216042,-0.3302095188,3.9996029759000002,1018
92558,215428,243385,8.859425676499999,-0.3565305674,4.1575292675,1019
92548,215399,243357,8.8390866844,-0.3038884702,4.151547211,1020
92558,215418,243328,8.9144605963,-0.36370903520000003,4.1300118076,1021
92590,215476,243347,8.8797646686,-0.2021935097,4.1383866867,1022
92646,215456,243310,8.7840517646,-0.3780659708,4.163511324,1023
92687,215424,243315,8.8307118053,-0.3122633493,4.242474469799999,1024
92771,215448,243343,8.8307118053,-0.3122633493,4.242474469799999,1025
92851,215482,243326,8.8307118053,-0.3122633493,4.242474469799999,1026
92909,215481,243309,8.8307118053,-0.3122633493,4.242474469799999,1027
92989,215461,243335,8.8307118053,-0.3122633493,4.242474469799999,1028
92973,215425,243269,8.8307118053,-0.3122633493,4.242474469799999,1029
92714,215327,243236,8.8307118053,-0.3122633493,4.242474469799999,1030
92252,215287,243196,8.8307118053,-0.3122633493,4.242474469799999,1031
91924,215227,243184,8.8307118053,-0.3122633493,4.242474469799999,1032
91766,215282,243212,8.8307118053,-0.3122633493,4.242474469799999,1033
91751,215294,243246,8.8307118053,-0.3122633493,4.242474469799999,1034
91821,215374,243293,8.8307118053,-0.3122633493,4.242474469799999,1035
91951,215434,243330,8.8307118053,-0.3122633493,4.242474469799999,1036
92083,215420,243350,8.8307118053,-0.3122633493,4.242474469799999,1037
92224,215422,243307,8.8307118053,-0.3122633493,4.242474469799999,1038
92266,215421,243347,8.8307118053,-0.3122633493,4.242474469799999,1039
92309,215452,243369,8.8307118053,-0.3122633493,4.242474469799999,1040
92300,215432,243317,8.8307118053,-0.3122633493,4.242474469799999,1041
92333,215424,243367,8.8307118053,-0.3122633493,4.242474469799999,1042
92374,215417,243314,8.8307118053,-0.3122633493,4.242474469799999,1043
92409,215403,243293,8.8307118053,-0.3122633493,4.242474469799999,1044
92454,215418,243325,8.8307118053,-0.3122633493,4.242474469799999,1045
92523,215412,243284,8.8678005556,-0.16749758199999998,4.1048871703,1046
92576,215429,243278,8.8678005556,-0.16749758199999998,4.1048871703,1047
92630,215455,243290,8.8678005556,-0.16749758199999998,4.1048871703,1048
92715,215408,243235,8.8678005556,-0.16749758199999998,4.1048871703,1049
92643,215361,243257,8.8678005556,-0.16749758199999998,4.1048871703,1050
92282,215254,243115,8.8678005556,-0.16749758199999998,4.1048871703,1051
91806,215205,243133,8.8678005556,-0.16749758199999998,4.1048871703,1052
91483,215224,243162,8.8678005556,-0.16749758199999998,4.1048871703,1053
91350,215255,243139,8.8678005556,-0.16749758199999998,4.1048871703,1054
91365,215233,243159,8.8678005556,-0.16749758199999998,4.1048871703,1055
91445,215301,243222,8.8678005556,-0.16749758199999998,4.1048871703,1056
91587,215323,243296,8.8678005556,-0.16749758199999998,4.1048871703,1057
91741,215375,243296,8.8678005556,-0.16749758199999998,4.1048871703,1058
91855,215388,243296,8.8678005556,-0.16749758199999998,4.1048871703,1059
91911,215371,243266,8.8678005556,-0.16749758199999998,4.1048871703,1060
91934,215370,243281,8.8678005556,-0.16749758199999998,4.1048871703,1061
91967,215358,243232,8.8678005556,-0.16749758199999998,4.1048871703,1062
92001,215344,243219,8.8678005556,-0.16749758199999998,4.1048871703,1063
92015,215341,243223,8.8678005556,-0.16749758199999998,4.1048871703,1064
92093,215328,243229,8.7290168448,-0.1292124204,4.2053857195,1065
92126,215352,243259,8.7290168448,-0.1292124204,4.2053857195,1066
92189,215351,243210,8.7290168448,-0.1292124204,4.2053857195,1067
92270,215372,243187,8.7290168448,-0.1292124204,4.2053857195,1068
92329,215334,243185,8.7290168448,-0.1292124204,4.2053857195,1069
92372,215371,243178,8.7290168448,-0.1292124204,4.2053857195,1070
92423,215316,243162,8.7290168448,-0.1292124204,4.2053857195,1071
92327,215256,243165,8.7290168448,-0.1292124204,4.2053857195,1072
91946,215181,243074,8.7290168448,-0.1292124204,4.2053857195,1073
91490,215130,243077,8.7290168448,-0.1292124204,4.2053857195,1074
91230,215122,243047,8.7290168448,-0.1292124204,4.2053857195,1075
91156,215114,243156,8.7290168448,-0.1292124204,4.2053857195,1076
91181,215204,243157,8.7290168448,-0.1292124204,4.2053857195,1077
91313,215253,243147,8.7290168448,-0.1292124204,4.2053857195,1078
91444,215282,243263,8.7290168448,-0.1292124204,4.2053857195,1079
91602,215305,243232,8.7290168448,-0.1292124204,4.2053857195,1080
91696,215270,243222,8.7290168448,-0.1292124204,4.2053857195,1081
91747,215296,243235,8.7290168448,-0.1292124204,4.2053857195,1082
91767,215256,243245,8.7290168448,-0.1292124204,4.2053857195,1083
91788,215270,243209,8.7290168448,-0.1292124204,4.2053857195,1084
91829,215282,243229,8.7290168448,-0.1292124204,4.2053857195,1085
91896,215274,243180,8.7290168448,-0.1292124204,4.2053857195,1086
91973,215315,243211,8.7290168448,-0.1292124204,4.2053857195,1087
92040,215305,243208,8.7290168448,-0.1292124204,4.2053857195,1088
92110,215278,243193,8.7290168448,-0.1292124204,4.2053857195,1089
92197,215301,243239,8.7290168448,-0.1292124204,4.2053857195,1090
92257,215288,243233,8.8271225714,-0.34097722049999996,4.127618985,1091
92315,215263,243198,8.8271225714,-0.34097722049999996,4.127618985,1092
92387,215275,243238,8.8271225714,-0.34097722049999996,4.127618985,1093
92405,215292,243196,8.8271225714,-0.34097722049999996,4.127618985,1094
92178,215181,243102,8.8271225714,-0.34097722049999996,4.127618985,1095
91722,215097,243051,8.8271225714,-0.34097722049999996,4.127618985,1096
91411,215093,243059,8.8271225714,-0.34097722049999996,4.127618985,1097
91302,215177,243102,8.8271225714,-0.34097722049999996,4.127618985,1098
91326,215179,243140,8.8271225714,-0.34097722049999996,4.127618985,1099
91405,215264,243195,8.8271225714,-0.34097722049999996,4.127618985,1100
91568,215302,243221,8.8271225714,-0.34097722049999996,4.127618985,1101
91722,215289,243209,8.8271225714,-0.34097722049999996,4.127618985,1102
91854,215312,243222,8.8271225714,-0.34097722049999996,4.127618985,1103
91929,215325,243205,8.8271225714,-0.34097722049999996,4.127618985,1104
91976,215250,243175,8.8271225714,-0.34097722049999996,4.127618985,1105
92001,215289,243135,8.8271225714,-0.34097722049999996,4.127618985,1106
92030,215300,243169,8.8271225714,-0.34097722049999996,4.127618985,1107
92061,215261,243157,8.8271225714,-0.34097722049999996,4.127618985,1108
92123,215298,243155,8.8271225714,-0.34097722049999996,4.127618985,1109
92199,215280,243192,8.8271225714,-0.34097722049999996,4.127618985,1110
92274,215310,243157,8.8271225714,-0.34097722049999996,4.127618985,1111
92343,215283,243154,8.8271225714,-0.34097722049999996,4.127618985,1112
92426,215319,243157,8.8271225714,-0.34097722049999996,4.127618985,1113
92503,215337,243200,8.8271225714,-0.34097722049999996,4.127618985,1114
92571,215331,243115,8.8271225714,-0.34097722049999996,4.127618985,1115
92599,215315,243141,8.8271225714,-0.34097722049999996,4.127618985,1116
92457,215200,243073,8.8271225714,-0.34097722049999996,4.127618985,1117
92048,215154,243042,8.8271225714,-0.34097722049999996,4.127618985,1118
91739,215106,243033,8.8271225714,-0.34097722049999996,4.127618985,1119
91576,215109,243052,8.8271225714,-0.34097722049999996,4.127618985,1120
91600,215180,243078,8.8271225714,-0.34097722049999996,4.127618985,1121
91698,215247,243131,8.8271225714,-0.34097722049999996,4.127618985,1122
91857,215289,243140,8.8271225714,-0.34097722049999996,4.127618985,1123
92006,215313,243162,8.8271225714,-0.34097722049999996,4.127618985,1124
92130,215256,243181,8.8271225714,-0.34097722049999996,4.127618985,1125
92208,215287,243196,8.8271225714,-0.34097722049999996,4.127618985,1126
92250,215258,243171,8.8271225714,-0.34097722049999996,4.127618985,1127
92288,215286,243164,8.8271225714,-0.34097722049999996,4.127618985,1128
92313,215254,243127,8.8271225714,-0.34097722049999996,4.127618985,1129
92360,215311,243152,8.8271225714,-0.34097722049999996,4.127618985,1130
92403,215321,243154,8.8271225714,-0.34097722049999996,4.127618985,1131
92467,215320,243119,8.8271225714,-0.34097722049999996,4.127618985,1132
92704,215365,243142,8.8019979341,-0.2560320182,4.1850467274,1133
92743,215383,243094,8.8019979341,-0.2560320182,4.1850467274,1134
92562,215309,243072,8.8019979341,-0.2560320182,4.1850467274,1135
92170,215191,243030,8.8019979341,-0.2560320182,4.1850467274,1136
91810,215200,243032,8.8019979341,-0.2560320182,4.1850467274,1137
91680,215211,243061,8.8019979341,-0.2560320182,4.1850467274,1138
91667,215236,243123,8.8019979341,-0.2560320182,4.1850467274,1139
91750,215292,243120,8.8019979341,-0.2560320182,4.1850467274,1140
91869,215342,243200,8.8019979341,-0.2560320182,4.1850467274,1141
92021,215408,243183,8.8019979341,-0.2560320182,4.1850467274,1142
92141,215399,243214,8.8019979341,-0.2560320182,4.1850467274,1143
92228,215410,243248,8.8019979341,-0.2560320182,4.1850467274,1144
92269,215379,243194,8.8019979341,-0.2560320182,4.1850467274,1145
92283,215384,243162,8.8019979341,-0.2560320182,4.1850467274,1146
92304,215378,243122,8.8019979341,-0.2560320182,4.1850467274,1147
92350,215357,243147,8.8019979341,-0.2560320182,4.1850467274,1148
92413,215384,243183,8.8019979341,-0.2560320182,4.1850467274,1149
92467,215397,243183,8.8019979341,-0.2560320182,4.1850467274,1150
92507,215388,243217,8.8019979341,-0.2560320182,4.1850467274,1151
92583,215398,243173,8.8019979341,-0.2560320182,4.1850467274,1152
92653,215415,243205,8.8019979341,-0.2560320182,4.1850467274,1153
92709,215416,243150,8.8019979341,-0.2560320182,4.1850467274,1154
92751,215389,243178,8.8019979341,-0.2560320182,4.1850467274,1155
92669,215338,243136,8.8019979341,-0.2560320182,4.1850467274,1156
92264,215262,243014,8.8019979341,-0.2560320182,4.1850467274,1157
91817,215179,243009,8.8019979341,-0.2560320182,4.1850467274,1158
91529,215146,243039,8.8019979341,-0.2560320182,4.1850467274,1159
91437,215226,243065,8.8019979341,-0.2560320182,4.1850467274,1160
91440,215268,243109,8.8019979341,-0.2560320182,4.1850467274,1161
91561,215336,243169,8.8019979341,-0.2560320182,4.1850467274,1162
91697,215359,243156,8.8019979341,-0.2560320182,4.1850467274,1163
91845,215388,243186,8.8019979341,-0.2560320182,4.1850467274,1164
91960,215374,243206,8.8019979341,-0.2560320182,4.1850467274,1165
92030,215333,243158,8.8019979341,-0.2560320182,4.1850467274,1166
92057,215338,243139,8.8019979341,-0.2560320182,4.1850467274,1167
92059,215374,243130,8.8019979341,-0.2560320182,4.1850467274,1168
92104,215320,243154,8.8019979341,-0.2560320182,4.1850467274,1169
92143,215320,243082,8.8019979341,-0.2560320182,4.1850467274,1170
92168,215354,243155,8.8127656358,-0.346959277,4.1324046302,1171
92267,215324,243181,8.8127656358,-0.346959277,4.1324046302,1172
92324,215348,243130,8.8127656358,-0.346959277,4.1324046302,1173
92375,215413,243129,8.8127656358,-0.346959277,4.1324046302,1174
92437,215381,243125,8.8127656358,-0.346959277,4.1324046302,1175
92508,215366,243146,8.8127656358,-0.346959277,4.1324046302,1176
92553,215396,243127,8.8127656358,-0.346959277,4.1324046302,1177
92553,215340,243105,8.8127656358,-0.346959277,4.1324046302,1178
92311,215276,242998,8.8127656358,-0.346959277,4.1324046302,1179
91822,215173,242967,8.8127656358,-0.346959277,4.1324046302,1180
91469,215172,243007,8.8127656358,-0.346959277,4.1324046302,1181
91292,215172,243024,8.8127656358,-0.346959277,4.1324046302,1182
91303,215243,243116,8.8127656358,-0.346959277,4.1324046302,1183
91368,215312,243073,8.8127656358,-0.346959277,4.1324046302,1184
91519,215335,243147,8.8127656358,-0.346959277,4.1324046302,1185
91658,215346,243147,8.8127656358,-0.346959277,4.1324046302,1186
91791,215377,243181,8.8127656358,-0.346959277,4.1324046302,1187
91860,215379,243169,8.8127656358,-0.346959277,4.1324046302,1188
91904,215345,243157,8.8127656358,-0.346959277,4.1324046302,1189
91928,215366,243096,8.8127656358,-0.346959277,4.1324046302,1190
91935,215329,243110,8.8127656358,-0.346959277,4.1324046302,1191
91982,215341,243102,8.8127656358,-0.346959277,4.1324046302,1192
92017,215366,243157,8.8127656358,-0.346959277,4.1324046302,1193
92076,215370,243146,8.8127656358,-0.346959277,4.1324046302,1194
92135,215365,243105,8.8127656358,-0.346959277,4.1324046302,1195
92197,215304,243106,8.8127656358,-0.346959277,4.1324046302,1196
92256,215384,243105,8.8127656358,-0.346959277,4.1324046302,1197
92307,215354,243061,8.8127656358,-0.346959277,4.1324046302,1198
92368,215339,243045,8.8127656358,-0.346959277,4.1324046302,1199
92440,215367,243102,8.8127656358,-0.346959277,4.1324046302,1200
92482,215358,243105,8.8127656358,-0.346959277,4.1324046302,1201
92349,215275,243033,8.8127656358,-0.346959277,4.1324046302,1202
91955,215226,242960,8.8127656358,-0.346959277,4.1324046302,1203
91537,215145,243014,8.8127656358,-0.346959277,4.1324046302,1204
91326,215132,242941,8.8127656358,-0.346959277,4.1324046302,1205
91272,215179,243037,8.8127656358,-0.346959277,4.1324046302,1206
91345,215243,243083,8.8127656358,-0.346959277,4.1324046302,1207
91465,215272,243106,8.8127656358,-0.346959277,4.1324046302,1208
91650,215312,243122,8.8127656358,-0.346959277,4.1324046302,1209
91777,215353,243110,8.8127656358,-0.346959277,4.1324046302,1210
91873,215311,243114,8.8127656358,-0.346959277,4.1324046302,1211
91917,215271,243126,8.8127656358,-0.346959277,4.1324046302,1212
92193,215310,243082,8.8043907567,-0.2165504453,4.237688824599999,1213
92248,215339,243088,8.8043907567,-0.2165504453,4.237688824599999,1214
92263,215314,243064,8.8043907567,-0.2165504453,4.237688824599999,1215
92288,215280,243050,8.8043907567,-0.2165504453,4.237688824599999,1216
92321,215290,243095,8.8043907567,-0.2165504453,4.237688824599999,1217
92381,215330,243046,8.8043907567,-0.2165504453,4.237688824599999,1218
92441,215354,243054,8.8043907567,-0.2165504453,4.237688824599999,1219
92523,215355,243070,8.8043907567,-0.2165504453,4.237688824599999,1220
92574,215343,243066,8.8043907567,-0.2165504453,4.237688824599999,1221
92619,215376,243053,8.8043907567,-0.2165504453,4.237688824599999,1222
92700,215376,243042,8.8043907567,-0.2165504453,4.237688824599999,1223
92755,215367,243096,8.8043907567,-0.2165504453,4.237688824599999,1224
92817,215391,243079,8.8043907567,-0.2165504453,4.237688824599999,1225
92831,215364,243058,8.8043907567,-0.2165504453,4.237688824599999,1226
92601,215307,242980,8.8043907567,-0.2165504453,4.237688824599999,1227
92205,215222,242967,8.8043907567,-0.2165504453,4.237688824599999,1228
91842,215210,242965,8.8043907567,-0.2165504453,4.237688824599999,1229
91684,215262,243024,8.8043907567,-0.2165504453,4.237688824599999,1230
91650,215254,243021,8.8043907567,-0.2165504453,4.237688824599999,1231
91723,215334,243088,8.8043907567,-0.2165504453,4.237688824599999,1232
91870,215339,243158,8.8043907567,-0.2165504453,4.237688824599999,1233
92006,215374,243184,8.8043907567,-0.2165504453,4.237688824599999,1234
92122,215373,243179,8.8043907567,-0.2165504453,4.237688824599999,1235
92193,215407,243171,8.8043907567,-0.2165504453,4.237688824599999,1236
92239,215393,243132,8.8043907567,-0.2165504453,4.237688824599999,1237
92256,215386,243118,8.8043907567,-0.2165504453,4.237688824599999,1238
92273,215388,243152,8.8043907567,-0.2165504453,4.237688824599999,1239
92317,215399,243111,8.8043907567,-0.2165504453,4.237688824599999,1240
92350,215350,243169,8.8043907567,-0.2165504453,4.237688824599999,1241
92408,215382,243152,8.8043907567,-0.2165504453,4.237688824599999,1242
92463,215396,243150,8.8043907567,-0.2165504453,4.237688824599999,1243
92535,215371,243134,8.8043907567,-0.2165504453,4.237688824599999,1244
92582,215412,243115,8.8043907567,-0.2165504453,4.237688824599999,1245
92643,215402,243120,8.8043907567,-0.2165504453,4.237688824599999,1246
92710,215357,243145,8.8043907567,-0.2165504453,4.237688824599999,1247
92727,215379,243091,8.8043907567,-0.2165504453,4.237688824599999,1248
92671,215319,243045,8.8043907567,-0.2165504453,4.237688824599999,1249
92313,215264,242998,8.8043907567,-0.2165504453,4.237688824599999,1250
91861,215190,243016,8.8043907567,-0.2165504453,4.237688824599999,1251
91563,215131,242993,8.8043907567,-0.2165504453,4.237688824599999,1252
91458,215175,242988,8.8043907567,-0.2165504453,4.237688824599999,1253
91468,215219,243115,8.8043907567,-0.2165504453,4.237688824599999,1254
92209,215343,243158,8.7888374098,-0.2452643165,4.0414773714,1255
92299,215315,243113,8.7888374098,-0.2452643165,4.0414773714,1256
92381,215316,243150,8.7888374098,-0.2452643165,4.0414773714,1257
92418,215350,243162,8.7888374098,-0.2452643165,4.0414773714,1258
92495,215332,243156,8.7888374098,-0.2452643165,4.0414773714,1259
92562,215330,243154,8.7888374098,-0.2452643165,4.0414773714,1260
92610,215341,243130,8.7888374098,-0.2452643165,4.0414773714,1261
92659,215344,243147,8.7888374098,-0.2452643165,4.0414773714,1262
92575,215310,243088,8.7888374098,-0.2452643165,4.0414773714,1263
92208,215200,243007,8.7888374098,-0.2452643165,4.0414773714,1264
91775,215121,242955,8.7888374098,-0.2452643165,4.0414773714,1265
91526,215110,243033,8.7888374098,-0.2452643165,4.0414773714,1266
91432,215197,243049,8.7888374098,-0.2452643165,4.0414773714,1267
91484,215234,243098,8.7888374098,-0.2452643165,4.0414773714,1268
91619,215275,243162,8.7888374098,-0.2452643165,4.0414773714,1269
91774,215325,243144,8.7888374098,-0.2452643165,4.0414773714,1270
91927,215335,243193,8.7888374098,-0.2452643165,4.0414773714,1271
92049,215322,243200,8.7888374098,-0.2452643165,4.0414773714,1272
92124,215323,243255,8.7888374098,-0.2452643165,4.0414773714,1273
92172,215333,243233,8.7888374098,-0.2452643165,4.0414773714,1274
92183,215302,243173,8.7888374098,-0.2452643165,4.0414773714,1275
92230,215333,243217,8.7888374098,-0.2452643165,4.0414773714,1276
92288,215333,243199,8.7888374098,-0.2452643165,4.0414773714,1277
92361,215342,243191,8.7888374098,-0.2452643165,4.0414773714,1278
92436,215317,243213,8.7888374098,-0.2452643165,4.0414773714,1279
92492,215365,243171,8.7888374098,-0.2452643165,4.0414773714,1280
92571,215357,243176,8.7888374098,-0.2452643165,4.0414773714,1281
92650,215350,243192,8.7888374098,-0.2452643165,4.0414773714,1282
92730,215372,243177,8.7888374098,-0.2452643165,4.0414773714,1283
92788,215361,243128,8.7888374098,-0.2452643165,4.0414773714,1284
92844,215369,243197,8.7888374098,-0.2452643165,4.0414773714,1285
92893,215332,243165,8.7888374098,-0.2452643165,4.0414773714,1286
92698,215268,243083,8.7888374098,-0.2452643165,4.0414773714,1287
92275,215173,243081,8.7888374098,-0.2452643165,4.0414773714,1288
91948,215133,243075,8.7888374098,-0.2452643165,4.0414773714,1289
91810,215162,243088,8.7888374098,-0.2452643165,4.0414773714,1290
91834,215155,243161,8.7888374098,-0.2452643165,4.0414773714,1291
91939,215241,243207,8.7888374098,-0.2452643165,4.0414773714,1292
92107,215340,243266,8.7888374098,-0.2452643165,4.0414773714,1293
92263,215336,243279,8.7888374098,-0.2452643165,4.0414773714,1294
92421,215367,243355,8.7888374098,-0.2452643165,4.0414773714,1295
92502,215391,243308,8.7888374098,-0.2452643165,4.0414773714,1296
93327,215473,243426,8.8486579748,-0.3278166962,4.1599220901,1297
93446,215488,243423,8.8486579748,-0.3278166962,4.1599220901,1298
93592,215509,243411,8.8486579748,-0.3278166962,4.1599220901,1299
93689,215553,243400,8.8486579748,-0.3278166962,4.1599220901,1300
93773,215526,243408,8.8486579748,-0.3278166962,4.1599220901,1301
93819,215540,243380,8.8486579748,-0.3278166962,4.1599220901,1302
93815,215548,243438,8.8486579748,-0.3278166962,4.1599220901,1303
93890,215529,243436,8.8486579748,-0.3278166962,4.1599220901,1304
93898,215520,243434,8.8486579748,-0.3278166962,4.1599220901,1305
93983,215551,243387,8.8486579748,-0.3278166962,4.1599220901,1306
94046,215567,243451,8.8486579748,-0.3278166962,4.1599220901,1307
94129,215529,243405,8.8486579748,-0.3278166962,4.1599220901,1308
94180,215587,243427,8.8486579748,-0.3278166962,4.1599220901,1309
94225,215615,243435,8.8486579748,-0.3278166962,4.1599220901,1310
94315,215580,243396,8.8486579748,-0.3278166962,4.1599220901,1311
94351,215607,243430,8.8486579748,-0.3278166962,4.1599220901,1312
94291,215540,243439,8.8486579748,-0.3278166962,4.1599220901,1313
93969,215436,243355,8.8486579748,-0.3278166962,4.1599220901,1314
93573,215381,243364,8.8486579748,-0.3278166962,4.1599220901,1315
93304,215405,243372,8.8486579748,-0.3278166962,4.1599220901,1316
93215,215430,243396,8.8486579748,-0.3278166962,4.1599220901,1317
93222,215504,243381,8.8486579748,-0.3278166962,4.1599220901,1318
93320,215516,243485,8.8486579748,-0.3278166962,4.1599220901,1319
93449,215602,243463,8.8486579748,-0.3278166962,4.1599220901,1320
93586,215625,243416,8.8486579748,-0.3278166962,4.1599220901,1321
93679,215653,243440,8.8486579748,-0.3278166962,4.1599220901,1322
93753,215607,243441,8.8486579748,-0.3278166962,4.1599220901,1323
93769,215635,243429,8.8486579748,-0.3278166962,4.1599220901,1324
93815,215590,243436,8.8486579748,-0.3278166962,4.1599220901,1325
93848,215587,243436,8.8486579748,-0.3278166962,4.1599220901,1326
93876,215618,243426,8.8486579748,-0.3278166962,4.1599220901,1327
93905,215624,243430,8.8486579748,-0.3278166962,4.1599220901,1328
93969,215646,243393,8.8570328539,-0.1292124204,4.1300118076,1329
94038,215644,243419,8.8570328539,-0.1292124204,4.1300118076,1330
94090,215641,243428,8.8570328539,-0.1292124204,4.1300118076,1331
94165,215625,243447,8.8570328539,-0.1292124204,4.1300118076,1332
94213,215617,243427,8.8570328539,-0.1292124204,4.1300118076,1333
94275,215625,243426,8.8570328539,-0.1292124204,4.1300118076,1334
94253,215590,243365,8.8570328539,-0.1292124204,4.1300118076,1335
93946,215478,243327,8.8570328539,-0.1292124204,4.1300118076,1336
93509,215382,243333,8.8570328539,-0.1292124204,4.1300118076,1337
93227,215370,243281,8.8570328539,-0.1292124204,4.1300118076,1338
93103,215430,243379,8.8570328539,-0.1292124204,4.1300118076,1339
93111,215497,243449,8.8570328539,-0.1292124204,4.1300118076,1340
93197,215550,243424,8.8630149104,-0.2285145583,4.146761565799999,1341
93331,215579,243433,8.8630149104,-0.2285145583,4.146761565799999,1342
93461,215572,243456,8.8630149104,-0.2285145583,4.146761565799999,1343
93573,215623,243440,8.8630149104,-0.2285145583,4.146761565799999,1344
93656,215582,243454,8.8630149104,-0.2285145583,4.146761565799999,1345
93672,215567,243457,8.8630149104,-0.2285145583,4.146761565799999,1346
93694,215618,243444,8.8630149104,-0.2285145583,4.146761565799999,1347
93729,215606,243414,8.8630149104,-0.2285145583,4.146761565799999,1348
93776,215609,243424,8.8630149104,-0.2285145583,4.146761565799999,1349
93812,215561,243437,8.8630149104,-0.2285145583,4.146761565799999,1350
93859,215612,243429,8.8630149104,-0.2285145583,4.146761565799999,1351
93936,215624,243415,8.8630149104,-0.2285145583,4.146761565799999,1352
93971,215625,243418,8.8630149104,-0.2285145583,4.146761565799999,1353
94047,215642,243377,8.8510507974,-0.3122633493,4.1850467274,1354
94096,215627,243394,8.8510507974,-0.3122633493,4.1850467274,1355
94171,215591,243375,8.8510507974,-0.3122633493,4.1850467274,1356
94228,215636,243346,8.8510507974,-0.3122633493,4.1850467274,1357
94172,215585,243291,8.8510507974,-0.3122633493,4.1850467274,1358
93837,215416,243258,8.8510507974,-0.3122633493,4.1850467274,1359
93410,215441,243271,8.8510507974,-0.3122633493,4.1850467274,1360
93154,215403,243240,8.8510507974,-0.3122633493,4.1850467274,1361
93068,215453,243297,8.8510507974,-0.3122633493,4.1850467274,1362
93104,215456,243397,8.8510507974,-0.3122633493,4.1850467274,1363
93208,215533,243339,8.8510507974,-0.3122633493,4.1850467274,1364
93332,215545,243393,8.8510507974,-0.3122633493,4.1850467274,1365
93466,215598,243398,8.8510507974,-0.3122633493,4.1850467274,1366
93561,215605,243346,8.8510507974,-0.3122633493,4.1850467274,1367
93640,215599,243378,8.8510507974,-0.3122633493,4.1850467274,1368
93694,215594,243395,8.8510507974,-0.3122633493,4.1850467274,1369
93710,215601,243368,8.8510507974,-0.3122633493,4.1850467274,1370
93747,215614,243342,8.8510507974,-0.3122633493,4.1850467274,1371
93784,215579,243353,8.8510507974,-0.3122633493,4.1850467274,1372
93842,215632,243346,8.943174467499999,-0.2691925425,4.2903309218,1373
93926,215617,243322,8.943174467499999,-0.2691925425,4.2903309218,1374
93973,215610,243324,8.943174467499999,-0.2691925425,4.2903309218,1375
94056,215608,243350,8.943174467499999,-0.2691925425,4.2903309218,1376
94106,215617,243324,8.943174467499999,-0.2691925425,4.2903309218,1377
94171,215612,243324,8.943174467499999,-0.2691925425,4.2903309218,1378
94246,215661,243362,8.943174467499999,-0.2691925425,4.2903309218,1379
94303,215592,243324,8.943174467499999,-0.2691925425,4.2903309218,1380
94343,215651,243320,8.943174467499999,-0.2691925425,4.2903309218,1381
94208,215523,243286,8.943174467499999,-0.2691925425,4.2903309218,1382
93829,215434,243182,8.943174467499999,-0.2691925425,4.2903309218,1383
93510,215396,243159,8.943174467499999,-0.2691925425,4.2903309218,1384
93355,215468,243241,8.943174467499999,-0.2691925425,4.2903309218,1385
93362,215450,243283,8.943174467499999,-0.2691925425,4.2903309218,1386
93430,215561,243312,8.943174467499999,-0.2691925425,4.2903309218,1387
93581,215541,243323,8.943174467499999,-0.2691925425,4.2903309218,1388
93732,215626,243335,8.943174467499999,-0.2691925425,4.2903309218,1389
93835,215594,243331,8.943174467499999,-0.2691925425,4.2903309218,1390
93952,215578,243355,8.943174467499999,-0.2691925425,4.2903309218,1391
93999,215629,243346,8.943174467499999,-0.2691925425,4.2903309218,1392
94023,215545,243307,8.943174467499999,-0.2691925425,4.2903309218,1393
94042,215582,243279,8.943174467499999,-0.2691925425,4.2903309218,1394
94084,215606,243278,8.943174467499999,-0.2691925425,4.2903309218,1395
94131,215616,243275,8.943174467499999,-0.2691925425,4.2903309218,1396
94177,215601,243281,8.943174467499999,-0.2691925425,4.2903309218,1397
94247,215619,243320,8.943174467499999,-0.2691925425,4.2903309218,1398
94324,215606,243286,8.943174467499999,-0.2691925425,4.2903309218,1399
94382,215639,243282,8.943174467499999,-0.2691925425,4.2903309218,1400
94453,215636,243331,8.943174467499999,-0.2691925425,4.2903309218,1401
94537,215648,243314,8.943174467499999,-0.2691925425,4.2903309218,1402
94568,215664,243269,8.943174467499999,-0.2691925425,4.2903309218,1403
94619,215632,243276,8.943174467499999,-0.2691925425,4.2903309218,1404
94433,215560,243212,8.943174467499999,-0.2691925425,4.2903309218,1405
94089,215458,243159,8.943174467499999,-0.2691925425,4.2903309218,1406
93806,215464,243112,8.943174467499999,-0.2691925425,4.2903309218,1407
93672,215492,243167,8.943174467499999,-0.2691925425,4.2903309218,1408
93668,215542,243251,8.943174467499999,-0.2691925425,4.2903309218,1409
93765,215562,243241,8.943174467499999,-0.2691925425,4.2903309218,1410
93882,215556,243270,8.943174467499999,-0.2691925425,4.2903309218,1411
94015,215648,243294,8.943174467499999,-0.2691925425,4.2903309218,1412
94141,215593,243304,8.943174467499999,-0.2691925425,4.2903309218,1413
94207,215663,243286,8.943174467499999,-0.2691925425,4.2903309218,1414
94652,215691,243244,8.864211321700001,-0.3278166962,4.2520457602,1415
94583,215639,243207,8.864211321700001,-0.3278166962,4.2520457602,1416
94297,215577,243142,8.864211321700001,-0.3278166962,4.2520457602,1417
93906,215529,243104,8.864211321700001,-0.3278166962,4.2520457602,1418
93619,215514,243134,8.864211321700001,-0.3278166962,4.2520457602,1419
93506,215520,243151,8.864211321700001,-0.3278166962,4.2520457602,1420
93465,215545,243199,8.864211321700001,-0.3278166962,4.2520457602,1421
93551,215637,243177,8.864211321700001,-0.3278166962,4.2520457602,1422
93699,215705,243238,8.864211321700001,-0.3278166962,4.2520457602,1423
93808,215686,243250,8.864211321700001,-0.3278166962,4.2520457602,1424
93901,215683,243223,8.864211321700001,-0.3278166962,4.2520457602,1425
93980,215723,243238,8.864211321700001,-0.3278166962,4.2520457602,1426
94001,215655,243215,8.864211321700001,-0.3278166962,4.2520457602,1427
93990,215688,243167,8.864211321700001,-0.3278166962,4.2520457602,1428
94021,215657,243204,8.864211321700001,-0.3278166962,4.2520457602,1429
94057,215675,243193,8.864211321700001,-0.3278166962,4.2520457602,1430
94085,215700,243227,8.864211321700001,-0.3278166962,4.2520457602,1431
94138,215728,243183,8.864211321700001,-0.3278166962,4.2520457602,1432
94185,215718,243201,8.864211321700001,-0.3278166962,4.2520457602,1433
94259,215717,243174,8.864211321700001,-0.3278166962,4.2520457602,1434
94301,215677,243166,8.864211321700001,-0.3278166962,4.2520457602,1435
94341,215700,243178,8.864211321700001,-0.3278166962,4.2520457602,1436
94422,215731,243190,8.864211321700001,-0.3278166962,4.2520457602,1437
94344,215665,243109,8.864211321700001,-0.3278166962,4.2520457602,1438
94049,215584,243058,8.864211321700001,-0.3278166962,4.2520457602,1439
93608,215483,243013,8.864211321700001,-0.3278166962,4.2520457602,1440
93292,215456,242974,8.864211321700001,-0.3278166962,4.2520457602,1441
93115,215539,243028,8.864211321700001,-0.3278166962,4.2520457602,1442
93107,215529,243119,8.864211321700001,-0.3278166962,4.2520457602,1443
93164,215604,243120,8.864211321700001,-0.3278166962,4.2520457602,1444
93264,215635,243124,8.864211321700001,-0.3278166962,4.2520457602,1445
93390,215674,243115,8.864211321700001,-0.3278166962,4.2520457602,1446
93498,215701,243110,8.864211321700001,-0.3278166962,4.2520457602,1447
93562,215672,243164,8.864211321700001,-0.3278166962,4.2520457602,1448
93586,215651,243073,8.864211321700001,-0.3278166962,4.2520457602,1449
93585,215653,243073,8.864211321700001,-0.3278166962,4.2520457602,1450
93593,215639,243067,8.864211321700001,-0.3278166962,4.2520457602,1451
93616,215674,243119,8.864211321700001,-0.3278166962,4.2520457602,1452
93673,215674,243085,8.864211321700001,-0.3278166962,4.2520457602,1453
93722,215624,243079,8.864211321700001,-0.3278166962,4.2520457602,1454
93752,215634,243054,8.864211321700001,-0.3278166962,4.2520457602,1455
93823,215643,243030,8.864211321700001,-0.3278166962,4.2520457602,1456
93352,215540,242879,8.7792661194,-0.3804587934,4.1347974528,1457
93378,215569,242816,8.7792661194,-0.3804587934,4.1347974528,1458
93456,215525,242860,8.7792661194,-0.3804587934,4.1347974528,1459
93521,215539,242846,8.7792661194,-0.3804587934,4.1347974528,1460
93569,215531,242802,8.7792661194,-0.3804587934,4.1347974528,1461
93620,215548,242858,8.7792661194,-0.3804587934,4.1347974528,1462
93696,215621,242810,8.7792661194,-0.3804587934,4.1347974528,1463
93760,215591,242786,8.7792661194,-0.3804587934,4.1347974528,1464
93829,215570,242815,8.7792661194,-0.3804587934,4.1347974528,1465
93881,215560,242809,8.7792661194,-0.3804587934,4.1347974528,1466
93764,215491,242727,8.7792661194,-0.3804587934,4.1347974528,1467
93429,215418,242721,8.7792661194,-0.3804587934,4.1347974528,1468
93083,215393,242706,8.7792661194,-0.3804587934,4.1347974528,1469
92937,215449,242683,8.7792661194,-0.3804587934,4.1347974528,1470
92885,215448,242721,8.7792661194,-0.3804587934,4.1347974528,1471
92935,215467,242767,8.7792661194,-0.3804587934,4.1347974528,1472
93064,215556,242774,8.7792661194,-0.3804587934,4.1347974528,1473
93175,215573,242837,8.7792661194,-0.3804587934,4.1347974528,1474
93272,215637,242800,8.7792661194,-0.3804587934,4.1347974528,1475
93346,215589,242862,8.7792661194,-0.3804587934,4.1347974528,1476
93398,215566,242784,8.7792661194,-0.3804587934,4.1347974528,1477
93401,215541,242803,8.7792661194,-0.3804587934,4.1347974528,1478
93401,215571,242792,8.7792661194,-0.3804587934,4.1347974528,1479
93434,215554,242784,8.7792661194,-0.3804587934,4.1347974528,1480
93478,215571,242779,8.7792661194,-0.3804587934,4.1347974528,1481
93514,215585,242778,8.7792661194,-0.3804587934,4.1347974528,1482
93590,215610,242757,8.7792661194,-0.3804587934,4.1347974528,1483
93638,215612,242797,8.7792661194,-0.3804587934,4.1347974528,1484
93710,215609,242805,8.7792661194,-0.3804587934,4.1347974528,1485
93759,215603,242801,8.7792661194,-0.3804587934,4.1347974528,1486
93813,215623,242774,8.7792661194,-0.3804587934,4.1347974528,1487
93824,215606,242771,8.7792661194,-0.3804587934,4.1347974528,1488
93655,215537,242708,8.7792661194,-0.3804587934,4.1347974528,1489
93303,215448,242694,8.7792661194,-0.3804587934,4.1347974528,1490
92916,215410,242679,8.7792661194,-0.3804587934,4.1347974528,1491
92708,215415,242657,8.7792661194,-0.3804587934,4.1347974528,1492
92649,215438,242721,8.7792661194,-0.3804587934,4.1347974528,1493
92672,215556,242827,8.7792661194,-0.3804587934,4.1347974528,1494
92787,215571,242797,8.8247297488,-0.2931207685,4.1539400336,1495
92907,215587,242850,8.8247297488,-0.2931207685,4.1539400336,1496
93042,215639,242866,8.8247297488,-0.2931207685,4.1539400336,1497
93112,215648,242855,8.8247297488,-0.2931207685,4.1539400336,1498
93154,215583,242854,8.8247297488,-0.2931207685,4.1539400336,1499
93147,215588,242803,8.8247297488,-0.2931207685,4.1539400336,1500
93188,215599,242813,8.8247297488,-0.2931207685,4.1539400336,1501
93201,215588,242790,8.8247297488,-0.2931207685,4.1539400336,1502
93225,215561,242768,8.7445701917,-0.2967100024,4.2017964856,1503
93271,215628,242782,8.9001036607,-0.23569302609999998,4.2436708811,1504
93310,215584,242811,8.769694829,-0.2201396792,4.2628134618999995,1505
93357,215568,242792,8.805587167999999,-0.1112662509,4.127618985,1506
93480,215600,242783,8.8749790234,-0.311066938,4.163511324,1507
93516,215597,242723,8.8019979341,-0.24167508259999998,4.0785661217,1508
93587,215583,242726,8.9288175319,-0.3182454058,4.1982072517,1509
93588,215551,242739,9.0364945489,-0.15672988029999999,4.242474469799999,1510
93423,215502,242696,8.7601235386,-0.131605243,4.1946180178,1511
93015,215388,242622,8.7182491431,-0.1962114532,4.1108692268,1512
92598,215379,242634,8.7960158776,-0.12681959780000002,4.2053857195,1513
92383,215369,242638,8.7960158776,-0.2440679052,4.211367776,1514
92323,215428,242684,8.8833539025,-0.1854437515,4.2305103568,1515
92346,215471,242758,8.769694829,-0.2703889538,4.146761565799999,1516
92459,215497,242773,8.9587278144,-0.1734796385,4.0701912426,1517
92569,215535,242790,8.9336031771,-0.21415762270000002,4.2723847523,1518
