green,red,IR,acc_x,acc_y,acc_z,sample_index
48001,174017,159913,1.6953148121,-5.9796636774,-7.606783045399999,1
48007,173999,159918,1.6701901747999999,-5.984449322600001,-7.7347990545,2
48005,173980,159924,1.6307086019,-5.843272789199999,-7.6522466748,3
48018,174007,159909,1.6869399330000001,-5.994020613,-7.5888368759,4
48015,173993,159920,1.663011707,-5.844469200500001,-7.5864440533,5
48031,174001,159933,1.8759729184,-5.9665031531,-7.5469624804,6
48003,174012,159929,1.6546368279,-5.8325050875,-7.6019974002,7
48058,174042,159920,1.7718851352999998,-5.9198431124,-7.6139615132000005,8
48068,174050,159934,1.7778671918,-5.8803615395,-7.606783045399999,9
48083,174032,159947,1.7970097726,-5.8767723056,-7.645068207,10
48107,174048,159937,1.615155255,-5.9976098469000005,-7.5385876013,11
48116,174051,159960,1.7910277161,-5.8971112976999995,-7.6761749007999995,12
48126,174067,159925,1.7324035624,-5.9605210966,-7.606783045399999,13
48166,174084,159967,1.710868159,-5.9796636774,-7.6402825618,14
48165,174056,159949,1.6426727149,-6.0035919034,-7.573283529,15
48165,174085,159955,1.7754743692000001,-5.9808600887,-7.653443086099999,16
48103,173990,159892,1.6438691261999998,-5.8002019824,-7.6163543358,17
48021,173934,159850,1.7718851352999998,-5.9162538785,-7.5326055448,18
47978,173929,159823,1.7419748528,-5.938985693199999,-7.708478005899999,19
47963,173922,159813,1.6749758199999998,-5.844469200500001,-7.6163543358,20
47994,173907,159864,1.7060825138000002,-5.8767723056,-7.5194450205,21
48003,173921,159883,1.6570296505,-5.8492548457,-7.5589265934,22
48015,173960,159883,1.6833506991,-5.9090754107,-7.621139981,23
48029,173979,159883,1.6821542877999998,-5.9282179915,-7.6307112714,24
48035,173986,159908,1.722832272,-6.1148581543,-7.4847490928,25
48032,173952,159896,1.7862420709,-5.9485569836,-7.6019974002,26
48023,173969,159872,1.6821542877999998,-6.078965815299999,-7.633104094,27
48030,174015,159871,1.7204394494000002,-5.9736816209,-7.5900332872,28
48032,173970,159892,1.7934205387,-5.8109696841,-7.5661050612,29
48029,173983,159901,1.7144573929,-5.8085768615,-7.5589265934,30
48046,173979,159910,1.6103696098,-5.9724852096,-7.5744799403,31
48067,173974,159887,1.6247265454,-5.886343596000001,-7.556533770800001,32
48076,173987,159878,1.6067803759000001,-5.9569318627,-7.6103722793,33
48089,174044,159919,1.8317057003,-5.806184038900001,-7.549355303,34
48108,174036,159915,1.758724611,-6.0167524277,-7.477570625,35
48105,174009,159906,1.7838492483,-5.886343596000001,-7.5816584081,36
48131,174038,159906,1.55533469,-5.8695938378,-7.5577301821,37
48112,174001,159895,1.8029918290999998,-5.8827543621,-7.6187471584,38
48054,173949,159853,1.7120645703,-5.941378515799999,-7.5194450205,39
47976,173896,159813,1.866401628,-5.9868421452,-7.606783045399999,40
47928,173876,159799,1.6007983194,-5.818148151899999,-7.568497883799999,41
47921,173863,159816,1.7132609816000002,-5.9114682333,-7.5828548194,42
47936,173904,159855,1.6606188843999998,-5.900700531599999,-7.5816584081,43
47954,173927,159837,1.6809578765,-5.9461641610000004,-7.5182486092000005,44
47983,173910,159876,1.6342978358,-5.888736418600001,-7.5948189324,45
47995,173880,159871,1.6163516663,-5.9162538785,-7.597211754999999,46
48003,173993,159861,1.8532411037,-6.0478591215,-7.5601230047,47
48006,173970,159871,1.722832272,-5.9772708547999995,-7.5649086499,48
48011,173964,159902,1.6067803759000001,-6.0622160571,-7.556533770800001,49
48005,173968,159890,1.746760498,-6.0227344842,-7.6115686905999995,50
48025,173968,159911,1.7072789251,-6.0107703712000005,-7.5589265934,51
48041,173980,159885,1.6462619487999999,-5.9090754107,-7.5445696578,52
48039,173969,159885,1.7838492483,-5.9294144028,-7.5409804239,53
48067,174005,159905,1.5278172301,-6.0047883147,-7.526623488299999,54
48081,174013,159905,1.6606188843999998,-5.9306108141000005,-7.5194450205,55
48095,174006,159905,1.7670994901,-5.9066825881,-7.5912296985,56
48112,174016,159911,1.6761722313,-5.9437713384,-7.6115686905999995,57
48124,174060,159937,1.6941184008,-5.9976098469000005,-7.625925626199999,58
48145,174030,159937,1.7132609816000002,-5.922235935,-7.5756763516,59
48159,174067,159934,1.5948162629,-6.0263237181000004,-7.606783045399999,60
48154,174027,159923,1.6366906583999998,-5.934200048,-7.457231632899999,61
48066,173975,159889,1.6211373115,-5.9066825881,-7.597211754999999,62
47995,173903,159843,1.6893327556000002,-5.9629139192,-7.4967132058,63
47943,173872,159814,1.6319050132,-5.9186467011,-7.6941210703,64
47922,173871,159846,1.7802600144,-5.8636117813,-7.5900332872,65
47932,173876,159851,1.5924234403000002,-5.9748780322,-7.5780691741999995,66
47949,173926,159864,1.7910277161,-5.9174502898000005,-7.606783045399999,67
47971,173961,159876,1.7300107398,-5.8791651282,-7.6031938115,68
47994,173866,159876,1.7024932798999999,-6.0622160571,-7.5601230047,69
47998,173939,159876,1.7790636031,-5.8947184750999995,-7.6187471584,70
48005,173988,159878,1.6869399330000001,-5.8396835553,-7.5242306657,71
47994,173955,159876,1.6486547714,-5.8552369022,-7.473981391100001,72
48005,173958,159875,1.6905291669,-6.0406806537,-7.5505517143,73
48012,173987,159867,1.6438691261999998,-5.8528440796,-7.6163543358,74
48032,173954,159893,1.8125631194999998,-5.8683974265,-7.5409804239,75
48046,173985,159890,1.8891334427000002,-5.8791651282,-7.5541409482,76
48058,173968,159920,1.6977076347,-5.8791651282,-7.5409804239,77
48080,174006,159922,1.6869399330000001,-5.983252911299999,-7.6091758679999995,78
48108,174012,159936,1.7790636031,-5.984449322600001,-7.6187471584,79
48111,174006,159937,1.6522440053,-5.942574927099999,-7.5170521979,80
48133,174072,159921,1.6965112234000002,-5.856433313499999,-7.5936225210999995,81
48142,174025,159918,1.7060825138000002,-5.9318072254,-7.5505517143,82
48158,174036,159934,1.6833506991,-5.9126646445999995,-7.6965138929000005,83
48165,174036,159916,1.6582260617999998,-5.967699564399999,-7.5134629639999995,84
48167,174031,159934,1.7276179172000001,-5.9102718219999995,-7.666603610399999,85
48082,173999,159873,1.7264215058999999,-5.968895975700001,-7.4931239719,86
48012,173903,159829,1.6486547714,-5.9401821045,-7.6139615132000005,87
47963,173901,159837,1.8053846516999998,-6.0023954921,-7.6139615132000005,88
47960,173899,159826,1.6354942471,-5.9365928706,-7.6426753844,89
47976,173907,159828,1.6199409001999998,-6.0478591215,-7.6091758679999995,90
47985,173919,159863,1.6103696098,-5.955735451400001,-7.526623488299999,91
48009,173931,159867,1.7300107398,-6.0011990808,-7.5505517143,92
48030,173957,159871,1.6821542877999998,-5.7834522241999995,-7.5637122386,93
48045,173954,159870,1.7682959014000001,-5.9605210966,-7.6701928443,94
48045,173954,159880,1.8173487647,-6.0454662989,-7.5158557866,95
48002,173954,159861,1.7958133612999998,-6.0490555328,-7.7682985709,96
48045,173985,159868,1.7084753364,-5.9198431124,-7.6235328036,97
48058,173961,159905,1.7742779578999999,-5.844469200500001,-7.6618179652,98
48082,173955,159880,1.6570296505,-5.925825168899999,-7.4799634476,99
48091,174024,159887,1.6582260617999998,-5.8636117813,-7.5948189324,100
48103,173998,159882,1.6067803759000001,-5.8540404909,-7.6522466748,101
48118,173999,159937,1.7204394494000002,-5.745167062599999,-7.695317481599999,102
48140,174021,159912,1.7862420709,-5.9569318627,-7.6307112714,103
48151,174007,159892,1.7036896912000001,-5.9988062582,-7.597211754999999,104
48178,174011,159927,1.6414763036,-5.9916277904,-7.6307112714,105
48187,174098,159925,1.8999011444,-6.017948839,-7.5505517143,106
48196,174057,159904,1.7850456596,-5.8492548457,-7.6881390138,107
48211,174027,159919,1.5613167465000002,-5.8755758943,-7.4979096170999995,108
48219,174042,159930,1.6366906583999998,-5.9748780322,-7.606783045399999,109
48166,173986,159896,1.5469598109,-5.8217373858000006,-7.5589265934,110
48085,173940,159836,1.7359927963,-6.0406806537,-7.7072815945999995,111
48034,173907,159833,1.7084753364,-6.0167524277,-7.585247642000001,112
48021,173791,159823,1.6713865861,-6.0466627102,-7.6426753844,113
48033,173892,159851,1.6486547714,-6.034698597199999,-7.5577301821,114
48058,173942,159842,1.6438691261999998,-5.773880933799999,-7.5577301821,115
48089,173925,159864,1.6701901747999999,-5.9318072254,-7.5242306657,116
48099,173950,159870,1.6007983194,-5.9605210966,-7.6462646183,117
48096,173968,159877,1.6486547714,-5.8959148864,-7.5673014725,118
48090,173962,159866,1.7383856189,-5.967699564399999,-7.584051230699999,119
48088,173942,159878,1.7084753364,-5.8695938378,-7.6091758679999995,120
48094,173935,159839,1.7335999736999999,-6.0526447667,-7.7120672398000005,121
48106,173883,159850,1.7048861025,-5.9796636774,-7.5134629639999995,122
48113,173944,159867,1.7742779578999999,-5.9712887983,-7.6725856669,123
48125,173965,159865,1.7431712641,-5.9294144028,-7.6283184488,124
48132,173984,159868,1.7623138449,-5.9796636774,-7.6821569573,125
48151,173983,159874,1.6749758199999998,-5.954539040099999,-7.5756763516,126
48159,173999,159890,1.7096717476999999,-5.9772708547999995,-7.5996045776,127
48173,174014,159885,1.5326028753,-5.8911292412,-7.5792655855,128
48189,173996,159886,1.7910277161,-5.9353964593,-7.6737820782,129
48203,174006,159913,1.8125631194999998,-5.873183071700001,-7.4811598589,130
48206,174002,159903,1.7120645703,-5.984449322600001,-7.6474610296,131
48148,173958,159852,1.6127624323999998,-5.8971112976999995,-7.5924261098,132
48076,173886,159822,1.6773686425999998,-5.9066825881,-7.6701928443,133
48028,173913,159795,1.7276179172000001,-5.958128274,-7.633104094,134
48006,173856,159798,1.7324035624,-5.9353964593,-7.5900332872,135
48011,173877,159822,1.7778671918,-5.9186467011,-7.7132636511,136
48019,173908,159844,1.7599210223,-5.9461641610000004,-7.5900332872,137
48070,173895,159855,1.7970097726,-5.8660046039,-7.5003024396999995,138
48078,173948,159863,1.8496518698,-5.8205409745,-7.6749784895,139
48079,173886,159856,1.8628123941,-5.970092387,-7.6055866341,140
48092,173947,159872,1.6845471104,-5.8971112976999995,-7.668996433,141
48079,173973,159867,1.6869399330000001,-6.0323057746,-7.5445696578,142
48100,173932,159867,1.782652837,-5.9653067418,-7.625925626199999,143
48099,173966,159918,1.6127624323999998,-5.8133625067,-7.597211754999999,144
48101,173960,159885,1.8412769907000002,-5.952146217499999,-7.633104094,145
48128,173992,159873,1.6953148121,-5.8755758943,-7.5780691741999995,146
48136,173994,159907,1.7335999736999999,-5.9186467011,-7.5074809075,147
48157,174004,159886,1.7539389658,-6.1435720255,-7.5996045776,148
48175,173961,159918,1.7300107398,-5.954539040099999,-7.568497883799999,149
48191,174031,159892,1.6689937635,-6.0430734763,-7.5361947787,150
48201,174033,159935,1.7084753364,-5.9605210966,-7.6594251426,151
48220,174044,159899,1.7036896912000001,-5.802594804999999,-7.5804619967999995,152
48235,174045,159959,1.6929219895,-5.8947184750999995,-7.5445696578,153
48247,174032,159909,1.7455640867,-6.0311093633,-7.6809605460000006,154
48210,173989,159916,1.7300107398,-5.9868421452,-7.6283184488,155
48124,173938,159857,1.6426727149,-5.8995041203,-7.4835526815,156
48058,173887,159817,1.7335999736999999,-5.9186467011,-7.6522466748,157
48014,173873,159790,1.5756736821000001,-5.7750773451,-7.635496916599999,158
47999,173885,159802,1.6558332392,-6.0107703712000005,-7.6486574409,159
48021,173909,159827,1.639083481,-5.874379483,-7.6426753844,160
48028,173915,159851,1.7922241274,-5.8947184750999995,-7.5529445369,161
48067,173946,159861,1.6582260617999998,-6.0741801701,-7.6785677234,162
48069,173958,159880,1.6893327556000002,-6.0478591215,-7.6091758679999995,163
48084,173914,159869,1.6223337227999999,-5.9090754107,-7.6749784895,164
48063,173979,159875,1.7012968686,-5.9066825881,-7.4979096170999995,165
48067,173931,159879,1.7204394494000002,-5.9569318627,-7.6283184488,166
48065,173955,159888,1.6606188843999998,-5.9150574672000005,-7.4751778024,167
48075,173967,159890,1.6175480776,-6.0442698876,-7.6043902228,168
48095,173991,159904,1.7838492483,-6.1555361385,-7.556533770800001,169
48105,173996,159869,1.603191142,-5.984449322600001,-7.6163543358,170
48123,173993,159889,1.6821542877999998,-5.9365928706,-7.5278198996,171
48144,174035,159925,1.7982061838999999,-6.080162226600001,-7.6761749007999995,172
48172,174002,159931,1.6055839645999999,-5.8767723056,-7.639086150500001,173
48183,174005,159919,1.6247265454,-6.017948839,-7.654639497399999,174
48187,173975,159929,1.6558332392,-6.0263237181000004,-7.570890706399999,175
48200,174048,159937,1.6965112234000002,-5.888736418600001,-7.6043902228,176
48218,174011,159917,1.7156538042,-6.053841177999999,-7.5326055448,177
48198,174026,159925,1.6845471104,-6.0586268232,-7.5673014725,178
48127,173977,159846,1.6713865861,-5.8492548457,-7.5828548194,179
48048,173895,159810,1.6654045296,-5.9102718219999995,-7.6019974002,180
47997,173865,159825,1.6175480776,-5.9593246853,-7.5409804239,181
47984,173873,159826,1.6067803759000001,-6.0969119848,-7.526623488299999,182
47998,173898,159848,1.710868159,-5.994020613,-7.7072815945999995,183
48021,173900,159836,1.6438691261999998,-6.021538072899999,-7.668996433,184
48043,173915,159892,1.8592231602,-5.9485569836,-7.5696942951,185
48058,173986,159883,1.7359927963,-5.942574927099999,-7.5900332872,186
48070,173945,159906,1.7407784414999998,-5.984449322600001,-7.6115686905999995,187
48069,173958,159886,1.6797614652,-5.9066825881,-7.6091758679999995,188
48110,173967,159873,1.5517454561000001,-5.925825168899999,-7.6091758679999995,189
48079,173950,159894,1.7623138449,-5.8516476683,-7.5744799403,190
48087,173929,159872,1.6701901747999999,-5.8911292412,-7.5457660691,191
48096,173971,159893,1.6869399330000001,-5.8971112976999995,-7.5804619967999995,192
48103,173956,159876,1.6606188843999998,-5.994020613,-7.6043902228,193
48126,173968,159908,1.6749758199999998,-5.9114682333,-7.6163543358,194
48150,173985,159900,1.6965112234000002,-5.8875400073,-7.5649086499,195
48165,174016,159921,1.7144573929,-5.9748780322,-7.6283184488,196
48179,174005,159884,1.8149559420999999,-5.996413435599999,-7.514659375300001,197
48188,174024,159926,1.6414763036,-5.9796636774,-7.6187471584,198
48214,174037,159917,1.7551353771,-5.871986660399999,-7.5661050612,199
48218,174017,159920,1.6474583601,-5.7595239982,-7.5445696578,200
48242,174044,159933,1.7156538042,-5.8241302084,-7.4835526815,201
48236,174025,159919,1.6881363443,-5.927021580200001,-7.543373246500001,202
48157,173914,159888,1.5996019081000001,-5.7918271033,-7.4691957459,203
48081,173895,159823,1.7324035624,-5.922235935,-7.5756763516,204
48054,173886,159813,1.5972090855,-5.8157553293,-7.5278198996,205
48046,173886,159837,1.6283157793,-6.0203416616,-7.5457660691,206
48085,173910,159823,1.6606188843999998,-5.8013983936999995,-7.556533770800001,207
48081,173942,159862,1.8340985228999998,-5.8767723056,-7.6043902228,208
48117,173966,159875,1.6582260617999998,-6.0155560164,-7.6151579245,209
48122,173949,159878,1.6295121905999999,-5.8648081926,-7.556533770800001,210
48123,173916,159866,1.7371892076000002,-5.970092387,-7.6307112714,211
48132,173935,159876,1.8161523534,-5.9365928706,-7.4979096170999995,212
48131,173949,159904,1.710868159,-6.0394842424,-7.5409804239,213
48173,173931,159876,1.6558332392,-5.9078789994,-7.667800021700001,214
48162,173957,159905,1.7180466268,-5.9461641610000004,-7.5361947787,215
48172,173976,159906,1.734796385,-5.955735451400001,-7.6654071991,216
48186,173988,159903,1.6821542877999998,-5.9796636774,-7.6283184488,217
48210,174012,159926,1.6845471104,-5.9114682333,-7.5242306657,218
48229,174001,159913,1.5589239239000001,-5.86241537,-7.5649086499,219
48246,174033,159922,1.6809578765,-6.034698597199999,-7.6079794567,220
48265,174017,159932,1.6857435217,-6.0550375893,-7.5924261098,221
48281,174064,159953,1.5804593273,-5.826523031,-7.5828548194,222
48304,174031,159938,1.6558332392,-5.9461641610000004,-7.5469624804,223
48269,174006,159928,1.7539389658,-5.9712887983,-7.635496916599999,224
48184,173938,159876,1.8460626359,-6.0873406944,-7.561319416,225
48130,173883,159839,1.6965112234000002,-5.8911292412,-7.570890706399999,226
48104,173893,159846,1.6067803759000001,-5.8923256525,-7.5744799403,227
48106,173872,159849,1.6558332392,-6.0287165407000005,-7.597211754999999,228
48115,173907,159860,1.6797614652,-6.0394842424,-7.5912296985,229
48144,173929,159856,1.7994025952000001,-6.0335021859,-7.5948189324,230
48162,173939,159905,1.8149559420999999,-5.927021580200001,-7.5768727629,231
48186,173948,159895,1.8053846516999998,-6.1052868639,-7.6594251426,232
48194,173946,159901,1.7359927963,-5.9473605723,-7.5003024396999995,233
48193,173966,159877,1.6677973521999998,-6.0167524277,-7.621139981,234
48205,173968,159910,1.734796385,-5.888736418600001,-7.6821569573,235
48216,173983,159882,1.6857435217,-6.0119667825,-7.6474610296,236
48224,173965,159922,1.5816557385999999,-5.9294144028,-7.5529445369,237
48230,174039,159913,1.7072789251,-5.8683974265,-7.5768727629,238
48256,174003,159904,1.6223337227999999,-6.063412468399999,-7.585247642000001,239
48274,174001,159930,1.6534404165999999,-5.9892349678,-7.606783045399999,240
48289,174007,159929,1.6642081183,-5.8707902491,-7.5673014725,241
48290,174025,159940,1.639083481,-6.0035919034,-7.5290163108999995,242
48330,174045,159954,1.7742779578999999,-5.9772708547999995,-7.4979096170999995,243
48337,174055,159957,1.7156538042,-5.994020613,-7.639086150500001,244
48350,174050,159926,1.6534404165999999,-5.9102718219999995,-7.6941210703,245
48362,174076,159935,1.6893327556000002,-5.9988062582,-7.555337359499999,246
48376,174071,159937,1.7862420709,-5.9090754107,-7.635496916599999,247
48333,174003,159925,1.698904046,-5.934200048,-7.6402825618,248
48251,173952,159877,1.7778671918,-5.970092387,-7.6402825618,249
48175,173899,159840,1.7455640867,-5.8683974265,-7.5278198996,250
48145,173899,159844,1.8652052167000002,-5.874379483,-7.637889739199999,251
48136,173891,159832,1.5876377951,-6.0442698876,-7.568497883799999,252
48146,173884,159840,1.6654045296,-6.034698597199999,-7.4871419154,253
48171,173975,159867,1.6414763036,-5.9485569836,-7.4715885685,254
48200,173956,159870,1.7060825138000002,-5.984449322600001,-7.5290163108999995,255
48216,173958,159872,1.6929219895,-6.000002669500001,-7.4787670363,256
48209,173972,159883,1.5577275125999999,-6.0275201294,-7.5756763516,257
48214,173944,159887,1.6785650538999999,-5.8468620231,-7.5996045776,258
48218,173907,159895,1.6893327556000002,-6.0119667825,-7.542176835199999,259
48207,173988,159878,1.7120645703,-5.8660046039,-7.651050263499999,260
48227,173982,159877,1.6534404165999999,-6.0167524277,-7.622336392299999,261
48240,174011,159909,1.6905291669,-5.9593246853,-7.525427077,262
48250,174021,159910,1.7395820302,-5.827719442299999,-7.5936225210999995,263
48266,174006,159900,1.5505490447999999,-5.886343596000001,-7.5996045776,264
48282,174003,159922,1.7874384822,-5.927021580200001,-7.6091758679999995,265
48324,174042,159916,1.7324035624,-5.9712887983,-7.585247642000001,266
48302,174043,159925,1.7647066674999998,-5.8253266197,-7.7395846997,267
48315,174047,159944,1.7623138449,-5.922235935,-7.6043902228,268
48331,174061,159920,1.5637095691,-5.9665031531,-7.5541409482,269
48338,174051,159938,1.8077774743,-5.9629139192,-7.5936225210999995,270
48351,174081,159941,1.722832272,-5.970092387,-7.556533770800001,271
48335,174052,159906,1.5684952143000002,-5.8971112976999995,-7.6187471584,272
48252,173974,159871,1.6331014245,-5.9473605723,-7.5194450205,273
48178,173906,159827,1.6773686425999998,-5.9078789994,-7.6115686905999995,274
48131,173911,159795,1.6055839645999999,-5.7990055710999995,-7.5900332872,275
48127,173899,159818,1.7647066674999998,-5.9569318627,-7.6019974002,276
48134,173952,159849,1.7312071511,-5.8612189587,-7.6139615132000005,277
48151,173927,159871,1.6295121905999999,-5.9796636774,-7.561319416,278
48168,173894,159857,1.7036896912000001,-6.021538072899999,-7.585247642000001,279
48177,173970,159887,1.7156538042,-5.8911292412,-7.6498538522,280
48181,173961,159875,1.7180466268,-5.898307709,-7.568497883799999,281
48181,173973,159892,1.7216358607,-5.970092387,-7.5804619967999995,282
48178,173958,159868,1.7647066674999998,-5.9353964593,-7.5409804239,283
48183,173948,159854,1.6773686425999998,-6.0107703712000005,-7.606783045399999,284
48182,173966,159892,1.8329021116,-5.9102718219999995,-7.695317481599999,285
48196,173990,159875,1.7240286833,-5.9820565,-7.573283529,286
48202,173981,159908,1.7814564256999998,-5.9174502898000005,-7.5948189324,287
48216,174009,159898,1.6977076347,-5.9712887983,-7.5385876013,288
48231,174041,159899,1.7300107398,-5.9629139192,-7.5924261098,289
48244,174023,159880,1.6498511827,-5.9509498062,-7.5589265934,290
48268,173983,159893,1.6845471104,-5.9868421452,-7.549355303,291
48266,174019,159909,1.5852449725,-5.8995041203,-7.5996045776,292
48274,174053,159876,1.710868159,-5.858826136099999,-7.5960153436999995,293
48290,174074,159917,1.7156538042,-5.955735451400001,-7.6271220375,294
48293,174037,159907,1.7670994901,-5.9437713384,-7.5338019561000005,295
48238,174020,159865,1.7407784414999998,-5.922235935,-7.5924261098,296
48145,173941,159817,1.7371892076000002,-6.0227344842,-7.530212722199999,297
48083,173910,159838,1.698904046,-5.838487144,-7.5696942951,298
48066,173893,159825,1.7659030788,-6.0610196458,-7.6343005053,299
48070,173929,159831,1.8125631194999998,-6.0107703712000005,-7.6019974002,300
48091,173934,159854,1.7048861025,-5.9174502898000005,-7.6115686905999995,301
48119,173939,159842,1.6905291669,-5.9916277904,-7.7072815945999995,302
48133,173893,159843,1.6725829974,-5.9054861768,-7.6522466748,303
48137,173957,159853,1.5661023917,-5.9102718219999995,-7.495516794499999,304
48129,173950,159861,1.6438691261999998,-5.8971112976999995,-7.6319076827,305
48130,173942,159874,1.7694923127,-5.994020613,-7.5996045776,306
48138,173994,159892,1.6091731985,-5.827719442299999,-7.666603610399999,307
48149,173965,159867,1.7156538042,-5.927021580200001,-7.5924261098,308
48157,173999,159894,1.5948162629,-5.984449322600001,-7.621139981,309
48178,174006,159871,1.6510475939999998,-6.029912952,-7.6821569573,310
48200,174021,159901,1.6199409001999998,-5.9054861768,-7.5948189324,311
48200,174018,159885,1.6223337227999999,-6.0622160571,-7.5804619967999995,312
48230,174014,159902,1.7204394494000002,-5.9665031531,-7.6498538522,313
48234,174022,159926,1.6905291669,-5.8947184750999995,-7.6618179652,314
48237,174036,159945,1.6378870697,-5.984449322600001,-7.526623488299999,315
48267,174056,159919,1.6893327556000002,-5.8815579507999995,-7.5936225210999995,316
48292,174067,159912,1.4751751328999998,-5.9665031531,-7.539784012599999,317
48284,174043,159904,1.6091731985,-6.0155560164,-7.695317481599999,318
48215,173987,159877,1.7527425545,-5.9509498062,-7.625925626199999,319
48133,173951,159836,1.6450655375,-6.017948839,-7.543373246500001,320
48087,173875,159815,1.7395820302,-5.984449322600001,-7.637889739199999,321
48068,173912,159804,1.8747765071,-5.9306108141000005,-7.5589265934,322
48086,173922,159839,1.6247265454,-5.8755758943,-7.6474610296,323
48104,173936,159842,1.8711872732,-5.9078789994,-7.5290163108999995,324
48117,173917,159846,1.6378870697,-5.8767723056,-7.6091758679999995,325
48143,174055,159882,1.7084753364,-6.0203416616,-7.5828548194,326
48147,173998,159881,1.6235301341000001,-6.0323057746,-7.5505517143,327
48153,173944,159917,1.7647066674999998,-5.9186467011,-7.6642107878,328
48151,173988,159901,1.7192430381,-6.005984725999999,-7.621139981,329
48156,173965,159890,1.6187444889,-5.9736816209,-7.5338019561000005,330
48147,174020,159896,1.6821542877999998,-6.0203416616,-7.6307112714,331
48174,174008,159895,1.8101702968999998,-5.955735451400001,-7.5780691741999995,332
48188,174023,159913,1.8173487647,-5.938985693199999,-7.6235328036,333
48234,174034,159913,1.8699908619,-6.0275201294,-7.526623488299999,334
48229,174046,159912,1.7036896912000001,-5.858826136099999,-7.5314091335,335
48239,173955,159920,1.5613167465000002,-6.0705909362,-7.7072815945999995,336
48253,174038,159941,1.6773686425999998,-5.8923256525,-7.6187471584,337
48272,174067,159936,1.7012968686,-5.984449322600001,-7.5361947787,338
48289,174073,159906,1.6055839645999999,-6.0717873475,-7.561319416,339
48303,174074,159922,1.5876377951,-5.9593246853,-7.5589265934,340
48303,174053,159937,1.7611174336,-5.8923256525,-7.6139615132000005,341
48258,174011,159898,1.8412769907000002,-5.898307709,-7.6821569573,342
48186,173963,159852,1.7599210223,-5.9318072254,-7.6115686905999995,343
48114,173914,159822,1.7682959014000001,-5.8205409745,-7.6701928443,344
48079,173906,159828,1.7216358607,-5.9318072254,-7.5948189324,345
48079,173882,159830,1.7778671918,-6.029912952,-7.549355303,346
48096,173908,159834,1.6606188843999998,-5.970092387,-7.6115686905999995,347
48139,173935,159861,1.7443676754000002,-5.8875400073,-7.5314091335,348
48148,173965,159879,1.6845471104,-5.9593246853,-7.606783045399999,349
48151,174032,159901,1.5505490447999999,-5.9533426288,-7.6474610296,350
48152,173960,159885,1.6295121905999999,-5.9653067418,-7.5349983674,351
48154,173981,159882,1.6414763036,-5.927021580200001,-7.5876404646,352
48074,173938,159883,1.6414763036,-6.0011990808,-7.597211754999999,353
48155,173972,159882,1.6809578765,-5.900700531599999,-7.7264241754,354
48167,174014,159887,1.6438691261999998,-5.9641103305,-7.6283184488,355
48181,174012,159873,1.6259229567,-6.0203416616,-7.6522466748,356
48198,173985,159894,1.6606188843999998,-5.9748780322,-7.5649086499,357
48211,173994,159873,1.6474583601,-5.9916277904,-7.568497883799999,358
48220,174017,159909,1.6402798923,-6.009573959900001,-7.5948189324,359
48239,173999,159888,1.6307086019,-5.9485569836,-7.495516794499999,360
48253,174065,159897,1.6761722313,-5.9928242016999995,-7.5589265934,361
48265,174051,159911,1.5649059803999998,-5.9904313791,-7.597211754999999,362
48286,174063,159914,1.7180466268,-5.9102718219999995,-7.5601230047,363
48297,174059,159937,1.8532411037,-6.0598232345,-7.6115686905999995,364
48315,174054,159902,1.6905291669,-6.065805290999999,-7.625925626199999,365
48292,174001,159896,1.7012968686,-5.9114682333,-7.5948189324,366
48214,173961,159851,1.8209379986,-6.0071811373,-7.5170521979,367
48140,173919,159818,1.7838492483,-5.9724852096,-7.5361947787,368
48109,173920,159815,1.6187444889,-6.095715573500001,-7.6163543358,369
48105,173901,159819,1.7551353771,-5.941378515799999,-7.584051230699999,370
48114,173919,159829,1.7407784414999998,-5.8540404909,-7.6163543358,371
48175,173921,159863,1.8197415872999998,-5.8648081926,-7.6283184488,372
48156,173959,159860,1.6941184008,-5.9796636774,-7.606783045399999,373
48172,173972,159867,1.7324035624,-5.984449322600001,-7.621139981,374
48161,173964,159860,1.7192430381,-5.9892349678,-7.633104094,375
48150,173925,159852,1.7359927963,-5.8612189587,-7.495516794499999,376
48148,173950,159845,1.7982061838999999,-6.0263237181000004,-7.5828548194,377
48158,173939,159871,1.7132609816000002,-5.9748780322,-7.716852885,378
48171,173951,159859,1.7527425545,-5.8839507734,-7.6115686905999995,379
48172,173961,159856,1.7240286833,-5.9928242016999995,-7.597211754999999,380
48185,173975,159865,1.6223337227999999,-5.9976098469000005,-7.5996045776,381
48158,173964,159870,1.6725829974,-6.0610196458,-7.735995465799999,382
48207,173989,159877,1.7563317884,-6.0083775485999995,-7.6187471584,383
48230,174043,159891,1.6893327556000002,-5.9377892819,-7.6402825618,384
48242,174035,159882,1.6797614652,-6.0047883147,-7.679764134699999,385
48250,173981,159881,1.7934205387,-5.8899328299,-7.5218378431,386
48255,174012,159886,1.7144573929,-6.080162226600001,-7.5876404646,387
48232,173938,159857,1.7527425545,-5.9880385565,-7.5361947787,388
48111,173896,159808,1.6797614652,-5.9461641610000004,-7.5888368759,389
48053,173819,159795,1.6725829974,-6.053841177999999,-7.5984081663000005,390
48042,173903,159798,1.7036896912000001,-5.9772708547999995,-7.5696942951,391
48039,173888,159795,1.6271193679999998,-5.925825168899999,-7.5445696578,392
48054,173906,159820,1.758724611,-5.9150574672000005,-7.5900332872,393
48078,173925,159828,1.5529418674,-5.9724852096,-7.65703232,394
48094,173932,159859,1.6953148121,-5.8372907327,-7.5577301821,395
48118,173915,159851,1.7192430381,-6.0107703712000005,-7.668996433,396
48115,173928,159850,1.6677973521999998,-6.0442698876,-7.505088084900001,397
48102,173928,159868,1.6869399330000001,-5.8803615395,-7.5469624804,398
48112,173944,159856,1.7802600144,-5.970092387,-7.5924261098,399
48115,173964,159844,1.7371892076000002,-5.8875400073,-7.5828548194,400
48160,173965,159846,1.770688724,-5.9437713384,-7.5924261098,401
48151,173987,159858,1.6175480776,-5.9868421452,-7.5816584081,402
48171,174008,159891,1.6067803759000001,-5.9485569836,-7.5517481256,403
48181,173987,159897,1.7599210223,-5.922235935,-7.4811598589,404
48198,174018,159885,1.7132609816000002,-5.954539040099999,-7.473981391100001,405
48212,173967,159879,1.6462619487999999,-5.9210395237,-7.5816584081,406
48230,174058,159919,1.5649059803999998,-5.8803615395,-7.5134629639999995,407
48242,174029,159897,1.6426727149,-5.925825168899999,-7.6785677234,408
48263,174012,159913,1.7240286833,-6.0335021859,-7.556533770800001,409
48226,174006,159872,1.7982061838999999,-5.7822558129,-7.5409804239,410
48126,173825,159847,1.6977076347,-5.9210395237,-7.561319416,411
48052,173839,159831,1.7694923127,-5.9760744435,-7.6019974002,412
48018,173909,159797,1.7036896912000001,-5.925825168899999,-7.5338019561000005,413
48011,173863,159817,1.6342978358,-6.041877065,-7.625925626199999,414
48059,173852,159814,1.7814564256999998,-5.8767723056,-7.645068207,415
48040,173902,159847,1.6654045296,-5.9880385565,-7.477570625,416
48053,173845,159847,1.6773686425999998,-5.9186467011,-7.5673014725,417
48073,173950,159862,1.6642081183,-5.8420763779,-7.485945504099999,418
48071,173940,159880,1.8484554585000001,-6.0885371056999995,-7.6187471584,419
48062,173927,159869,1.7527425545,-5.955735451400001,-7.5948189324,420
48071,173951,159864,1.758724611,-5.9509498062,-7.5744799403,421
48077,173939,159844,1.6247265454,-5.9150574672000005,-7.495516794499999,422
48077,173949,159844,1.6534404165999999,-5.9174502898000005,-7.625925626199999,423
48091,173922,159890,1.6307086019,-5.9784672661,-7.5649086499,424
48104,173939,159889,1.7132609816000002,-5.923432346299999,-7.6091758679999995,425
48122,173924,159898,1.8759729184,-6.0693945249,-7.5996045776,426
48142,173971,159902,1.8532411037,-5.941378515799999,-7.561319416,427
48152,174015,159900,1.5972090855,-6.0311093633,-7.635496916599999,428
48169,173995,159920,1.6941184008,-5.9186467011,-7.5218378431,429
48190,174012,159904,1.6127624323999998,-5.8995041203,-7.525427077,430
48190,174001,159945,1.5708880369,-6.0323057746,-7.4931239719,431
48218,174010,159943,1.7718851352999998,-5.9210395237,-7.606783045399999,432
48229,174022,159949,1.7443676754000002,-6.025127306799999,-7.5756763516,433
48184,173961,159918,1.6642081183,-5.9760744435,-7.5984081663000005,434
48105,173901,159841,1.7168502155,-5.874379483,-7.543373246500001,435
48038,173829,159840,1.7252250946,-6.0275201294,-7.624729214899999,436
47995,173849,159815,1.6881363443,-5.9748780322,-7.6008009889000006,437
47990,173841,159810,1.8173487647,-6.0442698876,-7.6618179652,438
47996,173858,159858,1.7359927963,-5.8396835553,-7.6163543358,439
48007,173896,159851,1.7383856189,-5.955735451400001,-7.5804619967999995,440
48043,173877,159847,1.7132609816000002,-6.0335021859,-7.585247642000001,441
48070,173896,159872,1.6283157793,-5.8803615395,-7.570890706399999,442
48044,173886,159855,1.8508482811000002,-5.9485569836,-7.637889739199999,443
48039,173902,159851,1.8029918290999998,-5.9054861768,-7.633104094,444
48050,173899,159855,1.6965112234000002,-5.898307709,-7.556533770800001,445
48057,173933,159886,1.7838492483,-5.934200048,-7.6008009889000006,446
48063,173906,159894,1.7551353771,-5.9772708547999995,-7.5361947787,447
48076,173922,159876,1.6761722313,-5.952146217499999,-7.561319416,448
48117,173960,159877,1.6546368279,-5.9928242016999995,-7.495516794499999,449
48111,173959,159871,1.6342978358,-5.9066825881,-7.6139615132000005,450
48123,173934,159924,1.6917255782,-6.0574304119,-7.6917282476999995,451
48137,173953,159888,1.6366906583999998,-5.8695938378,-7.7072815945999995,452
48156,173974,159886,1.6366906583999998,-5.8695938378,-7.7072815945999995,453
48167,173975,159903,1.6366906583999998,-5.8695938378,-7.7072815945999995,454
48174,173994,159899,1.6366906583999998,-5.8695938378,-7.7072815945999995,455
48198,174015,159924,1.6366906583999998,-5.8695938378,-7.7072815945999995,456
48209,174008,159934,1.6366906583999998,-5.8695938378,-7.7072815945999995,457
48214,173999,159923,1.6366906583999998,-5.8695938378,-7.7072815945999995,458
48182,173939,159881,1.6366906583999998,-5.8695938378,-7.7072815945999995,459
48092,173897,159857,1.6271193679999998,-5.885147184699999,-7.606783045399999,460
48041,173825,159842,1.6271193679999998,-5.885147184699999,-7.606783045399999,461
48014,173845,159813,1.710868159,-5.9461641610000004,-7.5661050612,462
48023,173856,159825,1.6510475939999998,-6.0035919034,-7.5218378431,463
48027,173881,159831,1.7994025952000001,-5.8109696841,-7.5756763516,464
48058,173888,159853,1.7790636031,-5.994020613,-7.6019974002,465
48074,173916,159866,1.7156538042,-6.0107703712000005,-7.6163543358,466
48073,173917,159855,1.5864413838,-6.0358950085,-7.6594251426,467
48068,173884,159861,1.7204394494000002,-6.063412468399999,-7.5780691741999995,468
48066,173865,159854,1.7443676754000002,-5.9330036367,-7.6821569573,469
48077,173904,159851,1.7204394494000002,-5.9150574672000005,-7.6989067155,470
48073,173908,159876,1.7958133612999998,-5.9198431124,-7.570890706399999,471
48090,173888,159858,1.8640088054,-5.922235935,-7.639086150500001,472
48085,173917,159860,1.7132609816000002,-5.9090754107,-7.6079794567,473
48101,173917,159883,1.5960126741999998,-5.8145589179999995,-7.5637122386,474
48122,173943,159880,1.5960126741999998,-5.8145589179999995,-7.5637122386,475
48139,173929,159897,1.5960126741999998,-5.8145589179999995,-7.5637122386,476
48152,173950,159890,1.5960126741999998,-5.8145589179999995,-7.5637122386,477
48171,173966,159896,1.5960126741999998,-5.8145589179999995,-7.5637122386,478
48175,173979,159874,1.5960126741999998,-5.8145589179999995,-7.5637122386,479
48192,173964,159877,1.5960126741999998,-5.8145589179999995,-7.5637122386,480
48210,173952,159899,1.5960126741999998,-5.8145589179999995,-7.5637122386,481
48175,173938,159886,1.5960126741999998,-5.8145589179999995,-7.5637122386,482
48082,173854,159822,1.5960126741999998,-5.8145589179999995,-7.5637122386,483
48020,173822,159811,1.5960126741999998,-5.8145589179999995,-7.5637122386,484
47998,173834,159780,1.5960126741999998,-5.8145589179999995,-7.5637122386,485
48005,173813,159819,1.5960126741999998,-5.8145589179999995,-7.5637122386,486
48006,173856,159847,1.5960126741999998,-5.8145589179999995,-7.5637122386,487
48039,173878,159864,1.5960126741999998,-5.8145589179999995,-7.5637122386,488
48060,173899,159861,1.5960126741999998,-5.8145589179999995,-7.5637122386,489
48075,173927,159864,1.5960126741999998,-5.8145589179999995,-7.5637122386,490
48075,173909,159860,1.5960126741999998,-5.8145589179999995,-7.5637122386,491
48077,173894,159896,1.5960126741999998,-5.8145589179999995,-7.5637122386,492
48081,173904,159890,1.5960126741999998,-5.8145589179999995,-7.5637122386,493
48078,173926,159890,1.5960126741999998,-5.8145589179999995,-7.5637122386,494
48092,173921,159892,1.5960126741999998,-5.8145589179999995,-7.5637122386,495
48106,173924,159902,1.5960126741999998,-5.8145589179999995,-7.5637122386,496
48122,173955,159892,1.5960126741999998,-5.8145589179999995,-7.5637122386,497
48149,173976,159916,1.5960126741999998,-5.8145589179999995,-7.5637122386,498
48163,173956,159913,1.5960126741999998,-5.8145589179999995,-7.5637122386,499
48166,173988,159908,1.5960126741999998,-5.8145589179999995,-7.5637122386,500
48186,174009,159930,1.5960126741999998,-5.8145589179999995,-7.5637122386,501
48207,173989,159927,1.5960126741999998,-5.8145589179999995,-7.5637122386,502
48212,173961,159937,1.5960126741999998,-5.8145589179999995,-7.5637122386,503
48224,174003,159931,1.5960126741999998,-5.8145589179999995,-7.5637122386,504
48241,174026,159916,1.5960126741999998,-5.8145589179999995,-7.5637122386,505
48201,173953,159877,1.5960126741999998,-5.8145589179999995,-7.5637122386,506
48123,173864,159839,1.5960126741999998,-5.8145589179999995,-7.5637122386,507
48053,173839,159842,1.5960126741999998,-5.8145589179999995,-7.5637122386,508
48014,173836,159792,1.5960126741999998,-5.8145589179999995,-7.5637122386,509
48014,173829,159806,1.5960126741999998,-5.8145589179999995,-7.5637122386,510
48023,173855,159852,1.5960126741999998,-5.8145589179999995,-7.5637122386,511
48041,173891,159824,1.5960126741999998,-5.8145589179999995,-7.5637122386,512
48063,173894,159894,1.5960126741999998,-5.8145589179999995,-7.5637122386,513
48083,173898,159858,1.5960126741999998,-5.8145589179999995,-7.5637122386,514
48082,173895,159898,1.5960126741999998,-5.8145589179999995,-7.5637122386,515
48205,174017,159900,1.5864413838,-5.9629139192,-7.5960153436999995,516
48213,174010,159919,1.5864413838,-5.9629139192,-7.5960153436999995,517
48231,174001,159903,1.5864413838,-5.9629139192,-7.5960153436999995,518
48247,174013,159928,1.5864413838,-5.9629139192,-7.5960153436999995,519
48263,174028,159913,1.5864413838,-5.9629139192,-7.5960153436999995,520
48254,173982,159918,1.5864413838,-5.9629139192,-7.5960153436999995,521
48193,173966,159863,1.5864413838,-5.9629139192,-7.5960153436999995,522
48113,173893,159849,1.5864413838,-5.9629139192,-7.5960153436999995,523
48060,173868,159835,1.5864413838,-5.9629139192,-7.5960153436999995,524
48046,173848,159819,1.5864413838,-5.9629139192,-7.5960153436999995,525
48048,173892,159827,1.5864413838,-5.9629139192,-7.5960153436999995,526
48067,173902,159856,1.5864413838,-5.9629139192,-7.5960153436999995,527
48090,173922,159881,1.5864413838,-5.9629139192,-7.5960153436999995,528
48117,173922,159861,1.5864413838,-5.9629139192,-7.5960153436999995,529
48123,173936,159857,1.5864413838,-5.9629139192,-7.5960153436999995,530
48124,173931,159868,1.5864413838,-5.9629139192,-7.5960153436999995,531
48119,173928,159875,1.5864413838,-5.9629139192,-7.5960153436999995,532
48124,173931,159853,1.5864413838,-5.9629139192,-7.5960153436999995,533
48132,173940,159856,1.5864413838,-5.9629139192,-7.5960153436999995,534
48147,173937,159888,1.5864413838,-5.9629139192,-7.5960153436999995,535
48157,173933,159885,1.5864413838,-5.9629139192,-7.5960153436999995,536
48173,173978,159901,1.5864413838,-5.9629139192,-7.5960153436999995,537
48192,173977,159875,1.5864413838,-5.9629139192,-7.5960153436999995,538
48206,173975,159891,1.5864413838,-5.9629139192,-7.5960153436999995,539
48214,174005,159872,1.5864413838,-5.9629139192,-7.5960153436999995,540
48230,173982,159892,1.5864413838,-5.9629139192,-7.5960153436999995,541
48250,174020,159905,1.5864413838,-5.9629139192,-7.5960153436999995,542
48249,174013,159903,1.5864413838,-5.9629139192,-7.5960153436999995,543
48272,174016,159873,1.5864413838,-5.9629139192,-7.5960153436999995,544
48269,174041,159892,1.5864413838,-5.9629139192,-7.5960153436999995,545
48211,173921,159864,1.5864413838,-5.9629139192,-7.5960153436999995,546
48130,173878,159816,1.5864413838,-5.9629139192,-7.5960153436999995,547
48085,173852,159806,1.5864413838,-5.9629139192,-7.5960153436999995,548
48080,173883,159810,1.5864413838,-5.9629139192,-7.5960153436999995,549
48083,173879,159851,1.5864413838,-5.9629139192,-7.5960153436999995,550
48105,173896,159831,1.5864413838,-5.9629139192,-7.5960153436999995,551
48136,173941,159870,1.5864413838,-5.9629139192,-7.5960153436999995,552
48152,173948,159862,1.5864413838,-5.9629139192,-7.5960153436999995,553
48168,173955,159860,1.5864413838,-5.9629139192,-7.5960153436999995,554
48166,173967,159861,1.5864413838,-5.9629139192,-7.5960153436999995,555
48171,173946,159850,1.5864413838,-5.9629139192,-7.5960153436999995,556
48176,173956,159846,1.5864413838,-5.9629139192,-7.5960153436999995,557
48245,174005,159904,1.7862420709,-5.8971112976999995,-7.5744799403,558
48280,173993,159897,1.7862420709,-5.8971112976999995,-7.5744799403,559
48289,174030,159893,1.7862420709,-5.8971112976999995,-7.5744799403,560
48305,174086,159904,1.7862420709,-5.8971112976999995,-7.5744799403,561
48319,174037,159907,1.7862420709,-5.8971112976999995,-7.5744799403,562
48343,174057,159906,1.7862420709,-5.8971112976999995,-7.5744799403,563
48351,174069,159928,1.7862420709,-5.8971112976999995,-7.5744799403,564
48349,174047,159931,1.7862420709,-5.8971112976999995,-7.5744799403,565
48280,173969,159856,1.7862420709,-5.8971112976999995,-7.5744799403,566
48201,173935,159827,1.7862420709,-5.8971112976999995,-7.5744799403,567
48149,173889,159823,1.7862420709,-5.8971112976999995,-7.5744799403,568
48136,173904,159806,1.7862420709,-5.8971112976999995,-7.5744799403,569
48161,173907,159809,1.7862420709,-5.8971112976999995,-7.5744799403,570
48170,173919,159850,1.7862420709,-5.8971112976999995,-7.5744799403,571
48183,173946,159851,1.7862420709,-5.8971112976999995,-7.5744799403,572
48209,173955,159879,1.7862420709,-5.8971112976999995,-7.5744799403,573
48218,173968,159841,1.7862420709,-5.8971112976999995,-7.5744799403,574
48220,173948,159859,1.7862420709,-5.8971112976999995,-7.5744799403,575
48211,173968,159850,1.7862420709,-5.8971112976999995,-7.5744799403,576
48214,173990,159862,1.7862420709,-5.8971112976999995,-7.5744799403,577
48230,173992,159858,1.7862420709,-5.8971112976999995,-7.5744799403,578
48243,174014,159859,1.7862420709,-5.8971112976999995,-7.5744799403,579
48241,174013,159874,1.7862420709,-5.8971112976999995,-7.5744799403,580
48270,174014,159862,1.7862420709,-5.8971112976999995,-7.5744799403,581
48290,174026,159878,1.7862420709,-5.8971112976999995,-7.5744799403,582
48304,174022,159905,1.7862420709,-5.8971112976999995,-7.5744799403,583
48313,174030,159860,1.7862420709,-5.8971112976999995,-7.5744799403,584
48322,174056,159866,1.7862420709,-5.8971112976999995,-7.5744799403,585
48354,174072,159891,1.7862420709,-5.8971112976999995,-7.5744799403,586
48357,174062,159916,1.7862420709,-5.8971112976999995,-7.5744799403,587
48368,174072,159907,1.7862420709,-5.8971112976999995,-7.5744799403,588
48388,174078,159907,1.7862420709,-5.8971112976999995,-7.5744799403,589
48364,174036,159892,1.7862420709,-5.8971112976999995,-7.5744799403,590
48286,173981,159855,1.7862420709,-5.8971112976999995,-7.5744799403,591
48203,173947,159812,1.7862420709,-5.8971112976999995,-7.5744799403,592
48159,173925,159777,1.7862420709,-5.8971112976999995,-7.5744799403,593
48145,173935,159796,1.7862420709,-5.8971112976999995,-7.5744799403,594
48157,173963,159798,1.7862420709,-5.8971112976999995,-7.5744799403,595
48169,173947,159808,1.7862420709,-5.8971112976999995,-7.5744799403,596
48198,173962,159860,1.7862420709,-5.8971112976999995,-7.5744799403,597
48215,173959,159837,1.7862420709,-5.8971112976999995,-7.5744799403,598
48213,173992,159836,1.7862420709,-5.8971112976999995,-7.5744799403,599
48198,173989,159792,1.7001004573,-6.0131631938000005,-7.5529445369,600
48218,173981,159787,1.7001004573,-6.0131631938000005,-7.5529445369,601
48233,174000,159801,1.7001004573,-6.0131631938000005,-7.5529445369,602
48236,174016,159764,1.7001004573,-6.0131631938000005,-7.5529445369,603
48238,173982,159783,1.7001004573,-6.0131631938000005,-7.5529445369,604
48243,174013,159780,1.7001004573,-6.0131631938000005,-7.5529445369,605
48251,174039,159783,1.7001004573,-6.0131631938000005,-7.5529445369,606
48251,174006,159778,1.7001004573,-6.0131631938000005,-7.5529445369,607
48269,173997,159782,1.7001004573,-6.0131631938000005,-7.5529445369,608
48278,174042,159796,1.7001004573,-6.0131631938000005,-7.5529445369,609
48294,174025,159804,1.7001004573,-6.0131631938000005,-7.5529445369,610
48313,174047,159793,1.7001004573,-6.0131631938000005,-7.5529445369,611
48325,174056,159803,1.7001004573,-6.0131631938000005,-7.5529445369,612
48341,174064,159798,1.7001004573,-6.0131631938000005,-7.5529445369,613
48353,174082,159813,1.7001004573,-6.0131631938000005,-7.5529445369,614
48369,174089,159822,1.7001004573,-6.0131631938000005,-7.5529445369,615
48384,174109,159821,1.7001004573,-6.0131631938000005,-7.5529445369,616
48399,174112,159839,1.7001004573,-6.0131631938000005,-7.5529445369,617
48390,174082,159831,1.7001004573,-6.0131631938000005,-7.5529445369,618
48329,174013,159762,1.7001004573,-6.0131631938000005,-7.5529445369,619
48240,173983,159742,1.7001004573,-6.0131631938000005,-7.5529445369,620
48183,173957,159713,1.7001004573,-6.0131631938000005,-7.5529445369,621
48173,173944,159704,1.7001004573,-6.0131631938000005,-7.5529445369,622
48177,173950,159740,1.7001004573,-6.0131631938000005,-7.5529445369,623
48187,173967,159752,1.7001004573,-6.0131631938000005,-7.5529445369,624
48199,173998,159764,1.7001004573,-6.0131631938000005,-7.5529445369,625
48221,173990,159749,1.8101702968999998,-6.0909299283,-7.6713892556,626
48224,174005,159784,1.8101702968999998,-6.0909299283,-7.6713892556,627
48226,173998,159760,1.8101702968999998,-6.0909299283,-7.6713892556,628
48223,174015,159778,1.8101702968999998,-6.0909299283,-7.6713892556,629
48219,173979,159783,1.8101702968999998,-6.0909299283,-7.6713892556,630
48229,173999,159760,1.8101702968999998,-6.0909299283,-7.6713892556,631
48240,174020,159776,1.8101702968999998,-6.0909299283,-7.6713892556,632
48255,174039,159767,1.8101702968999998,-6.0909299283,-7.6713892556,633
48274,174052,159766,1.8101702968999998,-6.0909299283,-7.6713892556,634
48285,174040,159781,1.8101702968999998,-6.0909299283,-7.6713892556,635
48296,174046,159770,1.8101702968999998,-6.0909299283,-7.6713892556,636
48306,174095,159797,1.8101702968999998,-6.0909299283,-7.6713892556,637
48312,174088,159799,1.8101702968999998,-6.0909299283,-7.6713892556,638
48330,174080,159802,1.8101702968999998,-6.0909299283,-7.6713892556,639
48348,174093,159773,1.8101702968999998,-6.0909299283,-7.6713892556,640
48363,174100,159829,1.8101702968999998,-6.0909299283,-7.6713892556,641
48364,174082,159794,1.8101702968999998,-6.0909299283,-7.6713892556,642
48325,174085,159769,1.8101702968999998,-6.0909299283,-7.6713892556,643
48245,174001,159729,1.8101702968999998,-6.0909299283,-7.6713892556,644
48169,173920,159715,1.8101702968999998,-6.0909299283,-7.6713892556,645
48135,173932,159710,1.639083481,-6.0227344842,-7.5637122386,646
48129,173963,159706,1.639083481,-6.0227344842,-7.5637122386,647
48144,173976,159721,1.639083481,-6.0227344842,-7.5637122386,648
48160,174005,159709,1.639083481,-6.0227344842,-7.5637122386,649
48182,174032,159728,1.639083481,-6.0227344842,-7.5637122386,650
48187,174019,159755,1.639083481,-6.0227344842,-7.5637122386,651
48193,174006,159768,1.639083481,-6.0227344842,-7.5637122386,652
48173,174010,159740,1.639083481,-6.0227344842,-7.5637122386,653
48183,174015,159713,1.639083481,-6.0227344842,-7.5637122386,654
48196,174003,159746,1.639083481,-6.0227344842,-7.5637122386,655
48192,174000,159757,1.639083481,-6.0227344842,-7.5637122386,656
48208,174016,159733,1.639083481,-6.0227344842,-7.5637122386,657
48217,174031,159750,1.639083481,-6.0227344842,-7.5637122386,658
48228,174029,159762,1.6941184008,-5.8875400073,-7.7001031268,659
48246,174038,159760,1.6941184008,-5.8875400073,-7.7001031268,660
48270,174023,159739,1.6941184008,-5.8875400073,-7.7001031268,661
48272,174064,159759,1.6941184008,-5.8875400073,-7.7001031268,662
48285,174080,159765,1.6941184008,-5.8875400073,-7.7001031268,663
48302,174070,159766,1.6941184008,-5.8875400073,-7.7001031268,664
48316,174056,159780,1.6941184008,-5.8875400073,-7.7001031268,665
48282,174040,159770,1.6941184008,-5.8875400073,-7.7001031268,666
48186,173966,159710,1.6941184008,-5.8875400073,-7.7001031268,667
48122,173943,159709,1.6941184008,-5.8875400073,-7.7001031268,668
48080,173927,159676,1.6941184008,-5.8875400073,-7.7001031268,669
48084,173903,159706,1.6941184008,-5.8875400073,-7.7001031268,670
48102,173959,159701,1.6941184008,-5.8875400073,-7.7001031268,671
48121,173965,159710,1.6701901747999999,-5.9868421452,-7.5278198996,672
48143,173955,159742,1.6701901747999999,-5.9868421452,-7.5278198996,673
48149,174000,159747,1.6701901747999999,-5.9868421452,-7.5278198996,674
48147,173987,159727,1.6701901747999999,-5.9868421452,-7.5278198996,675
48151,173977,159756,1.6701901747999999,-5.9868421452,-7.5278198996,676
48163,173995,159711,1.6701901747999999,-5.9868421452,-7.5278198996,677
48165,173977,159746,1.6701901747999999,-5.9868421452,-7.5278198996,678
48179,174012,159743,1.6701901747999999,-5.9868421452,-7.5278198996,679
48190,174033,159747,1.6701901747999999,-5.9868421452,-7.5278198996,680
48202,174046,159760,1.6701901747999999,-5.9868421452,-7.5278198996,681
48222,174040,159764,1.6701901747999999,-5.9868421452,-7.5278198996,682
48242,174068,159771,1.6701901747999999,-5.9868421452,-7.5278198996,683
48253,174076,159793,1.6701901747999999,-5.9868421452,-7.5278198996,684
48275,174078,159779,1.6701901747999999,-5.9868421452,-7.5278198996,685
48289,174090,159771,1.6701901747999999,-5.9868421452,-7.5278198996,686
48312,174090,159776,1.6701901747999999,-5.9868421452,-7.5278198996,687
48305,174093,159793,1.6701901747999999,-5.9868421452,-7.5278198996,688
48257,174014,159734,1.6701901747999999,-5.9868421452,-7.5278198996,689
48168,173947,159699,1.6701901747999999,-5.9868421452,-7.5278198996,690
48100,173926,159679,1.6701901747999999,-5.9868421452,-7.5278198996,691
48077,173930,159694,1.6701901747999999,-5.9868421452,-7.5278198996,692
48080,173944,159685,1.6701901747999999,-5.9868421452,-7.5278198996,693
48088,173969,159729,1.6701901747999999,-5.9868421452,-7.5278198996,694
48117,173971,159735,1.6701901747999999,-5.9868421452,-7.5278198996,695
48132,173975,159773,1.6701901747999999,-5.9868421452,-7.5278198996,696
48154,173963,159780,1.6701901747999999,-5.9868421452,-7.5278198996,697
48156,173979,159754,1.6701901747999999,-5.9868421452,-7.5278198996,698
48149,174002,159762,1.6701901747999999,-5.9868421452,-7.5278198996,699
48154,174010,159787,1.6701901747999999,-5.9868421452,-7.5278198996,700
48149,174001,159751,1.6701901747999999,-5.9868421452,-7.5278198996,701
48162,173999,159784,1.6701901747999999,-5.9868421452,-7.5278198996,702
48179,174001,159776,1.6701901747999999,-5.9868421452,-7.5278198996,703
48190,174031,159768,1.6701901747999999,-5.9868421452,-7.5278198996,704
48208,174041,159790,1.6701901747999999,-5.9868421452,-7.5278198996,705
48221,174036,159784,1.6701901747999999,-5.9868421452,-7.5278198996,706
48244,174049,159781,1.6701901747999999,-5.9868421452,-7.5278198996,707
48243,174081,159786,1.6701901747999999,-5.9868421452,-7.5278198996,708
48260,174093,159790,1.6701901747999999,-5.9868421452,-7.5278198996,709
48279,174102,159781,1.6701901747999999,-5.9868421452,-7.5278198996,710
48285,174095,159783,1.6701901747999999,-5.9868421452,-7.5278198996,711
48263,174045,159763,1.6701901747999999,-5.9868421452,-7.5278198996,712
48172,173996,159742,1.6701901747999999,-5.9868421452,-7.5278198996,713
48137,173967,159762,1.6354942471,-5.925825168899999,-7.5996045776,714
48150,173987,159775,1.6354942471,-5.925825168899999,-7.5996045776,715
48160,174003,159780,1.6354942471,-5.925825168899999,-7.5996045776,716
48171,174027,159768,1.6354942471,-5.925825168899999,-7.5996045776,717
48175,173988,159779,1.6354942471,-5.925825168899999,-7.5996045776,718
48191,173988,159754,1.6354942471,-5.925825168899999,-7.5996045776,719
48123,173933,159754,1.6354942471,-5.925825168899999,-7.5996045776,720
48033,173870,159697,1.6354942471,-5.925825168899999,-7.5996045776,721
47982,173840,159682,1.6354942471,-5.925825168899999,-7.5996045776,722
47959,173861,159667,1.6354942471,-5.925825168899999,-7.5996045776,723
47991,173888,159698,1.6354942471,-5.925825168899999,-7.5996045776,724
47993,173907,159734,1.6354942471,-5.925825168899999,-7.5996045776,725
48026,173904,159738,1.6354942471,-5.925825168899999,-7.5996045776,726
48031,173947,159709,1.7814564256999998,-5.8229337971,-7.5900332872,727
48040,173950,159736,1.7814564256999998,-5.8229337971,-7.5900332872,728
48039,173951,159738,1.7814564256999998,-5.8229337971,-7.5900332872,729
48039,173934,159772,1.6701901747999999,-5.8157553293,-7.7312098206,730
48040,173929,159749,1.6175480776,-5.9820565,-7.6366933279,731
48042,173930,159730,1.6414763036,-6.029912952,-7.633104094,732
48077,173942,159762,1.7132609816000002,-5.8516476683,-7.7001031268,733
48077,173991,159775,1.6510475939999998,-6.005984725999999,-7.5828548194,734
48093,173970,159770,1.8005990065,-6.0023954921,-7.6522466748,735
48096,173999,159785,1.5876377951,-6.0239308954999995,-7.683353368600001,736
48109,173999,159780,1.6534404165999999,-5.9593246853,-7.5661050612,737
48132,173987,159767,1.8807585636,-5.9485569836,-7.7228349415,738
48139,173901,159802,1.639083481,-5.984449322600001,-7.585247642000001,739
48154,174026,159804,1.5852449725,-5.9377892819,-7.6319076827,740
48161,173998,159814,1.7036896912000001,-5.9976098469000005,-7.621139981,741
48112,173954,159771,1.7048861025,-6.0083775485999995,-7.5876404646,742
48022,173890,159730,1.5888342063999998,-5.923432346299999,-7.668996433,743
47956,173878,159698,1.7168502155,-5.9509498062,-7.6426753844,744
47930,173873,159710,1.7599210223,-5.922235935,-7.6785677234,745
47935,173811,159698,1.6438691261999998,-5.9306108141000005,-7.6091758679999995,746
47933,173906,159700,1.8089738856,-5.9928242016999995,-7.555337359499999,747
47952,173896,159741,1.7802600144,-5.8959148864,-7.6402825618,748
47970,173921,159740,1.6773686425999998,-5.9306108141000005,-7.6151579245,749
47985,173941,159759,1.6127624323999998,-5.941378515799999,-7.6139615132000005,750
47992,173919,159752,1.7288143285,-5.9748780322,-7.637889739199999,751
47985,173926,159759,1.7204394494000002,-5.9030933542,-7.561319416,752
47978,173935,159754,1.7778671918,-6.0693945249,-7.6498538522,753
47992,173934,159785,1.6055839645999999,-5.9090754107,-7.5804619967999995,754
48002,173974,159771,1.7300107398,-6.0011990808,-7.668996433,755
48013,173925,159787,1.6618152957,-6.050251944099999,-7.6115686905999995,756
48026,173976,159798,1.7599210223,-5.934200048,-7.5780691741999995,757
48092,173967,159811,1.7371892076000002,-6.034698597199999,-7.624729214899999,758
48062,173965,159806,1.7084753364,-5.8229337971,-7.5649086499,759
48073,173982,159828,1.7922241274,-6.038287831100001,-7.6019974002,760
48089,174000,159807,1.7922241274,-6.038287831100001,-7.6019974002,761
48105,174031,159846,1.7922241274,-6.038287831100001,-7.6019974002,762
48119,174044,159823,1.7922241274,-6.038287831100001,-7.6019974002,763
48129,174011,159833,1.7922241274,-6.038287831100001,-7.6019974002,764
48077,173943,159802,1.7922241274,-6.038287831100001,-7.6019974002,765
47989,173874,159745,1.7922241274,-6.038287831100001,-7.6019974002,766
47926,173839,159710,1.7922241274,-6.038287831100001,-7.6019974002,767
47903,173852,159731,1.7922241274,-6.038287831100001,-7.6019974002,768
47916,173822,159738,1.7922241274,-6.038287831100001,-7.6019974002,769
47932,173867,159731,1.7922241274,-6.038287831100001,-7.6019974002,770
47961,173897,159777,1.7922241274,-6.038287831100001,-7.6019974002,771
47986,173909,159775,1.7922241274,-6.038287831100001,-7.6019974002,772
47996,173936,159780,1.7922241274,-6.038287831100001,-7.6019974002,773
47990,173901,159799,1.7922241274,-6.038287831100001,-7.6019974002,774
47993,173908,159789,1.7922241274,-6.038287831100001,-7.6019974002,775
47991,173927,159811,1.7922241274,-6.038287831100001,-7.6019974002,776
48007,173921,159787,1.7922241274,-6.038287831100001,-7.6019974002,777
48014,173944,159812,1.7922241274,-6.038287831100001,-7.6019974002,778
48030,173917,159794,1.7922241274,-6.038287831100001,-7.6019974002,779
48056,173961,159823,1.7922241274,-6.038287831100001,-7.6019974002,780
48064,173966,159821,1.7922241274,-6.038287831100001,-7.6019974002,781
48081,173971,159833,1.7922241274,-6.038287831100001,-7.6019974002,782
48105,174023,159825,1.7922241274,-6.038287831100001,-7.6019974002,783
48127,174000,159842,1.7922241274,-6.038287831100001,-7.6019974002,784
48139,174008,159854,1.7922241274,-6.038287831100001,-7.6019974002,785
48146,174003,159839,1.7922241274,-6.038287831100001,-7.6019974002,786
48171,174015,159843,1.7922241274,-6.038287831100001,-7.6019974002,787
48177,174007,159838,1.7922241274,-6.038287831100001,-7.6019974002,788
48140,173955,159812,1.7922241274,-6.038287831100001,-7.6019974002,789
48055,173903,159768,1.7922241274,-6.038287831100001,-7.6019974002,790
48010,173850,159777,1.7922241274,-6.038287831100001,-7.6019974002,791
47982,173885,159730,1.7922241274,-6.038287831100001,-7.6019974002,792
48003,173872,159745,1.7922241274,-6.038287831100001,-7.6019974002,793
48017,173892,159788,1.7922241274,-6.038287831100001,-7.6019974002,794
48043,173930,159788,1.7922241274,-6.038287831100001,-7.6019974002,795
48067,173926,159794,1.7922241274,-6.038287831100001,-7.6019974002,796
48066,173932,159803,1.7922241274,-6.038287831100001,-7.6019974002,797
48072,173910,159804,1.7922241274,-6.038287831100001,-7.6019974002,798
48086,173956,159804,1.7922241274,-6.038287831100001,-7.6019974002,799
48081,173949,159807,1.7922241274,-6.038287831100001,-7.6019974002,800
48089,173923,159808,1.7922241274,-6.038287831100001,-7.6019974002,801
48158,173961,159835,1.6809578765,-5.983252911299999,-7.654639497399999,802
48171,173988,159843,1.6809578765,-5.983252911299999,-7.654639497399999,803
48178,174002,159839,1.6809578765,-5.983252911299999,-7.654639497399999,804
48208,174023,159830,1.6809578765,-5.983252911299999,-7.654639497399999,805
48212,173986,159856,1.6809578765,-5.983252911299999,-7.654639497399999,806
48179,173957,159808,1.6809578765,-5.983252911299999,-7.654639497399999,807
48098,173876,159759,1.6809578765,-5.983252911299999,-7.654639497399999,808
48031,173858,159723,1.6809578765,-5.983252911299999,-7.654639497399999,809
48026,173858,159744,1.6809578765,-5.983252911299999,-7.654639497399999,810
48029,173877,159777,1.6809578765,-5.983252911299999,-7.654639497399999,811
48061,173882,159757,1.6809578765,-5.983252911299999,-7.654639497399999,812
48086,173927,159805,1.6809578765,-5.983252911299999,-7.654639497399999,813
48114,173938,159815,1.6809578765,-5.983252911299999,-7.654639497399999,814
48119,173920,159838,1.6809578765,-5.983252911299999,-7.654639497399999,815
48123,173937,159825,1.6809578765,-5.983252911299999,-7.654639497399999,816
48132,173942,159813,1.6809578765,-5.983252911299999,-7.654639497399999,817
48131,173942,159797,1.6809578765,-5.983252911299999,-7.654639497399999,818
48146,173966,159831,1.6809578765,-5.983252911299999,-7.654639497399999,819
48165,173976,159821,1.6809578765,-5.983252911299999,-7.654639497399999,820
48170,173986,159852,1.6809578765,-5.983252911299999,-7.654639497399999,821
48194,173973,159849,1.6809578765,-5.983252911299999,-7.654639497399999,822
48211,173987,159837,1.6809578765,-5.983252911299999,-7.654639497399999,823
48232,174007,159859,1.6809578765,-5.983252911299999,-7.654639497399999,824
48253,174010,159870,1.6809578765,-5.983252911299999,-7.654639497399999,825
48259,174030,159861,1.6809578765,-5.983252911299999,-7.654639497399999,826
48274,174057,159868,1.6809578765,-5.983252911299999,-7.654639497399999,827
48299,174026,159858,1.6809578765,-5.983252911299999,-7.654639497399999,828
48300,174053,159857,1.6809578765,-5.983252911299999,-7.654639497399999,829
48269,173994,159849,1.6809578765,-5.983252911299999,-7.654639497399999,830
48178,173913,159810,1.6809578765,-5.983252911299999,-7.654639497399999,831
48107,173884,159753,1.6809578765,-5.983252911299999,-7.654639497399999,832
48089,173859,159784,1.6809578765,-5.983252911299999,-7.654639497399999,833
48083,173895,159769,1.6809578765,-5.983252911299999,-7.654639497399999,834
48092,173879,159770,1.6809578765,-5.983252911299999,-7.654639497399999,835
48119,173888,159792,1.6809578765,-5.983252911299999,-7.654639497399999,836
48143,173938,159811,1.6809578765,-5.983252911299999,-7.654639497399999,837
48158,173950,159829,1.6809578765,-5.983252911299999,-7.654639497399999,838
48162,173946,159830,1.6809578765,-5.983252911299999,-7.654639497399999,839
48151,173947,159828,1.6809578765,-5.983252911299999,-7.654639497399999,840
48156,173947,159809,1.6809578765,-5.983252911299999,-7.654639497399999,841
48161,173999,159831,1.6809578765,-5.983252911299999,-7.654639497399999,842
48162,173976,159842,1.6809578765,-5.983252911299999,-7.654639497399999,843
48242,174034,159863,1.8005990065,-6.0610196458,-7.53739119,844
48255,174013,159853,1.8005990065,-6.0610196458,-7.53739119,845
48261,174034,159876,1.8005990065,-6.0610196458,-7.53739119,846
48272,174048,159874,1.8005990065,-6.0610196458,-7.53739119,847
48287,174049,159881,1.8005990065,-6.0610196458,-7.53739119,848
48295,174013,159871,1.8005990065,-6.0610196458,-7.53739119,849
48234,173973,159816,1.8005990065,-6.0610196458,-7.53739119,850
48151,173942,159810,1.8005990065,-6.0610196458,-7.53739119,851
48081,173902,159789,1.8005990065,-6.0610196458,-7.53739119,852
48060,173887,159774,1.8005990065,-6.0610196458,-7.53739119,853
48072,173895,159785,1.8005990065,-6.0610196458,-7.53739119,854
48080,173911,159787,1.8005990065,-6.0610196458,-7.53739119,855
48101,173917,159785,1.8005990065,-6.0610196458,-7.53739119,856
48113,173918,159825,1.8005990065,-6.0610196458,-7.53739119,857
48116,173921,159812,1.8005990065,-6.0610196458,-7.53739119,858
48116,173942,159803,1.8005990065,-6.0610196458,-7.53739119,859
48103,173941,159804,1.8005990065,-6.0610196458,-7.53739119,860
48103,173958,159812,1.8005990065,-6.0610196458,-7.53739119,861
48106,173946,159837,1.8005990065,-6.0610196458,-7.53739119,862
48116,173930,159798,1.8005990065,-6.0610196458,-7.53739119,863
48134,173957,159827,1.8005990065,-6.0610196458,-7.53739119,864
48137,173975,159819,1.8005990065,-6.0610196458,-7.53739119,865
48155,173983,159825,1.8005990065,-6.0610196458,-7.53739119,866
48156,173989,159827,1.8005990065,-6.0610196458,-7.53739119,867
48165,173996,159836,1.8005990065,-6.0610196458,-7.53739119,868
48183,173989,159836,1.8005990065,-6.0610196458,-7.53739119,869
48199,173994,159838,1.8005990065,-6.0610196458,-7.53739119,870
48185,173978,159840,1.8005990065,-6.0610196458,-7.53739119,871
48112,173940,159779,1.8005990065,-6.0610196458,-7.53739119,872
48029,173862,159747,1.8005990065,-6.0610196458,-7.53739119,873
47995,173865,159745,1.8005990065,-6.0610196458,-7.53739119,874
47983,173852,159771,1.8005990065,-6.0610196458,-7.53739119,875
47994,173867,159789,1.8005990065,-6.0610196458,-7.53739119,876
48008,173889,159787,1.8005990065,-6.0610196458,-7.53739119,877
48040,173921,159805,1.8005990065,-6.0610196458,-7.53739119,878
48048,173923,159834,1.8005990065,-6.0610196458,-7.53739119,879
48058,173969,159824,1.8005990065,-6.0610196458,-7.53739119,880
48051,173931,159815,1.8005990065,-6.0610196458,-7.53739119,881
48054,173955,159823,1.8005990065,-6.0610196458,-7.53739119,882
48068,173957,159821,1.8005990065,-6.0610196458,-7.53739119,883
48076,173956,159811,1.8005990065,-6.0610196458,-7.53739119,884
48089,173944,159838,1.8005990065,-6.0610196458,-7.53739119,885
48035,173957,159811,1.6749758199999998,-5.873183071700001,-7.6115686905999995,886
48032,173932,159832,1.6749758199999998,-5.873183071700001,-7.6115686905999995,887
48039,173936,159814,1.6749758199999998,-5.873183071700001,-7.6115686905999995,888
48054,173955,159849,1.6749758199999998,-5.873183071700001,-7.6115686905999995,889
48058,173953,159849,1.6749758199999998,-5.873183071700001,-7.6115686905999995,890
48079,173970,159851,1.6749758199999998,-5.873183071700001,-7.6115686905999995,891
48094,173987,159849,1.6749758199999998,-5.873183071700001,-7.6115686905999995,892
48109,173997,159869,1.6749758199999998,-5.873183071700001,-7.6115686905999995,893
48138,174018,159873,1.6749758199999998,-5.873183071700001,-7.6115686905999995,894
48166,174015,159871,1.6749758199999998,-5.873183071700001,-7.6115686905999995,895
48160,174018,159865,1.6749758199999998,-5.873183071700001,-7.6115686905999995,896
48190,174037,159874,1.6749758199999998,-5.873183071700001,-7.6115686905999995,897
48194,174052,159875,1.6749758199999998,-5.873183071700001,-7.6115686905999995,898
48190,174017,159868,1.6749758199999998,-5.873183071700001,-7.6115686905999995,899
48128,173963,159820,1.6749758199999998,-5.873183071700001,-7.6115686905999995,900
48035,173889,159812,1.6749758199999998,-5.873183071700001,-7.6115686905999995,901
47987,173880,159781,1.6749758199999998,-5.873183071700001,-7.6115686905999995,902
47978,173868,159820,1.6749758199999998,-5.873183071700001,-7.6115686905999995,903
47988,173885,159777,1.6749758199999998,-5.873183071700001,-7.6115686905999995,904
47996,173889,159785,1.6749758199999998,-5.873183071700001,-7.6115686905999995,905
48034,173905,159839,1.6749758199999998,-5.873183071700001,-7.6115686905999995,906
48044,173954,159840,1.6749758199999998,-5.873183071700001,-7.6115686905999995,907
48050,173954,159853,1.6749758199999998,-5.873183071700001,-7.6115686905999995,908
48052,173946,159837,1.6749758199999998,-5.873183071700001,-7.6115686905999995,909
48048,173958,159817,1.6749758199999998,-5.873183071700001,-7.6115686905999995,910
48051,173943,159855,1.6749758199999998,-5.873183071700001,-7.6115686905999995,911
48066,173947,159808,1.6749758199999998,-5.873183071700001,-7.6115686905999995,912
48079,173968,159830,1.6749758199999998,-5.873183071700001,-7.6115686905999995,913
48091,173970,159858,1.6749758199999998,-5.873183071700001,-7.6115686905999995,914
48104,173997,159837,1.6749758199999998,-5.873183071700001,-7.6115686905999995,915
48119,173979,159868,1.6749758199999998,-5.873183071700001,-7.6115686905999995,916
48141,173997,159836,1.6749758199999998,-5.873183071700001,-7.6115686905999995,917
48149,174009,159873,1.6749758199999998,-5.873183071700001,-7.6115686905999995,918
48166,174009,159855,1.6749758199999998,-5.873183071700001,-7.6115686905999995,919
48176,174029,159868,1.6749758199999998,-5.873183071700001,-7.6115686905999995,920
48196,174021,159879,1.6749758199999998,-5.873183071700001,-7.6115686905999995,921
48166,173994,159851,1.6749758199999998,-5.873183071700001,-7.6115686905999995,922
48082,173915,159826,1.6749758199999998,-5.873183071700001,-7.6115686905999995,923
48011,173886,159797,1.6749758199999998,-5.873183071700001,-7.6115686905999995,924
47985,173895,159773,1.6749758199999998,-5.873183071700001,-7.6115686905999995,925
47991,173896,159769,1.6749758199999998,-5.873183071700001,-7.6115686905999995,926
48011,173908,159817,1.6749758199999998,-5.873183071700001,-7.6115686905999995,927
48030,173989,159875,1.7036896912000001,-5.9282179915,-7.6199435697,928
48041,174016,159882,1.7036896912000001,-5.9282179915,-7.6199435697,929
48061,173987,159892,1.7036896912000001,-5.9282179915,-7.6199435697,930
48075,174020,159916,1.7036896912000001,-5.9282179915,-7.6199435697,931
48090,174036,159899,1.7036896912000001,-5.9282179915,-7.6199435697,932
48089,174004,159921,1.7036896912000001,-5.9282179915,-7.6199435697,933
48052,173970,159862,1.7036896912000001,-5.9282179915,-7.6199435697,934
47969,173897,159850,1.7036896912000001,-5.9282179915,-7.6199435697,935
47898,173840,159819,1.7036896912000001,-5.9282179915,-7.6199435697,936
47857,173873,159812,1.7036896912000001,-5.9282179915,-7.6199435697,937
47851,173892,159811,1.7036896912000001,-5.9282179915,-7.6199435697,938
47867,173892,159829,1.7036896912000001,-5.9282179915,-7.6199435697,939
47874,173912,159830,1.7036896912000001,-5.9282179915,-7.6199435697,940
47902,173913,159873,1.7036896912000001,-5.9282179915,-7.6199435697,941
47920,173912,159873,1.7036896912000001,-5.9282179915,-7.6199435697,942
47918,173939,159859,1.7036896912000001,-5.9282179915,-7.6199435697,943
47917,173902,159852,1.7036896912000001,-5.9282179915,-7.6199435697,944
47915,173922,159868,1.7036896912000001,-5.9282179915,-7.6199435697,945
47919,173926,159874,1.7036896912000001,-5.9282179915,-7.6199435697,946
47938,173959,159897,1.7036896912000001,-5.9282179915,-7.6199435697,947
47953,173963,159898,1.7036896912000001,-5.9282179915,-7.6199435697,948
47972,173946,159895,1.7036896912000001,-5.9282179915,-7.6199435697,949
47981,173969,159907,1.7036896912000001,-5.9282179915,-7.6199435697,950
48010,173973,159902,1.7036896912000001,-5.9282179915,-7.6199435697,951
48023,173987,159921,1.7036896912000001,-5.9282179915,-7.6199435697,952
48030,174006,159924,1.7036896912000001,-5.9282179915,-7.6199435697,953
48042,173991,159920,1.7036896912000001,-5.9282179915,-7.6199435697,954
48068,174022,159914,1.7036896912000001,-5.9282179915,-7.6199435697,955
48053,173992,159898,1.7036896912000001,-5.9282179915,-7.6199435697,956
47984,173912,159882,1.7036896912000001,-5.9282179915,-7.6199435697,957
47899,173871,159843,1.7036896912000001,-5.9282179915,-7.6199435697,958
47862,173860,159805,1.7036896912000001,-5.9282179915,-7.6199435697,959
47850,173839,159839,1.7036896912000001,-5.9282179915,-7.6199435697,960
47856,173881,159826,1.7036896912000001,-5.9282179915,-7.6199435697,961
47869,173886,159866,1.7036896912000001,-5.9282179915,-7.6199435697,962
47903,173890,159861,1.7036896912000001,-5.9282179915,-7.6199435697,963
47918,173897,159880,1.7036896912000001,-5.9282179915,-7.6199435697,964
47928,173905,159884,1.7036896912000001,-5.9282179915,-7.6199435697,965
47925,173919,159865,1.7036896912000001,-5.9282179915,-7.6199435697,966
47922,173898,159901,1.7036896912000001,-5.9282179915,-7.6199435697,967
47937,173909,159880,1.7036896912000001,-5.9282179915,-7.6199435697,968
47938,173892,159878,1.7036896912000001,-5.9282179915,-7.6199435697,969
48032,173971,159929,1.6821542877999998,-5.9018969429000006,-7.5996045776,970
48040,173957,159904,1.6821542877999998,-5.9018969429000006,-7.5996045776,971
48055,173975,159930,1.6821542877999998,-5.9018969429000006,-7.5996045776,972
48064,174010,159949,1.6821542877999998,-5.9018969429000006,-7.5996045776,973
48073,173944,159938,1.6821542877999998,-5.9018969429000006,-7.5996045776,974
48016,173901,159899,1.6821542877999998,-5.9018969429000006,-7.5996045776,975
47940,173855,159847,1.6821542877999998,-5.9018969429000006,-7.5996045776,976
47883,173841,159810,1.6821542877999998,-5.9018969429000006,-7.5996045776,977
47878,173825,159797,1.6821542877999998,-5.9018969429000006,-7.5996045776,978
47889,173842,159813,1.6821542877999998,-5.9018969429000006,-7.5996045776,979
47917,173858,159853,1.6821542877999998,-5.9018969429000006,-7.5996045776,980
47943,173883,159891,1.6821542877999998,-5.9018969429000006,-7.5996045776,981
47961,173926,159890,1.6821542877999998,-5.9018969429000006,-7.5996045776,982
47965,173881,159879,1.6821542877999998,-5.9018969429000006,-7.5996045776,983
47965,173910,159870,1.6821542877999998,-5.9018969429000006,-7.5996045776,984
47970,173902,159861,1.6821542877999998,-5.9018969429000006,-7.5996045776,985
47992,173901,159887,1.6821542877999998,-5.9018969429000006,-7.5996045776,986
47996,173916,159909,1.6821542877999998,-5.9018969429000006,-7.5996045776,987
48017,173937,159880,1.6821542877999998,-5.9018969429000006,-7.5996045776,988
48016,173925,159897,1.6821542877999998,-5.9018969429000006,-7.5996045776,989
48045,173961,159921,1.6821542877999998,-5.9018969429000006,-7.5996045776,990
48069,173943,159927,1.6821542877999998,-5.9018969429000006,-7.5996045776,991
48096,173970,159941,1.6821542877999998,-5.9018969429000006,-7.5996045776,992
48096,173987,159915,1.6821542877999998,-5.9018969429000006,-7.5996045776,993
48116,173981,159925,1.6821542877999998,-5.9018969429000006,-7.5996045776,994
48134,174001,159948,1.6821542877999998,-5.9018969429000006,-7.5996045776,995
48115,173966,159919,1.6821542877999998,-5.9018969429000006,-7.5996045776,996
48032,173916,159879,1.6821542877999998,-5.9018969429000006,-7.5996045776,997
47959,173837,159829,1.6821542877999998,-5.9018969429000006,-7.5996045776,998
47927,173820,159822,1.6821542877999998,-5.9018969429000006,-7.5996045776,999
47922,173873,159843,1.6821542877999998,-5.9018969429000006,-7.5996045776,1000
47927,173841,159844,1.6821542877999998,-5.9018969429000006,-7.5996045776,1001
47945,173869,159884,1.6821542877999998,-5.9018969429000006,-7.5996045776,1002
47970,173899,159897,1.6821542877999998,-5.9018969429000006,-7.5996045776,1003
47990,173903,159868,1.6821542877999998,-5.9018969429000006,-7.5996045776,1004
47990,173890,159903,1.6821542877999998,-5.9018969429000006,-7.5996045776,1005
47994,173915,159904,1.6821542877999998,-5.9018969429000006,-7.5996045776,1006
47995,173910,159880,1.6821542877999998,-5.9018969429000006,-7.5996045776,1007
47995,173935,159902,1.6821542877999998,-5.9018969429000006,-7.5996045776,1008
48007,173919,159901,1.6821542877999998,-5.9018969429000006,-7.5996045776,1009
48019,173943,159892,1.6821542877999998,-5.9018969429000006,-7.5996045776,1010
48027,173949,159929,1.6821542877999998,-5.9018969429000006,-7.5996045776,1011
48134,174015,159911,1.6893327556000002,-5.9820565,-7.6043902228,1012
48148,174013,159936,1.6893327556000002,-5.9820565,-7.6043902228,1013
48162,174028,159940,1.6893327556000002,-5.9820565,-7.6043902228,1014
48161,174042,159930,1.6893327556000002,-5.9820565,-7.6043902228,1015
48091,173933,159884,1.6893327556000002,-5.9820565,-7.6043902228,1016
48025,173888,159861,1.6893327556000002,-5.9820565,-7.6043902228,1017
48000,173905,159851,1.6893327556000002,-5.9820565,-7.6043902228,1018
48003,173908,159879,1.6893327556000002,-5.9820565,-7.6043902228,1019
48006,173894,159872,1.6893327556000002,-5.9820565,-7.6043902228,1020
48035,173926,159879,1.6893327556000002,-5.9820565,-7.6043902228,1021
48067,173979,159884,1.6893327556000002,-5.9820565,-7.6043902228,1022
48083,173961,159911,1.6893327556000002,-5.9820565,-7.6043902228,1023
48108,173957,159928,1.6893327556000002,-5.9820565,-7.6043902228,1024
48102,174004,159924,1.6893327556000002,-5.9820565,-7.6043902228,1025
48112,174003,159933,1.6893327556000002,-5.9820565,-7.6043902228,1026
48113,174003,159918,1.6893327556000002,-5.9820565,-7.6043902228,1027
48134,173982,159924,1.6893327556000002,-5.9820565,-7.6043902228,1028
48150,174023,159928,1.6893327556000002,-5.9820565,-7.6043902228,1029
48167,174024,159915,1.6893327556000002,-5.9820565,-7.6043902228,1030
48186,174033,159960,1.6893327556000002,-5.9820565,-7.6043902228,1031
48200,174012,159942,1.6893327556000002,-5.9820565,-7.6043902228,1032
48224,174071,159957,1.6893327556000002,-5.9820565,-7.6043902228,1033
48235,174068,159975,1.6893327556000002,-5.9820565,-7.6043902228,1034
48260,174072,159971,1.6893327556000002,-5.9820565,-7.6043902228,1035
48270,174063,159972,1.6893327556000002,-5.9820565,-7.6043902228,1036
48286,174095,159957,1.6893327556000002,-5.9820565,-7.6043902228,1037
48294,174077,159968,1.6893327556000002,-5.9820565,-7.6043902228,1038
48245,174043,159902,1.6893327556000002,-5.9820565,-7.6043902228,1039
48176,173955,159897,1.6893327556000002,-5.9820565,-7.6043902228,1040
48123,173945,159876,1.6893327556000002,-5.9820565,-7.6043902228,1041
48094,173944,159878,1.6893327556000002,-5.9820565,-7.6043902228,1042
48100,173945,159895,1.6893327556000002,-5.9820565,-7.6043902228,1043
48120,173966,159890,1.6893327556000002,-5.9820565,-7.6043902228,1044
48139,173974,159921,1.79461695,-5.860022547400001,-7.5326055448,1045
48159,174016,159931,1.79461695,-5.860022547400001,-7.5326055448,1046
48187,174031,159949,1.79461695,-5.860022547400001,-7.5326055448,1047
48187,174026,159930,1.79461695,-5.860022547400001,-7.5326055448,1048
48186,173996,159932,1.79461695,-5.860022547400001,-7.5326055448,1049
48195,174032,159939,1.79461695,-5.860022547400001,-7.5326055448,1050
48191,174024,159924,1.79461695,-5.860022547400001,-7.5326055448,1051
48219,174056,159953,1.79461695,-5.860022547400001,-7.5326055448,1052
48224,174026,159951,1.79461695,-5.860022547400001,-7.5326055448,1053
48239,174070,159953,1.79461695,-5.860022547400001,-7.5326055448,1054
48263,174049,159953,1.79461695,-5.860022547400001,-7.5326055448,1055
48269,174073,159956,1.79461695,-5.860022547400001,-7.5326055448,1056
48292,174074,159970,1.79461695,-5.860022547400001,-7.5326055448,1057
48298,174110,159951,1.79461695,-5.860022547400001,-7.5326055448,1058
48308,174098,159970,1.79461695,-5.860022547400001,-7.5326055448,1059
48320,174090,159952,1.79461695,-5.860022547400001,-7.5326055448,1060
48332,174121,159962,1.79461695,-5.860022547400001,-7.5326055448,1061
48345,174155,159957,1.79461695,-5.860022547400001,-7.5326055448,1062
48355,174108,159966,1.79461695,-5.860022547400001,-7.5326055448,1063
48315,174066,159924,1.79461695,-5.860022547400001,-7.5326055448,1064
48236,174024,159897,1.79461695,-5.860022547400001,-7.5326055448,1065
48170,173964,159895,1.79461695,-5.860022547400001,-7.5326055448,1066
48153,173949,159863,1.79461695,-5.860022547400001,-7.5326055448,1067
48157,173975,159889,1.79461695,-5.860022547400001,-7.5326055448,1068
48167,174006,159891,1.79461695,-5.860022547400001,-7.5326055448,1069
48199,174021,159891,1.79461695,-5.860022547400001,-7.5326055448,1070
48214,174032,159924,1.79461695,-5.860022547400001,-7.5326055448,1071
48228,174050,159942,1.79461695,-5.860022547400001,-7.5326055448,1072
48219,174047,159914,1.79461695,-5.860022547400001,-7.5326055448,1073
48220,174025,159909,1.79461695,-5.860022547400001,-7.5326055448,1074
48217,174029,159914,1.79461695,-5.860022547400001,-7.5326055448,1075
48218,174044,159894,1.79461695,-5.860022547400001,-7.5326055448,1076
48231,174044,159906,1.79461695,-5.860022547400001,-7.5326055448,1077
48246,174072,159923,1.79461695,-5.860022547400001,-7.5326055448,1078
48254,174054,159944,1.79461695,-5.860022547400001,-7.5326055448,1079
48263,174074,159926,1.79461695,-5.860022547400001,-7.5326055448,1080
48281,174083,159916,1.79461695,-5.860022547400001,-7.5326055448,1081
48300,174043,159945,1.79461695,-5.860022547400001,-7.5326055448,1082
48308,174085,159917,1.79461695,-5.860022547400001,-7.5326055448,1083
48323,174092,159934,1.79461695,-5.860022547400001,-7.5326055448,1084
48326,174120,159928,1.79461695,-5.860022547400001,-7.5326055448,1085
48348,174103,159931,1.79461695,-5.860022547400001,-7.5326055448,1086
48296,174072,159904,1.7862420709,-6.0610196458,-7.5278198996,1087
48311,174081,159930,1.7862420709,-6.0610196458,-7.5278198996,1088
48327,174083,159937,1.7862420709,-6.0610196458,-7.5278198996,1089
48345,174129,159935,1.7862420709,-6.0610196458,-7.5278198996,1090
48353,174125,159941,1.7862420709,-6.0610196458,-7.5278198996,1091
48371,174151,159926,1.7862420709,-6.0610196458,-7.5278198996,1092
48373,174146,159952,1.7862420709,-6.0610196458,-7.5278198996,1093
48405,174164,159950,1.7862420709,-6.0610196458,-7.5278198996,1094
48386,174134,159919,1.7862420709,-6.0610196458,-7.5278198996,1095
48318,174069,159881,1.7862420709,-6.0610196458,-7.5278198996,1096
48232,173998,159856,1.7862420709,-6.0610196458,-7.5278198996,1097
48205,173996,159845,1.7862420709,-6.0610196458,-7.5278198996,1098
48182,173981,159837,1.7862420709,-6.0610196458,-7.5278198996,1099
48170,174030,159851,1.7862420709,-6.0610196458,-7.5278198996,1100
48193,174017,159878,1.7862420709,-6.0610196458,-7.5278198996,1101
48219,174074,159887,1.7862420709,-6.0610196458,-7.5278198996,1102
48227,174063,159911,1.7862420709,-6.0610196458,-7.5278198996,1103
48239,174086,159885,1.7862420709,-6.0610196458,-7.5278198996,1104
48235,174093,159922,1.7862420709,-6.0610196458,-7.5278198996,1105
48226,174066,159895,1.7862420709,-6.0610196458,-7.5278198996,1106
48231,174081,159905,1.7862420709,-6.0610196458,-7.5278198996,1107
48225,174039,159881,1.7862420709,-6.0610196458,-7.5278198996,1108
48247,174090,159891,1.7862420709,-6.0610196458,-7.5278198996,1109
48260,174102,159916,1.7862420709,-6.0610196458,-7.5278198996,1110
48274,174130,159917,1.7862420709,-6.0610196458,-7.5278198996,1111
48285,174099,159902,1.7862420709,-6.0610196458,-7.5278198996,1112
48298,174132,159905,1.7862420709,-6.0610196458,-7.5278198996,1113
48304,174133,159902,1.7862420709,-6.0610196458,-7.5278198996,1114
48317,174120,159901,1.7862420709,-6.0610196458,-7.5278198996,1115
48324,174141,159924,1.7862420709,-6.0610196458,-7.5278198996,1116
48348,174166,159906,1.7862420709,-6.0610196458,-7.5278198996,1117
48361,174179,159899,1.7862420709,-6.0610196458,-7.5278198996,1118
48365,174151,159900,1.7862420709,-6.0610196458,-7.5278198996,1119
48321,174116,159878,1.7862420709,-6.0610196458,-7.5278198996,1120
48233,174046,159856,1.7862420709,-6.0610196458,-7.5278198996,1121
48168,174016,159826,1.7862420709,-6.0610196458,-7.5278198996,1122
48138,174005,159819,1.7862420709,-6.0610196458,-7.5278198996,1123
48128,174027,159852,1.7862420709,-6.0610196458,-7.5278198996,1124
48142,174019,159861,1.7862420709,-6.0610196458,-7.5278198996,1125
48165,174052,159867,1.7862420709,-6.0610196458,-7.5278198996,1126
48184,174075,159856,1.7862420709,-6.0610196458,-7.5278198996,1127
48180,174090,159871,1.7862420709,-6.0610196458,-7.5278198996,1128
48103,174066,159844,1.7599210223,-5.9150574672000005,-7.6139615132000005,1129
48098,174021,159854,1.7599210223,-5.9150574672000005,-7.6139615132000005,1130
48096,174045,159818,1.7599210223,-5.9150574672000005,-7.6139615132000005,1131
48110,174044,159803,1.7599210223,-5.9150574672000005,-7.6139615132000005,1132
48121,174044,159867,1.7599210223,-5.9150574672000005,-7.6139615132000005,1133
48134,174065,159851,1.7599210223,-5.9150574672000005,-7.6139615132000005,1134
48149,174099,159839,1.7599210223,-5.9150574672000005,-7.6139615132000005,1135
48177,174111,159847,1.7599210223,-5.9150574672000005,-7.6139615132000005,1136
48170,174075,159854,1.7599210223,-5.9150574672000005,-7.6139615132000005,1137
48186,174089,159864,1.7599210223,-5.9150574672000005,-7.6139615132000005,1138
48211,174119,159858,1.7599210223,-5.9150574672000005,-7.6139615132000005,1139
48222,174101,159873,1.7599210223,-5.9150574672000005,-7.6139615132000005,1140
48219,174118,159863,1.7599210223,-5.9150574672000005,-7.6139615132000005,1141
48243,174135,159860,1.7599210223,-5.9150574672000005,-7.6139615132000005,1142
48244,174105,159896,1.7599210223,-5.9150574672000005,-7.6139615132000005,1143
48251,174106,159864,1.7599210223,-5.9150574672000005,-7.6139615132000005,1144
48176,174059,159824,1.7599210223,-5.9150574672000005,-7.6139615132000005,1145
48100,173993,159776,1.7599210223,-5.9150574672000005,-7.6139615132000005,1146
48047,173959,159766,1.7599210223,-5.9150574672000005,-7.6139615132000005,1147
48058,173989,159778,1.7599210223,-5.9150574672000005,-7.6139615132000005,1148
48051,173982,159753,1.7599210223,-5.9150574672000005,-7.6139615132000005,1149
48064,174026,159807,1.7599210223,-5.9150574672000005,-7.6139615132000005,1150
48104,174043,159827,1.7599210223,-5.9150574672000005,-7.6139615132000005,1151
48119,174036,159822,1.7599210223,-5.9150574672000005,-7.6139615132000005,1152
48127,174028,159826,1.7599210223,-5.9150574672000005,-7.6139615132000005,1153
48121,174063,159824,1.7599210223,-5.9150574672000005,-7.6139615132000005,1154
48108,174049,159828,1.7599210223,-5.9150574672000005,-7.6139615132000005,1155
48123,174023,159823,1.7599210223,-5.9150574672000005,-7.6139615132000005,1156
48126,174043,159797,1.7599210223,-5.9150574672000005,-7.6139615132000005,1157
48142,174043,159826,1.7599210223,-5.9150574672000005,-7.6139615132000005,1158
48158,174076,159865,1.7599210223,-5.9150574672000005,-7.6139615132000005,1159
48165,174072,159829,1.7599210223,-5.9150574672000005,-7.6139615132000005,1160
48180,174065,159814,1.7599210223,-5.9150574672000005,-7.6139615132000005,1161
48199,174076,159867,1.7599210223,-5.9150574672000005,-7.6139615132000005,1162
48212,174058,159843,1.7599210223,-5.9150574672000005,-7.6139615132000005,1163
48217,174086,159862,1.7599210223,-5.9150574672000005,-7.6139615132000005,1164
48234,174091,159856,1.7599210223,-5.9150574672000005,-7.6139615132000005,1165
48259,174108,159855,1.7599210223,-5.9150574672000005,-7.6139615132000005,1166
48268,174126,159866,1.7599210223,-5.9150574672000005,-7.6139615132000005,1167
48226,174041,159809,1.7599210223,-5.9150574672000005,-7.6139615132000005,1168
48147,173970,159806,1.7599210223,-5.9150574672000005,-7.6139615132000005,1169
48094,173931,159770,1.7599210223,-5.9150574672000005,-7.6139615132000005,1170
48207,173971,159750,1.8245272325,-5.9820565,-7.6019974002,1171
48181,173970,159752,1.8245272325,-5.9820565,-7.6019974002,1172
48185,173960,159755,1.8245272325,-5.9820565,-7.6019974002,1173
48189,174012,159760,1.8245272325,-5.9820565,-7.6019974002,1174
48231,174008,159806,1.8245272325,-5.9820565,-7.6019974002,1175
48255,174037,159768,1.8245272325,-5.9820565,-7.6019974002,1176
48264,174057,159808,1.8245272325,-5.9820565,-7.6019974002,1177
48264,174042,159808,1.8245272325,-5.9820565,-7.6019974002,1178
48270,174076,159800,1.8245272325,-5.9820565,-7.6019974002,1179
48271,174053,159812,1.8245272325,-5.9820565,-7.6019974002,1180
48278,174064,159805,1.8245272325,-5.9820565,-7.6019974002,1181
48296,174066,159789,1.8245272325,-5.9820565,-7.6019974002,1182
48305,174092,159827,1.8245272325,-5.9820565,-7.6019974002,1183
48332,174095,159803,1.8245272325,-5.9820565,-7.6019974002,1184
48338,174137,159838,1.8245272325,-5.9820565,-7.6019974002,1185
48354,174123,159857,1.8245272325,-5.9820565,-7.6019974002,1186
48373,174119,159840,1.8245272325,-5.9820565,-7.6019974002,1187
48384,174134,159837,1.8245272325,-5.9820565,-7.6019974002,1188
48404,174150,159836,1.8245272325,-5.9820565,-7.6019974002,1189
48415,174177,159849,1.8245272325,-5.9820565,-7.6019974002,1190
48415,174167,159850,1.8245272325,-5.9820565,-7.6019974002,1191
48360,174087,159819,1.7838492483,-5.9018969429000006,-7.65703232,1192
48267,174027,159773,1.7838492483,-5.9018969429000006,-7.65703232,1193
48225,173975,159752,1.7838492483,-5.9018969429000006,-7.65703232,1194
48197,173998,159760,1.7838492483,-5.9018969429000006,-7.65703232,1195
48201,174006,159757,1.7838492483,-5.9018969429000006,-7.65703232,1196
48228,174031,159772,1.7838492483,-5.9018969429000006,-7.65703232,1197
48239,174081,159768,1.7838492483,-5.9018969429000006,-7.65703232,1198
48266,174058,159795,1.7838492483,-5.9018969429000006,-7.65703232,1199
48277,174064,159775,1.7838492483,-5.9018969429000006,-7.65703232,1200
48278,174070,159818,1.7838492483,-5.9018969429000006,-7.65703232,1201
48272,174086,159790,1.7838492483,-5.9018969429000006,-7.65703232,1202
48277,174082,159803,1.7838492483,-5.9018969429000006,-7.65703232,1203
48280,174091,159802,1.7838492483,-5.9018969429000006,-7.65703232,1204
48297,174090,159806,1.7838492483,-5.9018969429000006,-7.65703232,1205
48307,174084,159841,1.7838492483,-5.9018969429000006,-7.65703232,1206
48343,174121,159849,1.7838492483,-5.9018969429000006,-7.65703232,1207
48343,174096,159819,1.7838492483,-5.9018969429000006,-7.65703232,1208
48360,174119,159834,1.7838492483,-5.9018969429000006,-7.65703232,1209
48378,174130,159835,1.7838492483,-5.9018969429000006,-7.65703232,1210
48388,174156,159842,1.7838492483,-5.9018969429000006,-7.65703232,1211
48408,174156,159847,1.7838492483,-5.9018969429000006,-7.65703232,1212
48421,174143,159847,1.7838492483,-5.9018969429000006,-7.65703232,1213
48436,174158,159854,1.7838492483,-5.9018969429000006,-7.65703232,1214
48438,174167,159847,1.7838492483,-5.9018969429000006,-7.65703232,1215
48395,174138,159803,1.7838492483,-5.9018969429000006,-7.65703232,1216
48311,174045,159753,1.7838492483,-5.9018969429000006,-7.65703232,1217
48253,173994,159744,1.7838492483,-5.9018969429000006,-7.65703232,1218
48234,173994,159761,1.7838492483,-5.9018969429000006,-7.65703232,1219
48225,174048,159749,1.7838492483,-5.9018969429000006,-7.65703232,1220
48243,174050,159755,1.7838492483,-5.9018969429000006,-7.65703232,1221
48270,174050,159780,1.7838492483,-5.9018969429000006,-7.65703232,1222
48288,174078,159790,1.7838492483,-5.9018969429000006,-7.65703232,1223
48297,174089,159808,1.7838492483,-5.9018969429000006,-7.65703232,1224
48301,174052,159791,1.7838492483,-5.9018969429000006,-7.65703232,1225
48293,174069,159789,1.7838492483,-5.9018969429000006,-7.65703232,1226
48307,174057,159814,1.7838492483,-5.9018969429000006,-7.65703232,1227
48311,174077,159823,1.7838492483,-5.9018969429000006,-7.65703232,1228
48318,174087,159832,1.7838492483,-5.9018969429000006,-7.65703232,1229
48332,174092,159791,1.7838492483,-5.9018969429000006,-7.65703232,1230
48354,174120,159833,1.7838492483,-5.9018969429000006,-7.65703232,1231
48373,174125,159820,1.7838492483,-5.9018969429000006,-7.65703232,1232
48386,174137,159815,1.7838492483,-5.9018969429000006,-7.65703232,1233
48316,174135,159815,1.7551353771,-6.0107703712000005,-7.514659375300001,1234
48316,174126,159800,1.7551353771,-6.0107703712000005,-7.514659375300001,1235
48314,174146,159805,1.7551353771,-6.0107703712000005,-7.514659375300001,1236
48318,174144,159812,1.7551353771,-6.0107703712000005,-7.514659375300001,1237
48342,174172,159820,1.7551353771,-6.0107703712000005,-7.514659375300001,1238
48356,174140,159821,1.7551353771,-6.0107703712000005,-7.514659375300001,1239
48367,174189,159837,1.7551353771,-6.0107703712000005,-7.514659375300001,1240
48374,174161,159836,1.7551353771,-6.0107703712000005,-7.514659375300001,1241
48394,174187,159817,1.7551353771,-6.0107703712000005,-7.514659375300001,1242
48409,174149,159848,1.7551353771,-6.0107703712000005,-7.514659375300001,1243
48418,174194,159842,1.7551353771,-6.0107703712000005,-7.514659375300001,1244
48422,174198,159855,1.7551353771,-6.0107703712000005,-7.514659375300001,1245
48437,174244,159848,1.7551353771,-6.0107703712000005,-7.514659375300001,1246
48407,174155,159817,1.7551353771,-6.0107703712000005,-7.514659375300001,1247
48318,174115,159798,1.7551353771,-6.0107703712000005,-7.514659375300001,1248
48262,174057,159754,1.7551353771,-6.0107703712000005,-7.514659375300001,1249
48227,174043,159754,1.7551353771,-6.0107703712000005,-7.514659375300001,1250
48229,174052,159784,1.7551353771,-6.0107703712000005,-7.514659375300001,1251
48247,174084,159745,1.7551353771,-6.0107703712000005,-7.514659375300001,1252
48268,174115,159795,1.7551353771,-6.0107703712000005,-7.514659375300001,1253
48281,174113,159806,1.7551353771,-6.0107703712000005,-7.514659375300001,1254
48284,174132,159778,1.7551353771,-6.0107703712000005,-7.514659375300001,1255
48279,174111,159799,1.7551353771,-6.0107703712000005,-7.514659375300001,1256
48285,174108,159812,1.7551353771,-6.0107703712000005,-7.514659375300001,1257
48274,174104,159785,1.7551353771,-6.0107703712000005,-7.514659375300001,1258
48279,174090,159813,1.7551353771,-6.0107703712000005,-7.514659375300001,1259
48290,174124,159813,1.7551353771,-6.0107703712000005,-7.514659375300001,1260
48303,174128,159825,1.7551353771,-6.0107703712000005,-7.514659375300001,1261
48304,174126,159793,1.7551353771,-6.0107703712000005,-7.514659375300001,1262
48312,174130,159822,1.7551353771,-6.0107703712000005,-7.514659375300001,1263
48328,174152,159824,1.7551353771,-6.0107703712000005,-7.514659375300001,1264
48347,174167,159825,1.7551353771,-6.0107703712000005,-7.514659375300001,1265
48358,174175,159829,1.7551353771,-6.0107703712000005,-7.514659375300001,1266
48375,174168,159822,1.7551353771,-6.0107703712000005,-7.514659375300001,1267
48376,174177,159829,1.7551353771,-6.0107703712000005,-7.514659375300001,1268
48328,174114,159785,1.7551353771,-6.0107703712000005,-7.514659375300001,1269
48251,174062,159783,1.7551353771,-6.0107703712000005,-7.514659375300001,1270
48196,174038,159742,1.7551353771,-6.0107703712000005,-7.514659375300001,1271
48169,174054,159742,1.7551353771,-6.0107703712000005,-7.514659375300001,1272
48186,174056,159779,1.7551353771,-6.0107703712000005,-7.514659375300001,1273
48198,174089,159765,1.7551353771,-6.0107703712000005,-7.514659375300001,1274
48218,174100,159815,1.7551353771,-6.0107703712000005,-7.514659375300001,1275
48059,174066,159833,1.6510475939999998,-6.0442698876,-7.5601230047,1276
48063,174019,159805,1.6510475939999998,-6.0442698876,-7.5601230047,1277
48053,174029,159842,1.6510475939999998,-6.0442698876,-7.5601230047,1278
48055,174062,159830,1.6510475939999998,-6.0442698876,-7.5601230047,1279
48062,174040,159847,1.6510475939999998,-6.0442698876,-7.5601230047,1280
48080,174047,159844,1.6510475939999998,-6.0442698876,-7.5601230047,1281
48082,174042,159839,1.6510475939999998,-6.0442698876,-7.5601230047,1282
48100,174059,159866,1.6510475939999998,-6.0442698876,-7.5601230047,1283
48115,174058,159866,1.6510475939999998,-6.0442698876,-7.5601230047,1284
48134,174097,159902,1.6510475939999998,-6.0442698876,-7.5601230047,1285
48151,174098,159886,1.6510475939999998,-6.0442698876,-7.5601230047,1286
48162,174102,159887,1.6510475939999998,-6.0442698876,-7.5601230047,1287
48180,174120,159902,1.6510475939999998,-6.0442698876,-7.5601230047,1288
48187,174140,159899,1.6510475939999998,-6.0442698876,-7.5601230047,1289
48207,174139,159904,1.6510475939999998,-6.0442698876,-7.5601230047,1290
48213,174114,159889,1.6510475939999998,-6.0442698876,-7.5601230047,1291
48174,174094,159877,1.6510475939999998,-6.0442698876,-7.5601230047,1292
48077,174011,159800,1.6510475939999998,-6.0442698876,-7.5601230047,1293
48014,173970,159792,1.6510475939999998,-6.0442698876,-7.5601230047,1294
47985,173976,159814,1.6510475939999998,-6.0442698876,-7.5601230047,1295
47980,173977,159790,1.6510475939999998,-6.0442698876,-7.5601230047,1296
47997,173998,159824,1.6510475939999998,-6.0442698876,-7.5601230047,1297
48007,174007,159841,1.6510475939999998,-6.0442698876,-7.5601230047,1298
48030,174031,159856,1.6510475939999998,-6.0442698876,-7.5601230047,1299
48044,174039,159846,1.6510475939999998,-6.0442698876,-7.5601230047,1300
48049,174061,159835,1.6510475939999998,-6.0442698876,-7.5601230047,1301
48052,174033,159868,1.6510475939999998,-6.0442698876,-7.5601230047,1302
48045,174052,159846,1.6510475939999998,-6.0442698876,-7.5601230047,1303
48055,174024,159865,1.6510475939999998,-6.0442698876,-7.5601230047,1304
48071,174041,159870,1.6510475939999998,-6.0442698876,-7.5601230047,1305
48076,174074,159864,1.6510475939999998,-6.0442698876,-7.5601230047,1306
48099,174054,159875,1.6510475939999998,-6.0442698876,-7.5601230047,1307
48107,174082,159877,1.6510475939999998,-6.0442698876,-7.5601230047,1308
48125,174086,159815,1.6941184008,-5.9198431124,-7.5505517143,1309
48130,174069,159868,1.6941184008,-5.9198431124,-7.5505517143,1310
48151,174093,159871,1.6941184008,-5.9198431124,-7.5505517143,1311
48161,174107,159911,1.6941184008,-5.9198431124,-7.5505517143,1312
48172,174130,159922,1.6941184008,-5.9198431124,-7.5505517143,1313
48194,174116,159892,1.6941184008,-5.9198431124,-7.5505517143,1314
48201,174128,159908,1.6941184008,-5.9198431124,-7.5505517143,1315
48218,174106,159897,1.6941184008,-5.9198431124,-7.5505517143,1316
48232,174131,159918,1.6941184008,-5.9198431124,-7.5505517143,1317
48212,174124,159858,1.6941184008,-5.9198431124,-7.5505517143,1318
48121,174040,159829,1.6941184008,-5.9198431124,-7.5505517143,1319
48046,173976,159818,1.6941184008,-5.9198431124,-7.5505517143,1320
48024,173991,159808,1.6941184008,-5.9198431124,-7.5505517143,1321
48025,173978,159815,1.6941184008,-5.9198431124,-7.5505517143,1322
48040,173993,159811,1.6941184008,-5.9198431124,-7.5505517143,1323
48069,174038,159855,1.6941184008,-5.9198431124,-7.5505517143,1324
48089,174076,159857,1.6941184008,-5.9198431124,-7.5505517143,1325
48097,174063,159857,1.6941184008,-5.9198431124,-7.5505517143,1326
48092,174026,159836,1.6941184008,-5.9198431124,-7.5505517143,1327
48095,174017,159855,1.6941184008,-5.9198431124,-7.5505517143,1328
48097,174028,159859,1.6941184008,-5.9198431124,-7.5505517143,1329
48091,174050,159850,1.6941184008,-5.9198431124,-7.5505517143,1330
48110,174044,159860,1.6941184008,-5.9198431124,-7.5505517143,1331
48129,174059,159874,1.6941184008,-5.9198431124,-7.5505517143,1332
48143,174080,159850,1.6941184008,-5.9198431124,-7.5505517143,1333
48152,174084,159872,1.6941184008,-5.9198431124,-7.5505517143,1334
48159,174096,159874,1.6941184008,-5.9198431124,-7.5505517143,1335
48181,174098,159894,1.6941184008,-5.9198431124,-7.5505517143,1336
48191,174114,159857,1.6941184008,-5.9198431124,-7.5505517143,1337
48201,174136,159884,1.6941184008,-5.9198431124,-7.5505517143,1338
48214,174121,159860,1.6941184008,-5.9198431124,-7.5505517143,1339
48228,174147,159902,1.6941184008,-5.9198431124,-7.5505517143,1340
48232,174107,159880,1.6941184008,-5.9198431124,-7.5505517143,1341
48195,174078,159851,1.6941184008,-5.9198431124,-7.5505517143,1342
48110,174002,159824,1.6941184008,-5.9198431124,-7.5505517143,1343
48059,173951,159812,1.6941184008,-5.9198431124,-7.5505517143,1344
48045,173975,159795,1.6941184008,-5.9198431124,-7.5505517143,1345
48045,174008,159787,1.6941184008,-5.9198431124,-7.5505517143,1346
48058,173988,159824,1.6941184008,-5.9198431124,-7.5505517143,1347
48081,174053,159849,1.6941184008,-5.9198431124,-7.5505517143,1348
48097,174039,159842,1.6941184008,-5.9198431124,-7.5505517143,1349
48115,174046,159878,1.6941184008,-5.9198431124,-7.5505517143,1350
48136,174112,159919,1.6366906583999998,-5.9629139192,-7.7024959494,1351
48146,174101,159923,1.6366906583999998,-5.9629139192,-7.7024959494,1352
48150,174155,159932,1.6366906583999998,-5.9629139192,-7.7024959494,1353
48171,174152,159947,1.6366906583999998,-5.9629139192,-7.7024959494,1354
48144,174098,159905,1.6366906583999998,-5.9629139192,-7.7024959494,1355
48076,174031,159892,1.6366906583999998,-5.9629139192,-7.7024959494,1356
47993,173977,159867,1.6366906583999998,-5.9629139192,-7.7024959494,1357
47968,173975,159824,1.6366906583999998,-5.9629139192,-7.7024959494,1358
47975,174004,159874,1.6366906583999998,-5.9629139192,-7.7024959494,1359
47990,174004,159863,1.6366906583999998,-5.9629139192,-7.7024959494,1360
48003,174034,159892,1.6366906583999998,-5.9629139192,-7.7024959494,1361
48027,174050,159916,1.6366906583999998,-5.9629139192,-7.7024959494,1362
48029,174051,159901,1.6366906583999998,-5.9629139192,-7.7024959494,1363
48034,174058,159925,1.6366906583999998,-5.9629139192,-7.7024959494,1364
48031,174034,159894,1.6366906583999998,-5.9629139192,-7.7024959494,1365
48032,174025,159902,1.6366906583999998,-5.9629139192,-7.7024959494,1366
48040,174053,159910,1.6366906583999998,-5.9629139192,-7.7024959494,1367
48054,174039,159916,1.6402798923,-5.922235935,-7.6008009889000006,1368
48063,174075,159929,1.6402798923,-5.922235935,-7.6008009889000006,1369
48084,174084,159942,1.6402798923,-5.922235935,-7.6008009889000006,1370
48114,174106,159934,1.6402798923,-5.922235935,-7.6008009889000006,1371
48124,174097,159948,1.6402798923,-5.922235935,-7.6008009889000006,1372
48134,174133,159908,1.6402798923,-5.922235935,-7.6008009889000006,1373
48154,174112,159950,1.6402798923,-5.922235935,-7.6008009889000006,1374
48167,174108,159969,1.6402798923,-5.922235935,-7.6008009889000006,1375
48155,174107,159929,1.6402798923,-5.922235935,-7.6008009889000006,1376
48071,174053,159898,1.6366906583999998,-5.9904313791,-7.637889739199999,1377
48005,173987,159870,1.6366906583999998,-5.9904313791,-7.637889739199999,1378
47972,173975,159846,1.6175480776,-5.9078789994,-7.635496916599999,1379
47970,174000,159885,1.6402798923,-5.8935220638,-7.584051230699999,1380
47986,173990,159879,1.6103696098,-5.9760744435,-7.549355303,1381
48015,174027,159919,1.6618152957,-5.8899328299,-7.555337359499999,1382
48040,174030,159923,1.6941184008,-5.8612189587,-7.6043902228,1383
48059,174045,159926,1.7431712641,-5.9186467011,-7.6043902228,1384
48098,174055,159928,1.6366906583999998,-5.9868421452,-7.5625158273,1385
48064,174040,159926,1.7599210223,-5.9748780322,-7.5756763516,1386
48071,174067,159937,1.6558332392,-5.8707902491,-7.53739119,1387
48092,174073,159934,1.7383856189,-5.954539040099999,-7.625925626199999,1388
48086,174070,159935,1.6606188843999998,-5.996413435599999,-7.633104094,1389
48146,174080,159955,1.7012968686,-5.994020613,-7.6019974002,1390
48129,174107,159954,1.6917255782,-5.844469200500001,-7.5900332872,1391
48141,174100,159940,1.7252250946,-5.9653067418,-7.5026952623000005,1392
48165,174102,159977,1.5888342063999998,-5.970092387,-7.549355303,1393
48173,174103,159978,1.7216358607,-5.9748780322,-7.6235328036,1394
48182,174081,159972,1.5984054967999999,-5.9988062582,-7.625925626199999,1395
48218,174138,159974,1.6797614652,-5.9485569836,-7.568497883799999,1396
48234,174093,159974,1.6941184008,-6.0765729927,-7.5314091335,1397
48237,174151,159984,1.7001004573,-5.9952170243,-7.5314091335,1398
48210,174084,159974,1.7718851352999998,-5.9210395237,-7.5661050612,1399
48131,174008,159917,1.7659030788,-5.8947184750999995,-7.5900332872,1400
48050,174000,159886,1.6821542877999998,-6.034698597199999,-7.5744799403,1401
48025,173993,159885,1.6223337227999999,-5.984449322600001,-7.5098737301,1402
48035,174011,159892,1.5373885205000002,-5.967699564399999,-7.5003024396999995,1403
48041,174038,159914,1.6402798923,-5.9485569836,-7.568497883799999,1404
48059,173968,159919,1.8759729184,-5.8372907327,-7.5996045776,1405
48089,174011,159932,1.7599210223,-6.0203416616,-7.555337359499999,1406
48107,174075,159951,1.722832272,-6.0993048074,-7.5756763516,1407
48103,174048,159954,1.6893327556000002,-5.9365928706,-7.5481588917,1408
48117,174068,159946,1.7718851352999998,-5.8755758943,-7.5661050612,1409
48118,174050,159942,1.6283157793,-5.7678988773,-7.633104094,1410
48128,174086,159974,1.7288143285,-5.7702916999,-7.6163543358,1411
48137,174097,159969,1.603191142,-5.8935220638,-7.695317481599999,1412
48160,174064,159986,1.6893327556000002,-6.0311093633,-7.7024959494,1413
48164,174096,159993,1.6498511827,-6.0263237181000004,-7.6115686905999995,1414
48177,174084,159997,1.7443676754000002,-5.9772708547999995,-7.6307112714,1415
48191,174122,159982,1.6941184008,-5.8636117813,-7.5385876013,1416
48208,174100,160023,1.6833506991,-6.0717873475,-7.6582287313,1417
48229,174124,159976,1.7084753364,-5.913861055899999,-7.6295148601000005,1418
48246,174138,159969,1.7060825138000002,-5.886343596000001,-7.6594251426,1419
48261,174117,159995,1.6654045296,-5.927021580200001,-7.6809605460000006,1420
48271,174127,159999,1.6654045296,-5.927021580200001,-7.6809605460000006,1421
48288,174134,159994,1.6654045296,-5.927021580200001,-7.6809605460000006,1422
48245,174106,159968,1.7647066674999998,-5.7391850061000005,-7.5385876013,1423
48057,174026,159932,1.782652837,-5.927021580200001,-7.6091758679999995,1424
48089,173993,159908,1.7623138449,-5.925825168899999,-7.5864440533,1425
48083,173984,159919,1.7060825138000002,-5.8672010152,-7.5194450205,1426
48081,174013,159933,1.6426727149,-6.0861442831,-7.5541409482,1427
48097,174022,159965,1.6139588437,-5.968895975700001,-7.5936225210999995,1428
48120,174038,159930,1.7694923127,-5.996413435599999,-7.457231632899999,1429
48142,174080,159950,1.7084753364,-5.8779687169,-7.6307112714,1430
48160,174051,159968,1.7156538042,-5.9318072254,-7.5505517143,1431
48160,174035,159962,1.7156538042,-5.9318072254,-7.5505517143,1432
48165,174056,159973,1.7156538042,-5.9318072254,-7.5505517143,1433
48171,174068,159957,1.7156538042,-5.9318072254,-7.5505517143,1434
48171,174089,159962,1.7156538042,-5.9318072254,-7.5505517143,1435
48188,174065,159957,1.7156538042,-5.9318072254,-7.5505517143,1436
48199,174066,159975,1.7156538042,-5.9318072254,-7.5505517143,1437
48213,174112,159993,1.7156538042,-5.9318072254,-7.5505517143,1438
48230,174114,159977,1.7156538042,-5.9318072254,-7.5505517143,1439
48241,174106,159991,1.7156538042,-5.9318072254,-7.5505517143,1440
48260,174117,159978,1.7156538042,-5.9318072254,-7.5505517143,1441
48269,174118,159980,1.7156538042,-5.9318072254,-7.5505517143,1442
48287,174142,159980,1.7156538042,-5.9318072254,-7.5505517143,1443
48300,174131,160015,1.7156538042,-5.9318072254,-7.5505517143,1444
48307,174121,160008,1.7156538042,-5.9318072254,-7.5505517143,1445
48279,174136,159993,1.7156538042,-5.9318072254,-7.5505517143,1446
48189,174040,159938,1.7156538042,-5.9318072254,-7.5505517143,1447
48128,173997,159912,1.7156538042,-5.9318072254,-7.5505517143,1448
48114,173984,159916,1.7156538042,-5.9318072254,-7.5505517143,1449
48124,173992,159930,1.7156538042,-5.9318072254,-7.5505517143,1450
48148,174032,159929,1.7156538042,-5.9318072254,-7.5505517143,1451
48171,174050,159939,1.7156538042,-5.9318072254,-7.5505517143,1452
48202,174088,159999,1.7156538042,-5.9318072254,-7.5505517143,1453
48211,174083,159984,1.7156538042,-5.9318072254,-7.5505517143,1454
48205,174046,159964,1.7156538042,-5.9318072254,-7.5505517143,1455
48213,174079,160009,1.7156538042,-5.9318072254,-7.5505517143,1456
48224,174084,159978,1.7156538042,-5.9318072254,-7.5505517143,1457
48229,174065,160010,1.7156538042,-5.9318072254,-7.5505517143,1458
48234,174075,159993,1.7156538042,-5.9318072254,-7.5505517143,1459
48260,174108,159989,1.7156538042,-5.9318072254,-7.5505517143,1460
48281,174105,160013,1.7156538042,-5.9318072254,-7.5505517143,1461
48304,174140,160021,1.7156538042,-5.9318072254,-7.5505517143,1462
48315,174137,160029,1.7132609816000002,-6.0191452503,-7.5338019561000005,1463
48337,174133,160018,1.7132609816000002,-6.0191452503,-7.5338019561000005,1464
48348,174155,160023,1.7132609816000002,-6.0191452503,-7.5338019561000005,1465
48375,174154,160017,1.7132609816000002,-6.0191452503,-7.5338019561000005,1466
48388,174163,160037,1.7132609816000002,-6.0191452503,-7.5338019561000005,1467
48410,174168,160037,1.7132609816000002,-6.0191452503,-7.5338019561000005,1468
48413,174169,160048,1.7132609816000002,-6.0191452503,-7.5338019561000005,1469
48369,174118,159981,1.7132609816000002,-6.0191452503,-7.5338019561000005,1470
48274,174070,159987,1.7132609816000002,-6.0191452503,-7.5338019561000005,1471
48219,174033,159934,1.7132609816000002,-6.0191452503,-7.5338019561000005,1472
48195,174016,159932,1.7132609816000002,-6.0191452503,-7.5338019561000005,1473
48209,174005,159928,1.7132609816000002,-6.0191452503,-7.5338019561000005,1474
48222,174042,159962,1.7132609816000002,-6.0191452503,-7.5338019561000005,1475
48236,174039,159980,1.7132609816000002,-6.0191452503,-7.5338019561000005,1476
48260,174114,160001,1.7132609816000002,-6.0191452503,-7.5338019561000005,1477
48271,174110,159995,1.7132609816000002,-6.0191452503,-7.5338019561000005,1478
48285,174110,159985,1.7132609816000002,-6.0191452503,-7.5338019561000005,1479
48279,174081,160005,1.7132609816000002,-6.0191452503,-7.5338019561000005,1480
48284,174088,159983,1.7132609816000002,-6.0191452503,-7.5338019561000005,1481
48287,174089,160029,1.7132609816000002,-6.0191452503,-7.5338019561000005,1482
48305,174110,160000,1.7132609816000002,-6.0191452503,-7.5338019561000005,1483
48319,174148,160031,1.7132609816000002,-6.0191452503,-7.5338019561000005,1484
48348,174135,160039,1.7132609816000002,-6.0191452503,-7.5338019561000005,1485
48367,174138,160015,1.7132609816000002,-6.0191452503,-7.5338019561000005,1486
48382,174154,160019,1.7132609816000002,-6.0191452503,-7.5338019561000005,1487
48398,174167,160025,1.7132609816000002,-6.0191452503,-7.5338019561000005,1488
48407,174148,160044,1.7132609816000002,-6.0191452503,-7.5338019561000005,1489
48422,174187,160006,1.7132609816000002,-6.0191452503,-7.5338019561000005,1490
48426,174171,160048,1.7132609816000002,-6.0191452503,-7.5338019561000005,1491
48448,174191,160052,1.7132609816000002,-6.0191452503,-7.5338019561000005,1492
48459,174192,160061,1.7132609816000002,-6.0191452503,-7.5338019561000005,1493
48446,174181,160054,1.7132609816000002,-6.0191452503,-7.5338019561000005,1494
48378,174101,159996,1.7132609816000002,-6.0191452503,-7.5338019561000005,1495
48291,174067,159956,1.6821542877999998,-5.952146217499999,-7.679764134699999,1496
48253,174049,159943,1.6821542877999998,-5.952146217499999,-7.679764134699999,1497
48250,174040,159956,1.6821542877999998,-5.952146217499999,-7.679764134699999,1498
48266,174049,159987,1.6821542877999998,-5.952146217499999,-7.679764134699999,1499
48293,174083,159964,1.6821542877999998,-5.952146217499999,-7.679764134699999,1500
48305,174102,159982,1.6821542877999998,-5.952146217499999,-7.679764134699999,1501
48331,174104,159999,1.6821542877999998,-5.952146217499999,-7.679764134699999,1502
48322,174111,160000,1.6821542877999998,-5.952146217499999,-7.679764134699999,1503
48331,174105,159983,1.6821542877999998,-5.952146217499999,-7.679764134699999,1504
48323,174102,160004,1.6821542877999998,-5.952146217499999,-7.679764134699999,1505
48323,174106,160024,1.6821542877999998,-5.952146217499999,-7.679764134699999,1506
48338,174103,160001,1.6821542877999998,-5.952146217499999,-7.679764134699999,1507
48351,174123,159990,1.6821542877999998,-5.952146217499999,-7.679764134699999,1508
48365,174127,160015,1.6821542877999998,-5.952146217499999,-7.679764134699999,1509
48386,174135,160017,1.6821542877999998,-5.952146217499999,-7.679764134699999,1510
48395,174140,160008,1.6821542877999998,-5.952146217499999,-7.679764134699999,1511
48408,174148,159983,1.6821542877999998,-5.952146217499999,-7.679764134699999,1512
48426,174187,160014,1.6821542877999998,-5.952146217499999,-7.679764134699999,1513
48436,174152,160033,1.6821542877999998,-5.952146217499999,-7.679764134699999,1514
48446,174183,160013,1.6821542877999998,-5.952146217499999,-7.679764134699999,1515
48465,174199,159998,1.6821542877999998,-5.952146217499999,-7.679764134699999,1516
48470,174181,160019,1.6821542877999998,-5.952146217499999,-7.679764134699999,1517
48427,174124,159975,1.6821542877999998,-5.952146217499999,-7.679764134699999,1518
48342,174054,159957,1.6821542877999998,-5.952146217499999,-7.679764134699999,1519
48287,174011,159943,1.6821542877999998,-5.952146217499999,-7.679764134699999,1520
48266,174036,159942,1.6821542877999998,-5.952146217499999,-7.679764134699999,1521
48269,174059,159928,1.6821542877999998,-5.952146217499999,-7.679764134699999,1522
48292,174060,159942,1.6821542877999998,-5.952146217499999,-7.679764134699999,1523
48313,174096,159966,1.6821542877999998,-5.952146217499999,-7.679764134699999,1524
48333,174125,159979,1.6821542877999998,-5.952146217499999,-7.679764134699999,1525
48344,174098,159953,1.6821542877999998,-5.952146217499999,-7.679764134699999,1526
48350,174126,159974,1.6821542877999998,-5.952146217499999,-7.679764134699999,1527
48333,174154,159970,1.6821542877999998,-5.952146217499999,-7.679764134699999,1528
48345,174151,159988,1.6821542877999998,-5.952146217499999,-7.679764134699999,1529
