green,red,IR,acc_x,acc_y,acc_z,sample_index
118435,190723,250366,1.9465611851,-9.5533442305,0.7860422241,1
118417,190769,250360,1.8197415872999998,-9.4540420926,0.8398807326,2
118575,190839,250396,2.0183458631,-9.583254513,0.8374879099999999,3
118759,190888,250504,2.0183458631,-9.5401837062,0.8697910151,4
118937,190954,250581,1.9908284031999999,-9.6167540294,0.6987041992,5
119083,190973,250637,1.9728822337,-9.5844509243,0.8350950873999999,6
119242,191081,250708,1.9968104597,-9.554540641800001,0.8350950873999999,7
119348,191175,250788,1.9022939669999999,-9.6000042712,0.8961120637,8
119502,191258,250854,1.8101702968999998,-9.5138626576,0.9367900479,9
119649,191330,250999,1.8855442087999998,-9.5306124158,0.921236701,10
119806,191329,251005,1.7862420709,-9.5880401582,0.8087740388,11
119991,191393,251011,1.9824535241,-9.621539674600001,0.8482556117000001,12
120090,191409,251091,1.9262221929999999,-9.5066841898,0.8446663778000001,13
120327,191431,251106,1.8544375149999999,-9.5377908836,0.8805587168,14
120500,191425,251094,1.938186306,-9.499505722,0.8626125473,15
120643,191368,251122,2.0638094925,-9.5030949559,0.8650053699,16
120828,191490,251151,2.0315063874,-9.5342016497,0.8398807326,17
120851,191537,251175,2.1511475174,-9.438488745699999,0.9798608547,18
120725,191441,251120,1.9944176371,-9.4851487864,0.8638089586000001,19
120405,191273,251080,2.0506489682,-9.6574320136,0.8350950873999999,20
120087,191088,250902,1.9680965885,-9.487541608999999,0.8542376682,21
119901,191026,250746,1.8412769907000002,-9.5258267706,0.8566304908000001,22
119782,190964,250745,1.9453647738,-9.451649269999999,0.8709874264,23
119812,190988,250761,1.91425808,-9.438488745699999,0.9020941202,24
119945,191002,250775,2.0662023151,-9.5569334644,0.933200814,25
120041,191019,250767,1.8508482811000002,-9.6382894328,0.8422735552,26
120151,191010,250764,2.0015961049,-9.4707918508,0.8793623055,27
120240,191042,250805,1.8747765071,-9.4767739073,0.8662017812,28
120347,191140,250836,1.9310078382,-9.549754996599999,0.8255237969999999,29
120391,191212,250913,1.9872391693,-9.5210411254,0.8877371846000001,30
120601,191206,250910,1.9788642901999998,-9.6047899164,0.8865407733,31
120737,191236,250925,2.0853448959,-9.5066841898,0.849452023,32
120875,191204,250896,1.9812571127999998,-9.443274390900001,0.9559326287,33
121045,191197,250871,2.0350956213,-9.6634140701,0.933200814,34
121118,191168,250898,1.9238293703999998,-9.4791667299,0.921236701,35
121254,191171,250870,2.0159530405,-9.495916488099999,0.8877371846000001,36
121394,191169,250855,1.9645073545999998,-9.5306124158,0.9463613382999999,37
121522,191149,250845,1.9489540077,-9.4313102779,0.8685946038000001,38
121587,191151,250894,2.0303099761,-9.522237536699999,0.8327022648,39
121334,191108,250841,1.9836499354,-9.4791667299,0.8422735552,40
121090,191080,250842,2.1332013479,-9.4504528587,0.8961120637,41
120873,191123,250814,2.1080767106,-9.5007021333,0.885344362,42
120747,191235,250904,2.0207386857,-9.4899344316,0.873380249,43
120651,191303,250917,1.9573288867999998,-9.5461657627,0.9284151688,44
120686,191370,250986,2.0769700168,-9.4265246327,0.945164927,45
120768,191441,251083,2.0961125976,-9.456434915200001,0.9296115801,46
120941,191495,251090,2.0542382021,-9.4576313265,0.8925228298,47
121010,191506,251181,1.9357934834,-9.468399028199999,0.9738787981999999,48
120970,191502,251182,2.1619152191,-9.5533442305,0.9499505722,49
121121,191509,251185,2.1714865095,-9.5126662463,0.873380249,50
121194,191506,251173,2.1714865095,-9.477970318599999,0.7992027483999999,51
121291,191554,251168,2.03389921,-9.5162554802,0.9236295236,52
121386,191543,251216,2.0279171535,-9.5401837062,0.9882357338,53
121480,191500,251199,2.021935097,-9.5509514079,0.8889335959,54
121544,191463,251146,1.8843477975,-9.497112899400001,0.8446663778000001,55
121610,191412,251170,1.9872391693,-9.4337031005,0.8805587168,56
121719,191331,251115,2.1044874766999997,-9.5485585853,0.9427721043999999,57
121892,191283,251072,2.0901305410999997,-9.3750789468,0.9248259349,58
121848,191218,251021,1.9669001771999999,-9.4097748745,0.9906285563999999,59
121819,191148,250975,2.1020946541,-9.710074110799999,0.9176474671,60
121509,191043,250926,1.8999011444,-9.3786681807,0.8518448456000001,61
121208,190974,250857,1.9956140484,-9.6323073763,0.8817551281,62
120945,190816,250767,1.9322042495,-9.5605226983,0.9667003303999999,63
120650,190756,250719,2.0362920326,-9.5007021333,0.9044869428,64
120496,190658,250621,1.962114532,-9.5425765288,0.8350950873999999,65
120448,190587,250607,2.009970984,-9.4899344316,0.8303094421999999,66
120519,190512,250552,2.0075781614,-9.4851487864,0.777667345,67
120447,190438,250447,1.9262221929999999,-9.5198447141,0.8805587168,68
120441,190342,250462,1.9262221929999999,-9.4049892293,0.9140582332,69
120416,190272,250338,1.9477575963999998,-9.6227360859,0.7704888772,70
120397,190241,250289,1.9992032822999999,-9.5784688678,0.8470592004,71
120378,190187,250277,2.0075781614,-9.509077012399999,0.7992027483999999,72
120421,190110,250240,1.9034903783000001,-9.5270231819,0.9068797654,73
120463,190081,250180,1.9334006607999998,-9.4540420926,0.9116654106,74
120505,190026,250117,2.0243279196,-9.576076045199999,0.8590233134,75
120617,190009,250150,1.9214365478,-9.4803631412,0.873380249,76
120657,189941,250070,1.9836499354,-9.510273423700001,0.873380249,77
120742,189913,250105,2.1020946541,-9.576076045199999,0.8398807326,78
120830,189866,250027,2.0243279196,-9.5258267706,0.8374879099999999,79
120965,189870,249969,2.0913269524,-9.5665047548,0.8303094421999999,80
120993,189862,249975,1.9884355805999998,-9.4707918508,0.8793623055,81
120904,189839,249985,2.1068802992999998,-9.4923272542,0.8446663778000001,82
120626,189827,250021,1.8484554585000001,-9.4360959231,0.8350950873999999,83
120232,189734,249926,2.0003996936,-9.475577496,0.7884350467,84
119931,189685,249851,1.9238293703999998,-9.4193461649,0.7752745223999999,85
119665,189626,249807,2.0171494518,-9.6382894328,0.8183453291999999,86
119514,189589,249745,2.0566310246999997,-9.5018985446,0.7824529901999999,87
119475,189570,249763,2.0602202586000002,-9.535398061,0.8554340795,88
119461,189537,249729,2.0745771942,-9.620343263299999,0.7692924659,89
119478,189573,249712,1.9345970721,-9.5712904,0.7441678286,90
119453,189556,249746,1.8855442087999998,-9.487541608999999,0.8267202082999999,91
119418,189570,249737,1.9860427579999997,-9.583254513,0.8207381518,92
119412,189584,249721,1.9477575963999998,-9.631110965,0.8650053699,93
119451,189616,249744,2.081755662,-9.5042913672,0.765703232,94
119544,189708,249761,1.9824535241,-9.5916293921,0.7441678286,95
119585,189857,249830,1.9992032822999999,-9.5282195932,0.8398807326,96
119707,189915,249934,1.9369898947,-9.5282195932,0.7752745223999999,97
119767,189987,249992,1.9310078382,-9.5389872949,0.801595571,98
119909,190049,249999,1.9609181207,-9.5736832226,0.7920242806,99
120039,190092,249993,1.938186306,-9.5808616904,0.8530412569000001,100
120115,190206,250065,1.9477575963999998,-9.5413801175,0.8195417405,101
120280,190201,250117,1.8436698133,-9.4600241491,0.8626125473,102
120302,190208,250134,1.9788642901999998,-9.5605226983,0.9595218625999999,103
120394,190281,250178,1.8317057003,-9.5485585853,0.8937192411,104
120536,190363,250201,1.9692929998,-9.5306124158,0.8063812161999999,105
120606,190371,250244,1.9968104597,-9.576076045199999,0.8039883936,106
120717,190421,250248,1.8735800958,-9.4839523751,0.7286144817,107
120821,190474,250299,2.0590238472999998,-9.6287181424,0.8386843212999999,108
120928,190522,250338,2.0518453795,-9.6634140701,0.8279166196,109
121048,190580,250361,1.9525432416,-9.4827559638,0.8482556117000001,110
121057,190594,250432,1.9716858223999998,-9.598807859899999,0.8374879099999999,111
120907,190589,250418,2.0231315083,-9.4672026169,0.7322037156,112
120537,190571,250413,1.8879370314,-9.509077012399999,0.849452023,113
120120,190592,250407,1.9645073545999998,-9.6394858441,0.9128618219,114
119756,190575,250392,2.0183458631,-9.5904329808,0.8386843212999999,115
119407,190576,250392,1.9692929998,-9.5461657627,0.8207381518,116
119262,190598,250393,1.9692929998,-9.523433948000001,0.9702895642999999,117
119209,190608,250402,1.9298114269,-9.554540641800001,0.8757730716000001,118
119144,190640,250362,1.962114532,-9.7340023368,0.7920242806,119
119222,190644,250399,1.9118652574,-9.407382051899999,0.8470592004,120
119190,190694,250370,1.9034903783000001,-9.487541608999999,0.9296115801,121
119192,190680,250365,2.0267207422,-9.5521478192,0.8207381518,122
119116,190604,250342,1.9357934834,-9.5569334644,0.8709874264,123
119138,190621,250326,1.8329021116,-9.4133641084,0.9439685157,124
119168,190607,250335,1.9214365478,-9.4193461649,0.885344362,125
119231,190600,250307,2.0087745727,-9.4743810847,0.8231309743999999,126
119333,190521,250301,1.938186306,-9.4719882621,0.8542376682,127
119424,190592,250278,1.9501504189999999,-9.4337031005,0.8554340795,128
119531,190586,250238,1.9788642901999998,-9.5282195932,0.8721838377000001,129
119674,190569,250257,2.0709879603,-9.403792818,0.741775006,130
119753,190596,250225,1.7838492483,-9.4049892293,0.9044869428,131
119865,190577,250275,1.9669001771999999,-9.5306124158,0.7441678286,132
119981,190565,250243,1.9908284031999999,-9.509077012399999,0.9296115801,133
120125,190568,250214,1.9501504189999999,-9.4612205604,0.7668996433,134
120219,190545,250211,1.8532411037,-9.407382051899999,0.8518448456000001,135
120315,190542,250193,1.9118652574,-9.6155576181,0.8829515394,136
120368,190558,250207,1.998006871,-9.6478607232,0.8003991597,137
120521,190561,250223,2.0027925162,-9.5054877785,0.7920242806,138
120417,190604,250225,1.9932212258000002,-9.5042913672,0.9200402897,139
120005,190530,250188,1.9824535241,-9.464809794299999,0.9032905315,140
119517,190545,250170,1.9525432416,-9.5210411254,0.8279166196,141
119064,190495,250147,1.9645073545999998,-9.559326287,0.8566304908000001,142
118661,190466,250076,2.0745771942,-9.549754996599999,0.8697910151,143
118428,190391,250023,1.9633109433,-9.531808827099999,0.8458627891,144
118319,190409,250059,2.0075781614,-9.5665047548,0.8757730716000001,145
118276,190423,250023,2.1128623558,-9.499505722,0.9475577495999999,146
118253,190279,249970,2.0398812665,-9.5342016497,0.8542376682,147
118173,190201,249883,1.9453647738,-9.4372923344,0.8889335959,148
118100,190155,249876,1.9944176371,-9.5126662463,1.0600204118,149
118054,190093,249822,2.1080767106,-9.4899344316,0.8470592004,150
117988,189967,249757,1.9633109433,-9.535398061,0.9762716208,151
117967,189846,249683,2.0003996936,-9.4672026169,1.0265208954,152
118022,189800,249645,2.0051853388,-9.5330052384,0.9403792818,153
118090,189766,249583,1.9860427579999997,-9.5449693514,0.801595571,154
118216,189831,249622,1.9776678789,-9.4839523751,0.8518448456000001,155
118348,189816,249649,1.8735800958,-9.3738825355,0.9607182739,156
118455,189837,249664,1.9764714676,-9.4612205604,0.873380249,157
118573,189791,249599,1.9716858223999998,-9.5246303593,0.9702895642999999,158
118701,189821,249615,1.9992032822999999,-9.6095755616,0.7549355303,159
118785,189760,249623,2.0470597343,-9.5042913672,0.9260223462,160
118825,189804,249533,1.9405791285999998,-9.5509514079,0.8877371846000001,161
118998,189745,249557,1.9465611851,-9.499505722,0.9236295236,162
118852,189620,249522,1.9944176371,-9.4301138666,0.8638089586000001,163
118379,189606,249515,2.0374884439,-9.5736832226,0.8626125473,164
117850,189554,249396,1.9417755399,-9.5401837062,0.9116654106,165
117363,189506,249329,2.117648001,-9.5437729401,0.7836494015,166
116879,189416,249331,2.0554346134,-9.5820581017,0.8338986760999999,167
116725,189366,249267,2.0805592507,-9.509077012399999,0.9260223462,168
116662,189322,249224,2.021935097,-9.4085784632,0.9068797654,169
116748,189310,249247,1.9214365478,-9.5007021333,0.8446663778000001,170
116803,189278,249170,1.8735800958,-9.6095755616,0.8757730716000001,171
116805,189264,249168,2.0183458631,-9.4791667299,0.789631458,172
116772,189279,249162,1.8723836845000001,-9.598807859899999,0.8889335959,173
116810,189245,249206,2.1164515897,-9.5916293921,0.8662017812,174
116841,189236,249128,2.0913269524,-9.6131647955,0.8757730716000001,175
116926,189189,249057,1.9417755399,-9.5425765288,0.8877371846000001,176
117009,189122,249082,1.8460626359,-9.5377908836,0.7992027483999999,177
117211,189115,249053,1.9357934834,-9.5042913672,0.8255237969999999,178
117324,189107,248999,1.9477575963999998,-9.5210411254,0.8590233134,179
117457,189091,249043,2.1008982428,-9.5880401582,0.8817551281,180
117630,189092,249046,1.9908284031999999,-9.607182739,0.933200814,181
117796,189131,249047,1.938186306,-9.4528456813,0.8398807326,182
117924,189086,249085,1.9776678789,-9.5365944723,0.8039883936,183
117763,189134,249050,1.9262221929999999,-9.4731846734,0.7872386353999999,184
117259,188949,248993,1.9501504189999999,-9.5940222147,0.8446663778000001,185
116768,189019,249047,2.0542382021,-9.5210411254,0.8231309743999999,186
116352,189023,248988,1.9238293703999998,-9.477970318599999,0.7609175868,187
116089,188987,248939,1.9752750562999999,-9.438488745699999,0.8434699665000001,188
115998,188994,248953,1.9106688461,-9.4325066892,0.7992027483999999,189
116101,189010,248941,2.0709879603,-9.6323073763,0.7848458128,190
116255,189031,249019,1.9453647738,-9.475577496,0.7609175868,191
116376,189067,249007,1.9956140484,-9.6143612068,0.8039883936,192
116410,189045,249021,1.9262221929999999,-9.5856473356,0.7609175868,193
116444,189029,249030,2.0087745727,-9.5377908836,0.7728816998,194
116501,189029,249050,1.8975083218,-9.6155576181,0.8386843212999999,195
116600,189021,248984,1.9429719511999999,-9.4731846734,0.861416136,196
116761,189052,249029,2.0279171535,-9.5688975774,0.7848458128,197
116912,189055,249057,1.9058832009,-9.4923272542,0.7944171031999999,198
117106,189054,249060,2.0590238472999998,-9.687342296099999,0.8793623055,199
117248,189116,249042,1.8675980393,-9.523433948000001,0.8350950873999999,200
117440,189132,249123,2.0255243308999997,-9.5808616904,0.7968099258,201
117628,189209,249131,2.0518453795,-9.6131647955,0.7465606512,202
117838,189275,249150,1.9094724347999998,-9.4612205604,0.7310073043,203
118058,189482,249228,1.998006871,-9.4504528587,0.8279166196,204
118272,189640,249277,1.9968104597,-9.4923272542,0.8721838377000001,205
118454,189714,249368,1.9190437251999999,-9.4743810847,0.9128618219,206
118641,189797,249360,2.0279171535,-9.5210411254,0.8650053699,207
118562,189840,249443,1.9968104597,-9.455238503899999,0.8482556117000001,208
118078,189799,249478,2.069791549,-9.5880401582,0.8446663778000001,209
117470,189846,249444,2.0279171535,-9.5162554802,0.8518448456000001,210
116963,189856,249478,2.0279171535,-9.4887380203,0.8362914987,211
116613,189872,249450,1.9573288867999998,-9.4624169717,0.8530412569000001,212
116379,189915,249446,1.9345970721,-9.4863451977,0.7740781111,213
116256,189956,249465,1.9597217094,-9.4313102779,0.789631458,214
116404,189988,249426,2.0961125976,-9.6574320136,0.8231309743999999,215
116473,190033,249496,1.8951154991999999,-9.6119683842,0.8386843212999999,216
116465,190073,249502,1.9357934834,-9.487541608999999,0.7728816998,217
116485,190112,249527,2.0075781614,-9.4827559638,0.8303094421999999,218
116497,190133,249541,1.9764714676,-9.6023970938,0.8602197247000001,219
116545,190117,249542,1.9848463467,-9.5772724565,0.8255237969999999,220
116627,190133,249552,2.0147566292,-9.4612205604,0.8841479507000001,221
116737,190134,249532,2.0135602179,-9.438488745699999,0.7872386353999999,222
116903,190118,249593,1.91425808,-9.6035935051,0.8159525066,223
117069,190163,249554,1.9728822337,-9.6227360859,0.7800601676,224
117238,190225,249608,1.9310078382,-9.343972252999999,0.849452023,225
117456,190253,249628,2.009970984,-9.4827559638,0.8662017812,226
117633,190282,249654,1.9944176371,-9.4504528587,0.8793623055,227
117788,190252,249698,1.8879370314,-9.5605226983,0.8578269021,228
117988,190320,249722,1.8951154991999999,-9.4911308429,0.9463613382999999,229
118122,190323,249727,1.9764714676,-9.535398061,0.8063812161999999,230
118338,190347,249726,2.0793628394,-9.564111932200001,0.8362914987,231
118462,190363,249708,2.0638094925,-9.4229353988,0.9367900479,232
118636,190387,249731,2.0590238472999998,-9.5736832226,0.8685946038000001,233
118802,190417,249781,1.8963119105000001,-9.5210411254,0.8949156524,234
118950,190423,249766,2.0303099761,-9.549754996599999,0.8937192411,235
119146,190437,249783,2.1116659445,-9.463613383,0.9296115801,236
119224,190451,249749,1.9238293703999998,-9.4899344316,0.9008977089,237
119049,190424,249766,1.9573288867999998,-9.477970318599999,0.861416136,238
118451,190368,249739,1.9525432416,-9.5784688678,0.8291130308999999,239
117795,190363,249746,1.9884355805999998,-9.559326287,0.9188438784,240
117222,190325,249624,2.0255243308999997,-9.5066841898,0.8781658942,241
116739,190278,249580,1.9441683625,-9.511469835,0.8961120637,242
116448,190203,249563,1.9202401365000001,-9.4241318101,0.8745766603,243
116390,190223,249559,2.0315063874,-9.5330052384,0.8051848049,244
116360,190219,249531,1.9764714676,-9.5521478192,0.8937192411,245
116433,190250,249549,1.9872391693,-9.5401837062,0.8159525066,246
116460,190244,249543,1.9824535241,-9.4588277378,0.8673981925,247
116352,190226,249533,2.0171494518,-9.6179504407,0.8279166196,248
116418,190248,249538,2.1188444122999996,-9.510273423700001,0.7848458128,249
116467,190183,249508,2.0626130812,-9.6382894328,0.8327022648,250
116552,190217,249494,1.9932212258000002,-9.5808616904,0.8374879099999999,251
116690,190256,249515,1.998006871,-9.4540420926,0.9320044027,252
116840,190259,249497,2.0123638066000002,-9.549754996599999,0.8398807326,253
116868,190226,249489,1.9836499354,-9.4947200768,0.8422735552,254
117119,190278,249493,1.91425808,-9.4887380203,0.8757730716000001,255
117306,190248,249527,2.0877377184999997,-9.509077012399999,0.7980063370999999,256
117498,190266,249536,2.0901305410999997,-9.6478607232,0.8805587168,257
117532,190163,249457,1.8113667082,-9.4528456813,0.849452023,258
117218,189986,249363,2.0135602179,-9.583254513,0.8231309743999999,259
116576,189887,249320,2.0662023151,-9.583254513,0.8518448456000001,260
115901,189772,249215,1.9286150156,-9.5342016497,0.8925228298,261
115423,189706,249142,2.0231315083,-9.5976114486,0.8183453291999999,262
115062,189759,249173,1.9310078382,-9.5904329808,0.8231309743999999,263
114890,189787,249141,1.9645073545999998,-9.5042913672,0.9068797654,264
114912,189782,249099,1.9453647738,-9.385846648500001,0.9164510558,265
115050,189774,249080,1.9022939669999999,-9.4851487864,0.8566304908000001,266
115178,189718,249116,2.069791549,-9.5449693514,0.897308475,267
115212,189667,249085,2.0374884439,-9.4337031005,0.8877371846000001,268
115205,189616,249007,1.9214365478,-9.4660062056,0.8638089586000001,269
115160,189540,248993,2.1188444122999996,-9.5007021333,0.7956135145,270
115340,189498,248932,2.0063817501,-9.667003304,0.8697910151,271
115448,189533,248918,1.9477575963999998,-9.6634140701,0.8063812161999999,272
115616,189467,248917,1.9573288867999998,-9.5964150373,0.7812565789,273
115776,189413,248900,2.0590238472999998,-9.4588277378,0.8183453291999999,274
115990,189385,248842,2.0542382021,-9.477970318599999,0.8159525066,275
116142,189314,248886,2.0350956213,-9.475577496,0.801595571,276
116334,189275,248813,1.9645073545999998,-9.5736832226,0.8350950873999999,277
116555,189222,248791,2.0566310246999997,-9.6095755616,0.8183453291999999,278
116656,189205,248791,1.9345970721,-9.4133641084,0.8255237969999999,279
116297,189095,248732,1.8687944506,-9.463613383,0.9367900479,280
115633,189039,248682,2.0781664281,-9.607182739,0.7800601676,281
115037,189012,248616,2.0015961049,-9.621539674600001,0.9631110964999999,282
114555,189020,248599,2.0075781614,-9.4863451977,0.7585247642,283
114268,189013,248575,2.0781664281,-9.5174518915,0.9116654106,284
114130,189013,248597,1.9704894111,-9.4791667299,0.7322037156,285
114272,189019,248600,1.9369898947,-9.547362174,0.8925228298,286
114504,189015,248583,2.0327027987,-9.4492564474,0.8087740388,287
114635,188991,248581,1.9788642901999998,-9.499505722,0.8769694829,288
114724,189019,248610,1.8855442087999998,-9.6263253198,0.8542376682,289
114777,189006,248610,1.9106688461,-9.549754996599999,0.8111668613999999,290
114868,188972,248613,1.9692929998,-9.5401837062,0.7704888772,291
115010,188967,248641,2.021935097,-9.6227360859,0.8566304908000001,292
115150,188931,248587,1.9226329591,-9.4815595525,0.8303094421999999,293
115441,188980,248637,1.9776678789,-9.5210411254,0.8207381518,294
115609,188958,248681,1.9920248145,-9.6370930215,0.7992027483999999,295
115804,188962,248654,1.9585252981,-9.5282195932,0.8159525066,296
116013,188948,248675,2.057827436,-9.5425765288,0.8255237969999999,297
116258,188980,248682,1.8975083218,-9.4719882621,0.7010970218,298
116439,188967,248744,2.0709879603,-9.4791667299,0.7728816998,299
116646,188954,248714,2.0279171535,-9.4265246327,0.777667345,300
116830,188955,248751,2.0350956213,-9.5401837062,0.7310073043,301
117032,189004,248763,2.0039889275,-9.487541608999999,0.8542376682,302
117232,188994,248779,1.9022939669999999,-9.3499543095,0.8721838377000001,303
117132,189011,248817,1.9046867896,-9.554540641800001,0.7489534738,304
116624,188966,248800,1.9669001771999999,-9.5030949559,0.8255237969999999,305
115833,188945,248762,1.9262221929999999,-9.5365944723,0.765703232,306
115296,188918,248754,1.8735800958,-9.5413801175,0.7752745223999999,307
114957,188907,248727,1.9166509025999998,-9.5282195932,0.8398807326,308
114733,188888,248707,1.9549360641999998,-9.5246303593,0.9224331123,309
114762,188935,248707,1.9070796122,-9.5054877785,0.8410771438999999,310
114851,188931,248748,1.8532411037,-9.5330052384,0.8099704500999999,311
115022,188937,248797,1.9992032822999999,-9.629914553699999,0.7465606512,312
115112,188980,248781,1.8209379986,-9.4947200768,0.7082754896000001,313
115126,188989,248808,1.9345970721,-9.5653083435,0.8003991597,314
115183,188992,248813,2.0147566292,-9.5485585853,0.7728816998,315
115219,189037,248856,1.9992032822999999,-9.5581298757,0.8458627891,316
115455,189127,248899,1.9932212258000002,-9.5150590689,0.8279166196,317
115657,189194,248916,1.938186306,-9.5964150373,0.8135596839999999,318
115833,189283,248973,1.8687944506,-9.4025964067,0.789631458,319
116055,189314,248986,2.0494525569,-9.583254513,0.9176474671,320
116219,189420,249038,2.0554346134,-9.5976114486,0.789631458,321
116430,189463,249122,2.0673987264,-9.554540641800001,0.8039883936,322
116576,189496,249122,1.9716858223999998,-9.5078806011,0.8506484343,323
116737,189578,249140,1.9872391693,-9.4839523751,0.729810893,324
116968,189596,249147,1.962114532,-9.5736832226,0.7597211755,325
117138,189658,249176,1.8963119105000001,-9.5844509243,0.8362914987,326
117136,189672,249181,2.0997018315,-9.4492564474,0.8075776275,327
116723,189673,249189,1.8687944506,-9.5533442305,0.6687939167,328
115873,189618,249135,2.0243279196,-9.5246303593,0.8159525066,329
115154,189585,249065,1.9872391693,-9.5294160045,0.9008977089,330
114577,189536,249048,1.9752750562999999,-9.4504528587,0.8255237969999999,331
114148,189542,248994,1.806581063,-9.5437729401,0.8159525066,332
113945,189575,248963,2.0781664281,-9.5928258034,0.8769694829,333
113994,189593,248955,1.8855442087999998,-9.4612205604,0.7848458128,334
114125,189638,248971,1.9645073545999998,-9.5868437469,0.7609175868,335
114193,189655,248978,1.8807585636,-9.5150590689,0.9248259349,336
114169,189611,248984,1.9118652574,-9.5078806011,0.765703232,337
114290,189684,248950,1.9549360641999998,-9.7088776995,0.8279166196,338
114312,189662,249023,1.8592231602,-9.6023970938,0.789631458,339
114365,189703,248944,2.0362920326,-9.509077012399999,0.8590233134,340
114203,189660,248951,2.1020946541,-9.5856473356,0.8207381518,341
113948,189665,248971,1.9788642901999998,-9.415756931,0.7884350467,342
113733,189646,248954,1.8759729184,-9.499505722,0.8315058535,343
113844,189642,248968,2.021935097,-9.6095755616,0.7920242806,344
114159,189679,248988,1.9609181207,-9.511469835,0.8135596839999999,345
114447,189770,248971,1.9070796122,-9.5330052384,0.8374879099999999,346
114670,189744,248998,2.0650059038,-9.5007021333,0.8362914987,347
114811,189758,249039,2.0063817501,-9.6454679006,0.8518448456000001,348
114924,189740,248967,2.0709879603,-9.583254513,0.8374879099999999,349
115060,189761,249010,1.9812571127999998,-9.646664311899999,0.8135596839999999,350
115241,189778,249014,1.9788642901999998,-9.5521478192,0.9595218625999999,351
115437,189777,249079,1.962114532,-9.5078806011,0.8039883936,352
115673,189796,249043,1.9166509025999998,-9.4851487864,0.7920242806,353
115828,189814,249067,2.0171494518,-9.531808827099999,0.8183453291999999,354
116068,189799,249107,1.9322042495,-9.5258267706,0.7968099258,355
116242,189842,249122,2.0446669117,-9.583254513,0.8171489179,356
116415,189881,249137,1.9716858223999998,-9.4253282214,0.8482556117000001,357
116361,189864,249139,1.8927226765999998,-9.6502535458,0.8183453291999999,358
115739,189854,249128,1.8017954178,-9.5042913672,0.9032905315,359
114804,189763,249123,1.9992032822999999,-9.4767739073,0.8446663778000001,360
113897,189697,249031,2.009970984,-9.6825566509,0.8087740388,361
113227,189662,248945,1.9286150156,-9.4935236655,0.9116654106,362
112767,189645,248944,1.9573288867999998,-9.4002035841,0.8374879099999999,363
112565,189600,248930,1.866401628,-9.4337031005,0.8685946038000001,364
112650,189632,248923,2.0303099761,-9.510273423700001,0.9080761767,365
112834,189670,248954,1.9501504189999999,-9.5126662463,0.861416136,366
112951,189664,248970,2.0159530405,-9.4935236655,0.8650053699,367
113012,189688,248990,1.9501504189999999,-9.598807859899999,0.765703232,368
113047,189692,248983,1.8891334427000002,-9.5162554802,0.8458627891,369
113162,189708,248963,1.9728822337,-9.5162554802,0.7932206919,370
113314,189711,249040,1.9429719511999999,-9.5712904,0.9176474671,371
113570,189740,249043,2.0530417908,-9.547362174,0.8398807326,372
113729,189733,249027,1.9393827173,-9.5258267706,0.8961120637,373
113980,189739,249068,1.9860427579999997,-9.554540641800001,0.7944171031999999,374
114258,189794,249127,1.9956140484,-9.5688975774,0.8446663778000001,375
114400,189818,249138,2.0709879603,-9.5928258034,0.8207381518,376
114383,189783,249147,1.9597217094,-9.523433948000001,0.8327022648,377
113702,189815,249146,1.9118652574,-9.495916488099999,0.8518448456000001,378
112786,189684,249082,1.9094724347999998,-9.4743810847,0.8662017812,379
111994,189648,249024,1.7850456596,-9.5904329808,0.873380249,380
111438,189627,248998,1.9716858223999998,-9.5736832226,0.7872386353999999,381
111183,189579,248965,2.0542382021,-9.5928258034,0.8685946038000001,382
111144,189594,248954,1.9872391693,-9.5964150373,0.8087740388,383
111446,189597,248996,1.9692929998,-9.4217389875,0.8685946038000001,384
111736,189660,249015,2.0997018315,-9.497112899400001,0.9164510558,385
111944,189639,249024,1.9298114269,-9.5521478192,0.8279166196,386
112082,189583,249079,2.0470597343,-9.511469835,0.9272187574999999,387
112215,189614,249076,1.9429719511999999,-9.4672026169,0.861416136,388
112397,189574,249045,1.9740786449999999,-9.5126662463,0.8207381518,389
112625,189650,249082,1.8939190879,-9.5748796339,0.8949156524,390
112920,189609,249098,1.9788642901999998,-9.549754996599999,0.8662017812,391
113147,189578,249050,2.0279171535,-9.5509514079,0.8327022648,392
113468,189573,249105,2.0769700168,-9.4049892293,0.8542376682,393
113750,189588,249106,1.9549360641999998,-9.5617191096,0.7716852885,394
114044,189568,249092,1.9573288867999998,-9.5665047548,0.7944171031999999,395
114355,189521,249075,1.9884355805999998,-9.4899344316,0.8350950873999999,396
114591,189430,249082,2.0051853388,-9.509077012399999,0.8231309743999999,397
114882,189454,249056,2.0171494518,-9.3655076564,0.8159525066,398
115003,189393,249046,1.9716858223999998,-9.3344009626,0.8159525066,399
114637,189282,248997,1.7970097726,-9.5306124158,0.8063812161999999,400
113741,189212,248919,2.03389921,-9.5509514079,0.8398807326,401
112892,189128,248876,1.9405791285999998,-9.5007021333,0.8111668613999999,402
112186,189049,248782,2.009970984,-9.4719882621,0.8638089586000001,403
111681,188994,248717,2.0446669117,-9.5258267706,0.8566304908000001,404
111500,188935,248649,1.9669001771999999,-9.5018985446,0.9367900479,405
111624,188903,248655,2.0638094925,-9.5042913672,0.8099704500999999,406
111938,188810,248670,2.0027925162,-9.5162554802,0.8327022648,407
112168,188858,248657,1.8400805794,-9.5784688678,0.8542376682,408
112371,188848,248691,1.9824535241,-9.4408815683,0.8446663778000001,409
112453,188812,248642,1.8388841681,-9.6454679006,0.9044869428,410
112593,188782,248641,2.0063817501,-9.6023970938,0.8243273857,411
112760,188769,248638,1.9190437251999999,-9.5150590689,0.8841479507000001,412
113005,188736,248569,1.9944176371,-9.4719882621,0.7920242806,413
113273,188743,248610,1.9932212258000002,-9.5665047548,0.7704888772,414
113604,188728,248645,2.0303099761,-9.6047899164,0.8374879099999999,415
113854,188776,248660,1.8819549749,-9.5916293921,0.7704888772,416
114161,188737,248636,1.9513468303000001,-9.5425765288,0.8638089586000001,417
114481,188750,248650,1.8604195715,-9.5665047548,0.8231309743999999,418
114723,188774,248666,1.9740786449999999,-9.464809794299999,0.9152546444999999,419
114879,188761,248732,2.0075781614,-9.523433948000001,0.7393821834000001,420
114558,188750,248664,1.9884355805999998,-9.7172525786,0.7334001269,421
113822,188689,248676,1.8544375149999999,-9.5688975774,0.7082754896000001,422
113135,188622,248617,2.0159530405,-9.5389872949,0.8231309743999999,423
112632,188598,248565,2.0207386857,-9.4217389875,0.7214360139,424
112400,188599,248546,2.0135602179,-9.4660062056,0.8362914987,425
112370,188573,248509,2.0147566292,-9.5581298757,0.8386843212999999,426
112585,188596,248536,1.9992032822999999,-9.564111932200001,0.8602197247000001,427
112945,188634,248552,1.9334006607999998,-9.5377908836,0.7716852885,428
113133,188620,248580,1.962114532,-9.451649269999999,0.7489534738,429
113292,188618,248617,1.962114532,-9.4695954395,0.7956135145,430
113419,188587,248596,1.9094724347999998,-9.6000042712,0.7944171031999999,431
113617,188636,248659,1.9872391693,-9.583254513,0.8027919822999999,432
113812,188641,248677,1.9824535241,-9.4313102779,0.789631458,433
114059,188708,248688,2.0111673952999998,-9.5042913672,0.7585247642,434
114301,188679,248709,1.8879370314,-9.5138626576,0.7740781111,435
114619,188803,248782,1.9214365478,-9.511469835,0.8063812161999999,436
114948,188915,248847,1.8711872732,-9.4923272542,0.8243273857,437
115231,189010,248931,2.0027925162,-9.5569334644,0.7262216591,438
115430,189104,248951,1.9956140484,-9.621539674600001,0.71784678,439
115773,189152,249002,1.9310078382,-9.4983093107,0.7920242806,440
116009,189185,249042,1.8568303376,-9.518648302799999,0.7992027483999999,441
116260,189262,249090,2.0195422744,-9.621539674600001,0.7968099258,442
116443,189315,249136,1.8436698133,-9.5449693514,0.8410771438999999,443
116391,189325,249148,1.8640088054,-9.6012006825,0.7920242806,444
115774,189299,249151,1.8819549749,-9.4372923344,0.8386843212999999,445
114871,189259,249131,1.8771693297,-9.619146852,0.8434699665000001,446
114099,189224,249052,1.9836499354,-9.633503787599999,0.7968099258,447
113541,189238,248970,2.0111673952999998,-9.5066841898,0.8135596839999999,448
113111,189196,248961,1.9860427579999997,-9.497112899400001,0.8315058535,449
113114,189214,248963,2.0003996936,-9.5688975774,0.8231309743999999,450
113283,189252,248982,1.9334006607999998,-9.4947200768,0.7740781111,451
113510,189273,249006,1.9310078382,-9.6454679006,0.7848458128,452
113597,189271,249021,1.8640088054,-9.487541608999999,0.8159525066,453
113675,189317,249015,1.9824535241,-9.4839523751,0.8087740388,454
113763,189322,249046,2.0003996936,-9.4803631412,0.8518448456000001,455
113875,189366,249061,1.9417755399,-9.443274390900001,0.8171489179,456
114083,189333,249055,1.938186306,-9.6143612068,0.8805587168,457
114283,189348,249082,1.9633109433,-9.487541608999999,0.7824529901999999,458
114485,189380,249093,2.0470597343,-9.4935236655,0.7405785947,459
114757,189397,249113,1.7838492483,-9.3009014462,0.8087740388,460
115002,189433,249136,1.9262221929999999,-9.5425765288,0.8159525066,461
115255,189448,249160,1.8795621523000001,-9.549754996599999,0.8422735552,462
115495,189447,249204,1.9836499354,-9.4815595525,0.7585247642,463
115786,189474,249238,1.9393827173,-9.443274390900001,0.8506484343,464
115998,189523,249207,1.8963119105000001,-9.510273423700001,0.8003991597,465
116234,189532,249245,1.9609181207,-9.6119683842,0.8350950873999999,466
116431,189545,249287,1.8113667082,-9.4217389875,0.8470592004,467
116123,189545,249289,1.9692929998,-9.5174518915,0.8027919822999999,468
115362,189527,249281,2.1116659445,-9.487541608999999,0.8111668613999999,469
114538,189436,249204,1.9740786449999999,-9.5150590689,0.8913264185,470
113855,189455,249146,1.9334006607999998,-9.4911308429,0.849452023,471
113390,189364,249111,2.0398812665,-9.4887380203,0.8458627891,472
113098,189361,249128,2.009970984,-9.4719882621,0.8003991597,473
113099,189379,249147,2.0673987264,-9.443274390900001,0.8757730716000001,474
113360,189394,249147,2.0542382021,-9.5665047548,0.8446663778000001,475
113518,189383,249153,1.8891334427000002,-9.5904329808,0.8446663778000001,476
113729,189400,249201,1.9226329591,-9.5377908836,0.8745766603,477
113840,189493,249215,1.9692929998,-9.4672026169,0.8207381518,478
114000,189452,249180,1.9968104597,-9.4743810847,0.8697910151,479
114133,189431,249217,2.0602202586000002,-9.6131647955,0.8590233134,480
114364,189430,249265,2.0303099761,-9.5485585853,0.8518448456000001,481
114620,189456,249248,1.8771693297,-9.4600241491,0.8159525066,482
114870,189454,249243,2.1140587671,-9.5665047548,0.8231309743999999,483
115140,189496,249303,2.0183458631,-9.6227360859,0.8374879099999999,484
115397,189486,249317,1.9561324755,-9.523433948000001,0.7405785947,485
115669,189479,249340,1.9597217094,-9.564111932200001,0.9032905315,486
115912,189549,249363,1.8975083218,-9.5066841898,0.8913264185,487
116170,189529,249345,2.0231315083,-9.495916488099999,0.8303094421999999,488
116406,189560,249381,2.0159530405,-9.6502535458,0.8889335959,489
116595,189554,249428,1.9525432416,-9.607182739,0.8901300072,490
116268,189555,249347,2.0183458631,-9.5174518915,0.7908278692999999,491
115507,189450,249354,2.141576227,-9.4145605197,0.7764709337,492
114698,189434,249340,1.9956140484,-9.4265246327,0.8374879099999999,493
114066,189385,249276,2.0243279196,-9.5533442305,0.9104689993,494
113652,189341,249245,1.9728822337,-9.371489712899999,0.8243273857,495
113300,189337,249203,2.057827436,-9.522237536699999,0.8267202082999999,496
113346,189300,249243,1.9884355805999998,-9.6155576181,0.7992027483999999,497
113616,189325,249211,1.9872391693,-9.5904329808,0.8243273857,498
113809,189284,249223,1.9334006607999998,-9.523433948000001,0.8207381518,499
113959,189315,249274,1.9956140484,-9.6406822554,0.8063812161999999,500
114064,189314,249257,2.1140587671,-9.576076045199999,0.8446663778000001,501
114094,189265,249237,1.9573288867999998,-9.6813602396,0.9248259349,502
114368,189199,249233,1.8915262653,-9.554540641800001,0.8195417405,503
114595,189184,249187,1.9334006607999998,-9.4672026169,0.8602197247000001,504
114846,189144,249224,1.9836499354,-9.5018985446,0.8805587168,505
115074,189131,249173,2.0398812665,-9.5748796339,0.7956135145,506
115374,189111,249184,2.0327027987,-9.549754996599999,0.8291130308999999,507
115640,189073,249217,1.9010975557,-9.4468636248,0.7585247642,508
115884,189070,249153,1.9226329591,-9.477970318599999,0.7824529901999999,509
116092,189029,249182,1.9992032822999999,-9.4983093107,0.8183453291999999,510
116408,188980,249191,1.9573288867999998,-9.5617191096,0.7441678286,511
116606,188927,249157,1.9202401365000001,-9.4803631412,0.8673981925,512
116853,188931,249128,2.0566310246999997,-9.6490571345,0.8243273857,513
117063,188850,249095,2.0303099761,-9.5928258034,0.7441678286,514
117191,188836,249071,1.9094724347999998,-9.3511507208,0.8578269021,515
116867,188762,249056,1.8807585636,-9.3164547931,0.7585247642,516
116180,188719,249017,1.9202401365000001,-9.3834538259,0.7752745223999999,517
115525,188672,248971,1.8759729184,-9.4337031005,0.8087740388,518
114999,188609,248920,1.9692929998,-9.3523471321,0.8039883936,519
114694,188591,248912,1.9764714676,-9.633503787599999,0.7992027483999999,520
114603,188605,248865,1.9465611851,-9.3344009626,0.7704888772,521
114761,188597,248879,1.8687944506,-9.2398844699,0.7824529901999999,522
114971,188613,248921,1.8448662246,-9.1513500337,0.8470592004,523
115104,188579,248927,2.069791549,-9.909874797899999,0.8219345630999999,524
115199,188602,248922,1.8592231602,-9.2350988247,0.7010970218,525
115247,188554,248940,1.8747765071,-9.4229353988,0.753739119,526
115384,188547,248896,1.8987047331,-9.3774717694,0.6891329087999999,527
115551,188471,248928,2.1631116304,-9.702895643,0.8195417405,528
115644,188488,248908,1.8496518698,-9.5425765288,0.6556333924,529
115935,188502,248866,1.9609181207,-9.3355973739,0.6915257314000001,530
116155,188470,248924,1.9417755399,-9.1441715659,0.8446663778000001,531
116389,188531,248999,2.0542382021,-10.013962581,0.8183453291999999,532
116595,188531,248940,1.9716858223999998,-9.3571327773,0.6340979889999999,533
116904,188527,248970,2.0027925162,-9.7950193131,0.7633104094,534
117065,188524,248951,2.0183458631,-9.456434915200001,0.6891329087999999,535
117265,188498,248963,1.8329021116,-9.4456672135,0.7106683122,536
117443,188522,248997,2.1200408236,-9.9397850804,0.7860422241,537
117648,188525,248996,1.8975083218,-9.7340023368,0.8386843212999999,538
117846,188527,249030,1.9417755399,-9.487541608999999,0.8350950873999999,539
118061,188546,248981,1.8161523534,-9.3583291886,0.8267202082999999,540
118206,188558,248987,1.9393827173,-9.8297152408,0.8111668613999999,541
118404,188546,249040,1.9728822337,-9.8201439504,0.7836494015,542
118583,188552,249023,1.9609181207,-9.4002035841,0.7322037156,543
118770,188548,249024,1.9525432416,-9.4061856406,0.6281159325,544
118917,188566,249032,1.8520446924,-9.6119683842,0.6963113766000001,545
119098,188539,249058,2.0769700168,-9.643075077999999,0.6891329087999999,546
119218,188554,249042,1.8209379986,-9.549754996599999,0.7226324252,547
119384,188615,249042,1.91425808,-9.420542576199999,0.7106683122,548
119541,188633,249072,1.9094724347999998,-9.4624169717,0.7010970218,549
119710,188813,249168,1.8711872732,-9.4241318101,0.6891329087999999,550
119942,188904,249260,1.9453647738,-9.5054877785,0.7573283529,551
119910,188972,249288,1.8855442087999998,-9.5066841898,0.7465606512,552
119430,189009,249337,1.9525432416,-9.511469835,0.6819544409999999,553
118784,189002,249338,1.9884355805999998,-9.629914553699999,0.7046862557000001,554
118281,188931,249269,2.0685951377,-9.340383019099999,0.789631458,555
117902,188982,249249,2.0638094925,-9.5030949559,0.6819544409999999,556
117716,189009,249263,1.9824535241,-9.6095755616,0.7633104094,557
117662,189016,249248,2.0195422744,-9.5856473356,0.8434699665000001,558
117748,189046,249298,1.9704894111,-9.5916293921,0.8530412569000001,559
117791,189103,249268,1.9728822337,-9.5401837062,0.7082754896000001,560
117790,189146,249293,1.9501504189999999,-9.621539674600001,0.7920242806,561
117801,189221,249300,2.0362920326,-9.7160561673,0.8099704500999999,562
117717,189222,249343,1.9250257817,-9.21236701,0.6915257314000001,563
117726,189271,249317,1.9872391693,-9.6586284249,0.7848458128,564
117819,189271,249305,1.8951154991999999,-9.726823869,0.8063812161999999,565
117891,189336,249371,1.8975083218,-9.4947200768,0.7980063370999999,566
118038,189386,249392,1.9118652574,-9.5162554802,0.8243273857,567
118100,189397,249400,1.9357934834,-9.6119683842,0.765703232,568
118293,189458,249439,1.9549360641999998,-9.549754996599999,0.8075776275,569
118482,189445,249471,1.9298114269,-9.576076045199999,0.7992027483999999,570
118616,189506,249463,1.9561324755,-9.495916488099999,0.8123632727,571
118807,189506,249509,1.9298114269,-9.554540641800001,0.8267202082999999,572
118948,189536,249531,1.9214365478,-9.4803631412,0.8530412569000001,573
119075,189547,249582,2.0051853388,-9.5342016497,0.8446663778000001,574
119260,189607,249573,2.1020946541,-9.5569334644,0.7549355303,575
119242,189640,249593,1.9812571127999998,-9.5258267706,0.8470592004,576
118804,189576,249589,1.9022939669999999,-9.420542576199999,0.8721838377000001,577
118091,189545,249569,1.9788642901999998,-9.6119683842,0.8075776275,578
117435,189449,249512,2.069791549,-9.5413801175,0.8721838377000001,579
116931,189458,249478,1.9836499354,-9.6023970938,0.8602197247000001,580
116543,189418,249448,1.9477575963999998,-9.4121676971,0.7429714173,581
116373,189419,249404,1.9166509025999998,-9.576076045199999,0.7836494015,582
116413,189417,249408,1.9226329591,-9.5066841898,0.8662017812,583
116554,189476,249455,1.9764714676,-9.509077012399999,0.8063812161999999,584
116606,189488,249463,2.0829520733,-9.5377908836,0.849452023,585
116643,189481,249489,1.9716858223999998,-9.5521478192,0.6951149653,586
116683,189501,249511,1.9477575963999998,-9.464809794299999,0.8207381518,587
116785,189480,249501,1.9561324755,-9.5246303593,0.8315058535,588
116872,189435,249489,1.9764714676,-9.5712904,0.7585247642,589
117046,189528,249498,1.9884355805999998,-9.6825566509,0.765703232,590
117207,189612,249531,1.9441683625,-9.5258267706,0.8303094421999999,591
117381,189575,249567,1.9740786449999999,-9.5401837062,0.8195417405,592
117547,189645,249521,2.0231315083,-9.477970318599999,0.8841479507000001,593
117784,189635,249621,1.8652052167000002,-9.549754996599999,0.8207381518,594
117773,189614,249616,2.0422740890999997,-9.4911308429,0.8602197247000001,595
117361,189573,249613,1.9286150156,-9.5162554802,0.7824529901999999,596
116608,189506,249545,1.8759729184,-9.5677011661,0.8386843212999999,597
115969,189504,249540,2.0566310246999997,-9.5605226983,0.7525427077,598
115449,189483,249497,1.9692929998,-9.6119683842,0.849452023,599
115146,189459,249510,1.8747765071,-9.5653083435,0.8327022648,600
115014,189456,249467,2.0781664281,-9.5042913672,0.8039883936,601
115127,189483,249433,1.938186306,-9.5330052384,0.8350950873999999,602
115341,189465,249462,1.8197415872999998,-9.6000042712,0.7405785947,603
115546,189486,249513,2.0183458631,-9.510273423700001,0.8913264185,604
115638,189503,249560,1.8951154991999999,-9.5856473356,0.7393821834000001,605
115753,189461,249534,1.9716858223999998,-9.522237536699999,0.8195417405,606
115880,189462,249536,1.9860427579999997,-9.4815595525,0.8841479507000001,607
116010,189479,249547,1.9118652574,-9.4002035841,0.9487541609,608
116140,189502,249600,1.9585252981,-9.7615197967,0.9176474671,609
116455,189527,249582,1.9525432416,-9.4707918508,0.7920242806,610
116661,189474,249598,1.8999011444,-9.5976114486,0.8183453291999999,611
116935,189542,249600,2.0422740890999997,-9.547362174,0.7728816998,612
117120,189532,249645,1.8305092889999999,-9.535398061,0.7848458128,613
117337,189567,249697,2.0350956213,-9.438488745699999,0.849452023,614
117629,189573,249737,1.9824535241,-9.5007021333,0.8111668613999999,615
117496,189575,249693,1.8831513862,-9.477970318599999,0.8063812161999999,616
116974,189542,249695,2.0709879603,-9.3690968903,0.8422735552,617
116204,189496,249642,1.9489540077,-9.620343263299999,0.8063812161999999,618
115523,189447,249590,2.0745771942,-9.511469835,0.9032905315,619
115021,189431,249544,2.093719775,-9.5150590689,0.8937192411,620
114709,189391,249538,1.9824535241,-9.4899344316,0.8075776275,621
114625,189374,249571,1.8687944506,-9.714859756,0.8279166196,622
114838,189385,249576,2.0003996936,-9.5042913672,0.8446663778000001,623
115025,189386,249573,1.9106688461,-9.5246303593,0.8279166196,624
115169,189428,249594,1.9776678789,-9.547362174,0.8422735552,625
115267,189434,249619,1.9716858223999998,-9.4983093107,0.8183453291999999,626
115386,189448,249633,1.9920248145,-9.4181497536,0.7848458128,627
115558,189425,249660,1.7934205387,-9.4672026169,0.9080761767,628
115738,189406,249618,1.9190437251999999,-9.5030949559,0.8135596839999999,629
115873,189458,249621,1.9740786449999999,-9.438488745699999,0.7944171031999999,630
116165,189473,249649,2.0159530405,-9.5665047548,0.8279166196,631
116372,189504,249697,1.9286150156,-9.4600241491,0.8255237969999999,632
116638,189522,249707,2.0374884439,-9.5808616904,0.9008977089,633
116877,189551,249735,1.9070796122,-9.455238503899999,0.7932206919,634
117164,189564,249776,2.0781664281,-9.5485585853,0.8303094421999999,635
117371,189587,249831,1.9345970721,-9.518648302799999,0.8650053699,636
117614,189634,249799,1.9992032822999999,-9.5126662463,0.8183453291999999,637
117819,189646,249832,2.0147566292,-9.5784688678,0.9846464999,638
117948,189698,249875,1.9082760235,-9.468399028199999,0.9044869428,639
117992,189685,249890,2.0147566292,-9.5306124158,0.885344362,640
117421,189613,249910,1.9716858223999998,-9.4337031005,0.849452023,641
116578,189541,249837,2.0410776778,-9.5377908836,0.9020941202,642
115851,189529,249792,2.0303099761,-9.5521478192,0.8602197247000001,643
115279,189479,249774,1.8221344098999999,-9.4325066892,0.7992027483999999,644
114887,189415,249735,2.0087745727,-9.4983093107,0.8003991597,645
114777,189418,249727,2.009970984,-9.4803631412,0.8781658942,646
114796,189450,249705,1.9393827173,-9.4600241491,0.9248259349,647
115043,189486,249766,1.91425808,-9.4660062056,0.8590233134,648
115140,189453,249760,1.9932212258000002,-9.5389872949,0.8721838377000001,649
115238,189451,249762,1.9812571127999998,-9.4002035841,0.8207381518,650
115358,189463,249817,1.9872391693,-9.5030949559,0.8374879099999999,651
115535,189442,249819,2.0039889275,-9.5712904,0.8506484343,652
115687,189420,249787,1.9992032822999999,-9.4217389875,0.7369893608,653
115991,189411,249862,1.9070796122,-9.5688975774,0.9200402897,654
116277,189401,249853,1.9908284031999999,-9.4911308429,0.9008977089,655
116520,189363,249854,2.0027925162,-9.5258267706,0.765703232,656
116834,189349,249794,1.9286150156,-9.6083791503,0.8434699665000001,657
117050,189352,249837,2.0410776778,-9.5377908836,0.8721838377000001,658
117266,189352,249819,2.1128623558,-9.5401837062,0.8638089586000001,659
117417,189400,249834,1.9477575963999998,-9.564111932200001,0.8590233134,660
117144,189385,249872,2.0063817501,-9.564111932200001,0.7860422241,661
116428,189285,249820,1.9597217094,-9.5724868113,0.801595571,662
115649,189182,249781,2.1786649773,-9.6131647955,0.7118647235000001,663
115078,189136,249711,2.0925233637,-9.595218626,0.8087740388,664
114625,189073,249662,2.0350956213,-9.5808616904,0.777667345,665
114469,189119,249695,1.9034903783000001,-9.5461657627,0.8638089586000001,666
114601,189177,249696,2.1930219129,-9.5282195932,0.8255237969999999,667
114859,189133,249690,2.0087745727,-9.4612205604,0.8757730716000001,668
114971,189157,249722,2.0638094925,-9.5030949559,0.8219345630999999,669
115068,189121,249716,1.9465611851,-9.4217389875,0.7800601676,670
115146,189105,249684,2.1511475174,-9.4815595525,0.7226324252,671
115204,189080,249717,1.91425808,-9.5844509243,0.7250252478,672
115344,189075,249660,1.9130616687,-9.385846648500001,0.8685946038000001,673
115558,189114,249735,2.0051853388,-9.4025964067,0.8781658942,674
115764,189110,249698,2.045863323,-9.5210411254,0.777667345,675
116005,189126,249708,2.0003996936,-9.4899344316,0.7968099258,676
116230,189115,249755,1.9824535241,-9.475577496,0.8685946038000001,677
116493,189097,249694,2.0386848552,-9.564111932200001,0.8506484343,678
116667,189120,249789,2.0685951377,-9.5964150373,0.7824529901999999,679
116853,189103,249751,1.998006871,-9.438488745699999,0.8913264185,680
117137,189134,249797,2.0434705004000002,-9.4025964067,0.9439685157,681
117330,189137,249801,2.0267207422,-9.4468636248,0.8602197247000001,682
117504,189136,249791,1.9405791285999998,-9.4935236655,0.8291130308999999,683
117730,189125,249799,2.0243279196,-9.535398061,0.873380249,684
117893,189115,249802,1.9501504189999999,-9.5808616904,0.801595571,685
117662,189113,249836,1.9645073545999998,-9.499505722,0.7585247642,686
116891,189037,249851,1.9166509025999998,-9.5724868113,0.7633104094,687
116126,188973,249743,1.9800607015,-9.547362174,0.8829515394,688
115482,188911,249660,2.0410776778,-9.5880401582,0.8685946038000001,689
115014,188847,249607,2.0207386857,-9.5018985446,0.7752745223999999,690
114763,188831,249620,2.0147566292,-9.4983093107,0.8087740388,691
114832,188947,249620,2.0315063874,-9.5162554802,0.9439685157,692
115076,188902,249663,1.9549360641999998,-9.4839523751,0.8027919822999999,693
115211,188908,249699,2.0494525569,-9.665806892700001,0.8159525066,694
115272,188898,249689,2.0111673952999998,-9.535398061,0.8769694829,695
115350,188918,249732,1.9537396529,-9.5784688678,0.9008977089,696
115510,188881,249665,2.0434705004000002,-9.579665279099999,0.6783652070999999,697
115562,188860,249714,2.0650059038,-9.468399028199999,0.7573283529,698
115650,188839,249666,2.1164515897,-9.523433948000001,0.7908278692999999,699
115817,188815,249666,1.9669001771999999,-9.4325066892,0.8626125473,700
116073,188858,249712,1.9202401365000001,-9.2099741874,0.8374879099999999,701
116368,188908,249822,1.8101702968999998,-9.4851487864,0.9403792818,702
116599,188911,249797,1.9585252981,-9.327222494799999,0.8207381518,703
116820,188858,249787,1.8795621523000001,-9.340383019099999,0.7920242806,704
117075,188951,249817,2.0925233637,-9.7483592724,0.7154539574000001,705
117299,189032,249839,2.0362920326,-9.4863451977,0.8338986760999999,706
117621,189119,249951,2.0195422744,-9.3619184225,0.8159525066,707
117695,189133,249970,2.0123638066000002,-9.4947200768,0.7118647235000001,708
117225,189155,249944,1.8604195715,-9.439685157,0.8901300072,709
116436,189078,249927,1.9453647738,-9.522237536699999,0.741775006,710
115578,189021,249874,2.0482561456,-9.5042913672,0.7489534738,711
115119,189007,249864,2.0207386857,-9.4672026169,0.8183453291999999,712
114740,189006,249832,1.9872391693,-9.5294160045,0.765703232,713
114733,189004,249838,2.1212372348999997,-9.6155576181,0.7848458128,714
114876,189068,249845,2.0638094925,-9.6047899164,0.8398807326,715
115046,189029,249851,1.9417755399,-9.4791667299,0.7322037156,716
115113,189023,249872,1.938186306,-9.6143612068,0.9176474671,717
115232,189027,249906,2.021935097,-9.4767739073,0.849452023,718
115250,189039,249852,1.9585252981,-9.5856473356,0.7082754896000001,719
115270,189024,249853,2.0494525569,-9.5306124158,0.8745766603,720
115427,189049,249854,2.0626130812,-9.5904329808,0.9224331123,721
115634,189059,249903,2.0315063874,-9.5306124158,0.7728816998,722
115840,189075,249923,2.0518453795,-9.4791667299,0.7489534738,723
116103,189076,249935,2.0063817501,-9.4325066892,0.801595571,724
116337,189102,249992,1.9764714676,-9.455238503899999,0.8542376682,725
116674,189196,249986,1.9250257817,-9.5880401582,0.7752745223999999,726
116892,189229,250025,2.0793628394,-9.549754996599999,0.8063812161999999,727
117170,189261,250060,2.0087745727,-9.5162554802,0.9248259349,728
117408,189288,250084,2.1224336462,-9.6239324972,0.8685946038000001,729
117691,189278,250098,2.0362920326,-9.4468636248,0.8925228298,730
117914,189314,250147,1.9956140484,-9.4049892293,0.7609175868,731
118198,189289,250103,2.0147566292,-9.4803631412,0.8937192411,732
118341,189281,250119,1.9501504189999999,-9.4863451977,0.8027919822999999,733
118618,189324,250122,2.1236300575,-9.5054877785,0.9116654106,734
118839,189335,250138,1.9441683625,-9.5377908836,0.7944171031999999,735
119027,189352,250227,1.9561324755,-9.5677011661,0.8327022648,736
119167,189417,250188,2.0303099761,-9.5306124158,0.7884350467,737
119239,189394,250182,1.8855442087999998,-9.4217389875,0.7094719009,738
118678,189350,250205,1.9932212258000002,-9.4743810847,0.7561319416,739
117799,189311,250187,2.1128623558,-9.535398061,0.7322037156,740
116981,189242,250154,1.9680965885,-9.6263253198,0.8279166196,741
116356,189232,250086,1.9752750562999999,-9.5724868113,0.8135596839999999,742
115850,189129,250051,2.0554346134,-9.5126662463,0.8350950873999999,743
115562,189115,250017,1.8532411037,-9.4707918508,0.8470592004,744
115523,189136,249993,2.1523439287,-9.391828705,0.8901300072,745
115695,189086,250041,2.0051853388,-9.5617191096,0.7489534738,746
115893,189136,250034,2.0410776778,-9.5306124158,0.8243273857,747
116010,189101,250079,1.9884355805999998,-9.549754996599999,0.7322037156,748
116098,189124,250075,2.0602202586000002,-9.497112899400001,0.7465606512,749
116212,189069,250076,1.9334006607999998,-9.391828705,0.7884350467,750
116422,189096,250120,2.0626130812,-9.5294160045,0.8482556117000001,751
116716,189056,250132,1.9764714676,-9.4576313265,0.7609175868,752
116966,189055,250147,2.0985054202,-9.4229353988,0.8303094421999999,753
117296,189032,250200,1.9262221929999999,-9.4049892293,0.8135596839999999,754
117591,189006,250178,2.1320049366,-9.5808616904,0.8793623055,755
117895,188989,250191,1.9992032822999999,-9.6263253198,0.7728816998,756
118134,189000,250145,1.9166509025999998,-9.5928258034,0.7633104094,757
118319,188964,250141,2.0602202586000002,-9.523433948000001,0.8279166196,758
118482,188922,250099,2.0841484846,-9.4444708022,0.7800601676,759
118612,188939,250078,2.0147566292,-9.6394858441,0.765703232,760
118733,188940,250071,1.9896319919,-9.4301138666,0.8291130308999999,761
118858,188960,250129,1.9657037659,-9.4181497536,0.8398807326,762
119081,189060,250137,2.0051853388,-9.4899344316,0.8255237969999999,763
119026,189065,250165,1.9453647738,-9.487541608999999,0.8961120637,764
118466,189000,250198,1.9501504189999999,-9.4815595525,0.777667345,765
117490,188919,250175,2.1738793321000003,-9.6119683842,0.7609175868,766
116482,188879,250055,2.0602202586000002,-9.559326287,0.7740781111,767
115628,188780,249985,1.998006871,-9.5377908836,0.7393821834000001,768
114935,188738,249871,1.9812571127999998,-9.475577496,0.8458627891,769
114443,188725,249824,2.0171494518,-9.4121676971,0.9104689993,770
114322,188703,249821,2.0889341298,-9.4097748745,0.8925228298,771
114277,188746,249749,1.9549360641999998,-9.4803631412,0.8949156524,772
114366,188792,249811,2.0051853388,-9.6502535458,0.7920242806,773
114279,188795,249789,2.0470597343,-9.5569334644,0.873380249,774
114166,188758,249769,2.0350956213,-9.5042913672,0.8279166196,775
114129,188777,249766,2.069791549,-9.475577496,0.9224331123,776
114157,188808,249811,2.1858434451,-9.509077012399999,0.8757730716000001,777
114245,188807,249756,2.0135602179,-9.464809794299999,0.8111668613999999,778
114358,188798,249811,1.9154544913,-9.4121676971,0.8362914987,779
114540,188833,249819,2.0590238472999998,-9.5066841898,0.8135596839999999,780
114761,188857,249806,1.938186306,-9.4851487864,0.8374879099999999,781
114959,188843,249825,2.0123638066000002,-9.5078806011,0.801595571,782
115225,188839,249833,1.9238293703999998,-9.5162554802,0.8183453291999999,783
115415,188879,249847,1.8951154991999999,-9.511469835,0.8470592004,784
115639,188872,249851,1.866401628,-9.4145605197,0.8817551281,785
115845,188845,249891,2.0027925162,-9.579665279099999,0.801595571,786
116052,188848,249819,1.9657037659,-9.518648302799999,0.9116654106,787
116267,188879,249882,1.9561324755,-9.4325066892,0.8255237969999999,788
116086,188857,249885,1.890329854,-9.547362174,0.8793623055,789
115152,188800,249841,1.9716858223999998,-9.4492564474,0.9056833541,790
113957,188703,249807,1.9645073545999998,-9.5880401582,0.8769694829,791
112909,188615,249695,2.0673987264,-9.5928258034,0.9200402897,792
112104,188538,249639,1.9298114269,-9.4827559638,0.8889335959,793
111525,188503,249549,2.0374884439,-9.3834538259,0.8685946038000001,794
111422,188443,249576,2.0159530405,-9.4660062056,0.8374879099999999,795
111529,188417,249520,2.0171494518,-9.4289174553,0.8422735552,796
111723,188396,249553,1.9968104597,-9.4145605197,0.8841479507000001,797
111847,188380,249515,2.0327027987,-9.511469835,0.7549355303,798
111918,188410,249520,1.9597217094,-9.4528456813,0.801595571,799
111918,188318,249509,2.0949161863,-9.5461657627,0.7800601676,800
111962,188276,249491,2.117648001,-9.5736832226,0.8542376682,801
112101,188248,249463,2.2025932033,-9.9218389109,0.7226324252,802
112295,188192,249484,1.9956140484,-9.2674019298,0.7944171031999999,803
112558,188185,249427,2.0590238472999998,-9.3248296722,0.789631458,804
112818,188143,249456,2.0075781614,-9.3379901965,0.9104689993,805
113056,188112,249434,1.9513468303000001,-9.3355973739,0.71784678,806
113396,188069,249424,2.1104695332,-9.6406822554,0.7932206919,807
113587,188037,249405,2.1523439287,-9.451649269999999,0.7728816998,808
113827,188025,249346,2.213360905,-9.9003035075,0.8279166196,809
114060,187925,249346,2.0147566292,-9.284151688,0.7992027483999999,810
114285,187875,249292,1.9657037659,-9.523433948000001,0.6783652070999999,811
114528,187872,249299,1.998006871,-9.6059863277,0.9607182739,812
114739,187803,249250,1.9058832009,-9.8799645154,0.9200402897,813
114972,187780,249273,1.9118652574,-9.376275358100001,0.7944171031999999,814
115106,187822,249279,1.9896319919,-9.3631148338,0.7752745223999999,815
114676,187827,249300,2.0709879603,-9.5509514079,0.8518448456000001,816
113593,187818,249274,1.9932212258000002,-9.5820581017,0.8039883936,817
112635,187792,249238,2.2025932033,-9.786644434,0.7262216591,818
111823,187740,249209,2.0171494518,-9.3056870914,0.8135596839999999,819
111296,187680,249136,2.0051853388,-9.3942215276,0.8769694829,820
111099,187616,249140,1.8376877568,-9.4325066892,0.7956135145,821
111247,187659,249101,2.0650059038,-9.3655076564,0.6472585133,822
111594,187659,249187,1.8759729184,-9.6323073763,0.7944171031999999,823
111841,187666,249175,1.9764714676,-9.7806623775,0.7597211755,824
112050,187700,249185,2.0829520733,-9.7232346351,0.8255237969999999,825
112200,187699,249223,2.093719775,-9.6047899164,0.7465606512,826
112335,187680,249204,2.0638094925,-9.7136633447,0.7130611348,827
112568,187657,249196,2.1236300575,-9.634700198900001,0.7680960546,828
112838,187658,249194,2.129612114,-9.7220382238,0.7704888772,829
113152,187683,249217,2.0482561456,-9.5270231819,0.7920242806,830
113360,187698,249198,1.9310078382,-9.4325066892,0.8673981925,831
113619,187721,249252,1.962114532,-9.4719882621,0.7202396026000001,832
113910,187810,249282,2.0147566292,-9.5569334644,0.7609175868,833
114092,187907,249327,2.0374884439,-9.4695954395,0.7441678286,834
114362,188020,249388,2.0111673952999998,-9.5054877785,0.7968099258,835
114645,188186,249495,1.9585252981,-9.5162554802,0.7513462964000001,836
114928,188320,249554,2.0087745727,-9.3571327773,0.7956135145,837
115050,188375,249617,2.057827436,-9.576076045199999,0.7980063370999999,838
114533,188417,249667,1.9920248145,-9.4145605197,0.8039883936,839
113434,188384,249679,1.9848463467,-9.464809794299999,0.6903293201,840
112323,188381,249582,1.9010975557,-9.5784688678,0.9008977089,841
111570,188420,249538,2.0554346134,-9.4265246327,0.8111668613999999,842
111068,188381,249528,2.0662023151,-9.510273423700001,0.8458627891,843
110869,188399,249559,1.9740786449999999,-9.4827559638,0.801595571,844
111029,188476,249536,2.0482561456,-9.655039191,0.8697910151,845
111273,188522,249514,2.0542382021,-9.497112899400001,0.7369893608,846
111461,188588,249562,1.9908284031999999,-9.468399028199999,0.8123632727,847
111571,188588,249572,2.0063817501,-9.4660062056,0.8087740388,848
111611,188596,249637,1.9357934834,-9.5270231819,0.7501498851,849
111809,188636,249654,1.8472590472,-9.2518485829,0.7262216591,850
112002,188657,249652,2.0051853388,-9.2231347117,0.8111668613999999,851
112249,188675,249647,1.7264215058999999,-9.1190469286,0.7250252478,852
112501,188709,249675,2.0171494518,-9.3415794304,0.8123632727,853
112798,188735,249723,2.1499511061,-9.728020280299999,0.8207381518,854
113090,188753,249733,1.6462619487999999,-8.983852451699999,0.6364908116,855
113407,188757,249754,1.8592231602,-9.8297152408,0.8709874264,856
113718,188849,249812,2.1272192914,-9.4133641084,0.7310073043,857
113902,188859,249856,2.0051853388,-9.4133641084,0.7561319416,858
113455,188819,249826,2.093719775,-9.619146852,0.8231309743999999,859
112241,188813,249789,1.9609181207,-9.5581298757,0.8769694829,860
111076,188717,249690,1.9489540077,-9.4241318101,0.6711867393,861
110125,188658,249670,1.8747765071,-9.7340023368,0.8063812161999999,862
109435,188599,249562,1.9788642901999998,-9.509077012399999,0.789631458,863
109048,188560,249558,1.8041882404,-9.3128655592,0.801595571,864
108993,188560,249572,2.0279171535,-9.5485585853,0.8590233134,865
109428,188573,249584,1.9812571127999998,-9.6406822554,0.9248259349,866
109696,188613,249636,1.9525432416,-9.5904329808,0.7704888772,867
109924,188632,249642,1.9322042495,-9.4839523751,0.9750752094999999,868
110090,188622,249636,1.8783657409999999,-9.511469835,0.8159525066,869
110226,188620,249640,2.0231315083,-9.5174518915,0.7202396026000001,870
110466,188621,249592,1.9501504189999999,-9.5042913672,0.8267202082999999,871
110689,188635,249670,2.0793628394,-9.4851487864,0.8865407733,872
111017,188678,249677,1.9728822337,-9.4707918508,0.8231309743999999,873
111337,188680,249668,1.9369898947,-9.5449693514,0.8063812161999999,874
111616,188700,249713,1.9824535241,-9.6095755616,0.8398807326,875
112008,188709,249725,2.0195422744,-9.5078806011,0.8063812161999999,876
112348,188755,249695,1.8783657409999999,-9.5916293921,0.8530412569000001,877
112594,188805,249761,1.8963119105000001,-9.5485585853,0.8039883936,878
112312,188773,249799,1.9214365478,-9.4911308429,0.7513462964000001,879
111234,188744,249762,2.0147566292,-9.5712904,0.8889335959,880
109967,188661,249731,2.0207386857,-9.4576313265,0.8135596839999999,881
109013,188603,249645,2.0554346134,-9.5198447141,0.7633104094,882
108320,188577,249583,1.8927226765999998,-9.475577496,0.8243273857,883
107922,188502,249609,1.9968104597,-9.583254513,0.777667345,884
107975,188516,249578,2.0745771942,-9.6634140701,0.9008977089,885
108351,188548,249593,1.9405791285999998,-9.5174518915,0.8362914987,886
108746,188590,249646,1.9860427579999997,-9.547362174,0.7824529901999999,887
109046,188575,249668,1.9310078382,-9.4719882621,0.8374879099999999,888
109234,188569,249660,1.9453647738,-9.4540420926,0.7920242806,889
109444,188624,249673,2.0003996936,-9.5042913672,0.8267202082999999,890
109696,188638,249707,2.0374884439,-9.5736832226,0.765703232,891
109995,188651,249757,2.057827436,-9.4791667299,0.8757730716000001,892
110336,188661,249758,2.1236300575,-9.5174518915,0.8685946038000001,893
110706,188695,249754,1.9932212258000002,-9.4707918508,0.8231309743999999,894
111067,188707,249816,2.0446669117,-9.5138626576,0.861416136,895
111410,188738,249815,1.9405791285999998,-9.6251289085,0.8398807326,896
111805,188761,249812,2.0267207422,-9.5294160045,0.8207381518,897
112176,188799,249913,2.1188444122999996,-9.4803631412,0.8889335959,898
112554,188818,249890,1.9465611851,-9.583254513,0.861416136,899
112859,188822,249902,2.0231315083,-9.6059863277,0.9487541609,900
113225,188852,249948,2.0685951377,-9.353543543399999,0.7561319416,901
113487,188870,249949,1.9680965885,-9.5282195932,0.7872386353999999,902
113777,188901,249954,2.009970984,-9.7220382238,0.8039883936,903
114121,188965,250000,2.0446669117,-9.6442714893,0.8350950873999999,904
114058,188917,250031,1.8723836845000001,-9.4241318101,0.8338986760999999,905
113256,188873,250012,1.9597217094,-9.4169533423,0.8303094421999999,906
112021,188819,249927,2.0279171535,-9.5437729401,0.8135596839999999,907
110972,188768,249935,1.8580267489000002,-9.4983093107,0.8650053699,908
110114,188706,249824,2.009970984,-9.5078806011,0.8398807326,909
109470,188635,249793,2.1248264688,-9.4947200768,0.7872386353999999,910
109316,188619,249763,1.9597217094,-9.523433948000001,0.7752745223999999,911
109475,188653,249767,1.9537396529,-9.5042913672,0.8829515394,912
109811,188714,249815,2.1834506225,-9.4193461649,0.789631458,913
110085,188636,249756,1.9908284031999999,-9.598807859899999,0.8350950873999999,914
110279,188700,249839,1.9764714676,-9.4468636248,0.8793623055,915
110436,188684,249827,2.0434705004000002,-9.547362174,0.8159525066,916
110632,188635,249838,2.0195422744,-9.456434915200001,0.9176474671,917
110843,188626,249854,1.9860427579999997,-9.4983093107,0.8793623055,918
111182,188620,249824,2.0685951377,-9.4600241491,0.8422735552,919
111479,188671,249855,2.0470597343,-9.4887380203,0.7369893608,920
111820,188681,249885,2.0446669117,-9.6035935051,0.8255237969999999,921
112172,188644,249850,1.9286150156,-9.5138626576,0.8446663778000001,922
112547,188680,249930,2.0829520733,-9.4803631412,0.8805587168,923
112873,188686,249928,2.0973090089,-9.5521478192,0.8925228298,924
113233,188659,249924,2.0350956213,-9.5007021333,0.8841479507000001,925
113560,188711,249929,2.0446669117,-9.4241318101,0.8063812161999999,926
113831,188705,249941,1.9776678789,-9.547362174,0.8458627891,927
114158,188782,250000,2.0662023151,-9.5688975774,0.8638089586000001,928
114381,188741,250031,1.9573288867999998,-9.4707918508,0.8231309743999999,929
114067,188682,250004,2.0243279196,-9.5377908836,0.7824529901999999,930
113168,188614,249940,2.0171494518,-9.564111932200001,0.7704888772,931
112240,188535,249847,2.0123638066000002,-9.6023970938,0.7573283529,932
111559,188504,249844,1.9274186043000001,-9.475577496,0.777667345,933
111123,188478,249809,2.0410776778,-9.5210411254,0.8350950873999999,934
110984,188462,249806,2.009970984,-9.634700198900001,0.7513462964000001,935
111141,188494,249816,2.1523439287,-9.6358966102,0.8087740388,936
111473,188468,249835,1.9908284031999999,-9.583254513,0.7082754896000001,937
111739,188478,249801,1.9716858223999998,-9.6155576181,0.7274180704000001,938
111945,188481,249835,1.9812571127999998,-9.5330052384,0.8303094421999999,939
112092,188456,249838,1.9992032822999999,-9.4588277378,0.8673981925,940
112200,188408,249829,2.0566310246999997,-9.5449693514,0.7609175868,941
112476,188380,249784,1.9836499354,-9.559326287,0.8470592004,942
112768,188398,249796,1.9752750562999999,-9.5066841898,0.8530412569000001,943
113046,188363,249797,1.9262221929999999,-9.5365944723,0.7728816998,944
113334,188360,249843,1.9477575963999998,-9.5485585853,0.7441678286,945
113651,188438,249804,1.9609181207,-9.6059863277,0.8590233134,946
113972,188399,249856,1.9752750562999999,-9.4145605197,0.8063812161999999,947
114281,188374,249840,1.8173487647,-9.5246303593,0.8099704500999999,948
114616,188383,249870,1.9250257817,-9.4624169717,0.7764709337,949
114892,188453,249862,2.0685951377,-9.4444708022,0.789631458,950
115244,188459,249891,1.9609181207,-9.5018985446,0.7345965382,951
115478,188486,249960,1.9872391693,-9.3643112451,0.729810893,952
115715,188461,249943,2.0350956213,-9.455238503899999,0.7357929495000001,953
115972,188462,249887,1.9944176371,-9.5653083435,0.7716852885,954
116270,188416,249895,1.9549360641999998,-9.299705034899999,0.8039883936,955
116227,188441,249940,1.9740786449999999,-9.2566342281,0.7968099258,956
115621,188401,249891,1.9513468303000001,-9.6023970938,0.7214360139,957
114778,188354,249845,1.9274186043000001,-9.290133744499999,0.9020941202,958
114096,188343,249841,1.9334006607999998,-9.475577496,0.7393821834000001,959
113636,188284,249801,2.0865413072,-9.3786681807,0.8255237969999999,960
113378,188268,249777,1.9322042495,-9.7567341515,0.8650053699,961
113371,188260,249772,1.9944176371,-9.353543543399999,0.8243273857,962
113620,188305,249789,2.0327027987,-9.353543543399999,0.7872386353999999,963
113822,188327,249833,1.7659030788,-9.5174518915,0.7716852885,964
113964,188347,249814,1.9561324755,-9.2674019298,0.6819544409999999,965
114052,188338,249811,2.285145583,-10.262816131400001,0.8374879099999999,966
114147,188347,249799,2.2181465501999997,-10.137192944899999,0.8805587168,967
114315,188330,249827,2.0147566292,-9.2566342281,0.9200402897,968
114536,188392,249866,1.9417755399,-9.3607220112,0.8183453291999999,969
114820,188497,249934,1.9190437251999999,-9.5389872949,0.7465606512,970
115120,188562,249967,2.045863323,-9.621539674600001,0.8231309743999999,971
115417,188687,250031,1.9262221929999999,-9.5485585853,0.777667345,972
115689,188742,250104,1.8496518698,-9.4911308429,0.9032905315,973
115967,188759,250065,2.0482561456,-9.4899344316,0.8434699665000001,974
116234,188772,250108,2.0781664281,-9.5976114486,0.8386843212999999,975
116473,188840,250138,2.0374884439,-9.522237536699999,0.7728816998,976
116772,188900,250186,2.0733807828999997,-9.5377908836,0.7956135145,977
116892,188949,250199,2.0374884439,-9.5401837062,0.8961120637,978
117203,188969,250205,1.8197415872999998,-9.5724868113,0.7992027483999999,979
117426,188996,250257,1.9525432416,-9.5042913672,0.8362914987,980
117592,189006,250299,2.0051853388,-9.407382051899999,0.8315058535,981
117827,189096,250255,2.0027925162,-9.5162554802,0.7465606512,982
118042,189093,250280,1.8628123941,-9.455238503899999,0.8159525066,983
118210,189121,250322,1.9573288867999998,-9.4480600361,0.8374879099999999,984
118077,189104,250266,1.8388841681,-9.5246303593,0.7704888772,985
117398,189069,250244,1.9968104597,-9.5066841898,0.7848458128,986
116499,189075,250217,2.0075781614,-9.6526463684,0.7561319416,987
115755,188974,250182,1.9094724347999998,-9.5030949559,0.7920242806,988
115208,188942,250142,2.057827436,-9.4660062056,0.8697910151,989
114747,188883,250070,2.1212372348999997,-9.4935236655,0.8650053699,990
114570,188920,250050,2.0171494518,-9.464809794299999,0.789631458,991
114622,188918,250053,2.0027925162,-9.5736832226,0.7597211755,992
114710,188974,250074,1.9836499354,-9.5904329808,0.9248259349,993
114774,188965,250053,1.9298114269,-9.523433948000001,0.7872386353999999,994
114745,188965,250055,2.0075781614,-9.5330052384,0.8183453291999999,995
114807,188950,250067,1.9369898947,-9.511469835,0.7525427077,996
114868,188982,250092,1.9776678789,-9.5688975774,0.7609175868,997
114983,188936,250074,1.8436698133,-9.576076045199999,0.8518448456000001,998
115166,188979,250086,2.0757736055,-9.439685157,0.8003991597,999
115330,189025,250076,1.998006871,-9.5150590689,0.8003991597,1000
115504,189038,250105,1.9740786449999999,-9.5736832226,0.8949156524,1001
115712,189032,250120,1.9812571127999998,-9.549754996599999,0.8434699665000001,1002
115956,189063,250163,2.0111673952999998,-9.4743810847,0.8111668613999999,1003
116209,189085,250117,2.0434705004000002,-9.497112899400001,0.9367900479,1004
116408,189111,250129,2.1188444122999996,-9.4600241491,0.801595571,1005
116658,189081,250158,1.9645073545999998,-9.633503787599999,0.8709874264,1006
116863,189095,250169,2.1367905818,-9.5365944723,0.8422735552,1007
117063,189125,250195,1.9178473139,-9.6406822554,0.8841479507000001,1008
117255,189238,250194,1.9764714676,-9.4600241491,0.9224331123,1009
117427,189206,250184,2.0243279196,-9.5282195932,0.789631458,1010
117198,189244,250226,2.0027925162,-9.5425765288,0.7549355303,1011
116352,189138,250170,2.0494525569,-9.4923272542,0.8889335959,1012
115470,189106,250127,1.9716858223999998,-9.5449693514,0.741775006,1013
114724,189079,250122,1.9525432416,-9.6263253198,0.8327022648,1014
114083,189045,250040,1.9477575963999998,-9.5198447141,0.7872386353999999,1015
113669,189023,250081,1.8747765071,-9.5712904,0.8135596839999999,1016
113414,189015,250001,1.9597217094,-9.4935236655,0.8087740388,1017
113630,189013,250053,1.9525432416,-9.531808827099999,0.8889335959,1018
113794,189061,250026,1.9896319919,-9.5282195932,0.8362914987,1019
113898,189022,250069,1.9884355805999998,-9.495916488099999,0.8279166196,1020
113958,189081,250045,1.8604195715,-9.549754996599999,0.7728816998,1021
114011,189075,250073,2.0733807828999997,-9.4600241491,0.8542376682,1022
114107,189034,250090,2.1487546948,-9.5030949559,0.8602197247000001,1023
114222,189041,250097,1.9740786449999999,-9.4576313265,1.0061819033000001,1024
114498,189067,250104,2.0961125976,-9.3906322937,0.9308079913999999,1025
114719,189106,250104,2.03389921,-9.535398061,0.8159525066,1026
114924,189078,250102,1.962114532,-9.511469835,0.8542376682,1027
115174,189113,250104,2.0291135648000003,-9.4863451977,0.7716852885,1028
115439,189149,250158,2.0446669117,-9.5162554802,0.8602197247000001,1029
115285,189185,250162,2.0709879603,-9.5306124158,0.8434699665000001,1030
114611,189128,250140,1.9692929998,-9.5808616904,0.8697910151,1031
113732,189087,250145,1.8329021116,-9.6179504407,0.8865407733,1032
112996,189002,250099,1.9310078382,-9.5377908836,0.8697910151,1033
112489,188972,250036,1.9956140484,-9.397810761499999,0.8183453291999999,1034
112116,188935,250048,1.8711872732,-9.463613383,0.897308475,1035
112198,188952,250007,1.9992032822999999,-9.5784688678,0.8374879099999999,1036
112429,188926,250009,2.0135602179,-9.464809794299999,0.8434699665000001,1037
112706,188977,250038,2.0123638066000002,-9.4289174553,0.9391828704999999,1038
112912,188944,250008,1.9286150156,-9.3032942688,0.7561319416,1039
113089,188932,250044,2.0123638066000002,-9.4576313265,0.9343972253,1040
113210,188924,250067,2.0422740890999997,-9.5138626576,0.8135596839999999,1041
113393,188876,250053,1.9549360641999998,-9.6263253198,0.8602197247000001,1042
113582,188891,250026,2.0422740890999997,-9.5042913672,0.8829515394,1043
113937,188910,250044,2.0793628394,-9.4947200768,0.8327022648,1044
114241,188890,250107,2.1044874766999997,-9.4612205604,0.8446663778000001,1045
114515,188902,250061,1.9262221929999999,-9.6047899164,0.8398807326,1046
114811,188928,250120,1.9501504189999999,-9.5377908836,0.8267202082999999,1047
115163,188915,250111,1.9262221929999999,-9.5784688678,0.8279166196,1048
115459,188936,250150,1.9896319919,-9.5282195932,0.7441678286,1049
115755,188944,250104,2.0518453795,-9.6634140701,0.897308475,1050
116017,188944,250178,2.1164515897,-9.6418786667,0.801595571,1051
116286,188996,250167,2.1200408236,-9.4097748745,0.8398807326,1052
116140,188931,250166,1.8831513862,-9.3738825355,0.8422735552,1053
115430,188852,250114,2.0853448959,-9.583254513,0.8709874264,1054
114545,188795,250068,1.8831513862,-9.5174518915,0.8027919822999999,1055
113874,188783,250012,2.1092731219,-9.5712904,0.8338986760999999,1056
113375,188749,250040,2.0147566292,-9.5677011661,0.8590233134,1057
113109,188728,249992,2.1643080417,-9.4193461649,0.9774680320999999,1058
113133,188720,249973,1.9848463467,-9.5330052384,0.7609175868,1059
113331,188748,250005,1.9537396529,-9.5569334644,0.7465606512,1060
113523,188719,250021,2.0027925162,-9.4731846734,0.8482556117000001,1061
113750,188733,249991,1.8364913454999998,-9.340383019099999,0.8279166196,1062
113879,188756,250043,2.1020946541,-9.834500886,0.7968099258,1063
113991,188692,250040,2.0410776778,-9.371489712899999,0.6544369810999999,1064
114146,188672,249957,2.081755662,-9.5162554802,0.9284151688,1065
114344,188674,249996,1.9250257817,-9.629914553699999,0.8039883936,1066
114658,188713,250040,1.9692929998,-9.4169533423,0.8063812161999999,1067
114894,188722,250028,2.057827436,-9.562915520899999,0.765703232,1068
115140,188711,250085,2.0961125976,-9.839286531199999,0.8985048863,1069
115413,188734,250081,1.9106688461,-9.4420779796,0.777667345,1070
115585,188757,250069,1.8305092889999999,-9.1573320902,0.8374879099999999,1071
115982,188769,250173,1.9728822337,-9.3738825355,0.6855436748999999,1072
116217,188809,250154,1.8723836845000001,-9.5066841898,0.9822536772999999,1073
116502,188816,250121,2.2277178406,-10.1048898398,0.9056833541,1074
116712,188810,250113,1.9322042495,-9.4695954395,0.741775006,1075
116949,188822,250136,1.91425808,-9.522237536699999,0.8219345630999999,1076
117206,188841,250178,1.9034903783000001,-9.5485585853,0.7489534738,1077
117292,188827,250179,1.9238293703999998,-9.4624169717,0.7130611348,1078
116839,188798,250170,2.0685951377,-10.0678010895,0.8350950873999999,1079
115991,188722,250117,1.9046867896,-9.407382051899999,0.9774680320999999,1080
115241,188693,250106,2.0243279196,-9.3822574146,0.6771687957999999,1081
114665,188631,250028,1.8340985228999998,-9.343972252999999,0.7860422241,1082
114313,188587,250010,2.1451654609,-9.9792666533,0.8817551281,1083
114191,188580,249980,2.2923240508,-9.8895358058,0.8219345630999999,1084
114319,188595,250009,1.9573288867999998,-9.6574320136,0.8255237969999999,1085
114482,188594,250015,1.9692929998,-9.463613383,0.6807580296999999,1086
114662,188600,250030,1.9070796122,-9.3176512044,0.8865407733,1087
114702,188609,250056,1.9226329591,-9.4121676971,0.7166503687,1088
114829,188577,250026,2.0039889275,-9.5365944723,0.6927221427000001,1089
114935,188558,250018,1.8915262653,-9.451649269999999,0.9296115801,1090
115049,188585,250012,1.79461695,-9.5605226983,0.7800601676,1091
115247,188602,250070,1.8532411037,-9.6179504407,0.7752745223999999,1092
115539,188723,250073,1.962114532,-9.5485585853,0.8099704500999999,1093
115746,188738,250131,2.0255243308999997,-9.4791667299,0.8279166196,1094
115998,188786,250108,1.9680965885,-9.4947200768,0.8542376682,1095
116251,188841,250135,2.0327027987,-9.5138626576,0.7250252478,1096
116480,188838,250150,1.9716858223999998,-9.511469835,0.8087740388,1097
116685,188860,250144,1.9501504189999999,-9.4025964067,0.8590233134,1098
116939,188871,250233,1.9130616687,-9.4851487864,0.8303094421999999,1099
117091,188915,250202,1.9728822337,-9.5521478192,0.8327022648,1100
117284,188937,250172,2.093719775,-9.5078806011,0.7920242806,1101
117473,188971,250237,2.0506489682,-9.5928258034,0.7824529901999999,1102
117637,188964,250218,2.0231315083,-9.6107719729,0.8961120637,1103
117823,188993,250241,2.0075781614,-9.5138626576,0.8386843212999999,1104
117998,188981,250294,2.0147566292,-9.3882394711,0.8985048863,1105
118198,188959,250293,1.9549360641999998,-9.5880401582,0.7752745223999999,1106
118330,189028,250307,1.9836499354,-9.4480600361,0.8111668613999999,1107
118488,189051,250264,2.0039889275,-9.5377908836,0.8207381518,1108
118397,189097,250298,1.9513468303000001,-9.522237536699999,0.7920242806,1109
117656,189039,250298,1.8975083218,-9.4911308429,0.8602197247000001,1110
116800,188994,250184,2.0171494518,-9.535398061,0.8422735552,1111
115985,188925,250214,1.9501504189999999,-9.464809794299999,0.8542376682,1112
115370,188928,250116,1.9824535241,-9.661021247499999,0.8087740388,1113
114911,188883,250089,2.0159530405,-9.4289174553,0.8398807326,1114
114660,188890,250077,1.9956140484,-9.4791667299,0.8075776275,1115
114628,188875,250056,2.0207386857,-9.4923272542,0.7848458128,1116
114739,188873,250105,2.0530417908,-9.6035935051,0.8039883936,1117
114804,188930,250020,2.0243279196,-9.4660062056,0.7944171031999999,1118
114819,188930,250081,1.8675980393,-9.455238503899999,0.8315058535,1119
114823,188921,250066,2.1451654609,-9.5282195932,0.8279166196,1120
114863,188932,250070,2.0997018315,-9.5880401582,0.8303094421999999,1121
114972,188927,250065,1.8927226765999998,-9.4983093107,0.909272588,1122
115172,188957,250062,2.0662023151,-9.3882394711,0.8650053699,1123
115269,188989,250095,1.9992032822999999,-9.4911308429,0.849452023,1124
115502,188986,250047,1.9645073545999998,-9.5330052384,0.8997012976000001,1125
115694,189057,250132,1.9345970721,-9.4025964067,0.7872386353999999,1126
115928,189002,250174,1.9716858223999998,-9.456434915200001,0.9032905315,1127
116117,189002,250128,1.9597217094,-9.5712904,0.9020941202,1128
116184,189090,250128,1.9812571127999998,-9.523433948000001,0.7872386353999999,1129
115890,189038,250141,1.9082760235,-9.4660062056,0.7345965382,1130
115042,189045,250090,2.021935097,-9.464809794299999,0.8781658942,1131
114151,188974,250029,2.009970984,-9.4540420926,0.8709874264,1132
113452,188931,250026,2.0267207422,-9.5306124158,0.8398807326,1133
112880,188899,250000,1.9956140484,-9.4480600361,0.8315058535,1134
112555,188894,249965,2.0506489682,-9.5365944723,0.8350950873999999,1135
112603,188833,249939,2.0147566292,-9.475577496,0.8829515394,1136
112778,188838,249966,2.0482561456,-9.5844509243,0.8231309743999999,1137
112986,188869,249966,1.8951154991999999,-9.6681997153,0.8231309743999999,1138
113183,188915,249990,1.9525432416,-9.4468636248,0.873380249,1139
113274,188931,249994,1.9405791285999998,-9.4935236655,0.7094719009,1140
113441,188882,249973,1.9836499354,-9.6143612068,0.8135596839999999,1141
113597,188883,250040,2.0350956213,-9.5150590689,0.8374879099999999,1142
113674,188918,249993,1.9884355805999998,-9.4815595525,0.861416136,1143
113255,188919,250020,2.129612114,-9.5306124158,0.7968099258,1144
112448,188895,249964,1.8927226765999998,-9.4217389875,0.777667345,1145
111734,188850,249966,1.9417755399,-9.4504528587,0.897308475,1146
111283,188851,249932,2.0733807828999997,-9.407382051899999,0.8482556117000001,1147
111062,188773,249952,2.1858434451,-9.4408815683,0.789631458,1148
111177,188814,249900,1.9274186043000001,-9.4301138666,0.8183453291999999,1149
111615,188820,249957,2.1128623558,-9.518648302799999,0.7836494015,1150
111943,188860,249958,1.9860427579999997,-9.549754996599999,0.849452023,1151
112195,188876,249987,2.1738793321000003,-9.6418786667,0.8506484343,1152
112421,188899,249980,2.0638094925,-9.4827559638,0.8673981925,1153
112590,188858,250034,2.0434705004000002,-9.4743810847,0.8422735552,1154
112815,188947,250057,2.0135602179,-9.497112899400001,0.8925228298,1155
113081,188902,250040,2.0075781614,-9.6777710057,0.8805587168,1156
113326,188921,250018,2.0949161863,-9.4947200768,0.8159525066,1157
113680,188948,250071,2.1427726383,-9.5365944723,0.8470592004,1158
114007,188933,250119,2.0386848552,-9.5270231819,0.9080761767,1159
114313,188985,250102,1.9118652574,-9.5401837062,0.9116654106,1160
114646,189036,250180,2.0733807828999997,-9.4827559638,0.8638089586000001,1161
114944,189004,250173,1.9669001771999999,-9.4301138666,0.8327022648,1162
115283,189065,250177,1.9250257817,-9.549754996599999,0.8865407733,1163
115494,189032,250214,1.9812571127999998,-9.6095755616,0.7190431913,1164
115778,189073,250229,1.9944176371,-9.5976114486,0.9487541609,1165
115951,189134,250193,2.0662023151,-9.4085784632,0.8901300072,1166
115487,189088,250219,1.9740786449999999,-9.3224368496,0.741775006,1167
114578,188957,250166,1.9692929998,-9.5557370531,0.8159525066,1168
113513,188913,250120,2.0650059038,-9.6382894328,0.8446663778000001,1169
112649,188811,250091,1.9525432416,-9.5808616904,0.9355936366,1170
112017,188777,250001,1.8843477975,-9.6634140701,0.8255237969999999,1171
111647,188715,250001,2.1332013479,-9.5377908836,0.8063812161999999,1172
111623,188727,249951,2.0901305410999997,-9.5401837062,0.8602197247000001,1173
111894,188723,249944,1.962114532,-9.6012006825,0.8889335959,1174
112171,188759,249987,1.9549360641999998,-9.5569334644,0.7800601676,1175
112298,188757,250015,2.0506489682,-9.5066841898,0.7752745223999999,1176
112483,188774,250043,1.9633109433,-9.4791667299,0.7944171031999999,1177
112620,188739,250001,2.1020946541,-9.4719882621,0.7992027483999999,1178
112810,188727,250033,1.9501504189999999,-9.4672026169,0.9080761767,1179
113058,188739,249973,2.0470597343,-9.4169533423,0.861416136,1180
113340,188754,250017,1.9800607015,-9.4827559638,0.7226324252,1181
113659,188732,250059,2.0315063874,-9.6263253198,0.7800601676,1182
113980,188761,250074,2.0877377184999997,-9.5581298757,0.8135596839999999,1183
114280,188781,250074,1.9130616687,-9.3332045513,0.8422735552,1184
114617,188831,250092,1.9393827173,-9.2913301558,0.7968099258,1185
114911,188808,250125,2.0063817501,-9.5928258034,0.7800601676,1186
115193,188818,250170,1.8532411037,-9.5557370531,0.8207381518,1187
115460,188854,250175,2.0494525569,-9.598807859899999,0.9714859755999999,1188
115748,188856,250177,2.081755662,-9.415756931,0.861416136,1189
115489,188826,250193,2.1511475174,-9.4504528587,0.8303094421999999,1190
114645,188762,250114,1.7635102562,-9.3786681807,0.8422735552,1191
113654,188637,250051,1.8855442087999998,-9.4145605197,0.7704888772,1192
112843,188603,249971,1.9238293703999998,-9.4002035841,0.9080761767,1193
112260,188576,249953,2.1918255016,-9.8560362894,0.7800601676,1194
111984,188576,249905,2.189432679,-10.0271231053,0.9056833541,1195
112062,188582,249901,1.8771693297,-9.2877409219,0.8518448456000001,1196
112337,188585,249957,1.9058832009,-9.3750789468,0.8207381518,1197
112587,188589,249986,1.9716858223999998,-9.3822574146,0.9200402897,1198
112759,188652,249976,1.9836499354,-9.038887371500001,0.6592226263,1199
112835,188557,249923,1.734796385,-9.2638126959,0.8410771438999999,1200
112865,188452,249929,1.9178473139,-9.4540420926,0.8434699665000001,1201
113067,188438,249926,1.9405791285999998,-9.5425765288,0.9391828704999999,1202
113295,188437,249924,2.0183458631,-9.407382051899999,0.8111668613999999,1203
113551,188443,249886,1.8628123941,-9.2662055185,0.5108676251000001,1204
113797,188480,249909,1.8843477975,-9.345168664300001,0.7704888772,1205
114136,188526,249926,2.0051853388,-9.438488745699999,0.8327022648,1206
114422,188585,250002,1.8975083218,-9.3894358824,0.8003991597,1207
114751,188598,250050,1.9633109433,-9.3427758417,0.9140582332,1208
114961,188582,250026,1.8580267489000002,-9.2554378168,0.8183453291999999,1209
115020,188535,250071,2.1726829208,-9.7351987481,0.7968099258,1210
114394,188482,250038,1.9860427579999997,-9.7220382238,0.7752745223999999,1211
113403,188459,249975,1.9022939669999999,-9.384650237199999,0.765703232,1212
112504,188426,249864,2.0279171535,-9.4935236655,0.7238288365000001,1213
111868,188372,249872,2.0877377184999997,-9.5677011661,0.7992027483999999,1214
111507,188341,249824,1.9094724347999998,-9.5389872949,0.8123632727,1215
111483,188309,249780,2.0506489682,-9.595218626,0.8362914987,1216
111721,188340,249850,2.0566310246999997,-9.7184489899,0.7800601676,1217
112120,188368,249825,1.9453647738,-9.564111932200001,0.7920242806,1218
112347,188483,249930,2.0327027987,-9.511469835,0.801595571,1219
112525,188482,249929,2.0255243308999997,-9.4719882621,0.8937192411,1220
112659,188546,249968,1.9166509025999998,-9.7064848769,0.7704888772,1221
112929,188554,249996,1.962114532,-9.5377908836,0.8518448456000001,1222
113113,188621,249990,2.0494525569,-9.576076045199999,0.7944171031999999,1223
113395,188563,250093,1.9884355805999998,-9.4791667299,0.8985048863,1224
113702,188686,250031,1.9190437251999999,-9.579665279099999,0.9104689993,1225
113955,188710,250098,2.0291135648000003,-9.576076045199999,0.8374879099999999,1226
114276,188751,250142,1.9657037659,-9.559326287,0.8542376682,1227
114470,188807,250148,1.9154544913,-9.5976114486,0.7250252478,1228
114497,188786,250089,1.9609181207,-9.4612205604,0.753739119,1229
113673,188750,250112,1.9824535241,-9.3690968903,0.8374879099999999,1230
112566,188687,250067,1.9286150156,-9.4839523751,0.8350950873999999,1231
111693,188636,249976,1.9968104597,-9.5282195932,0.7274180704000001,1232
111009,188580,249931,2.0267207422,-9.5210411254,0.7968099258,1233
110645,188597,249958,1.9645073545999998,-9.6382894328,0.801595571,1234
110651,188605,249935,2.0422740890999997,-9.6454679006,0.7405785947,1235
110975,188600,249923,2.069791549,-9.4815595525,0.7848458128,1236
111297,188654,249965,2.0231315083,-9.6382894328,0.8626125473,1237
111449,188652,249986,2.0733807828999997,-9.5162554802,0.7513462964000001,1238
111610,188717,249983,1.9501504189999999,-9.4947200768,0.8709874264,1239
111771,188674,249959,1.9908284031999999,-9.4983093107,0.8135596839999999,1240
112000,188698,249973,1.9202401365000001,-9.6370930215,0.9224331123,1241
112281,188741,249985,1.9106688461,-9.5784688678,0.7609175868,1242
112519,188705,249985,2.0171494518,-9.397810761499999,0.8111668613999999,1243
112860,188751,249974,2.1116659445,-9.5042913672,0.8159525066,1244
113174,188749,250017,1.9764714676,-9.455238503899999,0.8303094421999999,1245
113417,188809,250052,2.0279171535,-9.559326287,0.7872386353999999,1246
113817,188799,250088,1.9908284031999999,-9.5306124158,0.8350950873999999,1247
114117,188853,250073,1.9417755399,-9.518648302799999,0.7154539574000001,1248
114389,188857,250070,2.045863323,-9.4695954395,0.8542376682,1249
114687,188933,250118,2.0027925162,-9.5784688678,0.8183453291999999,1250
114759,188936,250147,2.0183458631,-9.477970318599999,0.8386843212999999,1251
114009,188878,250091,1.9094724347999998,-9.468399028199999,0.7633104094,1252
112815,188815,250028,1.8628123941,-9.564111932200001,0.9894321450999999,1253
111655,188753,249991,2.1092731219,-9.6287181424,0.9032905315,1254
110750,188697,249936,1.9956140484,-9.4731846734,0.8159525066,1255
110078,188654,249865,2.093719775,-9.5665047548,0.8087740388,1256
109767,188642,249849,1.9908284031999999,-9.4540420926,0.8590233134,1257
109903,188636,249845,1.9154544913,-9.4719882621,0.8087740388,1258
110247,188644,249869,1.9094724347999998,-9.495916488099999,0.7262216591,1259
110527,188677,249901,2.0027925162,-9.4827559638,0.8255237969999999,1260
110756,188743,249935,1.8675980393,-9.2626162846,0.7920242806,1261
110911,188704,249947,2.0374884439,-9.6370930215,0.8434699665000001,1262
111102,188711,249959,1.8245272325,-9.5030949559,0.7800601676,1263
111313,188705,249960,2.0901305410999997,-9.4707918508,0.7944171031999999,1264
111636,188754,249971,1.9549360641999998,-9.4791667299,0.8889335959,1265
111931,188802,249983,2.0051853388,-9.5736832226,0.8087740388,1266
112289,188783,249964,2.0087745727,-9.4480600361,0.8171489179,1267
112652,188849,250096,1.8879370314,-9.5246303593,0.861416136,1268
112957,188885,250091,2.0231315083,-9.5736832226,0.8590233134,1269
113188,188897,250120,1.9908284031999999,-9.5569334644,0.9559326287,1270
112789,188887,250117,2.0111673952999998,-9.4576313265,0.8410771438999999,1271
111775,188815,250079,1.8293128776999998,-9.4923272542,0.7824529901999999,1272
110745,188818,250046,1.9298114269,-9.554540641800001,0.8243273857,1273
109933,188721,249927,2.0626130812,-9.4313102779,0.8063812161999999,1274
109373,188673,249864,1.9334006607999998,-9.4624169717,0.8925228298,1275
109161,188690,249876,1.998006871,-9.4492564474,0.7310073043,1276
109370,188668,249872,1.9310078382,-9.464809794299999,0.9248259349,1277
109801,188666,249940,1.9417755399,-9.595218626,0.8111668613999999,1278
110209,188699,249934,1.998006871,-9.5521478192,0.8063812161999999,1279
110489,188731,249933,2.0291135648000003,-9.511469835,0.7872386353999999,1280
110725,188729,249998,1.9238293703999998,-9.6035935051,0.8075776275,1281
110941,188735,250021,2.0051853388,-9.5904329808,0.9032905315,1282
111228,188723,250012,2.0243279196,-9.4839523751,0.8721838377000001,1283
111559,188729,250016,1.8939190879,-9.399007172800001,0.8063812161999999,1284
111899,188775,250043,1.9357934834,-9.6514499571,0.7597211755,1285
112269,188802,250047,2.021935097,-9.4851487864,0.8195417405,1286
112646,188856,250110,2.0506489682,-9.4767739073,0.8135596839999999,1287
113001,188823,250116,1.9657037659,-9.3702933016,0.8087740388,1288
113327,188853,250119,2.0123638066000002,-9.6000042712,0.8362914987,1289
113676,188894,250166,1.998006871,-9.3738825355,0.7262216591,1290
114041,188932,250212,1.9812571127999998,-9.487541608999999,0.8662017812,1291
114387,188958,250203,2.0243279196,-9.5078806011,0.8781658942,1292
114678,188968,250224,2.0733807828999997,-9.4743810847,0.8279166196,1293
114989,188973,250244,1.9262221929999999,-9.523433948000001,0.849452023,1294
115275,189024,250270,1.9944176371,-9.4588277378,0.6783652070999999,1295
115545,188967,250226,2.0733807828999997,-9.535398061,0.8470592004,1296
115866,189063,250264,1.9944176371,-9.5736832226,0.8638089586000001,1297
116043,189023,250261,2.0518453795,-9.5174518915,0.8925228298,1298
115539,188953,250307,1.9286150156,-9.3738825355,0.9020941202,1299
114530,188863,250248,2.0171494518,-9.523433948000001,0.8111668613999999,1300
113502,188800,250191,1.9477575963999998,-9.6143612068,0.7561319416,1301
112652,188780,250076,1.8747765071,-9.4289174553,0.8231309743999999,1302
112024,188740,250047,2.0027925162,-9.4540420926,0.7848458128,1303
111701,188723,250066,2.0063817501,-9.5054877785,0.8159525066,1304
111741,188751,250027,2.0590238472999998,-9.5138626576,0.8937192411,1305
111981,188793,250061,1.9453647738,-9.5736832226,0.8207381518,1306
112267,188807,250081,2.009970984,-9.5282195932,0.8063812161999999,1307
112431,188798,250077,1.9525432416,-9.5389872949,0.7106683122,1308
112528,188774,250068,2.03389921,-9.509077012399999,0.8338986760999999,1309
112605,188785,250057,1.9716858223999998,-9.4815595525,0.8865407733,1310
112798,188736,250086,2.0255243308999997,-9.4887380203,0.8913264185,1311
113009,188756,250075,1.9908284031999999,-9.5748796339,0.8255237969999999,1312
113292,188777,250091,1.9310078382,-9.4707918508,0.8638089586000001,1313
113600,188795,250149,1.9573288867999998,-9.5557370531,0.8997012976000001,1314
113878,188808,250124,2.0027925162,-9.5569334644,0.8506484343,1315
114218,188843,250150,1.9238293703999998,-9.420542576199999,0.8350950873999999,1316
114235,188783,250170,2.0231315083,-9.5401837062,0.8171489179,1317
113691,188822,250145,1.9345970721,-9.5066841898,0.8159525066,1318
112820,188738,250117,1.9501504189999999,-9.6370930215,0.7154539574000001,1319
112083,188732,250060,2.2073788485,-9.629914553699999,0.7704888772,1320
111620,188661,250038,2.0087745727,-9.397810761499999,0.7992027483999999,1321
111449,188666,249984,2.0159530405,-9.522237536699999,0.8279166196,1322
111608,188689,250049,2.0482561456,-9.655039191,0.7609175868,1323
112053,188714,250053,2.0147566292,-9.576076045199999,0.8793623055,1324
112365,188744,250051,2.1738793321000003,-9.5485585853,0.7992027483999999,1325
112590,188753,250089,1.9585252981,-9.5700939887,0.789631458,1326
112826,188719,250125,1.9298114269,-9.3834538259,0.7381857721,1327
112956,188707,250130,1.9645073545999998,-9.5665047548,0.7920242806,1328
113208,188750,250119,1.8939190879,-9.6442714893,0.7992027483999999,1329
113476,188754,250097,2.045863323,-9.5246303593,0.8626125473,1330
113833,188782,250152,2.0303099761,-9.4576313265,0.8961120637,1331
114106,188789,250180,1.8364913454999998,-9.443274390900001,0.8841479507000001,1332
114481,188813,250167,2.0027925162,-9.5784688678,0.8135596839999999,1333
114833,188820,250247,1.9680965885,-9.5617191096,0.8027919822999999,1334
115145,188901,250251,1.9166509025999998,-9.5282195932,0.8135596839999999,1335
115483,188908,250274,1.9812571127999998,-9.5330052384,0.765703232,1336
115740,188931,250298,2.0662023151,-9.5162554802,0.8638089586000001,1337
116108,188961,250294,1.9740786449999999,-9.427721044,0.7501498851,1338
116312,189002,250327,1.938186306,-9.5294160045,0.8183453291999999,1339
116567,189024,250379,2.0243279196,-9.6394858441,0.8398807326,1340
116844,189067,250381,1.9274186043000001,-9.4839523751,0.8207381518,1341
117065,189064,250378,1.9956140484,-9.5162554802,0.8769694829,1342
117246,189099,250424,2.069791549,-9.4707918508,0.7453642399,1343
117494,189163,250393,1.9692929998,-9.5700939887,0.9008977089,1344
117702,189153,250409,1.9214365478,-9.5377908836,0.8590233134,1345
117939,189187,250431,2.0135602179,-9.5282195932,0.7872386353999999,1346
118136,189217,250506,1.9704894111,-9.475577496,0.8805587168,1347
118328,189196,250457,1.9274186043000001,-9.5330052384,0.9140582332,1348
118518,189210,250488,2.1332013479,-9.455238503899999,0.9248259349,1349
118670,189205,250447,2.0422740890999997,-9.5162554802,0.8207381518,1350
118861,189280,250433,2.021935097,-9.5246303593,0.9152546444999999,1351
119033,189248,250516,1.9477575963999998,-9.5030949559,0.8566304908000001,1352
119164,189262,250541,2.1092731219,-9.487541608999999,0.8087740388,1353
118801,189242,250506,2.0279171535,-9.443274390900001,0.7872386353999999,1354
117930,189191,250480,1.9896319919,-9.675378183100001,0.8446663778000001,1355
116945,189126,250402,2.0901305410999997,-9.4121676971,0.7728816998,1356
116148,189084,250357,1.9525432416,-9.4707918508,0.8518448456000001,1357
115598,189032,250320,1.9573288867999998,-9.4528456813,0.7884350467,1358
115145,189042,250260,2.0434705004000002,-9.397810761499999,0.8374879099999999,1359
115132,189071,250272,2.0482561456,-9.4923272542,0.777667345,1360
115179,189039,250233,2.0135602179,-9.4839523751,0.8039883936,1361
115250,189053,250289,1.9896319919,-9.4480600361,0.849452023,1362
115258,189078,250310,2.0386848552,-9.5449693514,0.8398807326,1363
115264,189065,250289,1.9788642901999998,-9.4672026169,0.8626125473,1364
115276,189070,250292,2.0015961049,-9.4923272542,0.9224331123,1365
115362,189075,250224,2.1583259852,-9.5665047548,0.8183453291999999,1366
115346,189045,250228,1.9645073545999998,-9.385846648500001,0.9655039191,1367
115574,189077,250270,2.0518453795,-9.4935236655,0.7477570625,1368
115725,189054,250287,2.0841484846,-9.576076045199999,0.7812565789,1369
115865,189087,250283,1.8317057003,-9.5377908836,0.8279166196,1370
116091,189083,250231,2.0853448959,-9.5282195932,0.9104689993,1371
116283,189142,250265,1.9645073545999998,-9.535398061,0.9008977089,1372
116515,189165,250310,1.9704894111,-9.5784688678,0.8578269021,1373
116709,189152,250268,1.9501504189999999,-9.4731846734,0.8303094421999999,1374
116920,189195,250314,1.9896319919,-9.4145605197,0.8805587168,1375
117108,189218,250311,2.0087745727,-9.3906322937,0.8913264185,1376
117282,189184,250359,1.8077774743,-9.5377908836,0.8183453291999999,1377
117504,189278,250360,2.0398812665,-9.4360959231,0.8422735552,1378
117677,189265,250378,2.0255243308999997,-9.499505722,0.8039883936,1379
117509,189288,250357,1.9740786449999999,-9.5557370531,0.8135596839999999,1380
116662,189226,250351,1.9585252981,-9.3906322937,0.8769694829,1381
115590,189147,250291,1.962114532,-9.6167540294,0.9224331123,1382
114596,189115,250215,1.8963119105000001,-9.5688975774,0.8374879099999999,1383
113842,189069,250151,1.8604195715,-9.5772724565,0.9032905315,1384
113313,189051,250098,1.9932212258000002,-9.595218626,0.8159525066,1385
113079,189052,250070,2.0554346134,-9.4672026169,0.789631458,1386
113161,189035,250110,1.9764714676,-9.523433948000001,0.849452023,1387
113296,189050,250076,2.0147566292,-9.5042913672,0.8087740388,1388
113461,189038,250061,1.9860427579999997,-9.4253282214,0.8267202082999999,1389
113521,189041,250149,2.1164515897,-9.5665047548,0.8087740388,1390
113564,189045,250114,2.1403798157,-9.5569334644,0.741775006,1391
113665,188998,250111,1.9716858223999998,-9.4468636248,0.8087740388,1392
113802,189027,250086,1.9501504189999999,-9.3774717694,0.8422735552,1393
113949,189004,250118,2.0291135648000003,-9.376275358100001,0.8255237969999999,1394
114215,189008,250146,2.0279171535,-9.522237536699999,0.8506484343,1395
114464,189040,250140,2.1116659445,-9.487541608999999,0.9152546444999999,1396
114730,189036,250100,2.0255243308999997,-9.4133641084,0.7142575461,1397
115018,189049,250128,2.0291135648000003,-9.564111932200001,0.789631458,1398
115308,189058,250166,2.1714865095,-9.4851487864,0.8398807326,1399
115561,189088,250161,2.0315063874,-9.6287181424,0.7680960546,1400
115851,189111,250195,1.938186306,-9.5150590689,0.8039883936,1401
115946,189121,250203,1.9118652574,-9.4025964067,0.8398807326,1402
115386,189110,250196,2.1607188078,-9.6251289085,0.8027919822999999,1403
114280,188999,250185,1.8388841681,-9.3810610033,0.8039883936,1404
113244,188907,250011,1.9489540077,-9.3786681807,0.6664010940999999,1405
112550,188864,250041,1.9369898947,-9.397810761499999,0.8877371846000001,1406
112084,188897,249982,2.0195422744,-9.762716208,0.8039883936,1407
111989,188893,249962,2.1236300575,-9.700502820399999,0.849452023,1408
112217,188933,250001,1.8460626359,-9.229116768199999,0.7286144817,1409
112497,188926,250011,2.0243279196,-9.5605226983,0.801595571,1410
112703,188912,250070,2.0291135648000003,-9.2817588654,0.7633104094,1411
112832,188926,250073,2.1224336462,-9.774680321,0.8063812161999999,1412
112911,188917,250042,1.8305092889999999,-9.4576313265,0.6424728680999999,1413
113044,188859,249996,2.0542382021,-9.6526463684,0.7884350467,1414
113212,188845,249975,2.0003996936,-9.2626162846,0.8231309743999999,1415
113410,188839,250042,1.9537396529,-9.6251289085,0.7920242806,1416
113693,188864,250004,2.1643080417,-9.5007021333,0.9236295236,1417
113954,188881,250071,1.9310078382,-9.3224368496,0.6137589969,1418
114238,188924,250076,1.9788642901999998,-9.8189475391,0.8123632727,1419
114532,188954,250069,2.0662023151,-9.589236569499999,0.8554340795,1420
114835,188949,250139,1.9513468303000001,-9.589236569499999,0.7513462964000001,1421
115103,188997,250167,2.0506489682,-9.6275217311,0.7812565789,1422
115402,188992,250117,1.9740786449999999,-9.487541608999999,0.7226324252,1423
115645,189050,250159,2.1367905818,-9.4313102779,0.8147560952999999,1424
115947,188988,250183,2.0135602179,-9.4719882621,0.789631458,1425
116132,188973,250167,1.962114532,-9.5042913672,0.7692924659,1426
116426,189027,250223,1.9932212258000002,-9.619146852,0.801595571,1427
116666,189053,250234,1.9022939669999999,-9.5712904,0.8099704500999999,1428
116713,189036,250271,2.0386848552,-9.510273423700001,0.8386843212999999,1429
116086,188975,250186,2.1511475174,-9.5868437469,0.8159525066,1430
114984,188928,250164,1.8340985228999998,-9.4731846734,0.789631458,1431
113967,188885,250097,1.890329854,-9.547362174,0.7992027483999999,1432
113297,188810,250008,2.0470597343,-9.5282195932,0.8135596839999999,1433
112871,188825,249990,1.8723836845000001,-9.4624169717,0.7585247642,1434
112749,188822,250010,2.0949161863,-9.477970318599999,0.8027919822999999,1435
112944,188889,250003,2.03389921,-9.4767739073,0.8650053699,1436
113143,188936,250062,2.0195422744,-9.4899344316,0.7513462964000001,1437
113300,188919,250103,1.8975083218,-9.509077012399999,0.8195417405,1438
113383,188962,250094,1.9968104597,-9.4983093107,0.7824529901999999,1439
113401,188949,250078,1.9429719511999999,-9.6263253198,0.8003991597,1440
113504,188926,250047,2.0027925162,-9.6059863277,0.7944171031999999,1441
113595,188919,250019,2.0841484846,-9.4851487864,0.7680960546,1442
113835,188956,250017,1.9836499354,-9.5449693514,0.7429714173,1443
113947,188955,250027,1.8735800958,-9.5449693514,0.7513462964000001,1444
114161,189019,250080,2.0003996936,-9.6239324972,0.7872386353999999,1445
114350,189038,250031,1.9716858223999998,-9.420542576199999,0.7609175868,1446
114589,189078,250061,1.9752750562999999,-9.5461657627,0.8662017812,1447
114820,189069,250085,1.9345970721,-9.4827559638,0.7704888772,1448
114837,189089,250076,1.9214365478,-9.4851487864,0.8111668613999999,1449
114087,189048,250116,1.9800607015,-9.3583291886,0.8135596839999999,1450
112962,189010,250047,2.057827436,-9.5569334644,0.7848458128,1451
111891,188967,250009,2.0793628394,-9.620343263299999,0.8231309743999999,1452
111167,188909,249894,2.0614166699,-9.629914553699999,0.7824529901999999,1453
110698,188869,249833,2.1547367513,-9.4695954395,0.8231309743999999,1454
110528,188863,249834,1.9740786449999999,-9.6275217311,0.8757730716000001,1455
110731,188898,249839,2.0769700168,-9.522237536699999,0.7824529901999999,1456
110950,188857,249869,2.0039889275,-9.6059863277,0.7872386353999999,1457
111156,188872,249881,1.9645073545999998,-9.4803631412,0.7369893608,1458
111297,188888,249849,2.0925233637,-9.6119683842,0.7202396026000001,1459
111383,188938,249888,1.866401628,-9.5449693514,0.8063812161999999,1460
111521,188945,249855,2.0075781614,-9.4002035841,0.8255237969999999,1461
111772,188928,249860,2.0434705004000002,-9.6598248362,0.8626125473,1462
111942,188935,249882,2.0518453795,-9.3786681807,0.8303094421999999,1463
112198,188932,249892,1.9669001771999999,-9.5521478192,0.8111668613999999,1464
112517,188972,249829,1.9070796122,-9.621539674600001,0.8255237969999999,1465
112769,188958,249837,1.9357934834,-9.4947200768,0.7944171031999999,1466
113083,188973,249868,1.866401628,-9.518648302799999,0.8458627891,1467
113384,189000,249916,2.0231315083,-9.547362174,0.729810893,1468
113686,189072,249925,1.9405791285999998,-9.6275217311,0.7848458128,1469
113869,189083,249972,1.9238293703999998,-9.5306124158,0.7800601676,1470
113359,189075,249948,1.9501504189999999,-9.3954179389,0.7872386353999999,1471
112123,189027,249928,2.0470597343,-9.5665047548,0.7920242806,1472
110834,188965,249817,2.0961125976,-9.6000042712,0.8039883936,1473
109793,188896,249767,2.0243279196,-9.5258267706,0.7764709337,1474
109048,188860,249734,1.9262221929999999,-9.5018985446,0.8147560952999999,1475
108595,188821,249677,1.9082760235,-9.5521478192,0.7561319416,1476
108604,188692,249686,2.1403798157,-9.5665047548,0.8087740388,1477
108867,188810,249651,1.866401628,-9.5617191096,0.7465606512,1478
109199,188853,249676,2.0087745727,-9.5138626576,0.7621139981,1479
109456,188865,249734,1.9286150156,-9.4660062056,0.8638089586000001,1480
109638,188878,249738,2.0781664281,-9.463613383,0.7357929495000001,1481
109782,188874,249781,1.8580267489000002,-9.5569334644,0.789631458,1482
109990,188850,249764,1.9764714676,-9.5042913672,0.7992027483999999,1483
110262,188894,249798,2.1559331626,-9.583254513,0.8267202082999999,1484
110544,188883,249781,1.8831513862,-9.5533442305,0.7633104094,1485
110796,188917,249794,2.0829520733,-9.6323073763,0.7585247642,1486
111233,188924,249847,2.0231315083,-9.5820581017,0.9032905315,1487
111574,188996,249888,2.0231315083,-9.5078806011,0.9008977089,1488
111967,188985,249819,1.9716858223999998,-9.4025964067,0.765703232,1489
112320,188996,249889,2.0518453795,-9.5413801175,0.6867400861999999,1490
112669,189076,249890,2.009970984,-9.5258267706,0.7609175868,1491
112984,189061,249890,1.9525432416,-9.5868437469,0.8913264185,1492
113268,189093,249938,2.081755662,-9.5808616904,0.8350950873999999,1493
113131,189102,249935,1.9262221929999999,-9.468399028199999,0.7441678286,1494
112240,189074,249884,1.9334006607999998,-9.535398061,0.8219345630999999,1495
110978,188987,249823,2.0470597343,-9.6586284249,0.8889335959,1496
109906,188894,249793,1.8233308212,-9.6287181424,0.753739119,1497
109187,188821,249729,1.9405791285999998,-9.497112899400001,0.7704888772,1498
108766,188769,249698,1.8723836845000001,-9.4935236655,0.71784678,1499
108708,188765,249643,2.0602202586000002,-9.621539674600001,0.7992027483999999,1500
109017,188816,249630,1.9896319919,-9.4815595525,0.7824529901999999,1501
109392,188811,249730,2.0303099761,-9.4827559638,0.7680960546,1502
109722,188837,249747,1.9932212258000002,-9.5377908836,0.8219345630999999,1503
109948,188828,249775,1.9214365478,-9.4791667299,0.777667345,1504
110160,188835,249764,2.0231315083,-9.5174518915,0.8231309743999999,1505
110369,188847,249768,1.9549360641999998,-9.5401837062,0.8434699665000001,1506
110728,188814,249782,2.0877377184999997,-9.5736832226,0.861416136,1507
111042,188856,249776,1.9561324755,-9.5258267706,0.6855436748999999,1508
111395,188833,249794,2.0362920326,-9.468399028199999,0.7740781111,1509
111688,188854,249838,2.0973090089,-9.5401837062,0.9140582332,1510
112089,188863,249835,2.0027925162,-9.5365944723,0.7704888772,1511
112478,188893,249857,2.0362920326,-9.4767739073,0.753739119,1512
112817,188927,249855,1.9920248145,-9.5282195932,0.8937192411,1513
113149,188927,249871,1.9884355805999998,-9.5772724565,0.7609175868,1514
113519,188975,249892,2.0327027987,-9.456434915200001,0.7800601676,1515
113792,188944,249925,1.9453647738,-9.5306124158,0.7800601676,1516
113428,188961,249909,1.8939190879,-9.5976114486,0.7740781111,1517
112350,188915,249894,1.9286150156,-9.5138626576,0.7704888772,1518
