green,red,IR,acc_x,acc_y,acc_z,sample_index
114570,185230,243379,9.3427758417,-2.8259234905999997,-0.9595218625999999,1
114615,185221,243403,9.272187575,-2.8689942974,-1.0743773474,2
114632,185158,243336,9.274580397600001,-2.8043880872,-0.9858429111999999,3
114784,185138,243334,9.3056870914,-2.7768706272999997,-0.9355936366,4
114957,185173,243314,9.4408815683,-2.9503502657999996,-0.9858429111999999,5
115172,185180,243336,9.3547399547,-3.0077780082,-0.8937192411,6
115444,185204,243319,9.3930251163,-2.9778677257000004,-0.9643075078,7
115633,185235,243297,9.371489712899999,-2.7840490951,-1.0516455327,8
115819,185194,243317,9.2303131795,-2.8785655878,-0.9391828704999999,9
115872,185186,243345,9.355936366,-2.8486553053,-0.9176474671,10
115412,185079,243275,9.3116691479,-2.7062823606,-0.9870393224999999,11
114720,184981,243177,9.4444708022,-2.8187450228000004,-0.8865407733,12
114070,184891,243140,9.272187575,-2.9001009912,-0.9607182739,13
113723,184892,243093,9.2458665264,-2.8522445392,-1.004985492,14
113585,184858,243100,9.3906322937,-2.9706892578999997,-1.0432706536,15
113685,184829,243088,9.3009014462,-2.8618158296000002,-1.0193424276,16
113889,184783,243102,9.284151688,-2.8283163132,-1.016949605,17
114109,184806,243133,9.3140619705,-2.8570301844,-0.9391828704999999,18
114256,184848,243149,9.4265246327,-2.8905297008,-0.933200814,19
114314,184841,243128,9.3224368496,-2.7972096194,-0.9906285563999999,20
114359,184816,243119,9.3894358824,-2.8893332895,-1.0121639598,21
114440,184795,243109,9.284151688,-2.8414768375,-1.0504491214,22
114493,184801,243099,9.2530449942,-2.7720849821,-1.0037890807,23
114724,184796,243081,9.4002035841,-2.9216363945999997,-1.004985492,24
114913,184822,243088,9.4348995118,-2.8498517166,-0.9978070242,25
115149,184821,243079,9.4241318101,-2.8103701436999997,-0.9619146851999999,26
115397,184824,243150,9.3631148338,-2.8905297008,-1.028913718,27
115550,184848,243141,9.299705034899999,-2.7433711108999996,-0.9080761767,28
115311,184770,243179,9.229116768199999,-2.8905297008,-1.0935199281999999,29
114661,184737,243192,9.4145605197,-2.8103701436999997,-1.0193424276,30
114037,184773,243195,9.332008140000001,-2.8307091358,-1.0025926694,31
113656,184758,243211,9.2889373332,-2.75174599,-0.9655039191,32
113548,184744,243242,9.3906322937,-2.8402804262,-0.9284151688,33
113638,184785,243256,9.367900479,-2.9371897415,-0.9942177902999999,34
113868,184834,243313,9.219545477799999,-2.9455646206,-0.9320044027,35
114180,184905,243378,9.224331123,-2.8067809098,-0.9523433948,36
114354,184944,243383,9.247062937699999,-2.8594230069999997,-0.9714859755999999,37
114430,184958,243455,9.4013999954,-2.75174599,-1.0432706536,38
114555,185024,243505,9.1968136631,-2.8498517166,-1.0815558152,39
114672,185008,243540,9.3379901965,-2.8115665549999997,-0.981057266,40
114804,185007,243595,9.309276325299999,-2.8737799425999997,-0.9308079913999999,41
115018,185072,243608,9.3355973739,-2.9072794589999997,-1.0707881135,42
115244,185153,243678,9.2159562439,-2.9515466771,-0.9463613382999999,43
115495,185235,243735,9.2279203569,-2.7433711108999996,-0.9894321450999999,44
115770,185319,243791,9.2135634213,-2.9754749031,-0.9559326287,45
115876,185282,243764,9.2626162846,-2.8522445392,-0.9355936366,46
115359,185226,243840,9.3188476157,-2.8594230069999997,-1.016949605,47
114633,185168,243832,9.3595255999,-2.8079773211,-0.969093153,48
114108,185104,243770,9.2913301558,-2.7649065143000002,-0.9906285563999999,49
113841,185036,243758,9.2889373332,-2.8426732488,-0.95712904,50
113766,185080,243772,9.4181497536,-2.9072794589999997,-0.9954142015999999,51
113924,185102,243819,9.320044027,-2.8486553053,-0.9224331123,52
114183,185132,243853,9.3128655592,-2.8450660714,-1.028913718,53
114413,185169,243868,9.463613383,-2.775674216,-0.9260223462,54
114584,185201,243922,9.327222494799999,-2.823530668,-0.9104689993,55
114669,185215,243917,9.4013999954,-2.9180471607,-0.9379864592,56
114794,185229,243929,9.3906322937,-2.9072794589999997,-1.0552347666,57
114894,185184,243962,9.3056870914,-2.7888347403,-0.9080761767,58
115071,185209,243942,9.1692962032,-2.8570301844,-0.9308079913999999,59
115189,185187,244026,9.4480600361,-2.8905297008,-1.0133603711,60
115512,185260,244028,9.3391866078,-2.883351233,-1.0779665813,61
115786,185207,244039,9.3379901965,-2.8929225234,-0.9559326287,62
116008,185356,244105,9.371489712899999,-2.8187450228000004,-0.9188438784,63
116296,185355,244116,9.260223461999999,-2.8450660714,-0.8554340795,64
116481,185386,244176,9.2542414055,-2.8642086522,-1.052841944,65
116729,185418,244168,9.308079914,-2.8689942974,-0.9607182739,66
116942,185443,244204,9.3176512044,-2.7840490951,-0.9499505722,67
116629,185372,244138,9.3571327773,-2.8307091358,-1.0109675485,68
115919,185294,244101,9.3810610033,-2.8666014748,-0.9702895642999999,69
115174,185128,244105,9.2386880586,-2.8450660714,-0.8793623055,70
114715,185098,244052,9.2889373332,-2.7625136916999997,-0.9140582332,71
114517,185140,244035,9.286544510599999,-2.8498517166,-0.8506484343,72
114535,185159,244075,9.2111705987,-2.8414768375,-0.945164927,73
114692,185193,244082,9.1680997919,-2.7493531674,-0.9499505722,74
114905,185193,244110,9.2626162846,-2.8426732488,-0.9427721043999999,75
115063,185290,244117,9.403792818,-2.8426732488,-0.969093153,76
115136,185302,244118,9.2434737038,-2.8450660714,-0.9475577495999999,77
115096,185260,244185,9.3009014462,-2.8151557889,-0.9834500885999999,78
115245,185244,244097,9.2697947524,-2.8546373618,-0.9427721043999999,79
115366,185244,244148,9.330811728699999,-2.9144579268,-0.9427721043999999,80
115509,185244,244184,9.4707918508,-2.8773691765,-0.9068797654,81
115459,185249,244167,9.3726861242,-2.9706892578999997,-0.9978070242,82
114970,185225,244202,9.272187575,-2.8666014748,-0.9403792818,83
114369,185065,244171,9.3391866078,-2.8642086522,-0.921236701,84
113951,185029,244106,9.1836531388,-2.8187450228000004,-1.0516455327,85
113809,185023,244125,9.3332045513,-2.7672993369,-0.9643075078,86
113856,185121,244135,9.2829552767,-2.7684957482,-1.0456634762,87
114153,185070,244169,9.3152583818,-2.7852455064000003,-0.9308079913999999,88
114449,185205,244146,9.272187575,-2.7505495787000003,-1.0193424276,89
114658,185198,244246,9.4612205604,-2.8821548217,-0.9714859755999999,90
114790,185202,244232,9.443274390900001,-2.9108686929000003,-0.9535398061,91
114853,185185,244247,9.3583291886,-2.823530668,-0.9738787981999999,92
114986,185187,244226,9.332008140000001,-2.8295127245,-0.921236701,93
115078,185181,244272,9.2769732202,-2.8618158296000002,-0.8841479507000001,94
115282,185236,244269,9.2111705987,-2.8067809098,-0.8937192411,95
115540,185237,244288,9.236295236,-2.883351233,-1.0157531937,96
115795,185276,244301,9.3882394711,-2.7505495787000003,-0.8554340795,97
116032,185224,244301,9.265009107200001,-2.8642086522,-0.8997012976000001,98
116302,185274,244308,9.2578306394,-2.7996024420000003,-1.0097711372,99
116462,185247,244295,9.3391866078,-3.0113672421,-0.9439685157,100
116198,185166,244247,9.3009014462,-2.8689942974,-1.0444670649,101
115399,185042,244168,9.2913301558,-2.7385854657,-0.9834500885999999,102
114634,184925,244132,9.3667040677,-2.9180471607,-0.9080761767,103
114147,184848,244064,9.1633141467,-2.7625136916999997,-0.9547362173999999,104
113964,184788,244011,9.2554378168,-2.9252256285000002,-0.9667003303999999,105
114035,184849,244029,9.330811728699999,-2.9431717980000003,-0.969093153,106
114282,184812,243985,9.2051885422,-2.8809584104000003,-1.0241280728,107
114485,184848,244014,9.175278259699999,-2.8067809098,-0.9834500885999999,108
114647,184796,244023,9.3702933016,-2.9850461935,-0.9403792818,109
114713,184816,243986,9.320044027,-2.8965117573,-0.9320044027,110
114792,184821,243977,9.4767739073,-2.8761727652,-0.9762716208,111
114890,184783,243975,9.2769732202,-2.9336005076,-1.0145567824000001,112
114987,184724,243906,9.2398844699,-2.6991038927999997,-0.9355936366,113
115142,184730,243965,9.320044027,-2.7900311516,-0.9858429111999999,114
115370,184719,243973,9.260223461999999,-2.7996024420000003,-0.9954142015999999,115
115610,184759,244012,9.2350988247,-2.9060830476999997,-1.004985492,116
115862,184768,243980,9.3930251163,-2.8378876036,-1.0001998468,117
116089,184761,244003,9.3427758417,-2.8378876036,-0.9655039191,118
116337,184779,244012,9.3463650756,-2.7768706272999997,-0.9643075078,119
116523,184796,244025,9.290133744499999,-2.8031916759,-1.0384850084,120
116749,184768,244012,9.320044027,-2.8857440556,-1.0719845248,121
116960,184769,244031,9.2410808812,-2.8474588940000003,-0.9655039191,122
117173,184794,244013,9.1836531388,-2.7505495787000003,-0.9308079913999999,123
117343,184772,244017,9.3284189061,-2.8905297008,-0.9906285563999999,124
117546,184808,244036,9.327222494799999,-2.9431717980000003,-0.9786644433999999,125
117515,184744,244016,9.2685983411,-2.8426732488,-0.9786644433999999,126
116991,184676,243997,9.3583291886,-2.8582265956999997,-1.0265208954,127
116139,184608,243922,9.2769732202,-2.8845476443,-1.0492527101,128
115701,184547,243887,9.320044027,-2.8295127245,-1.0456634762,129
115415,184520,243849,9.3631148338,-2.7505495787000003,-0.9762716208,130
115331,184573,243868,9.3499543095,-2.8151557889,-1.1102696864,131
115455,184541,243896,9.3284189061,-2.87138712,-1.0241280728,132
115656,184480,243901,9.2769732202,-2.8905297008,-1.0241280728,133
115856,184568,243944,9.1669033806,-2.8247270792999997,-1.040877831,134
115912,184654,243978,9.3487578982,-2.9144579268,-0.9894321450999999,135
115941,184639,244020,9.3128655592,-2.8271199019,-0.9990034355,136
116003,184637,244053,9.3690968903,-2.8785655878,-1.0552347666,137
116071,184692,244079,9.308079914,-2.7804598612,-1.0193424276,138
116211,184680,244112,9.3954179389,-2.8438696600999998,-0.9726823869,139
116417,184741,244137,9.1980100744,-2.7900311516,-0.909272588,140
116652,184819,244203,9.345168664300001,-2.8426732488,-1.0073783146,141
116880,184890,244173,9.3164547931,-2.7984060307000003,-0.8685946038000001,142
117110,184926,244287,9.3643112451,-2.8570301844,-0.9798608547,143
117365,184959,244283,9.2949193897,-2.8342983697,-1.0360921858,144
117558,185019,244374,9.3176512044,-2.8785655878,-0.9774680320999999,145
117793,185031,244418,9.2793660428,-2.8402804262,-1.0073783146,146
118018,185115,244435,9.3367937852,-2.8043880872,-0.9786644433999999,147
118123,185147,244496,9.3475614869,-2.7972096194,-0.9308079913999999,148
117770,185117,244532,9.2817588654,-2.8331019584000003,-0.8937192411,149
117096,185116,244532,9.3260260835,-2.7720849821,-0.9487541609,150
116513,185113,244449,9.3463650756,-3.0065815969000003,-0.9487541609,151
116173,185088,244521,9.340383019099999,-2.8618158296000002,-0.9080761767,152
115994,185051,244530,9.299705034899999,-2.7696921595,-0.9284151688,153
116097,185088,244515,9.330811728699999,-2.9922246613000003,-1.016949605,154
116280,185161,244584,9.3571327773,-2.7242285301,-0.9260223462,155
116474,185196,244589,9.391828705,-2.8977081686,-0.9487541609,156
116572,185176,244603,9.3296153174,-2.9288148624,-0.9415756931,157
116651,185181,244638,9.2626162846,-2.8402804262,-0.9714859755999999,158
116690,185195,244635,9.415756931,-2.787638329,-0.9547362173999999,159
116695,185089,244623,9.200402897,-2.7804598612,-0.9296115801,160
116834,185199,244604,9.2554378168,-2.8007988533,-0.9176474671,161
117022,185166,244682,9.3475614869,-2.9120651042,-0.9559326287,162
117243,185214,244655,9.3499543095,-2.8187450228000004,-1.0504491214,163
117465,185272,244705,9.2913301558,-2.8474588940000003,-0.9475577495999999,164
117669,185328,244753,9.233902413400001,-2.6955146589,-0.8578269021,165
117907,185378,244755,9.2614198733,-2.8618158296000002,-1.0480562988,166
118044,185404,244792,9.385846648500001,-2.8402804262,-0.9427721043999999,167
117862,185341,244749,9.2697947524,-2.8570301844,-0.9595218625999999,168
117236,185305,244704,9.2219383004,-2.931207685,-0.9320044027,169
116514,185213,244713,9.3032942688,-2.9886354273999998,-1.0253244841,170
116004,185144,244668,9.248259349,-2.8450660714,-0.8937192411,171
115757,185171,244657,9.3391866078,-2.8055844984999996,-1.0241280728,172
115709,185175,244704,9.330811728699999,-2.8594230069999997,-0.9547362173999999,173
115842,185215,244676,9.1477607998,-3.0329026454999997,-0.8937192411,174
116037,185209,244722,9.3511507208,-2.8701907087,-0.95712904,175
116212,185213,244708,9.2793660428,-2.7003003040999998,-0.8386843212999999,176
116272,185243,244742,9.3571327773,-2.931207685,-0.9667003303999999,177
116295,185150,244745,9.1250289851,-2.9300112737000004,-0.8865407733,178
116325,185167,244713,9.2554378168,-2.8175486115,-1.0193424276,179
116387,185178,244719,9.2410808812,-2.7912275628999996,-0.8937192411,180
116520,185247,244756,9.3367937852,-2.8378876036,-0.9068797654,181
116744,185244,244772,9.345168664300001,-2.9551359109999997,-0.969093153,182
116959,185307,244848,9.2554378168,-2.7637101029999998,-0.9619146851999999,183
117194,185355,244830,9.3726861242,-2.8881368781999996,-0.9906285563999999,184
117318,185343,244816,9.284151688,-2.8821548217,-0.9355936366,185
117073,185262,244817,9.5174518915,-2.8307091358,-1.0217352502000001,186
116350,185207,244783,9.296115801,-2.8498517166,-0.9008977089,187
115638,185109,244701,9.376275358100001,-2.9623143788,-0.9320044027,188
115178,185068,244681,9.1800639049,-2.787638329,-0.9056833541,189
114992,185066,244677,9.3738825355,-2.9407789753999998,-0.8745766603,190
115026,185109,244700,9.3176512044,-2.8211378454,-0.9930213789999999,191
115207,185154,244723,9.3296153174,-2.9001009912,-0.9032905315,192
115440,185186,244734,9.2506521716,-2.8283163132,-0.9164510558,193
115595,185214,244804,9.3942215276,-2.8905297008,-0.9284151688,194
115672,185233,244783,9.4121676971,-2.7649065143000002,-0.9714859755999999,195
115700,185185,244763,9.3882394711,-2.823530668,-0.8901300072,196
115685,185108,244721,9.4289174553,-2.7900311516,-0.9236295236,197
115814,185025,244730,9.3786681807,-2.9359933301999996,-0.9499505722,198
115968,185123,244724,9.3367937852,-2.7074787719,-0.9858429111999999,199
116171,185072,244736,9.284151688,-2.9503502657999996,-0.9403792818,200
116358,185131,244751,9.3523471321,-2.8534409504999996,-0.9224331123,201
116640,185159,244724,9.2805624541,-2.8761727652,-0.9403792818,202
116842,185141,244739,9.4301138666,-2.9012974024999996,-0.9583254512999999,203
117052,185140,244701,9.3056870914,-2.9216363945999997,-1.0600204118,204
117196,185112,244684,9.3583291886,-2.967100024,-0.9200402897,205
116883,185064,244624,9.376275358100001,-2.8127629663000002,-1.0336993632,206
116153,184947,244591,9.3212404383,-2.8319055471,-1.0181460163,207
115388,184806,244506,9.379864592,-2.823530668,-0.9427721043999999,208
114890,184751,244431,9.3822574146,-2.9515466771,-1.0145567824000001,209
114723,184744,244461,9.3726861242,-2.9515466771,-0.9714859755999999,210
114755,184756,244446,9.2135634213,-2.9300112737000004,-0.9858429111999999,211
114976,184775,244471,9.2793660428,-2.9264220398,-0.9224331123,212
115111,184800,244411,9.2937229784,-2.8677978860999995,-0.9906285563999999,213
115266,184745,244455,9.2829552767,-2.8055844984999996,-0.9930213789999999,214
115304,184742,244427,9.3009014462,-2.8079773211,-0.9858429111999999,215
115359,184684,244407,9.3104727366,-2.8881368781999996,-0.9463613382999999,216
115432,184674,244401,9.4121676971,-2.7768706272999997,-0.9750752094999999,217
115486,184662,244358,9.4193461649,-2.8689942974,-0.9367900479,218
115664,184635,244386,9.2769732202,-2.9682964353,-1.0456634762,219
115882,184659,244453,9.3954179389,-2.7481567560999998,-1.0552347666,220
116089,184651,244447,9.2769732202,-2.8103701436999997,-0.9415756931,221
116345,184686,244479,9.3511507208,-2.9659036127,-1.0313065406,222
116544,184676,244390,9.3427758417,-2.8175486115,-1.0336993632,223
116805,184740,244467,9.2458665264,-2.8259234905999997,-1.0384850084,224
117003,184718,244434,9.296115801,-2.8295127245,-1.0121639598,225
117235,184726,244483,9.4253282214,-2.8606194183,-1.0432706536,226
117417,184737,244469,9.3595255999,-2.7720849821,-0.9726823869,227
117589,184762,244495,9.2662055185,-2.7972096194,-1.0552347666,228
117694,184742,244471,9.286544510599999,-2.8031916759,-0.8721838377000001,229
118011,184753,244432,9.3009014462,-2.7744778047,-0.9930213789999999,230
118233,184764,244470,9.2578306394,-2.7960132080999998,-1.0109675485,231
118404,184761,244490,9.308079914,-2.8007988533,-0.9631110964999999,232
118685,184793,244497,9.3690968903,-2.8929225234,-0.9978070242,233
118799,184833,244465,9.2530449942,-2.8450660714,-0.9978070242,234
118998,184768,244522,9.2542414055,-2.8570301844,-0.9296115801,235
119205,184718,244485,9.3009014462,-2.8295127245,-0.9822536772999999,236
119405,184707,244506,9.5162554802,-2.9611179675,-1.0145567824000001,237
119594,184751,244539,9.286544510599999,-2.9407789753999998,-1.0205388389,238
119714,184737,244530,9.379864592,-2.8307091358,-1.0755737587,239
119471,184759,244548,9.2159562439,-2.8139593776000003,-1.1030912186,240
118910,184730,244579,9.2578306394,-2.8055844984999996,-1.1102696864,241
118327,184797,244622,9.2315095908,-2.9072794589999997,-1.0025926694,242
117927,184843,244599,9.4265246327,-2.8737799425999997,-0.9655039191,243
117779,184873,244626,9.3020978575,-2.7852455064000003,-1.0025926694,244
117810,184895,244649,9.2578306394,-2.8498517166,-1.0241280728,245
117914,184949,244636,9.1932244292,-2.8067809098,-0.9487541609,246
118076,184967,244653,9.330811728699999,-2.7469603447999997,-0.9726823869,247
118144,184999,244700,9.3248296722,-2.9276184511,-0.9511469834999999,248
118165,185004,244784,9.2674019298,-2.8606194183,-0.9846464999,249
118153,185039,244794,9.1585285015,-2.8761727652,-0.9296115801,250
118227,185040,244784,9.207581364800001,-2.8809584104000003,-0.969093153,251
118278,185035,244836,9.3140619705,-2.9300112737000004,-0.9906285563999999,252
118405,185142,244840,9.4061856406,-2.8474588940000003,-1.0444670649,253
118543,185203,244909,9.3224368496,-2.8498517166,-0.9714859755999999,254
118757,185263,244910,9.3702933016,-2.9742784918,-0.8315058535,255
118935,185313,244935,9.274580397600001,-2.9336005076,-0.9224331123,256
119147,185363,244991,9.367900479,-2.9850461935,-0.9439685157,257
119326,185404,245011,9.3415794304,-2.8067809098,-0.9128618219,258
119281,185365,245027,9.3212404383,-2.8522445392,-0.9786644433999999,259
118882,185289,245024,9.3367937852,-2.7672993369,-0.9128618219,260
118259,185250,244986,9.3882394711,-2.7948167968,-1.0121639598,261
117728,185234,244979,9.290133744499999,-2.775674216,-0.9870393224999999,262
117414,185218,244943,9.384650237199999,-2.8366911923,-0.8482556117000001,263
117279,185239,244973,9.272187575,-2.9072794589999997,-0.981057266,264
117318,185252,244952,9.2039921309,-2.7912275628999996,-1.0336993632,265
117460,185262,244953,9.3391866078,-2.8378876036,-1.0277173067,266
117608,185291,244949,9.3152583818,-2.8426732488,-0.9200402897,267
117626,185325,245015,9.3152583818,-3.0065815969000003,-0.9296115801,268
117673,185170,244994,9.3020978575,-2.8977081686,-0.9056833541,269
117648,185187,245016,9.2614198733,-2.8486553053,-0.9475577495999999,270
117705,185206,244963,9.0939222913,-2.8546373618,-0.9296115801,271
117774,185294,244949,9.2267239456,-2.919243572,-0.9463613382999999,272
117911,185320,244973,9.2853480993,-2.7553352239,-0.9882357338,273
118089,185393,245006,9.296115801,-2.9371897415,-1.0001998468,274
118191,185388,245059,9.2937229784,-2.8319055471,-0.9176474671,275
118430,185411,245017,9.4504528587,-2.8450660714,-1.040877831,276
118602,185416,245094,9.340383019099999,-2.8630122409,-0.9667003303999999,277
118816,185464,245078,9.165706969299999,-2.8689942974,-1.0121639598,278
118986,185463,245077,9.3499543095,-2.9455646206,-0.9511469834999999,279
119153,185453,245112,9.3511507208,-2.8905297008,-0.9260223462,280
119297,185507,245097,9.274580397600001,-2.8749763539,-1.0121639598,281
119489,185518,245120,9.3140619705,-2.8857440556,-0.9379864592,282
119634,185492,245144,9.2697947524,-2.8426732488,-1.0025926694,283
119827,185543,245155,9.272187575,-2.8642086522,-1.052841944,284
119992,185580,245183,9.3164547931,-2.9336005076,-0.9930213789999999,285
120156,185607,245153,9.2949193897,-2.8749763539,-0.9595218625999999,286
120351,185566,245194,9.4145605197,-2.9862426048,-0.8662017812,287
120491,185606,245210,9.3655076564,-2.9527430884,-0.9236295236,288
120664,185576,245216,9.320044027,-2.9467610319,-0.8985048863,289
120823,185618,245218,9.3284189061,-2.9647072014,-0.9667003303999999,290
120973,185611,245275,9.3571327773,-2.8737799425999997,-0.9056833541,291
120737,185618,245242,9.415756931,-2.8761727652,-1.0360921858,292
120206,185618,245229,9.4337031005,-2.7326034091999998,-1.0193424276,293
119469,185552,245196,9.4145605197,-2.7385854657,-1.0001998468,294
118849,185458,245118,9.2829552767,-2.8283163132,-1.0313065406,295
118484,185526,245135,9.3427758417,-2.8259234905999997,-0.9870393224999999,296
118344,185525,245100,9.3643112451,-2.8630122409,-1.0480562988,297
118314,185516,245121,9.1920280179,-2.9515466771,-1.0731809361,298
118342,185511,245120,9.3296153174,-2.7696921595,-0.8913264185,299
118362,185516,245139,9.248259349,-2.919243572,-0.7980063370999999,300
118313,185527,245129,9.2817588654,-2.9539394997,-0.9248259349,301
118234,185496,245095,9.2530449942,-2.8199414341,-0.9487541609,302
118161,185535,245064,9.272187575,-2.87138712,-0.981057266,303
118113,185511,245066,9.2350988247,-2.8366911923,-1.0001998468,304
118143,185532,245058,9.2099741874,-2.8043880872,-0.9906285563999999,305
118219,185470,245067,9.4241318101,-2.9347969189,-0.9702895642999999,306
118352,185440,245105,9.4169533423,-2.7708885708000004,-0.8769694829,307
118489,185486,245096,9.4911308429,-2.7852455064000003,-0.9391828704999999,308
118593,185540,245142,9.3667040677,-2.7672993369,-0.9320044027,309
118791,185483,245163,9.3487578982,-2.7637101029999998,-0.9248259349,310
118913,185523,245111,9.3176512044,-2.9599215562,-0.9379864592,311
119048,185524,245136,9.2554378168,-2.8570301844,-1.0313065406,312
119165,185569,245149,9.2231347117,-2.9515466771,-0.9320044027,313
119252,185552,245096,9.2817588654,-2.8259234905999997,-0.9308079913999999,314
119108,185557,245115,9.1896351953,-2.8785655878,-0.9403792818,315
118480,185476,245035,9.2410808812,-2.8929225234,-0.9427721043999999,316
117672,185347,244999,9.1872423727,-2.8905297008,-0.9248259349,317
117044,185256,244897,9.2530449942,-2.8307091358,-0.9403792818,318
116622,185211,244830,9.233902413400001,-2.8929225234,-0.981057266,319
116462,185220,244846,9.3212404383,-2.8689942974,-0.8602197247000001,320
116477,185185,244821,9.3140619705,-2.9096722816000002,-1.0241280728,321
116550,185149,244773,9.2350988247,-2.8319055471,-0.8602197247000001,322
116650,185095,244754,9.2674019298,-2.8666014748,-0.921236701,323
116629,185124,244734,9.3152583818,-2.9120651042,-0.9834500885999999,324
116579,185043,244753,9.2506521716,-2.7744778047,-0.9511469834999999,325
116529,185036,244683,9.3236332609,-2.8582265956999997,-0.9224331123,326
116509,185039,244654,9.2853480993,-2.8689942974,-0.95712904,327
116529,184990,244632,9.2087777761,-2.7122644171,-0.9080761767,328
116654,185003,244669,9.3547399547,-2.7900311516,-0.9786644433999999,329
116794,184985,244546,9.3176512044,-2.8103701436999997,-0.9463613382999999,330
116970,184961,244646,9.2793660428,-2.9240292172,-0.9714859755999999,331
117146,184928,244604,9.2817588654,-2.8929225234,-0.9930213789999999,332
117301,184944,244589,9.407382051899999,-3.0364918793999998,-0.9487541609,333
117470,184944,244605,9.2877409219,-2.8857440556,-1.0480562988,334
117605,184858,244612,9.327222494799999,-2.8881368781999996,-0.981057266,335
117759,184854,244588,9.2231347117,-2.8307091358,-0.9164510558,336
117920,184898,244619,9.224331123,-2.8438696600999998,-1.040877831,337
118025,184964,244576,9.3774717694,-2.8223342567,-0.9798608547,338
117781,184830,244559,9.2877409219,-2.8666014748,-1.0253244841,339
117086,184758,244483,9.2554378168,-2.8295127245,-0.9535398061,340
116346,184637,244418,9.2709911637,-2.8055844984999996,-0.9260223462,341
115848,184579,244397,9.3643112451,-2.9168507494,-1.0384850084,342
115559,184529,244291,9.274580397600001,-2.9336005076,-1.0695917021999999,343
115481,184558,244342,9.2578306394,-2.8630122409,-1.0983055734,344
115594,184565,244288,9.3583291886,-2.8247270792999997,-0.9607182739,345
115784,184538,244352,9.1680997919,-2.7888347403,-0.9858429111999999,346
115886,184530,244298,9.3104727366,-2.8546373618,-1.0935199281999999,347
115911,184571,244314,9.1920280179,-2.8689942974,-1.0145567824000001,348
115901,184558,244290,9.3032942688,-2.8247270792999997,-1.0480562988,349
115908,184448,244246,9.3571327773,-2.8546373618,-1.0157531937,350
115938,184422,244191,9.3152583818,-2.8546373618,-1.040877831,351
116005,184423,244195,9.308079914,-2.8953153460000003,-0.9726823869,352
116032,184403,244201,9.2697947524,-2.919243572,-1.088734283,353
115737,184355,244186,9.1262253964,-2.7864419177,-0.9415756931,354
115138,184326,244150,9.420542576199999,-2.9383861528,-0.9355936366,355
114581,184258,244164,9.2638126959,-2.8857440556,-0.969093153,356
114302,184266,244093,9.286544510599999,-3.0245277664,-1.0360921858,357
114200,184318,244204,9.320044027,-2.8761727652,-1.040877831,358
114294,184400,244230,9.3152583818,-2.883351233,-1.0145567824000001,359
114545,184480,244284,9.2434737038,-2.9599215562,-1.1377871463,360
114798,184521,244404,9.3009014462,-2.9455646206,-1.0552347666,361
114832,184557,244359,9.2315095908,-2.8881368781999996,-0.9882357338,362
115001,184552,244395,9.3415794304,-2.8977081686,-0.9822536772999999,363
115087,184570,244393,9.2829552767,-2.7433711108999996,-0.9894321450999999,364
115178,184600,244378,9.3786681807,-2.8594230069999997,-1.0743773474,365
115348,184660,244408,9.219545477799999,-2.7744778047,-1.0420742423,366
115613,184728,244488,9.1633141467,-2.8259234905999997,-1.0025926694,367
115850,184768,244549,9.3726861242,-2.8211378454,-0.9463613382999999,368
116075,184856,244611,9.379864592,-2.9922246613000003,-0.9714859755999999,369
116363,184914,244666,9.2410808812,-2.8582265956999997,-1.0815558152,370
116603,184937,244719,9.5174518915,-2.883351233,-0.9750752094999999,371
116576,184933,244753,9.3068835027,-2.8259234905999997,-0.9655039191,372
115996,184908,244672,9.3260260835,-2.8259234905999997,-0.9655039191,373
115261,184851,244677,9.355936366,-2.9706892578999997,-0.9846464999,374
114782,184770,244674,9.176474671,-2.9024938138,-0.9367900479,375
114507,184733,244608,9.3667040677,-2.7457639335,-0.9595218625999999,376
114461,184732,244581,9.2590270507,-2.7553352239,-1.0815558152,377
114619,184852,244664,9.273383986299999,-2.7577280465,-1.0875378717,378
114891,184861,244695,9.2829552767,-2.7960132080999998,-0.9403792818,379
115060,184894,244678,9.2530449942,-2.8857440556,-1.004985492,380
115205,184915,244714,9.2793660428,-2.9575287336000002,-0.9296115801,381
115246,184930,244693,9.4193461649,-2.9228328059,-1.0121639598,382
115334,184945,244705,9.2889373332,-2.8378876036,-0.8841479507000001,383
115476,184898,244777,9.2350988247,-2.8402804262,-0.95712904,384
115621,184935,244742,9.355936366,-2.8223342567,-0.9619146851999999,385
115864,184950,244847,9.3020978575,-2.9336005076,-1.0779665813,386
116099,185044,244854,9.3834538259,-2.8677978860999995,-0.9954142015999999,387
116381,185051,244915,9.3475614869,-2.8905297008,-1.0097711372,388
116626,185112,244951,9.296115801,-2.9527430884,-0.9248259349,389
116908,185100,244947,9.2973122123,-2.8666014748,-0.9284151688,390
117113,185136,244940,9.3810610033,-2.8474588940000003,-0.9475577495999999,391
117347,185079,245003,9.385846648500001,-2.8390840148999996,-0.9655039191,392
117587,185160,244968,9.3176512044,-2.8953153460000003,-1.0480562988,393
117813,185231,245018,9.233902413400001,-2.7457639335,-1.0360921858,394
118039,185280,245037,9.3463650756,-2.8175486115,-1.0241280728,395
118284,185250,245082,9.4672026169,-2.9994031291,-0.933200814,396
118522,185270,245046,9.248259349,-2.9168507494,-0.8841479507000001,397
118673,185310,245098,9.3296153174,-2.7816562725,-0.8925228298,398
118506,185201,245069,9.1848495501,-2.7984060307000003,-0.9834500885999999,399
117885,185157,245015,9.2386880586,-2.8594230069999997,-0.95712904,400
117182,185093,244979,9.3355973739,-2.7936203855,-0.9427721043999999,401
116656,185060,244939,9.343972252999999,-2.7661029256000003,-0.969093153,402
116326,185024,244946,9.3164547931,-2.8259234905999997,-0.9355936366,403
116286,185060,244911,9.3212404383,-2.9383861528,-0.9583254512999999,404
116409,185075,244934,9.4265246327,-2.9024938138,-1.0456634762,405
116530,185083,244990,9.3044906801,-2.8534409504999996,-0.9152546444999999,406
116639,185096,245010,9.3188476157,-2.9479574432,-0.9978070242,407
116646,185094,244992,9.2506521716,-2.7529424013,-0.9032905315,408
116732,185118,244982,9.2303131795,-2.8151557889,-0.9152546444999999,409
116719,185089,245006,9.2386880586,-2.7541388126,-0.9978070242,410
116828,185093,244957,9.286544510599999,-2.9096722816000002,-0.9379864592,411
116960,185059,245013,9.4360959231,-2.7960132080999998,-0.9738787981999999,412
117097,185092,245038,9.2267239456,-2.8223342567,-0.909272588,413
117326,185148,245033,9.1369930981,-2.8390840148999996,-0.9499505722,414
117544,185097,245067,9.3248296722,-2.8785655878,-0.9140582332,415
117764,185135,245059,9.2494557603,-2.8929225234,-0.8458627891,416
117941,185177,245091,9.1812603162,-2.8402804262,-0.9894321450999999,417
118176,185237,245127,9.206384953499999,-2.9012974024999996,-0.945164927,418
118344,185254,245084,9.345168664300001,-2.9802605483,-0.8602197247000001,419
118121,185201,245099,9.2685983411,-2.8402804262,-0.9152546444999999,420
117465,185089,245003,9.284151688,-3.0017959517,-0.9882357338,421
116744,185003,244979,9.451649269999999,-2.823530668,-0.9427721043999999,422
116235,184932,244957,9.2638126959,-2.9623143788,-0.9308079913999999,423
115924,184907,244833,9.3224368496,-2.7373890544,-0.8913264185,424
115809,184885,244873,9.3391866078,-2.9072794589999997,-0.9643075078,425
115898,184947,244889,9.399007172800001,-2.8438696600999998,-0.9930213789999999,426
116082,184909,244871,9.3607220112,-2.7852455064000003,-1.0025926694,427
116200,184886,244820,9.2015993083,-2.8342983697,-0.9379864592,428
116222,184817,244825,9.4217389875,-2.7984060307000003,-0.9523433948,429
116228,184785,244773,9.3164547931,-2.8390840148999996,-0.9738787981999999,430
116231,184749,244752,9.340383019099999,-2.7720849821,-0.9343972253,431
116288,184743,244710,9.2662055185,-2.8402804262,-0.9427721043999999,432
116407,184746,244727,9.3631148338,-2.9587251449000003,-1.0217352502000001,433
116583,184735,244717,9.2051885422,-2.9144579268,-0.9930213789999999,434
116793,184785,244714,9.345168664300001,-2.8594230069999997,-0.9762716208,435
116976,184753,244732,9.3511507208,-2.775674216,-0.9858429111999999,436
117171,184720,244702,9.330811728699999,-2.9551359109999997,-0.9906285563999999,437
117319,184750,244722,9.3260260835,-2.9455646206,-0.9738787981999999,438
117174,184684,244636,9.3966143502,-2.8749763539,-1.0097711372,439
116540,184589,244629,9.175278259699999,-2.6967110702,-0.9391828704999999,440
115823,184409,244526,9.3332045513,-2.7421746995999996,-1.052841944,441
115273,184373,244481,9.265009107200001,-2.8630122409,-1.0636096457,442
114978,184345,244474,9.2506521716,-2.8522445392,-0.9714859755999999,443
114890,184369,244473,9.4049892293,-2.7888347403,-1.0935199281999999,444
115007,184445,244485,9.2315095908,-2.8390840148999996,-0.9750752094999999,445
115222,184415,244492,9.2410808812,-2.9635107901000004,-0.9499505722,446
115415,184401,244464,9.2817588654,-2.8761727652,-0.9954142015999999,447
115465,184379,244437,9.2937229784,-2.8079773211,-1.0695917021999999,448
115444,184348,244439,9.376275358100001,-2.823530668,-1.0600204118,449
115482,184308,244409,9.3188476157,-2.9156543381000004,-1.0432706536,450
115533,184257,244353,9.162117735399999,-2.8115665549999997,-0.9607182739,451
115692,184274,244353,9.3056870914,-2.7266213527,-0.9631110964999999,452
115844,184287,244399,9.3834538259,-2.9814569596,-0.9834500885999999,453
116055,184331,244397,9.2626162846,-2.8570301844,-1.0504491214,454
116275,184299,244414,9.340383019099999,-2.7972096194,-0.9978070242,455
116501,184313,244376,9.207581364800001,-2.9252256285000002,-0.9667003303999999,456
116699,184364,244387,9.2877409219,-2.9144579268,-0.9882357338,457
116907,184379,244380,9.2410808812,-2.9970103065,-1.0480562988,458
116979,184313,244399,9.3930251163,-2.8881368781999996,-1.0265208954,459
116752,184310,244337,9.2805624541,-2.8737799425999997,-1.0241280728,460
116082,184158,244258,9.178867493599999,-2.835494781,-0.9188438784,461
115360,184082,244241,9.353543543399999,-2.8019952646,-1.0552347666,462
114914,184021,244197,9.332008140000001,-2.9001009912,-1.0073783146,463
114704,184042,244191,9.2039921309,-2.9551359109999997,-0.9511469834999999,464
114702,184055,244158,9.2889373332,-2.9958138952,-1.0133603711,465
114866,184108,244206,9.2554378168,-2.8115665549999997,-0.9487541609,466
115082,184162,244288,9.233902413400001,-2.9563323222999998,-1.0217352502000001,467
115208,184194,244320,9.2255275343,-2.9766713144,-1.088734283,468
115310,184216,244351,9.200402897,-2.8773691765,-1.0815558152,469
115393,184294,244384,9.3571327773,-2.8618158296000002,-1.0983055734,470
115463,184318,244378,9.248259349,-2.8737799425999997,-1.0372885971,471
115577,184301,244449,9.247062937699999,-2.9886354273999998,-0.9320044027,472
115733,184332,244447,9.2231347117,-2.8953153460000003,-1.0073783146,473
115967,184362,244454,9.3954179389,-2.8857440556,-0.9834500885999999,474
116206,184416,244470,9.2458665264,-2.8845476443,-1.0013962581,475
116417,184492,244570,9.2087777761,-2.8689942974,-1.0073783146,476
116678,184581,244561,9.340383019099999,-2.9084758702999998,-1.0241280728,477
116928,184594,244694,9.3009014462,-2.8905297008,-0.9152546444999999,478
117175,184672,244748,9.2506521716,-2.7912275628999996,-0.9966106129000001,479
117409,184802,244798,9.3750789468,-2.9072794589999997,-1.0432706536,480
117529,184814,244832,9.3810610033,-2.8055844984999996,-0.9499505722,481
117243,184836,244788,9.3344009626,-2.8019952646,-1.0097711372,482
116604,184770,244810,9.3355973739,-2.7433711108999996,-1.004985492,483
116005,184705,244746,9.21236701,-2.8199414341,-1.0121639598,484
115631,184700,244767,9.1992064857,-2.8773691765,-0.9762716208,485
115490,184708,244720,9.3786681807,-2.8271199019,-0.9439685157,486
115544,184745,244785,9.3248296722,-2.8019952646,-1.0839486378,487
115718,184781,244809,9.2769732202,-2.9682964353,-0.9367900479,488
115906,184801,244832,9.2458665264,-2.9754749031,-0.969093153,489
116045,184870,244875,9.3104727366,-2.7696921595,-1.0336993632,490
116116,184901,244859,9.4217389875,-2.8139593776000003,-0.969093153,491
116187,184900,244879,9.3726861242,-2.8594230069999997,-0.9200402897,492
116265,184837,244847,9.178867493599999,-2.7960132080999998,-0.9511469834999999,493
116425,184850,244893,9.2626162846,-2.8295127245,-0.9930213789999999,494
116514,184880,244885,9.367900479,-2.9491538545,-1.0492527101,495
116267,184881,244886,9.273383986299999,-2.775674216,-0.9511469834999999,496
115707,184712,244820,9.2769732202,-2.9144579268,-1.0145567824000001,497
115205,184766,244747,9.2554378168,-2.9168507494,-0.9523433948,498
114907,184733,244803,9.2638126959,-2.8295127245,-0.9738787981999999,499
114835,184701,244775,9.2231347117,-2.7912275628999996,-0.8338986760999999,500
114953,184736,244777,9.343972252999999,-2.7912275628999996,-1.0073783146,501
115197,184748,244839,9.178867493599999,-2.9144579268,-0.945164927,502
115461,184821,244792,9.3667040677,-2.931207685,-0.969093153,503
115642,184837,244892,9.3236332609,-2.9024938138,-0.9188438784,504
115750,184870,244868,9.2315095908,-2.883351233,-0.8961120637,505
115856,184830,244870,9.2303131795,-2.8893332895,-1.0277173067,506
115995,184864,244862,9.2350988247,-2.8570301844,-0.8386843212999999,507
116180,184869,244931,9.2578306394,-2.9240292172,-0.9738787981999999,508
116412,184956,244931,9.4097748745,-2.9623143788,-0.9475577495999999,509
116656,184915,244960,9.3248296722,-2.8474588940000003,-0.9296115801,510
116921,184993,244984,9.3690968903,-2.8881368781999996,-0.9858429111999999,511
117168,185014,244978,9.3068835027,-2.9934210726,-0.9882357338,512
117411,185032,245010,9.327222494799999,-2.9694928465999997,-0.9798608547,513
117643,185044,245029,9.2757768089,-3.0448667585,-0.9786644433999999,514
117673,185038,245026,9.3056870914,-2.8797619991,-0.9415756931,515
117179,184992,244953,9.1585285015,-2.8606194183,-0.9367900479,516
116416,184886,244932,9.2769732202,-2.9216363945999997,-0.9702895642999999,517
115771,184819,244864,9.1417787433,-2.7661029256000003,-0.9547362173999999,518
115505,184750,244854,9.2231347117,-2.8725835312999997,-0.8841479507000001,519
115394,184772,244856,9.2889373332,-2.9455646206,-0.9762716208,520
115501,184832,244867,9.3427758417,-2.9001009912,-0.9463613382999999,521
115699,184861,244873,9.219545477799999,-2.9862426048,-1.0073783146,522
115855,184862,244892,9.376275358100001,-2.8953153460000003,-1.0432706536,523
115940,184896,244951,9.296115801,-2.9395825641,-0.9858429111999999,524
115993,184909,244932,9.274580397600001,-2.87138712,-1.0205388389,525
116059,184957,244925,9.3044906801,-2.9048866364,-1.004985492,526
116175,184910,244909,9.343972252999999,-2.8797619991,-1.0241280728,527
116335,184892,244908,9.2219383004,-2.7804598612,-0.9236295236,528
116557,184958,244942,9.3044906801,-2.9001009912,-1.0241280728,529
116773,184982,244966,9.2769732202,-2.8498517166,-0.9595218625999999,530
117012,185019,245010,9.3595255999,-2.9563323222999998,-1.0217352502000001,531
117274,185060,245030,9.1872423727,-2.8175486115,-1.0432706536,532
117480,185062,244991,9.1704926145,-3.0496524037,-0.9750752094999999,533
117691,185000,244986,9.2147598326,-2.9359933301999996,-0.9164510558,534
117912,184962,244977,9.376275358100001,-2.9288148624,-0.9667003303999999,535
118122,185037,244991,9.274580397600001,-3.014956476,-0.9152546444999999,536
118096,184988,244915,9.3643112451,-2.8319055471,-0.9834500885999999,537
117536,184917,244876,9.3164547931,-2.8546373618,-0.9834500885999999,538
116779,184746,244805,9.3954179389,-2.8426732488,-0.9499505722,539
116117,184672,244698,9.175278259699999,-2.8307091358,-0.9738787981999999,540
115819,184600,244676,9.3702933016,-2.9264220398,-0.9762716208,541
115708,184536,244649,9.2554378168,-2.8366911923,-0.9427721043999999,542
115809,184632,244652,9.3738825355,-2.8546373618,-0.9882357338,543
115943,184607,244620,9.3032942688,-2.967100024,-0.9822536772999999,544
116107,184571,244619,9.2889373332,-2.9012974024999996,-0.9930213789999999,545
116161,184597,244669,9.2410808812,-2.8534409504999996,-0.9487541609,546
116161,184512,244595,9.4313102779,-2.8953153460000003,-1.0145567824000001,547
116205,184500,244550,9.3260260835,-2.7122644171,-1.052841944,548
116233,184423,244502,9.284151688,-2.7936203855,-1.0719845248,549
116415,184454,244519,9.3032942688,-2.8259234905999997,-0.9284151688,550
116548,184470,244498,9.1956172518,-2.9599215562,-0.9367900479,551
116777,184517,244554,9.4504528587,-2.9072794589999997,-1.0839486378,552
116974,184502,244511,9.340383019099999,-2.8737799425999997,-1.0241280728,553
117164,184491,244585,9.178867493599999,-2.7672993369,-0.9248259349,554
117351,184483,244505,9.260223461999999,-2.9001009912,-0.9834500885999999,555
117430,184506,244495,9.3391866078,-2.9539394997,-0.9667003303999999,556
117091,184402,244468,9.3906322937,-2.8283163132,-1.0600204118,557
116406,184289,244415,9.2853480993,-2.87138712,-0.9667003303999999,558
115768,184193,244327,9.2518485829,-2.8689942974,-1.0360921858,559
115377,184135,244282,9.2626162846,-2.9503502657999996,-1.0839486378,560
115218,184148,244284,9.2231347117,-2.8175486115,-0.9834500885999999,561
115123,184166,244275,9.2051885422,-2.7948167968,-0.9702895642999999,562
115440,184186,244274,9.229116768199999,-2.8606194183,-1.0265208954,563
115594,184057,244234,9.2506521716,-2.9898318387,-1.0193424276,564
115698,184108,244283,9.3726861242,-2.9120651042,-1.0013962581,565
115756,184155,244291,9.3367937852,-2.9814569596,-1.0241280728,566
115783,184128,244245,9.2171526552,-2.8474588940000003,-1.0193424276,567
115828,184142,244231,9.2255275343,-2.9120651042,-0.95712904,568
115934,184153,244266,9.2099741874,-2.9419753867,-1.0265208954,569
116119,184111,244283,9.1944208405,-2.9527430884,-1.0504491214,570
116342,184216,244376,9.224331123,-2.9886354273999998,-1.0480562988,571
116615,184338,244424,9.2099741874,-2.931207685,-1.0384850084,572
116862,184521,244460,9.232706002099999,-2.8510481279,-1.0420742423,573
117153,184542,244521,9.2458665264,-2.8642086522,-1.0133603711,574
117359,184521,244554,9.3009014462,-2.7505495787000003,-0.9822536772999999,575
117543,184573,244581,9.3750789468,-2.8857440556,-0.9523433948,576
117784,184612,244592,9.206384953499999,-2.7900311516,-0.9523433948,577
118001,184646,244617,9.286544510599999,-2.9144579268,-1.0815558152,578
118037,184726,244678,9.327222494799999,-2.7625136916999997,-0.9607182739,579
117645,184631,244640,9.3595255999,-2.8331019584000003,-1.0456634762,580
117019,184688,244657,9.4193461649,-3.0161528873,-0.9487541609,581
116360,184624,244630,9.3631148338,-2.9288148624,-0.9930213789999999,582
116001,184533,244613,9.2697947524,-2.87138712,-0.9954142015999999,583
115828,184647,244704,9.3702933016,-2.9503502657999996,-0.9846464999,584
115894,184696,244720,9.4241318101,-2.9048866364,-0.9954142015999999,585
116110,184771,244727,9.4193461649,-2.8594230069999997,-0.9762716208,586
116228,184717,244734,9.2315095908,-2.835494781,-0.9870393224999999,587
116304,184782,244809,9.4313102779,-2.9264220398,-0.95712904,588
116356,184831,244802,9.284151688,-2.8785655878,-0.9834500885999999,589
116406,184884,244812,9.260223461999999,-2.8761727652,-0.9858429111999999,590
116470,184871,244808,9.3104727366,-2.9144579268,-0.9738787981999999,591
116612,184896,244834,9.1920280179,-2.9359933301999996,-0.9236295236,592
116790,184896,244798,9.286544510599999,-2.8773691765,-0.9882357338,593
116924,184923,244818,9.2590270507,-2.7816562725,-0.9343972253,594
117222,184956,244867,9.2697947524,-2.8977081686,-0.9260223462,595
117447,185016,244912,9.3619184225,-2.9036902251,-1.0097711372,596
117568,185014,244900,9.1860459614,-2.8151557889,-1.0875378717,597
117869,185062,244934,9.3930251163,-2.8618158296000002,-0.9559326287,598
118093,185047,244909,9.3738825355,-2.8689942974,-0.9882357338,599
118305,185085,244976,9.332008140000001,-3.0089744195,-1.0336993632,600
118533,185170,245003,9.3056870914,-2.7744778047,-0.9714859755999999,601
118727,185164,245004,9.2051885422,-2.919243572,-0.9296115801,602
118766,185123,244993,9.2757768089,-2.8582265956999997,-0.9966106129000001,603
118299,185091,244986,9.309276325299999,-2.8642086522,-0.9882357338,604
117588,185050,244943,9.3332045513,-2.883351233,-1.0504491214,605
116930,184844,244868,9.2578306394,-2.7864419177,-1.0001998468,606
116518,184891,244865,9.2530449942,-2.9336005076,-1.0432706536,607
116316,184906,244830,9.3355973739,-2.8223342567,-0.9954142015999999,608
116305,184962,244845,9.3260260835,-2.8031916759,-1.0265208954,609
116456,184990,244846,9.2674019298,-2.8965117573,-0.9786644433999999,610
116581,185068,244859,9.2769732202,-2.8689942974,-0.9954142015999999,611
116673,184982,244891,9.3391866078,-2.8163522002,-0.9008977089,612
116725,185014,244847,9.3284189061,-2.8295127245,-0.9391828704999999,613
116712,184985,244799,9.320044027,-2.8809584104000003,-0.9834500885999999,614
116746,184939,244833,9.1298146303,-2.7828526838,-0.8410771438999999,615
116860,184903,244789,9.4480600361,-2.8055844984999996,-1.0396814197,616
117051,184942,244813,9.2626162846,-2.9647072014,-0.9667003303999999,617
117175,184955,244806,9.2913301558,-2.8677978860999995,-1.0432706536,618
117461,184986,244795,9.2554378168,-2.8438696600999998,-0.9224331123,619
117641,184976,244811,9.296115801,-2.9120651042,-0.95712904,620
117870,184930,244765,9.308079914,-2.8761727652,-0.969093153,621
118045,184832,244754,9.207581364800001,-2.9024938138,-1.1030912186,622
118200,184895,244717,9.2087777761,-2.8977081686,-0.8769694829,623
118113,184888,244692,9.248259349,-2.8809584104000003,-1.0468598875,624
117578,184776,244662,9.2925265671,-2.8785655878,-0.9786644433999999,625
116873,184697,244582,9.3068835027,-2.8821548217,-0.981057266,626
116358,184627,244508,9.2793660428,-2.8402804262,-0.9631110964999999,627
116081,184590,244511,9.2985086236,-2.8474588940000003,-1.0001998468,628
116001,184556,244435,9.1501536224,-2.9563323222999998,-1.1186445655,629
116072,184550,244494,9.355936366,-2.8642086522,-0.9834500885999999,630
116260,184597,244485,9.2099741874,-2.7696921595,-1.0217352502000001,631
116377,184532,244456,9.2709911637,-2.9288148624,-1.0181460163,632
116469,184541,244491,9.3248296722,-2.9455646206,-0.9583254512999999,633
116504,184513,244462,9.2051885422,-2.7948167968,-1.0456634762,634
116526,184451,244412,9.3667040677,-2.8342983697,-1.0576275892,635
116575,184474,244390,9.248259349,-2.9204399833,-1.0540383553,636
116709,184450,244320,9.309276325299999,-2.9252256285000002,-1.0097711372,637
116888,184511,244409,9.3296153174,-2.8809584104000003,-1.040877831,638
117085,184480,244436,9.2973122123,-2.9934210726,-0.9607182739,639
117313,184487,244383,9.2913301558,-2.7864419177,-1.0061819033000001,640
117502,184539,244345,9.2674019298,-2.8689942974,-0.9738787981999999,641
117736,184578,244365,9.397810761499999,-2.9659036127,-0.9559326287,642
117879,184501,244365,9.4528456813,-2.919243572,-1.0025926694,643
117656,184476,244351,9.2913301558,-3.0089744195,-0.9954142015999999,644
116993,184417,244265,9.3571327773,-2.9096722816000002,-0.9726823869,645
116375,184269,244253,9.2087777761,-2.8737799425999997,-1.0815558152,646
115982,184256,244201,9.2386880586,-2.8438696600999998,-1.0121639598,647
115827,184210,244172,9.379864592,-2.7505495787000003,-1.0671988796,648
115850,184234,244161,9.3044906801,-2.99102825,-0.9607182739,649
116007,184253,244148,9.2985086236,-2.8163522002,-0.9439685157,650
116204,184274,244165,9.265009107200001,-2.8522445392,-0.9942177902999999,651
116330,184279,244187,9.3188476157,-2.9898318387,-1.0480562988,652
116390,184310,244231,9.2015993083,-2.9766713144,-1.0145567824000001,653
116404,184196,244203,9.296115801,-2.8654050635,-1.0504491214,654
116482,184299,244198,9.290133744499999,-2.8701907087,-0.9894321450999999,655
116537,184417,244284,9.2937229784,-2.8366911923,-0.9643075078,656
116430,184443,244320,9.343972252999999,-2.919243572,-1.0600204118,657
116143,184448,244371,9.2303131795,-2.9814569596,-0.9487541609,658
115998,184436,244334,9.2769732202,-2.8079773211,-1.0911271056,659
116063,184481,244345,9.286544510599999,-2.9168507494,-1.1401799688999998,660
116350,184546,244397,9.3044906801,-2.8079773211,-1.0456634762,661
116624,184576,244439,9.397810761499999,-2.8809584104000003,-1.0277173067,662
116914,184627,244456,9.2985086236,-2.919243572,-0.9523433948,663
117132,184728,244512,9.2793660428,-2.9072794589999997,-1.0420742423,664
117292,184745,244592,9.2985086236,-2.8594230069999997,-1.004985492,665
117443,184822,244586,9.260223461999999,-2.7529424013,-1.0001998468,666
117564,184814,244614,9.273383986299999,-2.9551359109999997,-0.9858429111999999,667
117733,184884,244660,9.3595255999,-2.9264220398,-1.0073783146,668
117990,184906,244670,9.3367937852,-2.8223342567,-0.9595218625999999,669
118229,184978,244741,9.308079914,-2.967100024,-0.9427721043999999,670
118473,185048,244767,9.2554378168,-2.8701907087,-0.9906285563999999,671
118728,185069,244804,9.3726861242,-2.9216363945999997,-1.0001998468,672
118952,185151,244873,9.1920280179,-2.9144579268,-0.909272588,673
119192,185156,244910,9.3463650756,-2.8498517166,-1.0265208954,674
119413,185202,244913,9.2039921309,-2.8666014748,-1.0241280728,675
119659,185139,244977,9.2219383004,-2.8977081686,-1.0097711372,676
119861,185294,244953,9.463613383,-2.7481567560999998,-1.0432706536,677
119969,185270,244924,9.3355973739,-2.8677978860999995,-0.9236295236,678
119628,185276,244962,9.2171526552,-2.9204399833,-1.0504491214,679
118930,185201,244885,9.3667040677,-2.8031916759,-0.9762716208,680
118223,185110,244849,9.2877409219,-2.9024938138,-1.0552347666,681
117761,185050,244816,9.3463650756,-3.0041887742999998,-1.0265208954,682
117520,185078,244801,9.286544510599999,-2.8546373618,-0.9619146851999999,683
117533,185119,244840,9.3631148338,-2.9336005076,-1.040877831,684
117631,185124,244833,9.2530449942,-2.9012974024999996,-0.9475577495999999,685
117759,185077,244874,9.224331123,-2.9084758702999998,-0.9487541609,686
117774,185103,244824,9.3583291886,-2.7960132080999998,-0.95712904,687
117741,185137,244869,9.188438784,-2.8689942974,-1.0025926694,688
117745,185137,244894,9.2267239456,-2.9407789753999998,-1.064806057,689
117770,185149,244823,9.284151688,-2.9001009912,-1.0193424276,690
117846,185126,244851,9.3296153174,-2.9228328059,-0.8769694829,691
117959,185186,244870,9.2674019298,-2.8821548217,-0.9678967417,692
118143,185153,244890,9.2279203569,-2.9120651042,-1.004985492,693
118327,185226,244847,9.385846648500001,-2.9455646206,-1.1162517428999998,694
118553,185285,244894,9.2817588654,-2.8881368781999996,-0.9678967417,695
118694,185268,244931,9.1298146303,-2.8689942974,-0.9248259349,696
118880,185341,244947,9.1860459614,-2.7960132080999998,-0.9870393224999999,697
119054,185324,244915,9.4133641084,-2.8546373618,-0.9954142015999999,698
119248,185262,244953,9.2434737038,-2.7816562725,-0.9403792818,699
119407,185321,245006,9.2769732202,-2.7601208691,-0.9547362173999999,700
119543,185364,244977,9.3176512044,-2.9096722816000002,-0.9355936366,701
119314,185350,244966,9.248259349,-2.8701907087,-0.9678967417,702
118708,185297,244921,9.3379901965,-2.883351233,-0.9547362173999999,703
117961,185230,244873,9.2506521716,-2.9024938138,-0.981057266,704
117387,185156,244775,9.308079914,-2.8905297008,-0.8530412569000001,705
117073,185181,244765,9.2051885422,-2.8151557889,-0.9786644433999999,706
116967,185226,244807,9.2590270507,-2.9635107901000004,-0.9068797654,707
117046,185213,244835,9.2757768089,-2.8977081686,-0.9056833541,708
117165,185165,244829,9.2267239456,-2.9252256285000002,-0.969093153,709
117240,185224,244877,9.200402897,-2.9168507494,-0.95712904,710
117271,185231,244864,9.355936366,-2.8103701436999997,-1.0313065406,711
117248,185219,244900,9.265009107200001,-2.9336005076,-0.9906285563999999,712
117276,185215,244851,9.3487578982,-2.9048866364,-0.8985048863,713
117319,185165,244818,9.2578306394,-2.8187450228000004,-0.933200814,714
117415,185167,244761,9.340383019099999,-2.9300112737000004,-1.0073783146,715
117575,185202,244792,9.3523471321,-2.8965117573,-0.9607182739,716
117769,185234,244811,9.407382051899999,-2.9682964353,-0.8937192411,717
117956,185225,244829,9.371489712899999,-2.8797619991,-0.8889335959,718
118149,185225,244816,9.3547399547,-2.9982067177999996,-0.9738787981999999,719
118323,185106,244768,9.3738825355,-2.8462624827,-0.9284151688,720
118478,185051,244721,9.4133641084,-3.0053851856000002,-1.0456634762,721
118610,185114,244709,9.274580397600001,-2.8953153460000003,-0.981057266,722
118441,185047,244640,9.2674019298,-2.8773691765,-1.0660024683,723
117827,185028,244603,9.2099741874,-2.8785655878,-0.9487541609,724
117135,184915,244531,9.274580397600001,-2.8905297008,-0.9858429111999999,725
116625,184870,244466,9.200402897,-2.8582265956999997,-1.0073783146,726
116283,184764,244431,9.3415794304,-2.9383861528,-0.8997012976000001,727
116197,184734,244416,9.4121676971,-3.0089744195,-1.0827522265,728
116317,184735,244410,9.2147598326,-2.8558337731,-0.9475577495999999,729
116441,184778,244373,9.2410808812,-2.8725835312999997,-0.9906285563999999,730
116575,184742,244305,9.3056870914,-2.9336005076,-1.0085747259,731
116651,184754,244393,9.265009107200001,-2.883351233,-1.0121639598,732
116631,184701,244353,9.3260260835,-2.9431717980000003,-1.0875378717,733
116617,184545,244272,9.2219383004,-2.8450660714,-1.0193424276,734
116662,184549,244217,9.3391866078,-2.7661029256000003,-1.0995019847,735
116770,184542,244214,9.108279226899999,-2.8366911923,-0.9714859755999999,736
116725,184517,244210,9.2877409219,-2.9144579268,-1.1712866627,737
116305,184481,244109,9.353543543399999,-2.8677978860999995,-1.1389835576,738
115706,184413,244064,9.3667040677,-2.7912275628999996,-0.9631110964999999,739
115237,184337,244007,9.2506521716,-2.8546373618,-1.0001998468,740
115047,184298,243989,9.2410808812,-2.8857440556,-0.9655039191,741
114991,184289,244005,9.2829552767,-2.8079773211,-1.0145567824000001,742
115106,184292,244006,9.4025964067,-2.9682964353,-0.9942177902999999,743
115327,184284,243982,9.286544510599999,-2.8546373618,-0.9535398061,744
115483,184278,243987,9.3104727366,-2.9288148624,-0.9702895642999999,745
115614,184204,244000,9.2697947524,-2.9527430884,-0.9894321450999999,746
115700,184202,243950,9.1992064857,-2.7577280465,-1.0695917021999999,747
115763,184207,243912,9.2458665264,-2.9431717980000003,-1.0959127508,748
115751,184190,243881,9.1956172518,-2.8893332895,-0.9655039191,749
115956,184085,243906,9.2027957196,-2.7182464736,-1.064806057,750
116153,184178,243861,9.2889373332,-2.8474588940000003,-1.0683952909,751
116395,184170,243875,9.3116691479,-2.8079773211,-1.0241280728,752
116592,184200,243860,9.2769732202,-2.9742784918,-1.0983055734,753
116728,184185,243848,9.1728854371,-2.8929225234,-1.0001998468,754
116410,184151,243862,9.1800639049,-2.8139593776000003,-1.0325029519,755
115724,184099,243815,9.2949193897,-2.9240292172,-0.9882357338,756
115128,184053,243811,9.2350988247,-2.8450660714,-1.0863414604,757
114864,184031,243851,9.353543543399999,-2.9036902251,-1.0241280728,758
114795,184199,243898,9.332008140000001,-2.8737799425999997,-1.07677017,759
114970,184274,244010,9.1908316066,-2.9886354273999998,-1.0444670649,760
115216,184325,244072,9.309276325299999,-2.8103701436999997,-1.0432706536,761
115471,184382,244059,9.385846648500001,-2.9288148624,-1.1102696864,762
115613,184426,244088,9.3176512044,-2.9001009912,-1.0313065406,763
115719,184441,244107,9.4121676971,-2.8283163132,-0.9008977089,764
115797,184485,244131,9.4241318101,-2.9288148624,-1.1413763801999999,765
115945,184503,244161,9.1824567275,-2.8630122409,-1.0983055734,766
116133,184552,244193,9.2267239456,-2.7373890544,-0.9296115801,767
116343,184584,244314,9.1980100744,-2.9730820805000002,-1.0384850084,768
116627,184696,244328,9.2267239456,-2.9539394997,-1.0157531937,769
116925,184759,244403,9.3248296722,-2.9252256285000002,-1.0336993632,770
117221,184840,244478,9.3894358824,-2.9288148624,-0.9834500885999999,771
117500,184903,244472,9.1956172518,-3.0592236941,-0.9631110964999999,772
117653,184914,244533,9.2386880586,-2.9958138952,-0.9822536772999999,773
117990,184888,244572,9.272187575,-2.8199414341,-0.933200814,774
118248,184956,244589,9.2554378168,-2.8474588940000003,-0.9990034355,775
118480,185057,244665,9.219545477799999,-2.9144579268,-0.9786644433999999,776
118507,185031,244655,9.21236701,-2.8151557889,-1.0731809361,777
118071,185044,244639,9.3667040677,-2.9180471607,-1.0241280728,778
117422,184954,244606,9.3690968903,-2.835494781,-0.9116654106,779
116884,184901,244585,9.3296153174,-2.8199414341,-0.9583254512999999,780
116608,184881,244530,9.1848495501,-2.8151557889,-1.0097711372,781
116498,184879,244540,9.2518485829,-2.9001009912,-0.9726823869,782
116591,184901,244534,9.3355973739,-2.9407789753999998,-1.0073783146,783
116777,184934,244564,9.4337031005,-2.9288148624,-1.0037890807,784
116926,184862,244605,9.272187575,-2.8402804262,-0.8985048863,785
117019,184984,244582,9.2973122123,-2.8558337731,-1.0025926694,786
117061,185049,244635,9.2518485829,-2.8965117573,-0.9607182739,787
117125,184998,244606,9.3176512044,-2.9874390161,-0.9200402897,788
117229,184971,244601,9.219545477799999,-2.967100024,-0.8913264185,789
117342,185002,244613,9.2769732202,-2.8103701436999997,-0.8985048863,790
117534,185031,244644,9.3882394711,-2.775674216,-0.945164927,791
117752,185111,244671,9.4025964067,-2.8989045799,-1.040877831,792
117987,185145,244736,9.3212404383,-2.9527430884,-0.9355936366,793
118206,185140,244754,9.2255275343,-2.8941189347,-0.9463613382999999,794
118419,185157,244757,9.407382051899999,-2.9120651042,-0.9499505722,795
118628,185183,244798,9.224331123,-2.8295127245,-0.9870393224999999,796
118831,185169,244804,9.2985086236,-2.8091737324,-1.0217352502000001,797
118850,185242,244754,9.3810610033,-2.8534409504999996,-0.9631110964999999,798
118461,185188,244759,9.3032942688,-2.8450660714,-1.040877831,799
117796,185041,244741,9.3643112451,-2.8091737324,-0.8949156524,800
117231,185026,244634,9.176474671,-2.7625136916999997,-0.9714859755999999,801
116889,185001,244662,9.2099741874,-2.979064137,-0.861416136,802
116735,184991,244678,9.4025964067,-2.9383861528,-0.9523433948,803
116743,185009,244660,9.2925265671,-2.9886354273999998,-0.9595218625999999,804
116928,185057,244677,9.371489712899999,-2.883351233,-0.9738787981999999,805
117080,185068,244696,9.2578306394,-2.7900311516,-0.9583254512999999,806
117179,185097,244704,9.2147598326,-2.931207685,-0.8985048863,807
117208,185080,244713,9.3344009626,-2.8749763539,-0.9367900479,808
117236,185063,244714,9.2805624541,-2.8594230069999997,-0.9547362173999999,809
117308,185013,244691,9.178867493599999,-2.9635107901000004,-0.8913264185,810
117409,185079,244706,9.371489712899999,-2.9048866364,-1.0384850084,811
117592,185107,244711,9.4313102779,-2.9718856692,-0.9415756931,812
117796,185146,244731,9.3499543095,-2.883351233,-0.933200814,813
118006,185094,244745,9.2769732202,-2.8881368781999996,-0.9607182739,814
118218,185200,244821,9.2973122123,-2.8893332895,-0.9667003303999999,815
118450,185209,244795,9.320044027,-2.8618158296000002,-0.9738787981999999,816
118658,185240,244787,9.2793660428,-2.8785655878,-1.0229316615,817
118846,185259,244835,9.2913301558,-2.9168507494,-0.8745766603,818
119054,185248,244876,9.3152583818,-2.8570301844,-0.9750752094999999,819
119243,185291,244849,9.296115801,-2.9204399833,-0.9296115801,820
119436,185336,244899,9.3248296722,-2.9240292172,-0.9786644433999999,821
119406,185330,244900,9.343972252999999,-2.9048866364,-0.9224331123,822
118974,185261,244849,9.4803631412,-2.9024938138,-0.9714859755999999,823
118307,185132,244784,9.3068835027,-2.8558337731,-0.8937192411,824
117728,185092,244729,9.2769732202,-2.7278177639999996,-1.0145567824000001,825
117384,185091,244743,9.2518485829,-2.8689942974,-1.0301101293000001,826
117230,185100,244733,9.3523471321,-2.7792634499,-1.0384850084,827
117250,185113,244737,9.2458665264,-2.8785655878,-0.9391828704999999,828
117397,185158,244764,9.3379901965,-2.8929225234,-0.8937192411,829
117513,185078,244720,9.343972252999999,-2.9012974024999996,-0.969093153,830
117595,185065,244704,9.296115801,-2.8462624827,-0.9128618219,831
117569,185073,244721,9.3942215276,-2.8809584104000003,-0.9583254512999999,832
117555,185029,244697,9.3140619705,-2.9252256285000002,-0.9523433948,833
117583,184960,244600,9.1716890258,-2.8905297008,-0.9080761767,834
117658,184988,244583,9.2554378168,-2.8522445392,-0.9056833541,835
117795,184968,244564,9.2410808812,-2.9551359109999997,-0.9272187574999999,836
117956,184915,244578,9.2171526552,-2.8366911923,-1.0085747259,837
118113,184954,244578,9.2817588654,-2.9623143788,-0.9978070242,838
118338,184949,244575,9.3224368496,-2.8366911923,-0.8913264185,839
118483,184860,244593,9.3044906801,-2.9264220398,-1.0384850084,840
118662,184876,244555,9.1992064857,-2.9383861528,-0.9008977089,841
118820,184898,244509,9.2697947524,-2.8438696600999998,-0.9056833541,842
118981,184922,244518,9.3906322937,-2.835494781,-1.1030912186,843
119119,184912,244513,9.3702933016,-2.9072794589999997,-0.981057266,844
119049,184844,244480,9.3284189061,-2.8845476443,-0.969093153,845
118478,184799,244434,9.2769732202,-2.931207685,-0.8961120637,846
117873,184621,244343,9.290133744499999,-2.8642086522,-1.0145567824000001,847
117313,184597,244311,9.2554378168,-2.8570301844,-0.9320044027,848
116999,184565,244259,9.3248296722,-2.8785655878,-1.052841944,849
116846,184553,244249,9.2853480993,-2.979064137,-0.9750752094999999,850
116895,184540,244238,9.2697947524,-2.9826533709,-0.9822536772999999,851
117045,184511,244201,9.3643112451,-2.9623143788,-0.9906285563999999,852
117171,184538,244239,9.260223461999999,-2.9838497821999996,-1.016949605,853
117204,184472,244190,9.3810610033,-2.9539394997,-1.0061819033000001,854
117207,184501,244200,9.265009107200001,-2.9503502657999996,-0.9750752094999999,855
117161,184436,244141,9.274580397600001,-2.8139593776000003,-0.9906285563999999,856
117162,184407,244079,9.1800639049,-2.9144579268,-1.0085747259,857
117166,184442,244118,9.3044906801,-2.9754749031,-1.004985492,858
116958,184384,244085,9.3104727366,-2.8498517166,-1.0743773474,859
116518,184280,244029,9.2386880586,-2.9874390161,-0.9631110964999999,860
116002,184226,243945,9.2829552767,-2.9623143788,-1.0911271056,861
115660,184210,243977,9.340383019099999,-2.99102825,-0.9678967417,862
115595,184197,243952,9.3212404383,-2.8761727652,-1.0743773474,863
115749,184244,243961,9.2530449942,-2.8725835312999997,-1.0911271056,864
115939,184253,243964,9.2674019298,-2.8905297008,-1.1341979124,865
116103,184269,243984,9.2757768089,-2.9515466771,-1.0707881135,866
116292,184201,244014,9.385846648500001,-2.9132615155,-1.0552347666,867
116333,184312,244085,9.2674019298,-2.9132615155,-0.9990034355,868
116399,184371,244110,9.2889373332,-2.8666014748,-1.0384850084,869
116531,184513,244200,9.0987079365,-2.9587251449000003,-1.148554848,870
116696,184546,244255,9.1680997919,-2.9276184511,-1.1006983959999999,871
116898,184591,244228,9.3954179389,-2.8845476443,-1.1198409768,872
117141,184647,244301,9.1776710823,-2.7625136916999997,-1.004985492,873
117357,184632,244289,9.3475614869,-2.7433711108999996,-1.0121639598,874
117585,184660,244333,9.3164547931,-2.9694928465999997,-0.9978070242,875
117816,184737,244381,9.207581364800001,-2.8725835312999997,-1.016949605,876
118050,184824,244461,9.475577496,-2.8689942974,-1.0277173067,877
118315,184904,244521,9.2410808812,-2.8414768375,-1.0480562988,878
118522,184975,244548,9.1740818484,-2.9240292172,-1.0827522265,879
118760,185035,244653,9.3571327773,-2.8151557889,-1.0145567824000001,880
118957,184995,244608,9.330811728699999,-2.8055844984999996,-0.9738787981999999,881
119191,185002,244697,9.3367937852,-2.9407789753999998,-0.9391828704999999,882
119413,185113,244723,9.3655076564,-2.919243572,-0.9762716208,883
119638,185174,244776,9.3595255999,-2.9587251449000003,-1.0336993632,884
119898,185240,244778,9.2793660428,-2.9886354273999998,-0.9738787981999999,885
119858,185265,244772,9.3009014462,-2.8737799425999997,-0.9858429111999999,886
119360,185212,244797,9.3822574146,-2.8857440556,-0.9702895642999999,887
118641,185148,244751,9.3906322937,-2.8127629663000002,-1.0217352502000001,888
118008,185067,244706,9.3188476157,-3.0472595810999996,-0.9726823869,889
117639,185065,244688,9.1908316066,-2.8319055471,-0.9786644433999999,890
117500,185071,244707,9.248259349,-2.8115665549999997,-0.9738787981999999,891
117513,185072,244702,9.3248296722,-2.9587251449000003,-1.016949605,892
117627,185132,244677,9.286544510599999,-2.8630122409,-1.028913718,893
117686,185132,244718,9.2662055185,-2.9156543381000004,-0.9355936366,894
117719,185149,244739,9.3523471321,-2.8725835312999997,-0.9954142015999999,895
117741,185178,244733,9.403792818,-2.9611179675,-1.0516455327,896
117698,185127,244693,9.3152583818,-2.8307091358,-0.9714859755999999,897
117731,185145,244666,9.2578306394,-2.7996024420000003,-0.9391828704999999,898
117791,185070,244694,9.340383019099999,-3.0329026454999997,-0.8362914987,899
117944,185093,244775,9.340383019099999,-2.9623143788,-0.9128618219,900
118086,185194,244756,9.247062937699999,-2.8689942974,-1.016949605,901
118270,185209,244840,9.2662055185,-2.8821548217,-0.9930213789999999,902
118488,185279,244813,9.2685983411,-2.9575287336000002,-0.9379864592,903
118676,185244,244813,9.286544510599999,-2.787638329,-0.9511469834999999,904
118819,185216,244846,9.2674019298,-2.9048866364,-0.9619146851999999,905
118991,185222,244818,9.3475614869,-2.9216363945999997,-0.9032905315,906
119144,185301,244865,9.308079914,-2.9862426048,-0.9499505722,907
119050,185269,244775,9.2542414055,-2.8594230069999997,-0.95712904,908
118441,185206,244826,9.3391866078,-2.7625136916999997,-0.9834500885999999,909
117702,185151,244722,9.3164547931,-2.9742784918,-0.9667003303999999,910
117125,185048,244691,9.232706002099999,-2.9336005076,-0.9080761767,911
116819,185059,244706,9.2697947524,-2.8630122409,-0.9439685157,912
116659,185086,244674,9.286544510599999,-2.8043880872,-0.9834500885999999,913
116659,185069,244701,9.3152583818,-2.8331019584000003,-0.8745766603,914
116894,185059,244705,9.3619184225,-2.8079773211,-0.8961120637,915
116979,185140,244678,9.3571327773,-2.967100024,-0.9738787981999999,916
117021,185161,244741,9.2626162846,-2.8594230069999997,-0.9296115801,917
117030,185138,244725,9.2697947524,-2.9096722816000002,-1.0121639598,918
117038,185119,244720,9.2614198733,-2.8905297008,-0.9726823869,919
117064,185098,244751,9.2626162846,-2.8510481279,-0.9738787981999999,920
117159,185113,244715,9.2793660428,-2.9180471607,-0.9140582332,921
117347,185140,244791,9.1812603162,-2.9826533709,-1.0001998468,922
117574,185202,244792,9.399007172800001,-2.8175486115,-0.9547362173999999,923
117757,185289,244793,9.296115801,-2.9539394997,-0.9032905315,924
117988,185289,244805,9.3882394711,-2.8199414341,-0.8961120637,925
118135,185234,244815,9.2015993083,-2.8426732488,-1.004985492,926
118373,185284,244817,9.2614198733,-2.9479574432,-1.0025926694,927
118505,185260,244867,9.340383019099999,-2.9467610319,-0.9523433948,928
118290,185214,244801,9.165706969299999,-2.9096722816000002,-0.8434699665000001,929
117608,185153,244777,9.3176512044,-2.8211378454,-0.9379864592,930
116877,185107,244673,9.2578306394,-2.9024938138,-0.8745766603,931
116348,184979,244620,9.2877409219,-2.8845476443,-1.004985492,932
116078,184966,244605,9.2973122123,-2.8821548217,-1.0037890807,933
115999,184950,244594,9.2267239456,-2.9383861528,-0.95712904,934
116091,184968,244595,9.3427758417,-2.8642086522,-0.9798608547,935
116224,184846,244588,9.1824567275,-2.8642086522,-0.9978070242,936
116354,184896,244566,9.4013999954,-2.8247270792999997,-0.8554340795,937
116400,184919,244549,9.2614198733,-2.8857440556,-0.9068797654,938
116402,184850,244505,9.236295236,-2.9240292172,-0.9260223462,939
116336,184800,244519,9.2985086236,-2.8498517166,-0.9990034355,940
116466,184714,244462,9.2973122123,-2.8319055471,-0.9619146851999999,941
116596,184767,244441,9.2578306394,-2.8199414341,-0.9391828704999999,942
116783,184774,244506,9.3116691479,-2.8331019584000003,-0.9882357338,943
116973,184862,244502,9.2913301558,-2.8761727652,-1.0217352502000001,944
117161,184814,244511,9.290133744499999,-2.8785655878,-0.9188438784,945
117381,184779,244471,9.2350988247,-2.9982067177999996,-1.1222337994,946
117534,184799,244478,9.3032942688,-2.8127629663000002,-1.0336993632,947
117396,184735,244412,9.3056870914,-2.9383861528,-1.0097711372,948
116814,184640,244380,9.343972252999999,-2.8953153460000003,-1.028913718,949
116109,184548,244280,9.2434737038,-2.8809584104000003,-1.0265208954,950
115565,184396,244258,9.2303131795,-2.8809584104000003,-1.0336993632,951
115231,184443,244240,9.308079914,-3.0305098229,-1.0456634762,952
115227,184349,244239,9.3332045513,-2.8701907087,-1.1042876299,953
115351,184442,244196,9.272187575,-2.9001009912,-1.0719845248,954
115551,184332,244187,9.3367937852,-2.9024938138,-1.0719845248,955
115701,184410,244229,9.2985086236,-2.9431717980000003,-0.9559326287,956
115791,184466,244208,9.224331123,-2.9084758702999998,-1.0983055734,957
115831,184356,244184,9.236295236,-3.0233313551,-1.016949605,958
115841,184377,244157,9.2985086236,-2.8857440556,-0.8841479507000001,959
115898,184386,244139,9.2494557603,-2.9276184511,-1.0037890807,960
116052,184408,244165,9.2829552767,-2.8953153460000003,-0.9858429111999999,961
116234,184428,244200,9.233902413400001,-2.9216363945999997,-1.0480562988,962
116481,184433,244199,9.3379901965,-2.9754749031,-0.9391828704999999,963
116707,184465,244237,9.3547399547,-2.9288148624,-1.0313065406,964
116888,184478,244182,9.320044027,-2.8031916759,-1.0468598875,965
117128,184500,244233,9.330811728699999,-2.931207685,-1.0360921858,966
117231,184499,244287,9.3475614869,-2.8845476443,-0.9008977089,967
117514,184427,244318,9.2159562439,-2.8689942974,-1.0660024683,968
117646,184541,244253,9.1716890258,-2.8055844984999996,-1.0384850084,969
117921,184471,244261,9.3224368496,-2.7912275628999996,-1.0504491214,970
118138,184605,244314,9.274580397600001,-2.9120651042,-1.0552347666,971
118180,184631,244371,9.2877409219,-2.8247270792999997,-1.0935199281999999,972
117816,184616,244361,9.3643112451,-2.9084758702999998,-1.0145567824000001,973
117111,184479,244345,9.207581364800001,-2.8498517166,-0.9978070242,974
116522,184515,244321,9.3188476157,-2.9455646206,-1.0217352502000001,975
116169,184502,244335,9.327222494799999,-2.8271199019,-0.9882357338,976
116025,184471,244323,9.2398844699,-3.0376882907,-1.0432706536,977
115998,184544,244399,9.2530449942,-2.9096722816000002,-1.040877831,978
116306,184498,244370,9.3511507208,-2.9431717980000003,-0.9750752094999999,979
116415,184656,244423,9.3116691479,-2.8187450228000004,-1.028913718,980
116438,184664,244495,9.4289174553,-2.8067809098,-1.0313065406,981
116564,184708,244536,9.2183490665,-2.8929225234,-0.9284151688,982
116652,184670,244581,9.2051885422,-2.8642086522,-1.028913718,983
116701,184784,244541,9.2889373332,-2.835494781,-1.0432706536,984
116826,184817,244580,9.2685983411,-2.8438696600999998,-0.9858429111999999,985
116989,184835,244577,9.274580397600001,-2.9826533709,-1.0121639598,986
117202,184875,244646,9.340383019099999,-2.919243572,-1.028913718,987
117449,184941,244675,9.3906322937,-2.9455646206,-0.9104689993,988
117659,185006,244748,9.343972252999999,-2.8977081686,-0.9882357338,989
117917,185018,244711,9.0975115252,-2.99102825,-0.9355936366,990
118111,185021,244764,9.1669033806,-3.0077780082,-0.9511469834999999,991
118308,185054,244751,9.2015993083,-2.8342983697,-0.9200402897,992
118521,185093,244834,9.3750789468,-2.8917261120999997,-1.016949605,993
118604,185096,244839,9.260223461999999,-2.8642086522,-0.9343972253,994
118913,185144,244872,9.2183490665,-2.9324040963,-0.9355936366,995
119114,185158,244876,9.2554378168,-2.8462624827,-0.9511469834999999,996
119323,185208,244923,9.3954179389,-2.9108686929000003,-0.9272187574999999,997
119352,185095,244913,9.3236332609,-2.967100024,-0.8482556117000001,998
118955,185125,244836,9.1824567275,-3.0125636533999995,-0.9439685157,999
118235,185048,244833,9.219545477799999,-2.8199414341,-1.028913718,1000
117603,184979,244793,9.272187575,-2.7984060307000003,-0.9882357338,1001
117165,184959,244751,9.207581364800001,-2.9479574432,-0.9367900479,1002
116918,184874,244778,9.3068835027,-2.8390840148999996,-1.0121639598,1003
116914,184960,244766,9.2889373332,-2.9599215562,-0.9978070242,1004
117015,185004,244767,9.2099741874,-2.8881368781999996,-0.9535398061,1005
117117,184993,244786,9.3547399547,-2.8881368781999996,-0.9511469834999999,1006
117166,185023,244825,9.3571327773,-2.8450660714,-0.9870393224999999,1007
117195,185034,244784,9.2889373332,-2.9264220398,-0.9954142015999999,1008
117160,184918,244810,9.2386880586,-2.9024938138,-0.9367900479,1009
117166,184994,244774,9.2530449942,-2.9204399833,-1.0265208954,1010
117235,184980,244801,9.4002035841,-2.8115665549999997,-0.9655039191,1011
117403,185045,244813,9.2386880586,-2.9108686929000003,-1.0121639598,1012
117554,185054,244809,9.3643112451,-2.8331019584000003,-0.9499505722,1013
117779,185073,244831,9.2949193897,-2.8809584104000003,-0.9643075078,1014
117966,185151,244853,9.2578306394,-2.823530668,-0.9427721043999999,1015
118142,185123,244863,9.2973122123,-2.8785655878,-0.9726823869,1016
118276,185033,244881,9.1824567275,-2.9168507494,-0.9260223462,1017
118034,185059,244851,9.2542414055,-2.9623143788,-0.9200402897,1018
117408,184994,244814,9.320044027,-2.8534409504999996,-1.0013962581,1019
116700,184932,244770,9.2889373332,-2.9264220398,-0.9786644433999999,1020
116226,184873,244692,9.2015993083,-2.9527430884,-0.9176474671,1021
115948,184903,244739,9.3643112451,-2.8582265956999997,-0.9595218625999999,1022
115878,184888,244746,9.376275358100001,-2.8845476443,-1.0671988796,1023
115966,184907,244741,9.2829552767,-2.8630122409,-1.0217352502000001,1024
116149,184862,244735,9.284151688,-2.9024938138,-0.8602197247000001,1025
116296,184893,244809,9.4600241491,-2.8366911923,-1.07677017,1026
116334,184901,244750,9.3128655592,-2.8390840148999996,-0.9643075078,1027
116376,184891,244738,9.3571327773,-2.8594230069999997,-1.040877831,1028
116403,184823,244738,9.327222494799999,-3.0029923629999997,-0.981057266,1029
116470,184829,244688,9.2315095908,-2.8426732488,-0.9523433948,1030
116590,184801,244639,9.3738825355,-2.9431717980000003,-0.9415756931,1031
116774,184796,244691,9.4289174553,-2.9934210726,-1.016949605,1032
116995,184767,244669,9.2889373332,-2.9515466771,-0.8745766603,1033
117196,184777,244678,9.2518485829,-2.8019952646,-0.9080761767,1034
117380,184826,244637,9.206384953499999,-2.9659036127,-0.9726823869,1035
117557,184795,244658,9.3260260835,-2.8869404668999996,-0.9930213789999999,1036
117503,184651,244633,9.376275358100001,-2.9922246613000003,-0.9882357338,1037
116945,184617,244557,9.2171526552,-2.8546373618,-1.0815558152,1038
116203,184493,244535,9.4002035841,-3.0077780082,-0.9954142015999999,1039
115587,184461,244463,9.371489712899999,-2.8414768375,-1.0456634762,1040
115219,184409,244444,9.207581364800001,-2.8809584104000003,-0.9846464999,1041
115104,184301,244428,9.2386880586,-2.9240292172,-0.9954142015999999,1042
115174,184346,244413,9.1680997919,-2.8749763539,-1.0911271056,1043
115360,184393,244408,9.286544510599999,-2.9527430884,-1.016949605,1044
115533,184404,244432,9.3032942688,-2.8953153460000003,-0.9858429111999999,1045
115604,184446,244396,9.2135634213,-2.8809584104000003,-1.0360921858,1046
115629,184409,244384,9.3499543095,-2.9144579268,-0.9056833541,1047
115618,184344,244378,9.2530449942,-2.9228328059,-0.9343972253,1048
115686,184310,244362,9.207581364800001,-2.8737799425999997,-1.0624132344,1049
115855,184359,244353,9.2853480993,-2.8510481279,-0.9870393224999999,1050
116001,184397,244335,9.4313102779,-2.8570301844,-0.9954142015999999,1051
116189,184383,244374,9.477970318599999,-2.8546373618,-0.945164927,1052
116435,184308,244336,9.2015993083,-2.9503502657999996,-1.0097711372,1053
116577,184341,244333,9.3260260835,-2.8486553053,-1.1030912186,1054
116426,184306,244355,9.2793660428,-2.8737799425999997,-1.0265208954,1055
115817,184251,244300,9.2554378168,-2.9168507494,-0.9320044027,1056
115074,184110,244220,9.299705034899999,-2.9730820805000002,-0.95712904,1057
114597,184040,244177,9.1812603162,-2.8666014748,-1.0875378717,1058
114357,184051,244178,9.1190469286,-2.8594230069999997,-1.07677017,1059
114335,184078,244205,9.21236701,-2.9168507494,-1.0540383553,1060
114492,184153,244217,9.3212404383,-2.8869404668999996,-1.0217352502000001,1061
114750,184151,244292,9.3116691479,-2.9754749031,-1.0193424276,1062
114951,184245,244388,9.385846648500001,-2.9742784918,-1.0336993632,1063
115054,184309,244341,9.274580397600001,-2.8797619991,-0.9272187574999999,1064
115131,184330,244385,9.2697947524,-2.9431717980000003,-1.1054840412,1065
115212,184338,244428,9.3475614869,-2.8187450228000004,-0.9702895642999999,1066
115340,184329,244433,9.1429751546,-2.8486553053,-0.8602197247000001,1067
115520,184318,244425,9.2769732202,-2.8462624827,-1.0313065406,1068
115667,184393,244496,9.175278259699999,-2.8809584104000003,-0.9954142015999999,1069
115470,184433,244495,9.4002035841,-2.8522445392,-1.0432706536,1070
114859,184317,244517,9.3355973739,-3.0101708308,-1.0097711372,1071
114222,184322,244492,9.2817588654,-2.8091737324,-0.9583254512999999,1072
113825,184311,244478,9.3499543095,-2.8606194183,-0.9367900479,1073
113621,184284,244473,9.2410808812,-2.9120651042,-0.9475577495999999,1074
113698,184320,244503,9.410971285799999,-2.7792634499,-1.0121639598,1075
113901,184352,244526,9.2769732202,-2.8737799425999997,-1.0660024683,1076
114169,184396,244546,9.260223461999999,-2.9623143788,-0.9355936366,1077
114355,184333,244617,9.3009014462,-2.8103701436999997,-1.052841944,1078
114503,184495,244596,9.2171526552,-2.9575287336000002,-0.9930213789999999,1079
114634,184474,244652,9.3009014462,-2.9216363945999997,-1.0695917021999999,1080
114766,184480,244670,9.2147598326,-2.9431717980000003,-1.0265208954,1081
114953,184506,244662,9.3415794304,-2.8606194183,-0.8949156524,1082
115203,184468,244738,9.2087777761,-2.9886354273999998,-0.9918249677,1083
115483,184581,244739,9.2506521716,-2.883351233,-1.0193424276,1084
115757,184631,244761,9.3750789468,-3.0257241777000004,-0.9714859755999999,1085
116031,184673,244785,9.2183490665,-2.8606194183,-1.0420742423,1086
116324,184616,244838,9.355936366,-2.9814569596,-0.9511469834999999,1087
116506,184723,244861,9.3104727366,-2.9168507494,-0.8506484343,1088
116282,184729,244784,9.233902413400001,-2.9599215562,-1.004985492,1089
115556,184634,244731,9.2494557603,-2.9048866364,-0.921236701,1090
114820,184514,244717,9.2099741874,-2.8737799425999997,-0.9942177902999999,1091
114358,184434,244667,9.2374916473,-2.9479574432,-0.9822536772999999,1092
114166,184427,244729,9.2638126959,-2.9838497821999996,-1.0313065406,1093
114201,184443,244669,9.3332045513,-2.8797619991,-1.004985492,1094
114392,184512,244745,9.265009107200001,-2.8905297008,-0.9966106129000001,1095
114613,184510,244786,9.2913301558,-2.8965117573,-0.9379864592,1096
114788,184528,244805,9.330811728699999,-2.9527430884,-0.9882357338,1097
114894,184504,244772,9.247062937699999,-2.9886354273999998,-0.9619146851999999,1098
114999,184560,244799,9.2255275343,-2.9551359109999997,-0.9583254512999999,1099
115130,184522,244791,9.1740818484,-2.8905297008,-0.9379864592,1100
115284,184550,244837,9.3188476157,-2.8223342567,-0.9415756931,1101
115562,184598,244841,9.3427758417,-2.9168507494,-1.0588240005,1102
115817,184635,244927,9.3834538259,-2.8953153460000003,-0.9786644433999999,1103
116097,184666,244911,9.3296153174,-2.883351233,-0.9415756931,1104
116399,184715,244942,9.1812603162,-2.9216363945999997,-0.9140582332,1105
116663,184749,244978,9.343972252999999,-2.8917261120999997,-0.9080761767,1106
116907,184764,245014,9.236295236,-2.8522445392,-0.9439685157,1107
117147,184722,245004,9.3296153174,-2.9563323222999998,-0.9200402897,1108
117399,184746,245034,9.2315095908,-2.8151557889,-0.9619146851999999,1109
117621,184806,245069,9.3355973739,-2.9036902251,-0.9954142015999999,1110
117716,184858,245089,9.3738825355,-2.9024938138,-0.9523433948,1111
117321,184818,245037,9.3224368496,-2.8881368781999996,-1.0336993632,1112
116620,184682,244938,9.2662055185,-2.7828526838,-0.9367900479,1113
116082,184634,244923,9.2817588654,-2.8677978860999995,-0.969093153,1114
115682,184624,244946,9.2279203569,-2.9132615155,-0.8757730716000001,1115
115561,184623,244944,9.2985086236,-2.8498517166,-0.9738787981999999,1116
115639,184653,244924,9.3690968903,-2.8689942974,-0.9738787981999999,1117
115724,184615,244950,9.320044027,-2.8618158296000002,-0.9906285563999999,1118
115946,184539,244964,9.2757768089,-2.8666014748,-0.9403792818,1119
116028,184554,244966,9.4061856406,-2.9862426048,-0.9786644433999999,1120
116108,184614,244941,9.2769732202,-2.9647072014,-0.9894321450999999,1121
116181,184591,244966,9.3367937852,-2.8905297008,-1.0145567824000001,1122
116284,184595,244889,9.188438784,-2.8689942974,-0.9475577495999999,1123
116418,184501,244895,9.2937229784,-2.7170500623000002,-0.9882357338,1124
116584,184595,244884,9.3595255999,-2.8881368781999996,-0.969093153,1125
116631,184454,244868,9.3667040677,-2.9228328059,-0.8961120637,1126
116258,184430,244857,9.2015993083,-2.8881368781999996,-0.9511469834999999,1127
115708,184347,244754,9.2051885422,-2.7960132080999998,-0.8578269021,1128
115213,184238,244772,9.2925265671,-2.8031916759,-1.0636096457,1129
114961,184230,244707,9.2793660428,-2.8594230069999997,-0.9954142015999999,1130
114910,184247,244691,9.207581364800001,-2.8223342567,-0.9655039191,1131
115063,184215,244672,9.1322074529,-2.9407789753999998,-1.0229316615,1132
115317,184188,244719,9.410971285799999,-2.9001009912,-0.9714859755999999,1133
115511,184281,244721,9.2386880586,-2.9359933301999996,-0.9140582332,1134
115665,184301,244721,9.3104727366,-2.8725835312999997,-1.0456634762,1135
115718,184282,244684,9.2638126959,-2.9587251449000003,-1.0193424276,1136
115832,184232,244685,9.3104727366,-2.9886354273999998,-1.0384850084,1137
115947,184213,244679,9.224331123,-2.9706892578999997,-1.0360921858,1138
116107,184212,244673,9.284151688,-2.8307091358,-1.0384850084,1139
116363,184227,244693,9.290133744499999,-2.99102825,-0.9882357338,1140
116590,184246,244693,9.4480600361,-2.9455646206,-1.0360921858,1141
116818,184274,244696,9.2434737038,-2.8462624827,-0.9882357338,1142
117066,184274,244731,9.175278259699999,-2.9120651042,-1.0085747259,1143
117194,184167,244700,9.2434737038,-2.9371897415,-0.9176474671,1144
116998,184185,244667,9.3810610033,-2.9324040963,-1.0815558152,1145
116308,184078,244576,9.3176512044,-2.9635107901000004,-0.9942177902999999,1146
115640,183987,244507,9.2925265671,-2.9168507494,-0.9990034355,1147
115183,183843,244491,9.2566342281,-2.9838497821999996,-0.9678967417,1148
114989,183822,244450,9.2542414055,-2.931207685,-1.1258230332999999,1149
115004,183993,244473,9.2315095908,-3.0053851856000002,-1.1545369045,1150
115218,183949,244490,9.3523471321,-3.0939196218,-1.0923235169,1151
115390,183956,244505,9.2697947524,-2.9479574432,-1.0360921858,1152
115526,183979,244522,9.3595255999,-2.9778677257000004,-1.07677017,1153
115577,183981,244452,9.2769732202,-2.8283163132,-1.028913718,1154
115654,183955,244482,9.3427758417,-2.9180471607,-1.0743773474,1155
115678,183934,244497,9.265009107200001,-2.931207685,-1.0277173067,1156
115863,183825,244423,9.3104727366,-2.8965117573,-1.0073783146,1157
116049,183904,244496,9.224331123,-2.9479574432,-1.0624132344,1158
116278,183933,244497,9.299705034899999,-2.9264220398,-1.0145567824000001,1159
116504,184032,244536,9.4002035841,-2.8283163132,-1.0157531937,1160
116753,184062,244553,9.2279203569,-2.9766713144,-1.0480562988,1161
116817,184063,244598,9.296115801,-2.9216363945999997,-1.0671988796,1162
116385,184021,244567,9.21236701,-2.8438696600999998,-1.0181460163,1163
115760,184014,244559,9.2590270507,-2.8881368781999996,-1.0971091621,1164
115261,184043,244526,9.296115801,-2.8402804262,-1.0516455327,1165
114989,184007,244545,9.2566342281,-2.9240292172,-0.9678967417,1166
114920,184020,244572,9.3332045513,-2.8582265956999997,-0.9403792818,1167
115088,184084,244605,9.260223461999999,-2.8414768375,-1.0851450490999999,1168
115339,184141,244641,9.2386880586,-2.8031916759,-1.0612168231,1169
115563,184136,244692,9.2219383004,-2.8797619991,-0.9583254512999999,1170
115691,184182,244750,9.286544510599999,-2.9718856692,-0.9954142015999999,1171
115838,184259,244781,9.2769732202,-2.8271199019,-1.0492527101,1172
115938,184318,244806,9.1669033806,-2.9228328059,-1.0205388389,1173
116094,184377,244833,9.1513500337,-2.8749763539,-0.9343972253,1174
116289,184394,244899,9.2506521716,-2.9527430884,-0.9714859755999999,1175
116545,184424,244907,9.3690968903,-2.7302105866,-0.9714859755999999,1176
116818,184498,244920,9.2889373332,-2.9048866364,-0.9511469834999999,1177
117118,184566,244959,9.2219383004,-2.9599215562,-1.0145567824000001,1178
117376,184587,245009,9.2578306394,-2.7625136916999997,-0.9583254512999999,1179
117507,184647,245063,9.284151688,-2.9623143788,-0.8817551281,1180
117174,184602,245003,9.1441715659,-2.9551359109999997,-0.9667003303999999,1181
116446,184527,244993,9.3009014462,-2.9599215562,-0.9583254512999999,1182
115816,184451,244981,9.2697947524,-2.835494781,-1.1258230332999999,1183
115433,184365,244870,9.3332045513,-2.8223342567,-0.9379864592,1184
115295,184404,244946,9.2793660428,-2.8989045799,-0.9738787981999999,1185
115361,184479,244916,9.286544510599999,-2.8510481279,-0.9906285563999999,1186
115563,184499,244985,9.4169533423,-2.9599215562,-1.0025926694,1187
115815,184540,244998,9.3738825355,-2.9694928465999997,-1.0157531937,1188
115916,184550,245043,9.175278259699999,-2.8486553053,-0.9391828704999999,1189
116060,184526,245027,9.2039921309,-2.8522445392,-1.004985492,1190
116155,184545,245045,9.3176512044,-2.8271199019,-0.9439685157,1191
116271,184630,245048,9.229116768199999,-2.8139593776000003,-0.9104689993,1192
116445,184586,245063,9.220741889100001,-2.9096722816000002,-1.0456634762,1193
116653,184598,245072,9.3379901965,-2.8905297008,-0.9308079913999999,1194
116934,184679,245071,9.2949193897,-2.9694928465999997,-0.9535398061,1195
117176,184706,245105,9.233902413400001,-2.8594230069999997,-0.9846464999,1196
117356,184735,245131,9.3140619705,-2.9240292172,-0.9834500885999999,1197
117112,184594,245147,9.1848495501,-2.7936203855,-0.933200814,1198
116487,184593,245078,9.1369930981,-2.8366911923,-0.9224331123,1199
115812,184544,245041,9.178867493599999,-2.9491538545,-0.8482556117000001,1200
115472,184481,245004,9.3152583818,-2.7457639335,-1.016949605,1201
115375,184505,245018,9.2171526552,-2.8486553053,-0.9499505722,1202
115411,184527,245007,9.3475614869,-2.7936203855,-1.088734283,1203
115639,184615,245058,9.233902413400001,-2.8414768375,-1.0001998468,1204
115909,184625,245112,9.415756931,-3.0077780082,-0.9308079913999999,1205
116098,184649,245126,9.443274390900001,-2.8761727652,-0.9667003303999999,1206
116118,184635,245144,9.3164547931,-2.8319055471,-0.9104689993,1207
116344,184651,245110,9.3332045513,-2.9096722816000002,-1.0336993632,1208
116458,184646,245110,9.2542414055,-2.9001009912,-0.9355936366,1209
116661,184694,245082,9.2769732202,-2.9946174839,-0.9619146851999999,1210
116877,184729,245104,9.353543543399999,-2.8654050635,-0.9236295236,1211
117136,184730,245183,9.164510558,-2.9180471607,-0.969093153,1212
117423,184817,245211,9.224331123,-2.8917261120999997,-0.9152546444999999,1213
117650,184782,245254,9.2674019298,-2.8462624827,-0.9056833541,1214
117945,184801,245287,9.1680997919,-2.8989045799,-1.0121639598,1215
118194,184888,245241,9.219545477799999,-2.8821548217,-1.0313065406,1216
118428,184878,245298,9.343972252999999,-2.9455646206,-0.9619146851999999,1217
118696,184893,245315,9.1908316066,-2.8510481279,-0.9499505722,1218
118934,184998,245314,9.332008140000001,-2.87138712,-0.9619146851999999,1219
119057,184958,245369,9.3152583818,-2.883351233,-0.9068797654,1220
118738,184903,245287,9.3284189061,-3.0376882907,-1.0001998468,1221
118119,184816,245288,9.229116768199999,-2.8259234905999997,-0.9355936366,1222
117511,184768,245239,9.260223461999999,-2.8642086522,-0.9858429111999999,1223
117173,184741,245200,9.3595255999,-2.9826533709,-0.9140582332,1224
117036,184752,245239,9.3523471321,-2.8378876036,-1.0624132344,1225
117066,184730,245262,9.286544510599999,-3.014956476,-1.028913718,1226
117247,184829,245220,9.2638126959,-2.8773691765,-1.064806057,1227
117412,184811,245235,9.451649269999999,-2.9048866364,-0.9750752094999999,1228
117536,184751,245215,9.3391866078,-2.8869404668999996,-1.0348957745,1229
117586,184752,245262,9.4049892293,-2.9503502657999996,-1.0217352502000001,1230
117665,184673,245165,9.3894358824,-2.8905297008,-0.9260223462,1231
117729,184676,245164,9.3355973739,-2.9647072014,-0.9583254512999999,1232
117807,184662,245157,9.286544510599999,-2.8797619991,-0.9583254512999999,1233
118008,184596,245127,9.385846648500001,-3.0269205889999995,-0.9954142015999999,1234
118220,184601,245135,9.21236701,-2.8462624827,-0.9499505722,1235
118423,184737,245135,9.2793660428,-2.9371897415,-1.0576275892,1236
118674,184612,245147,9.265009107200001,-2.8295127245,-1.0217352502000001,1237
118888,184607,245132,9.1932244292,-2.967100024,-0.9391828704999999,1238
119081,184678,245111,9.2183490665,-2.9647072014,-1.0384850084,1239
119324,184734,245151,9.274580397600001,-2.9431717980000003,-0.9786644433999999,1240
119512,184740,245088,9.21236701,-2.9024938138,-1.040877831,1241
119609,184677,245068,9.3834538259,-3.0065815969000003,-0.9786644433999999,1242
119454,184680,245103,9.296115801,-2.8785655878,-1.0600204118,1243
118870,184625,245015,9.2530449942,-2.7984060307000003,-0.9367900479,1244
118371,184524,244961,9.353543543399999,-3.0041887742999998,-1.0145567824000001,1245
118066,184484,244930,9.3966143502,-2.9084758702999998,-0.909272588,1246
117906,184443,244932,9.2410808812,-2.9240292172,-1.0336993632,1247
117925,184427,244901,9.2769732202,-2.9659036127,-0.981057266,1248
118084,184377,244899,9.2315095908,-2.8606194183,-1.0360921858,1249
118225,184363,244870,9.224331123,-2.9228328059,-0.9607182739,1250
118306,184424,244860,9.2817588654,-2.8426732488,-0.9858429111999999,1251
118384,184458,244884,9.2614198733,-2.9874390161,-1.0552347666,1252
118428,184427,244869,9.376275358100001,-2.8390840148999996,-1.0983055734,1253
118455,184357,244777,9.308079914,-2.7433711108999996,-0.9032905315,1254
118559,184333,244804,9.2458665264,-3.0101708308,-0.9320044027,1255
118650,184329,244794,9.3391866078,-2.9383861528,-1.064806057,1256
118541,184347,244771,9.2434737038,-2.8295127245,-1.0983055734,1257
118127,184228,244777,9.272187575,-2.8366911923,-1.0396814197,1258
117576,184223,244734,9.2769732202,-2.8929225234,-1.064806057,1259
117196,184142,244682,9.140582332,-2.9383861528,-1.0193424276,1260
116988,184147,244665,9.3523471321,-2.8737799425999997,-0.9762716208,1261
116889,184144,244668,9.2709911637,-2.9168507494,-0.9702895642999999,1262
117007,184152,244673,9.3834538259,-2.9479574432,-1.0336993632,1263
117077,184146,244690,9.2614198733,-2.9587251449000003,-1.0073783146,1264
117325,184156,244654,9.4815595525,-2.8426732488,-1.0360921858,1265
117457,184178,244647,9.3810610033,-2.9563323222999998,-1.0552347666,1266
117513,184072,244614,9.2769732202,-2.9575287336000002,-1.0576275892,1267
117547,184076,244587,9.439685157,-2.8594230069999997,-1.064806057,1268
117664,184114,244631,9.1848495501,-2.8941189347,-0.9786644433999999,1269
117819,184173,244625,9.3224368496,-3.0568308715,-1.0624132344,1270
117926,184246,244703,9.3152583818,-2.967100024,-1.112662509,1271
118247,184316,244736,9.353543543399999,-3.0209385325,-1.0600204118,1272
118472,184291,244774,9.284151688,-2.883351233,-1.0695917021999999,1273
118713,184367,244881,9.1956172518,-2.9012974024999996,-1.004985492,1274
118944,184426,244897,9.2554378168,-2.8761727652,-1.0037890807,1275
119101,184478,244885,9.3655076564,-2.8989045799,-1.016949605,1276
119009,184509,244921,9.3032942688,-2.9132615155,-0.9906285563999999,1277
118476,184515,244899,9.3056870914,-2.9060830476999997,-0.9511469834999999,1278
117827,184486,244880,9.3104727366,-2.8331019584000003,-1.0384850084,1279
117395,184489,244896,9.2506521716,-2.7816562725,-0.9786644433999999,1280
117185,184507,244867,9.1118684608,-2.9934210726,-0.9643075078,1281
117172,184535,244887,9.233902413400001,-2.9491538545,-1.0456634762,1282
117297,184599,244969,9.367900479,-2.8881368781999996,-1.004985492,1283
117524,184621,244955,9.3655076564,-2.8522445392,-0.9738787981999999,1284
117657,184674,245023,9.2817588654,-2.7768706272999997,-1.028913718,1285
117705,184711,245003,9.2697947524,-2.9096722816000002,-0.9870393224999999,1286
117793,184747,245096,9.2877409219,-2.9503502657999996,-0.9930213789999999,1287
117789,184744,245073,9.232706002099999,-2.8630122409,-0.9176474671,1288
117971,184776,245094,9.320044027,-2.87138712,-0.969093153,1289
118106,184770,245091,9.3954179389,-2.9024938138,-0.8997012976000001,1290
118360,184851,245137,9.2889373332,-2.9419753867,-0.9930213789999999,1291
118553,184904,245151,9.1692962032,-2.9647072014,-1.0384850084,1292
118766,184937,245186,9.3164547931,-2.9718856692,-1.0504491214,1293
119000,184935,245180,9.3810610033,-2.9252256285000002,-0.9427721043999999,1294
119219,184978,245192,9.309276325299999,-2.9527430884,-0.95712904,1295
119401,185007,245223,9.2769732202,-2.9994031291,-0.9427721043999999,1296
119494,185037,245231,9.2769732202,-2.8654050635,-0.9738787981999999,1297
119212,184989,245183,9.3152583818,-2.9096722816000002,-0.9738787981999999,1298
118606,184955,245155,9.4169533423,-2.8737799425999997,-0.9439685157,1299
118049,184898,245161,9.3595255999,-2.9778677257000004,-1.0707881135,1300
117674,184889,245119,9.224331123,-2.8989045799,-0.8350950873999999,1301
117520,184855,245073,9.2111705987,-2.9718856692,-0.945164927,1302
117500,184887,245136,9.3032942688,-2.8701907087,-0.9272187574999999,1303
117675,184935,245114,9.1561356789,-2.9300112737000004,-0.9224331123,1304
117850,184838,245164,9.206384953499999,-2.9766713144,-0.9882357338,1305
117985,184873,245137,9.3595255999,-3.0005995404,-1.0193424276,1306
118045,184891,245136,9.3391866078,-2.9647072014,-0.9822536772999999,1307
118061,184895,245129,9.2183490665,-2.9431717980000003,-0.9403792818,1308
118156,184932,245119,9.2985086236,-2.8881368781999996,-0.9834500885999999,1309
118276,184986,245176,9.385846648500001,-2.9144579268,-0.9714859755999999,1310
118440,184998,245169,9.3786681807,-2.9288148624,-1.016949605,1311
118637,185001,245191,9.2817588654,-2.9742784918,-1.0217352502000001,1312
118887,185074,245218,9.3344009626,-2.9527430884,-0.9774680320999999,1313
119100,185052,245212,9.3427758417,-2.9144579268,-0.9786644433999999,1314
119307,185068,245265,9.3355973739,-3.0759734523,-0.9511469834999999,1315
119441,185057,245224,9.1980100744,-2.9144579268,-0.9260223462,1316
119103,185054,245178,9.224331123,-2.979064137,-0.9284151688,1317
118506,185004,245223,9.3104727366,-3.0532416376,-0.8841479507000001,1318
117973,184938,245137,9.3547399547,-2.8953153460000003,-0.8793623055,1319
117631,184924,245112,9.308079914,-2.8785655878,-0.95712904,1320
117564,184927,245111,9.248259349,-2.8295127245,-1.0097711372,1321
117578,184905,245125,9.397810761499999,-3.0352954681,-0.9631110964999999,1322
117782,184948,245154,9.2219383004,-2.919243572,-0.9320044027,1323
117950,184993,245181,9.3631148338,-3.0053851856000002,-0.9284151688,1324
118086,185039,245148,9.2578306394,-2.9886354273999998,-0.9547362173999999,1325
118140,185000,245147,9.2674019298,-2.8857440556,-0.9559326287,1326
118237,184978,245142,9.3248296722,-2.9455646206,-1.016949605,1327
118308,184973,245136,9.1692962032,-2.8498517166,-0.9726823869,1328
118394,184982,245112,9.2350988247,-2.9264220398,-0.9930213789999999,1329
118568,185034,245157,9.2027957196,-3.0747770410000004,-0.9308079913999999,1330
118826,185007,245171,9.2853480993,-2.9264220398,-0.9224331123,1331
118954,185049,245206,9.3355973739,-2.9814569596,-0.9068797654,1332
119258,185090,245179,9.355936366,-2.9168507494,-0.969093153,1333
119440,185042,245177,9.207581364800001,-3.0125636533999995,-1.0025926694,1334
119588,185076,245165,9.308079914,-2.967100024,-0.9056833541,1335
119527,185064,245128,9.21236701,-2.9347969189,-0.9391828704999999,1336
119091,184944,245131,9.3427758417,-2.8689942974,-1.0121639598,1337
118476,184882,245017,9.3236332609,-2.9048866364,-0.9343972253,1338
117998,184800,244961,9.3774717694,-2.8701907087,-0.969093153,1339
117735,184650,244882,9.2051885422,-2.8582265956999997,-0.9535398061,1340
117659,184666,244896,9.274580397600001,-2.9288148624,-1.0097711372,1341
117749,184668,244869,9.3009014462,-2.8977081686,-0.9678967417,1342
117901,184710,244892,9.3056870914,-2.9503502657999996,-0.9930213789999999,1343
118050,184620,244855,9.3164547931,-2.8486553053,-0.9499505722,1344
118103,184635,244818,9.233902413400001,-2.7649065143000002,-0.9846464999,1345
118177,184658,244817,9.2793660428,-2.8905297008,-1.0193424276,1346
118203,184587,244731,9.3475614869,-2.8307091358,-1.0109675485,1347
118266,184604,244739,9.3128655592,-2.9491538545,-0.9702895642999999,1348
118357,184557,244763,9.3140619705,-2.8941189347,-1.0193424276,1349
118515,184620,244762,9.2937229784,-2.8797619991,-1.0265208954,1350
118699,184550,244770,9.21236701,-2.8618158296000002,-0.9954142015999999,1351
118873,184584,244737,9.296115801,-2.967100024,-1.1377871463,1352
119084,184606,244686,9.2662055185,-2.9144579268,-0.9164510558,1353
119240,184626,244729,9.175278259699999,-2.8929225234,-1.0432706536,1354
119413,184615,244663,9.3906322937,-2.9802605483,-0.9714859755999999,1355
119406,184561,244627,9.3140619705,-2.8701907087,-1.040877831,1356
118976,184457,244657,9.3379901965,-2.9096722816000002,-0.9367900479,1357
118373,184415,244534,9.2458665264,-2.8450660714,-1.0193424276,1358
117914,184324,244532,9.2973122123,-2.8630122409,-1.0707881135,1359
117617,184340,244482,9.2685983411,-2.7493531674,-1.0217352502000001,1360
117529,184295,244465,9.2769732202,-2.919243572,-1.1246266219999999,1361
117632,184333,244472,9.2889373332,-2.9850461935,-0.9966106129000001,1362
117768,184361,244466,9.3571327773,-2.9001009912,-1.028913718,1363
117885,184319,244493,9.3020978575,-2.9144579268,-1.0456634762,1364
117952,184319,244447,9.3176512044,-2.9527430884,-1.0229316615,1365
117918,184316,244414,9.3463650756,-2.7936203855,-1.0911271056,1366
117924,184287,244422,9.242277292499999,-2.967100024,-0.9583254512999999,1367
117973,184244,244406,9.1812603162,-2.8498517166,-1.0839486378,1368
118071,184251,244356,9.284151688,-2.9144579268,-0.9535398061,1369
118211,184259,244403,9.2889373332,-3.0137600647,-1.0863414604,1370
118363,184314,244422,9.3164547931,-2.9479574432,-1.0241280728,1371
118566,184350,244395,9.2697947524,-2.8522445392,-0.9798608547,1372
118756,184385,244442,9.3128655592,-2.9527430884,-0.9846464999,1373
118889,184376,244467,9.3690968903,-3.0352954681,-1.016949605,1374
118824,184426,244453,9.3009014462,-2.9240292172,-1.0624132344,1375
118363,184434,244514,9.2530449942,-2.9838497821999996,-1.0336993632,1376
117823,184341,244540,9.3152583818,-2.9252256285000002,-1.0444670649,1377
117371,184354,244501,9.242277292499999,-3.0448667585,-1.0336993632,1378
117146,184376,244497,9.229116768199999,-2.9623143788,-1.0073783146,1379
117112,184393,244480,9.2674019298,-2.8761727652,-0.9858429111999999,1380
117223,184420,244532,9.3068835027,-2.8749763539,-1.0121639598,1381
117416,184459,244596,9.2219383004,-2.9551359109999997,-1.0229316615,1382
117564,184513,244633,9.3009014462,-2.9994031291,-1.1078768638,1383
117643,184688,244676,9.4169533423,-2.8271199019,-1.0600204118,1384
117753,184722,244775,9.265009107200001,-2.9443682093000003,-1.0013962581,1385
117770,184754,244739,9.1609213241,-2.8737799425999997,-1.0121639598,1386
117897,184762,244752,9.3116691479,-2.9216363945999997,-0.9906285563999999,1387
118023,184807,244769,9.2769732202,-2.8558337731,-1.0241280728,1388
118217,184831,244800,9.2769732202,-2.919243572,-1.064806057,1389
118479,184889,244874,9.2231347117,-2.9611179675,-0.9547362173999999,1390
118665,184949,244878,9.2985086236,-2.9766713144,-0.8889335959,1391
118922,184958,244937,9.176474671,-2.7505495787000003,-0.9415756931,1392
119114,185016,244938,9.345168664300001,-2.8905297008,-1.0001998468,1393
119337,185050,244978,9.3690968903,-2.8917261120999997,-1.064806057,1394
119502,185051,244983,9.2506521716,-2.8283163132,-0.9834500885999999,1395
119722,185003,245017,9.148957211099999,-2.9144579268,-1.0133603711,1396
119926,185061,245057,9.200402897,-2.9479574432,-0.8925228298,1397
120126,185175,245047,9.2458665264,-2.9742784918,-0.9738787981999999,1398
120316,185143,245012,9.2530449942,-2.9706892578999997,-1.0265208954,1399
120548,185206,245092,9.2578306394,-2.9479574432,-0.9511469834999999,1400
120741,185234,245157,9.2159562439,-2.9718856692,-0.9595218625999999,1401
120944,185254,245114,9.296115801,-2.8749763539,-0.9248259349,1402
121121,185215,245135,9.2697947524,-3.0257241777000004,-0.9870393224999999,1403
121316,185272,245126,9.327222494799999,-2.9659036127,-1.0851450490999999,1404
121444,185321,245183,9.3296153174,-2.8725835312999997,-0.9559326287,1405
121240,185269,245139,9.2949193897,-2.9359933301999996,-0.9475577495999999,1406
120695,185217,245078,9.274580397600001,-2.8055844984999996,-0.95712904,1407
120104,185092,245077,9.2626162846,-2.8342983697,-0.9858429111999999,1408
119666,185125,245026,9.2111705987,-2.8809584104000003,-0.9008977089,1409
119407,185185,245022,9.3212404383,-2.9120651042,-0.9403792818,1410
119267,185165,245041,9.2674019298,-3.1680971224,-1.0456634762,1411
119419,185172,245041,9.2757768089,-3.0317062341999996,-0.9176474671,1412
119515,185196,245034,9.21236701,-3.0412775246,-0.9355936366,1413
119524,185161,245028,9.224331123,-2.8677978860999995,-0.9619146851999999,1414
119511,185110,245022,9.3415794304,-2.8701907087,-1.0396814197,1415
119480,185157,245012,9.2350988247,-2.9264220398,-0.9308079913999999,1416
119461,185146,245060,9.2817588654,-2.9718856692,-0.9463613382999999,1417
119472,185188,245051,9.2015993083,-2.931207685,-0.885344362,1418
119540,185188,245007,9.415756931,-2.9766713144,-1.0277173067,1419
119648,185249,245043,9.330811728699999,-2.9395825641,-0.9702895642999999,1420
119732,185241,245016,9.367900479,-2.967100024,-0.9200402897,1421
119375,185175,245046,9.2674019298,-2.9958138952,-0.9152546444999999,1422
118746,185081,245019,9.2279203569,-2.9647072014,-0.933200814,1423
118172,185056,244954,9.2446701151,-2.9240292172,-1.0420742423,1424
117787,184964,244902,9.3571327773,-2.9336005076,-1.028913718,1425
117619,185019,244909,9.1034935817,-3.0065815969000003,-1.0073783146,1426
117596,185022,244908,9.296115801,-2.9096722816000002,-1.0839486378,1427
117718,185041,244937,9.2805624541,-2.8474588940000003,-1.0001998468,1428
117848,185003,244895,9.2925265671,-2.8845476443,-0.9308079913999999,1429
117945,185057,244931,9.3427758417,-2.8654050635,-0.9559326287,1430
117990,185070,244938,9.2027957196,-2.8366911923,-0.9643075078,1431
118051,185047,244908,9.3068835027,-2.8414768375,-1.0935199281999999,1432
118070,185043,244892,9.131011041599999,-2.9647072014,-1.07677017,1433
118175,185053,244964,9.355936366,-2.9001009912,-0.9475577495999999,1434
118327,185002,244952,9.4181497536,-2.8486553053,-0.9463613382999999,1435
118469,185091,244944,9.353543543399999,-2.8845476443,-0.9391828704999999,1436
118650,185147,244951,9.274580397600001,-2.9778677257000004,-0.8985048863,1437
118865,185162,244899,9.3571327773,-2.9682964353,-1.0229316615,1438
119038,185118,244942,9.272187575,-2.9264220398,-0.9930213789999999,1439
119217,185092,244899,9.1740818484,-2.9467610319,-0.9535398061,1440
119407,185085,244883,9.1800639049,-2.9383861528,-1.0037890807,1441
119537,184953,244839,9.3236332609,-2.8510481279,-1.0313065406,1442
119722,185019,244871,9.3391866078,-2.8642086522,-0.9152546444999999,1443
119673,185006,244823,9.2985086236,-2.9778677257000004,-0.9762716208,1444
119173,184937,244763,9.2877409219,-2.9647072014,-0.9882357338,1445
118486,184766,244688,9.2757768089,-2.9371897415,-0.9284151688,1446
117841,184721,244638,9.2051885422,-2.9072794589999997,-1.0624132344,1447
117431,184684,244617,9.3344009626,-2.8953153460000003,-0.9655039191,1448
117246,184705,244557,9.1860459614,-3.0340990568,-0.9762716208,1449
117276,184671,244573,9.207581364800001,-2.9635107901000004,-0.9930213789999999,1450
117385,184673,244559,9.2757768089,-2.99102825,-0.9978070242,1451
117512,184684,244538,9.219545477799999,-2.8127629663000002,-1.0313065406,1452
117523,184650,244496,9.4097748745,-2.9108686929000003,-1.0025926694,1453
117521,184640,244568,9.2877409219,-3.0616165167,-1.0384850084,1454
117500,184588,244479,9.2099741874,-2.8953153460000003,-1.0743773474,1455
117525,184563,244500,9.2626162846,-2.9647072014,-1.0971091621,1456
117544,184614,244478,9.1920280179,-2.9515466771,-1.0121639598,1457
117675,184565,244504,9.260223461999999,-2.9168507494,-0.9678967417,1458
117886,184592,244476,9.3152583818,-2.9431717980000003,-0.9774680320999999,1459
118058,184518,244491,9.4145605197,-2.9694928465999997,-1.0384850084,1460
118225,184592,244496,9.2937229784,-2.9132615155,-1.0624132344,1461
118380,184597,244482,9.3595255999,-2.9503502657999996,-1.0456634762,1462
118391,184608,244493,9.379864592,-2.9682964353,-0.9834500885999999,1463
117913,184568,244458,9.1956172518,-2.9216363945999997,-1.0815558152,1464
117230,184467,244393,9.2015993083,-2.883351233,-1.0313065406,1465
116726,184398,244398,9.2697947524,-2.9132615155,-0.9463613382999999,1466
116396,184380,244365,9.391828705,-2.8414768375,-0.9738787981999999,1467
116279,184346,244309,9.3332045513,-2.931207685,-1.1054840412,1468
116345,184378,244324,9.2434737038,-2.9503502657999996,-1.0432706536,1469
116524,184383,244348,9.265009107200001,-3.0221349438,-1.0241280728,1470
116686,184477,244356,9.2159562439,-3.0077780082,-0.9978070242,1471
116781,184430,244341,9.2530449942,-2.9264220398,-1.0384850084,1472
116815,184436,244316,9.3499543095,-2.9946174839,-1.0348957745,1473
116807,184400,244339,9.309276325299999,-2.8103701436999997,-1.0193424276,1474
116885,184423,244284,9.3164547931,-2.9838497821999996,-1.016949605,1475
116974,184395,244310,9.165706969299999,-2.8881368781999996,-0.9511469834999999,1476
117105,184514,244391,9.265009107200001,-3.0077780082,-1.0779665813,1477
117338,184530,244457,9.439685157,-2.8929225234,-1.0121639598,1478
117592,184623,244477,9.3104727366,-2.9228328059,-0.9355936366,1479
117792,184635,244508,9.21236701,-2.9240292172,-1.0815558152,1480
117941,184674,244520,9.2937229784,-2.9958138952,-0.9822536772999999,1481
117721,184637,244495,9.343972252999999,-2.9072794589999997,-0.9667003303999999,1482
117127,184593,244488,9.220741889100001,-2.8319055471,-0.9762716208,1483
116480,184576,244490,9.2925265671,-2.8654050635,-1.0145567824000001,1484
116062,184534,244470,9.3068835027,-2.8761727652,-0.9128618219,1485
115855,184540,244470,9.2817588654,-2.9001009912,-1.0241280728,1486
115886,184557,244507,9.3176512044,-2.7577280465,-0.9858429111999999,1487
116052,184648,244565,9.3619184225,-2.8402804262,-0.9559326287,1488
116334,184710,244568,9.2913301558,-3.0137600647,-0.921236701,1489
116463,184630,244604,9.3583291886,-3.0436703472,-1.0073783146,1490
116531,184725,244640,9.340383019099999,-2.9180471607,-0.9726823869,1491
116589,184740,244680,9.3224368496,-2.9012974024999996,-1.0480562988,1492
116693,184771,244647,9.4360959231,-2.9694928465999997,-1.0109675485,1493
116853,184793,244669,9.242277292499999,-2.9407789753999998,-0.9595218625999999,1494
117023,184821,244704,9.3355973739,-2.8414768375,-0.9475577495999999,1495
117277,184884,244771,9.2829552767,-2.8977081686,-0.9834500885999999,1496
117467,184838,244781,9.2769732202,-2.8785655878,-1.0360921858,1497
117730,184894,244809,9.3702933016,-2.883351233,-0.9667003303999999,1498
117954,184892,244823,9.308079914,-2.9503502657999996,-0.9200402897,1499
118187,184952,244825,9.379864592,-2.883351233,-1.0025926694,1500
118368,185047,244867,9.3224368496,-2.9180471607,-0.9870393224999999,1501
118417,185082,244894,9.3355973739,-2.979064137,-1.0612168231,1502
118048,185016,244779,9.2051885422,-2.9144579268,-0.9834500885999999,1503
117332,184928,244790,9.2530449942,-2.9276184511,-0.9523433948,1504
116743,184858,244770,9.2530449942,-2.7816562725,-1.0013962581,1505
116413,184815,244759,9.165706969299999,-3.0053851856000002,-0.9762716208,1506
116230,184833,244712,9.296115801,-2.8749763539,-0.9343972253,1507
116313,184853,244742,9.353543543399999,-2.9407789753999998,-1.0384850084,1508
116500,184902,244774,9.371489712899999,-2.9228328059,-1.004985492,1509
116701,184953,244771,9.242277292499999,-2.9336005076,-1.0875378717,1510
116767,184950,244808,9.4002035841,-3.0340990568,-0.9523433948,1511
116826,184922,244842,9.2829552767,-2.9742784918,-1.0193424276,1512
116794,184919,244848,9.2506521716,-2.9694928465999997,-0.9475577495999999,1513
116918,184869,244806,9.2147598326,-2.9228328059,-0.9978070242,1514
117098,184912,244800,9.2386880586,-2.8510481279,-0.9547362173999999,1515
117314,184967,244848,9.265009107200001,-2.9264220398,-0.9930213789999999,1516
117507,184961,244846,9.1465643885,-2.9060830476999997,-0.9463613382999999,1517
117743,184922,244913,9.2578306394,-2.9575287336000002,-0.9475577495999999,1518
