green,red,IR,acc_x,acc_y,acc_z,sample_index
110049,178440,236713,-3.4085757937,1.2514462198,9.1429751546,1
110152,178424,236743,-3.6035908356,1.4213366244,9.140582332,2
110231,178426,236681,-3.5521451497000003,1.1030912186,9.2099741874,3
110346,178430,236705,-3.5724841418,1.2753744458,9.224331123,4
110444,178414,236704,-3.4420753101,1.2993026717999998,9.0855474122,5
110503,178449,236665,-3.4719855926,1.3160524299999998,9.2626162846,6
110644,178438,236634,-3.4061829711000002,1.3674981159,9.1812603162,7
110719,178405,236651,-3.4037901484999997,1.3674981159,9.162117735399999,8
110516,178315,236544,-3.433700431,1.1557333158,9.1238325738,9
109927,178216,236440,-3.5401810367,1.3124631961,9.1633141467,10
109283,178152,236410,-3.3834511564,1.3914263419,9.1226361625,11
108846,178155,236453,-3.4983066412,1.2574282763000002,9.1740818484,12
108631,178178,236472,-3.4444681327,1.184447187,9.274580397600001,13
108554,178151,236450,-3.4971102299,1.3698909385,9.1908316066,14
108646,178252,236450,-3.4301111971,1.2681959779999998,9.0831545896,15
108848,178278,236503,-3.541377448,1.2825529136,9.2015993083,16
109108,178337,236524,-3.5868410774,1.1784651305,9.1896351953,17
109290,178336,236509,-3.4947174072999996,1.3842478741,9.1429751546,18
109432,178351,236537,-3.5557343836,1.3411770673,9.1453679772,19
109522,178354,236512,-3.4767712378,1.3375878334,9.1573320902,20
109610,178338,236526,-3.4947174072999996,1.2861421475,9.1836531388,21
109712,178326,236474,-3.4648071248,1.3579268255,9.1992064857,22
109812,178316,236516,-3.5138599880999997,1.3495519463999999,9.2135634213,23
109921,178351,236468,-3.4265219632000004,1.3328021881999998,9.1453679772,24
110010,178334,236500,-3.4540394231000002,1.2382856955,9.2925265671,25
110138,178353,236448,-3.6275190616,1.2466605746,9.1357966868,26
110203,178351,236409,-3.457628657,1.2658031554,9.0795653557,27
110314,178364,236473,-3.4169506728,1.2346964616,9.176474671,28
110426,178366,236439,-3.5186456333,1.280160091,9.164510558,29
110460,178344,236430,-3.4540394231000002,1.2789636797000001,9.2303131795,30
110182,178240,236313,-3.517449222,1.2155538808,9.131011041599999,31
109555,178144,236268,-3.3702906320999997,1.2370892842,9.1980100744,32
109053,178149,236259,-3.457628657,1.3603196481,9.1118684608,33
108819,178154,236264,-3.5138599880999997,1.3495519463999999,9.164510558,34
108719,178206,236290,-3.3535408739,1.2873385588,9.1597249128,35
108820,178227,236331,-3.5162528107,1.3016954943999999,9.1441715659,36
109020,178277,236345,-3.5222348672,1.2346964616,9.175278259699999,37
109253,178334,236382,-3.5210384559,1.2993026717999998,9.21236701,38
109429,178344,236386,-3.4301111971,1.2526426310999998,9.128618219,39
109529,178336,236349,-3.4767712378,1.1114660977,9.1597249128,40
109620,178361,236339,-3.46959277,1.2107682356,9.0879402348,41
109708,178333,236316,-3.5078779316,1.1330015010999999,9.2374916473,42
109770,178362,236332,-3.4947174072999996,1.220339526,9.224331123,43
109867,178375,236355,-3.5078779316,1.3435698899,9.2147598326,44
109980,178404,236367,-3.5425738593,1.1700902514,9.1022971704,45
110067,178378,236341,-3.4683963587,1.256231865,9.096315113900001,46
110185,178415,236363,-3.5042886977,1.1653046062,9.2147598326,47
110301,178400,236320,-3.409772205,1.3112667848,9.1692962032,48
110405,178425,236373,-3.5282169237,1.3052847283,9.188438784,49
110534,178430,236396,-3.3846475676999996,1.2921242039999998,9.224331123,50
110603,178442,236340,-3.4516466004999997,1.328016543,9.1070828156,51
110283,178259,236254,-3.4839497056,1.2741780345,9.1262253964,52
109551,178243,236186,-3.3774690999,1.2586246876,9.1740818484,53
108867,178186,236122,-3.5030922864000003,1.1940184774,9.176474671,54
108441,178154,236202,-3.5294133349999997,1.2705888006,9.1501536224,55
108191,178194,236186,-3.5796626096,1.2370892842,9.1477607998,56
108115,178200,236219,-3.517449222,1.3722837611,9.164510558,57
108120,178270,236272,-3.3930224468000003,1.3208380752,9.220741889100001,58
108333,178333,236291,-3.4636107135,1.3555340029,9.2566342281,59
108583,178350,236333,-3.46959277,1.2299108163999999,9.1860459614,60
108801,178387,236361,-3.4289147858,1.2610175101999999,9.037690960199999,61
108943,178406,236386,-3.4061829711000002,1.2837493249,9.1369930981,62
109060,178423,236386,-3.457628657,1.2681959779999998,9.116654106,63
109160,178455,236322,-3.4767712378,1.2837493249,9.2518485829,64
109168,178382,236325,-3.5150563993999997,1.3016954943999999,9.1812603162,65
108758,178318,236240,-3.5676984966,1.2981062605,9.1692962032,66
108152,178231,236235,-3.5150563993999997,1.2825529136,9.236295236,67
107761,178245,236219,-3.4648071248,1.3316057769,9.2793660428,68
107628,178249,236251,-3.5341989802,1.2167502921,9.1896351953,69
107626,178256,236281,-3.5401810367,1.2993026717999998,9.2685983411,70
107803,178316,236283,-3.3918260355000003,1.2167502921,9.109475638200001,71
108081,178390,236307,-3.517449222,1.2945170266,9.1238325738,72
108343,178412,236377,-3.5150563993999997,1.3351950108,9.1872423727,73
108526,178407,236375,-3.5557343836,1.2729816232,9.2279203569,74
108649,178442,236364,-3.3643085755999995,1.2873385588,9.1334038642,75
108764,178469,236355,-3.3523444626,1.2681959779999998,9.2171526552,76
108864,178440,236349,-3.5988051904000002,1.3627124707,9.1453679772,77
108983,178467,236380,-3.3200413575,1.280160091,9.2111705987,78
109073,178516,236348,-3.5294133349999997,1.2849457361999999,9.1836531388,79
109193,178470,236387,-3.4205399067,1.2275179938,9.109475638200001,80
109298,178500,236381,-3.6837503927,1.3914263419,9.152546445,81
109411,178516,236417,-3.4277183745,1.2873385588,9.1597249128,82
109520,178526,236366,-3.505485109,1.2765708571,9.1812603162,83
109638,178518,236359,-3.4504501892,1.3148560187,9.1776710823,84
109799,178515,236352,-3.5006994637999997,1.1928220661,9.1357966868,85
109847,178499,236384,-3.5282169237,1.3292129543,9.152546445,86
109927,178547,236374,-3.4612178908999995,1.3136596074,9.2111705987,87
110049,178561,236401,-3.4205399067,1.3399806559999998,9.175278259699999,88
110097,178565,236327,-3.5581272062,1.2789636797000001,9.1836531388,89
110244,178542,236310,-3.5341989802,1.3196416639,9.1932244292,90
110313,178551,236381,-3.5437702705999996,1.2789636797000001,9.1920280179,91
110446,178539,236384,-3.4193434953999997,1.2047861791,9.2099741874,92
110433,178512,236322,-3.5940195452,1.1353943237,9.1334038642,93
109919,178382,236194,-3.6023944243,1.3028919057000001,9.1561356789,94
108999,178268,236125,-3.4671999473999997,1.3016954943999999,9.131011041599999,95
108225,178222,236136,-3.4253255519,1.1940184774,9.0352981376,96
107729,178226,236106,-3.4277183745,1.3064811396,9.1381895094,97
107415,178235,236107,-3.5509487384000002,1.2945170266,9.095118702599999,98
107291,178261,236169,-3.5150563993999997,1.3399806559999998,9.1836531388,99
107316,178280,236216,-3.3942188581,1.220339526,9.200402897,100
107510,178339,236233,-3.4887353508000003,1.2538390423999999,9.042476605400001,101
107747,178382,236264,-3.5138599880999997,1.2514462198,9.164510558,102
107963,178426,236241,-3.4660035360999997,1.3495519463999999,9.2027957196,103
108082,178415,236281,-3.6454652310999998,1.3794622289,9.2015993083,104
108181,178437,236318,-3.5270205124,1.4213366244,9.242277292499999,105
108253,178433,236265,-3.5006994637999997,1.387837108,9.2374916473,106
108329,178459,236232,-3.4073793824000003,1.4392827939,9.176474671,107
108425,178439,236259,-3.4995030524999997,1.2574282763000002,9.1429751546,108
108525,178468,236261,-3.445664544,1.304088317,9.1812603162,109
108612,178454,236243,-3.5294133349999997,1.3339985995,9.1190469286,110
108702,178474,236248,-3.5569307949000004,1.3052847283,9.0903330574,111
108813,178474,236200,-3.4133614389,1.3184452526,9.131011041599999,112
108900,178465,236220,-3.4181470840999997,1.1353943237,9.1549392676,113
108992,178450,236213,-3.445664544,1.3399806559999998,9.109475638200001,114
109110,178481,236234,-3.5078779316,1.4668002538,9.116654106,115
109153,178451,236195,-3.4923245847,1.3292129543,9.2709911637,116
108806,178339,236108,-3.5557343836,1.148554848,9.010173500299999,117
108062,178219,236028,-3.4983066412,1.2490533972,9.2159562439,118
107463,178192,235997,-3.4671999473999997,1.3459627125,9.108279226899999,119
107146,178176,236010,-3.5150563993999997,1.2658031554,9.1992064857,120
106992,178165,235977,-3.4313076084,1.2514462198,9.2350988247,121
106992,178211,236037,-3.5617164401,1.2753744458,9.096315113900001,122
107132,178281,236068,-3.5006994637999997,1.2382856955,9.1417787433,123
107359,178340,236097,-3.5437702705999996,1.1545369045,9.0676012427,124
107615,178381,236113,-3.4384860762,1.1676974288,9.1728854371,125
107745,178344,236128,-3.4791640604,1.2765708571,9.2219383004,126
107886,178385,236115,-3.4719855926,1.3615160593999998,9.1070828156,127
107979,178382,236087,-3.4109686163,1.2275179938,9.1501536224,128
108079,178392,236084,-3.5042886977,1.1629117836,9.2267239456,129
108183,178399,236084,-3.4887353508000003,1.3148560187,9.2757768089,130
108301,178409,236094,-3.4887353508000003,1.2251251712,9.1692962032,131
108417,178415,236087,-3.6000016017000003,1.2957134379000002,9.1896351953,132
108523,178405,236090,-3.5461630932,1.3088739621999999,9.2566342281,133
108619,178401,236055,-3.5461630932,1.3088739621999999,9.2566342281,134
108741,178444,236106,-3.5461630932,1.3088739621999999,9.2566342281,135
108849,178434,236074,-3.5461630932,1.3088739621999999,9.2566342281,136
108980,178433,236065,-3.5461630932,1.3088739621999999,9.2566342281,137
108927,178387,236015,-3.5461630932,1.3088739621999999,9.2566342281,138
108433,178247,235933,-3.5461630932,1.3088739621999999,9.2566342281,139
107772,178214,235856,-3.5461630932,1.3088739621999999,9.2566342281,140
107358,178207,235913,-3.5461630932,1.3088739621999999,9.2566342281,141
107162,178254,235880,-3.5461630932,1.3088739621999999,9.2566342281,142
107141,178244,235918,-3.5461630932,1.3088739621999999,9.2566342281,143
107253,178288,235976,-3.5461630932,1.3088739621999999,9.2566342281,144
107500,178364,236014,-3.5461630932,1.3088739621999999,9.2566342281,145
107761,178379,236047,-3.5461630932,1.3088739621999999,9.2566342281,146
107972,178399,236055,-3.5461630932,1.3088739621999999,9.2566342281,147
108109,178444,236073,-3.5461630932,1.3088739621999999,9.2566342281,148
108258,178441,236102,-3.5461630932,1.3088739621999999,9.2566342281,149
108351,178463,236104,-3.5461630932,1.3088739621999999,9.2566342281,150
108435,178447,236065,-3.5461630932,1.3088739621999999,9.2566342281,151
108155,178393,236024,-3.5461630932,1.3088739621999999,9.2566342281,152
107538,178297,235965,-3.5461630932,1.3088739621999999,9.2566342281,153
107116,178247,235949,-3.5461630932,1.3088739621999999,9.2566342281,154
106940,178245,235976,-3.5461630932,1.3088739621999999,9.2566342281,155
106898,178294,235978,-3.5461630932,1.3088739621999999,9.2566342281,156
107024,178298,236021,-3.5461630932,1.3088739621999999,9.2566342281,157
107256,178396,236063,-3.5461630932,1.3088739621999999,9.2566342281,158
107553,178424,236110,-3.5461630932,1.3088739621999999,9.2566342281,159
107814,178491,236159,-3.5461630932,1.3088739621999999,9.2566342281,160
107986,178475,236160,-3.5461630932,1.2538390423999999,9.2231347117,161
108088,178504,236141,-3.5461630932,1.2538390423999999,9.2231347117,162
108241,178514,236172,-3.5461630932,1.2538390423999999,9.2231347117,163
108324,178509,236159,-3.5461630932,1.2538390423999999,9.2231347117,164
108452,178522,236186,-3.5461630932,1.2538390423999999,9.2231347117,165
108561,178541,236159,-3.5461630932,1.2538390423999999,9.2231347117,166
108716,178569,236145,-3.5461630932,1.2538390423999999,9.2231347117,167
108841,178559,236175,-3.5461630932,1.2538390423999999,9.2231347117,168
108954,178597,236184,-3.5461630932,1.2538390423999999,9.2231347117,169
109088,178563,236160,-3.5461630932,1.2538390423999999,9.2231347117,170
109204,178587,236186,-3.5461630932,1.2538390423999999,9.2231347117,171
109299,178585,236157,-3.5461630932,1.2538390423999999,9.2231347117,172
109405,178609,236173,-3.5461630932,1.2538390423999999,9.2231347117,173
109528,178584,236179,-3.5461630932,1.2538390423999999,9.2231347117,174
109621,178596,236185,-3.5461630932,1.2538390423999999,9.2231347117,175
109725,178616,236159,-3.5461630932,1.2538390423999999,9.2231347117,176
109807,178629,236202,-3.5461630932,1.2538390423999999,9.2231347117,177
109926,178629,236147,-3.5461630932,1.2538390423999999,9.2231347117,178
109851,178543,236103,-3.5461630932,1.2538390423999999,9.2231347117,179
109168,178403,235989,-3.5461630932,1.2538390423999999,9.2231347117,180
108283,178327,235935,-3.5461630932,1.2538390423999999,9.2231347117,181
107643,178269,235907,-3.5461630932,1.2538390423999999,9.2231347117,182
107214,178249,235914,-3.5461630932,1.2538390423999999,9.2231347117,183
107017,178248,235905,-3.5461630932,1.2538390423999999,9.2231347117,184
106960,178274,235927,-3.5461630932,1.2538390423999999,9.2231347117,185
107074,178336,235984,-3.5461630932,1.2538390423999999,9.2231347117,186
107341,178445,236003,-3.5461630932,1.2538390423999999,9.2231347117,187
107616,178463,236055,-3.5461630932,1.2538390423999999,9.2231347117,188
107874,178492,236060,-3.5461630932,1.2538390423999999,9.2231347117,189
108028,178487,236078,-3.5461630932,1.2538390423999999,9.2231347117,190
108167,178507,236060,-3.5461630932,1.2538390423999999,9.2231347117,191
108294,178523,236086,-3.5461630932,1.2538390423999999,9.2231347117,192
108396,178539,236108,-3.3631121643,1.1916256548,9.162117735399999,193
108515,178531,236117,-3.3631121643,1.1916256548,9.162117735399999,194
108626,178549,236140,-3.3631121643,1.1916256548,9.162117735399999,195
108765,178549,236103,-3.3631121643,1.1916256548,9.162117735399999,196
108830,178586,236112,-3.3631121643,1.1916256548,9.162117735399999,197
108941,178567,236109,-3.3631121643,1.1916256548,9.162117735399999,198
109044,178561,236120,-3.5880374887,1.4751751328999998,9.1250289851,199
109139,178601,236113,-3.5880374887,1.4751751328999998,9.1250289851,200
109186,178586,236115,-3.5880374887,1.4751751328999998,9.1250289851,201
108925,178454,236010,-3.5880374887,1.4751751328999998,9.1250289851,202
108186,178346,235956,-3.5880374887,1.4751751328999998,9.1250289851,203
107447,178251,235892,-3.5880374887,1.4751751328999998,9.1250289851,204
107005,178231,235861,-3.5880374887,1.4751751328999998,9.1250289851,205
106746,178234,235860,-3.5880374887,1.4751751328999998,9.1250289851,206
106646,178251,235852,-3.5880374887,1.4751751328999998,9.1250289851,207
106671,178269,235875,-3.5880374887,1.4751751328999998,9.1250289851,208
106871,178355,235922,-3.5880374887,1.4751751328999998,9.1250289851,209
107154,178362,235992,-3.5880374887,1.4751751328999998,9.1250289851,210
107374,178391,235966,-3.5880374887,1.4751751328999998,9.1250289851,211
107540,178396,235959,-3.5880374887,1.4751751328999998,9.1250289851,212
107664,178419,235946,-3.5880374887,1.4751751328999998,9.1250289851,213
107764,178415,236010,-3.5880374887,1.4751751328999998,9.1250289851,214
107871,178424,235968,-3.5880374887,1.4751751328999998,9.1250289851,215
107816,178412,235918,-3.5880374887,1.4751751328999998,9.1250289851,216
107420,178301,235863,-3.5880374887,1.4751751328999998,9.1250289851,217
106994,178259,235842,-3.5880374887,1.4751751328999998,9.1250289851,218
106776,178269,235826,-3.5880374887,1.4751751328999998,9.1250289851,219
106813,178283,235902,-3.5880374887,1.4751751328999998,9.1250289851,220
107034,178366,235862,-3.5880374887,1.4751751328999998,9.1250289851,221
107347,178384,235934,-3.5880374887,1.4751751328999998,9.1250289851,222
107589,178398,235924,-3.5880374887,1.4751751328999998,9.1250289851,223
107731,178415,235959,-3.5880374887,1.4751751328999998,9.1250289851,224
107825,178405,235977,-3.5880374887,1.4751751328999998,9.1250289851,225
107933,178411,235924,-3.5880374887,1.4751751328999998,9.1250289851,226
108007,178410,235931,-3.5880374887,1.4751751328999998,9.1250289851,227
108113,178423,235934,-3.5880374887,1.4751751328999998,9.1250289851,228
108212,178435,235961,-3.5880374887,1.4751751328999998,9.1250289851,229
108329,178453,235959,-3.5880374887,1.4751751328999998,9.1250289851,230
108353,178416,235882,-3.5880374887,1.4751751328999998,9.1250289851,231
107815,178288,235832,-3.5880374887,1.4751751328999998,9.1250289851,232
107026,178204,235762,-3.5880374887,1.4751751328999998,9.1250289851,233
106496,178191,235702,-3.5880374887,1.4751751328999998,9.1250289851,234
106213,178183,235744,-3.5880374887,1.4751751328999998,9.1250289851,235
106119,178173,235803,-3.5880374887,1.4751751328999998,9.1250289851,236
106200,178230,235812,-3.5880374887,1.4751751328999998,9.1250289851,237
106439,178269,235856,-3.5880374887,1.4751751328999998,9.1250289851,238
106774,178329,235910,-3.5880374887,1.4751751328999998,9.1250289851,239
107074,178380,235934,-3.5880374887,1.4751751328999998,9.1250289851,240
109432,178569,236037,-3.4301111971,1.3088739621999999,9.116654106,241
109475,178577,236024,-3.4301111971,1.3088739621999999,9.116654106,242
109309,178454,235940,-3.4301111971,1.3088739621999999,9.116654106,243
108478,178291,235812,-3.4301111971,1.3088739621999999,9.116654106,244
107479,178194,235747,-3.4301111971,1.3088739621999999,9.116654106,245
106774,178114,235685,-3.4301111971,1.3088739621999999,9.116654106,246
106317,178105,235675,-3.4301111971,1.3088739621999999,9.116654106,247
106078,178086,235693,-3.4301111971,1.3088739621999999,9.116654106,248
106030,178100,235750,-3.4301111971,1.3088739621999999,9.116654106,249
106141,178156,235747,-3.4301111971,1.3088739621999999,9.116654106,250
106424,178202,235783,-3.4301111971,1.3088739621999999,9.116654106,251
106746,178268,235846,-3.4301111971,1.3088739621999999,9.116654106,252
107004,178291,235865,-3.4301111971,1.3088739621999999,9.116654106,253
107169,178304,235926,-3.4301111971,1.3088739621999999,9.116654106,254
107311,178347,235902,-3.4301111971,1.3088739621999999,9.116654106,255
107441,178350,235919,-3.4301111971,1.3088739621999999,9.116654106,256
107550,178379,235923,-3.4301111971,1.3088739621999999,9.116654106,257
107714,178401,235949,-3.4301111971,1.3088739621999999,9.116654106,258
107834,178468,236000,-3.4301111971,1.3088739621999999,9.116654106,259
107979,178481,235991,-3.4301111971,1.3088739621999999,9.116654106,260
108083,178482,236007,-3.4301111971,1.3088739621999999,9.116654106,261
108220,178501,235973,-3.4301111971,1.3088739621999999,9.116654106,262
108344,178511,235964,-3.4301111971,1.3088739621999999,9.116654106,263
108421,178469,235960,-3.4301111971,1.3088739621999999,9.116654106,264
108012,178348,235863,-3.4301111971,1.3088739621999999,9.116654106,265
107191,178232,235781,-3.4301111971,1.3088739621999999,9.116654106,266
106520,178180,235745,-3.4301111971,1.3088739621999999,9.116654106,267
106111,178150,235714,-3.4301111971,1.3088739621999999,9.116654106,268
105927,178121,235707,-3.4301111971,1.3088739621999999,9.116654106,269
105885,178126,235756,-3.4301111971,1.3088739621999999,9.116654106,270
106005,178201,235845,-3.4301111971,1.3088739621999999,9.116654106,271
106282,178271,235868,-3.4301111971,1.3088739621999999,9.116654106,272
106603,178269,235862,-3.4301111971,1.3088739621999999,9.116654106,273
106881,178328,235914,-3.4301111971,1.3088739621999999,9.116654106,274
107087,178372,235903,-3.4301111971,1.3088739621999999,9.116654106,275
107214,178347,235912,-3.4301111971,1.3088739621999999,9.116654106,276
107330,178362,235879,-3.4301111971,1.3088739621999999,9.116654106,277
107356,178320,235869,-3.4301111971,1.3088739621999999,9.116654106,278
106969,178241,235801,-3.4301111971,1.3088739621999999,9.116654106,279
106409,178150,235763,-3.4301111971,1.3088739621999999,9.116654106,280
106084,178160,235763,-3.4301111971,1.3088739621999999,9.116654106,281
106048,178138,235799,-3.4301111971,1.3088739621999999,9.116654106,282
107856,178349,235864,-3.4731820039,1.1306086785,9.1920280179,283
107283,178181,235795,-3.4731820039,1.1306086785,9.1920280179,284
106615,178110,235704,-3.4731820039,1.1306086785,9.1920280179,285
106258,178115,235716,-3.4731820039,1.1306086785,9.1920280179,286
106151,178101,235729,-3.4731820039,1.1306086785,9.1920280179,287
106167,178121,235790,-3.4731820039,1.1306086785,9.1920280179,288
106409,178157,235786,-3.4731820039,1.1306086785,9.1920280179,289
106725,178224,235840,-3.4731820039,1.1306086785,9.1920280179,290
107009,178240,235855,-3.4731820039,1.1306086785,9.1920280179,291
107204,178285,235879,-3.4731820039,1.1306086785,9.1920280179,292
107347,178302,235905,-3.4731820039,1.1306086785,9.1920280179,293
107475,178303,235916,-3.4731820039,1.1306086785,9.1920280179,294
107593,178309,235914,-3.4731820039,1.1306086785,9.1920280179,295
107742,178319,235898,-3.4731820039,1.1306086785,9.1920280179,296
107891,178346,235935,-3.4731820039,1.1306086785,9.1920280179,297
107966,178334,235904,-3.4731820039,1.1306086785,9.1920280179,298
107562,178229,235838,-3.4731820039,1.1306086785,9.1920280179,299
106862,178165,235773,-3.4731820039,1.1306086785,9.1920280179,300
106437,178140,235746,-3.4731820039,1.1306086785,9.1920280179,301
106226,178108,235779,-3.4731820039,1.1306086785,9.1920280179,302
106219,178137,235807,-3.4731820039,1.1306086785,9.1920280179,303
106382,178164,235832,-3.4731820039,1.1306086785,9.1920280179,304
106696,178220,235886,-3.4731820039,1.1306086785,9.1920280179,305
107039,178261,235915,-3.4731820039,1.1306086785,9.1920280179,306
107326,178276,235949,-3.4731820039,1.1306086785,9.1920280179,307
107515,178338,235930,-3.4731820039,1.1306086785,9.1920280179,308
107662,178326,235962,-3.5042886977,1.5050854154,8.985048863000001,309
107804,178335,235933,-3.5042886977,1.5050854154,8.985048863000001,310
107946,178384,235977,-3.5042886977,1.5050854154,8.985048863000001,311
108111,178381,235988,-3.5042886977,1.5050854154,8.985048863000001,312
108189,178344,235997,-3.5042886977,1.5050854154,8.985048863000001,313
107746,178267,235849,-3.5042886977,1.5050854154,8.985048863000001,314
106982,178100,235816,-3.5042886977,1.5050854154,8.985048863000001,315
106461,178096,235769,-3.5042886977,1.5050854154,8.985048863000001,316
106214,178052,235737,-3.5042886977,1.5050854154,8.985048863000001,317
106149,178075,235801,-3.5042886977,1.5050854154,8.985048863000001,318
106187,178084,235796,-3.5042886977,1.5050854154,8.985048863000001,319
106408,178123,235826,-3.5042886977,1.5050854154,8.985048863000001,320
106745,178200,235855,-3.5042886977,1.5050854154,8.985048863000001,321
107051,178201,235874,-3.5042886977,1.5050854154,8.985048863000001,322
107256,178236,235897,-3.5042886977,1.5050854154,8.985048863000001,323
107394,178243,235904,-3.5042886977,1.5050854154,8.985048863000001,324
107553,178279,235920,-3.5042886977,1.5050854154,8.985048863000001,325
107727,178277,235945,-3.5042886977,1.5050854154,8.985048863000001,326
107910,178321,235969,-3.5042886977,1.5050854154,8.985048863000001,327
108058,178306,235992,-3.5042886977,1.5050854154,8.985048863000001,328
107942,178260,235941,-3.4348968423,1.4368899712999998,9.1334038642,329
107298,178152,235835,-3.4348968423,1.4368899712999998,9.1334038642,330
106662,178082,235824,-3.4348968423,1.4368899712999998,9.1334038642,331
106320,178071,235838,-3.4348968423,1.4368899712999998,9.1334038642,332
106169,178109,235815,-3.4348968423,1.4368899712999998,9.1334038642,333
106183,178118,235892,-3.4348968423,1.4368899712999998,9.1334038642,334
106370,178112,235876,-3.4348968423,1.4368899712999998,9.1334038642,335
106673,178211,235928,-3.4348968423,1.4368899712999998,9.1334038642,336
107004,178263,236009,-3.4348968423,1.4368899712999998,9.1334038642,337
107312,178312,236000,-3.4348968423,1.4368899712999998,9.1334038642,338
107485,178327,236062,-3.4348968423,1.4368899712999998,9.1334038642,339
107618,178346,236027,-3.4348968423,1.4368899712999998,9.1334038642,340
107769,178345,236034,-3.4348968423,1.4368899712999998,9.1334038642,341
107896,178364,236040,-3.4348968423,1.4368899712999998,9.1334038642,342
108068,178369,236051,-3.4348968423,1.4368899712999998,9.1334038642,343
108171,178363,236084,-3.4348968423,1.4368899712999998,9.1334038642,344
107841,178271,235980,-3.4348968423,1.4368899712999998,9.1334038642,345
107096,178169,235913,-3.4348968423,1.4368899712999998,9.1334038642,346
106544,178121,235872,-3.4348968423,1.4368899712999998,9.1334038642,347
106299,178119,235861,-3.4348968423,1.4368899712999998,9.1334038642,348
106258,178128,235872,-3.4348968423,1.4368899712999998,9.1334038642,349
106339,178150,235929,-3.4348968423,1.4368899712999998,9.1334038642,350
106575,178235,235961,-3.4348968423,1.4368899712999998,9.1334038642,351
106912,178267,236009,-3.4348968423,1.4368899712999998,9.1334038642,352
107221,178276,236005,-3.4348968423,1.4368899712999998,9.1334038642,353
107400,178298,236013,-3.4348968423,1.4368899712999998,9.1334038642,354
107545,178293,236073,-3.4348968423,1.4368899712999998,9.1334038642,355
107670,178326,236039,-3.4348968423,1.4368899712999998,9.1334038642,356
107777,178353,236031,-3.4348968423,1.4368899712999998,9.1334038642,357
107920,178349,236074,-3.4348968423,1.4368899712999998,9.1334038642,358
108057,178345,236041,-3.4348968423,1.4368899712999998,9.1334038642,359
108080,178322,236010,-3.4348968423,1.4368899712999998,9.1334038642,360
107547,178191,235909,-3.5856446661000003,1.3890335193,9.2350988247,361
106831,178097,235857,-3.5856446661000003,1.3890335193,9.2350988247,362
106417,178064,235794,-3.5856446661000003,1.3890335193,9.2350988247,363
106251,178089,235853,-3.5856446661000003,1.3890335193,9.2350988247,364
106259,178065,235838,-3.5856446661000003,1.3890335193,9.2350988247,365
106425,178109,235862,-3.5856446661000003,1.3890335193,9.2350988247,366
106727,178186,235912,-3.5856446661000003,1.3890335193,9.2350988247,367
107034,178223,235949,-3.5856446661000003,1.3890335193,9.2350988247,368
107265,178231,235973,-3.5856446661000003,1.3890335193,9.2350988247,369
107409,178245,235954,-3.5856446661000003,1.3890335193,9.2350988247,370
107503,178227,235965,-3.5856446661000003,1.3890335193,9.2350988247,371
107629,178256,235899,-3.5856446661000003,1.3890335193,9.2350988247,372
107763,178252,235959,-3.5856446661000003,1.3890335193,9.2350988247,373
107890,178281,235966,-3.5856446661000003,1.3890335193,9.2350988247,374
108051,178298,235974,-3.5856446661000003,1.3890335193,9.2350988247,375
108088,178253,235902,-3.5856446661000003,1.3890335193,9.2350988247,376
107679,178109,235827,-3.5856446661000003,1.3890335193,9.2350988247,377
107043,178044,235758,-3.5856446661000003,1.3890335193,9.2350988247,378
106699,178064,235780,-3.5856446661000003,1.3890335193,9.2350988247,379
106603,178068,235785,-3.5856446661000003,1.3890335193,9.2350988247,380
106682,178104,235798,-3.5856446661000003,1.3890335193,9.2350988247,381
106936,178164,235810,-3.5856446661000003,1.3890335193,9.2350988247,382
107250,178198,235844,-3.5856446661000003,1.3890335193,9.2350988247,383
107489,178195,235874,-3.5856446661000003,1.3890335193,9.2350988247,384
107664,178215,235870,-3.5856446661000003,1.3890335193,9.2350988247,385
107775,178251,235867,-3.5856446661000003,1.3890335193,9.2350988247,386
107872,178223,235868,-3.5856446661000003,1.3890335193,9.2350988247,387
108003,178233,235858,-3.5856446661000003,1.3890335193,9.2350988247,388
108118,178255,235859,-3.5856446661000003,1.3890335193,9.2350988247,389
108286,178249,235849,-3.5856446661000003,1.3890335193,9.2350988247,390
108390,178243,235859,-3.5856446661000003,1.3890335193,9.2350988247,391
108359,178189,235796,-3.5856446661000003,1.3890335193,9.2350988247,392
107855,178089,235702,-3.5856446661000003,1.3890335193,9.2350988247,393
107261,178018,235680,-3.5856446661000003,1.3890335193,9.2350988247,394
106945,178062,235673,-3.5856446661000003,1.3890335193,9.2350988247,395
106840,178091,235697,-3.5856446661000003,1.3890335193,9.2350988247,396
106871,178086,235734,-3.5856446661000003,1.3890335193,9.2350988247,397
107085,178147,235781,-3.5856446661000003,1.3890335193,9.2350988247,398
107388,178185,235804,-3.5856446661000003,1.3890335193,9.2350988247,399
107662,178229,235772,-3.5856446661000003,1.3890335193,9.2350988247,400
107871,178232,235828,-3.5856446661000003,1.3890335193,9.2350988247,401
108009,178263,235849,-3.5856446661000003,1.3890335193,9.2350988247,402
108626,178300,235849,-3.553341561,1.4153545679,9.0855474122,403
108781,178337,235888,-3.553341561,1.4153545679,9.0855474122,404
108598,178273,235834,-3.553341561,1.4153545679,9.0855474122,405
107901,178133,235740,-3.553341561,1.4153545679,9.0855474122,406
107201,178100,235701,-3.553341561,1.4153545679,9.0855474122,407
106836,178072,235722,-3.553341561,1.4153545679,9.0855474122,408
106684,178104,235734,-3.553341561,1.4153545679,9.0855474122,409
106690,178092,235731,-3.553341561,1.4153545679,9.0855474122,410
106830,178152,235786,-3.553341561,1.4153545679,9.0855474122,411
107112,178189,235836,-3.553341561,1.4153545679,9.0855474122,412
107481,178273,235889,-3.553341561,1.4153545679,9.0855474122,413
107751,178262,235923,-3.553341561,1.4153545679,9.0855474122,414
107944,178316,235910,-3.553341561,1.4153545679,9.0855474122,415
108056,178292,235937,-3.553341561,1.4153545679,9.0855474122,416
108173,178299,235891,-3.553341561,1.4153545679,9.0855474122,417
108308,178329,235906,-3.553341561,1.4153545679,9.0855474122,418
108463,178336,235887,-3.553341561,1.4153545679,9.0855474122,419
108599,178380,235922,-3.553341561,1.4153545679,9.0855474122,420
108605,178298,235844,-3.553341561,1.4153545679,9.0855474122,421
108032,178180,235784,-3.553341561,1.4153545679,9.0855474122,422
107247,178097,235685,-3.553341561,1.4153545679,9.0855474122,423
106797,178079,235722,-3.553341561,1.4153545679,9.0855474122,424
106574,178098,235714,-3.553341561,1.4153545679,9.0855474122,425
106515,178146,235759,-3.553341561,1.4153545679,9.0855474122,426
106609,178142,235775,-3.553341561,1.4153545679,9.0855474122,427
106908,178240,235825,-3.553341561,1.4153545679,9.0855474122,428
107268,178308,235839,-3.553341561,1.4153545679,9.0855474122,429
107578,178334,235925,-3.553341561,1.4153545679,9.0855474122,430
107790,178324,235926,-3.553341561,1.4153545679,9.0855474122,431
107931,178313,235905,-3.553341561,1.4153545679,9.0855474122,432
108041,178364,235949,-3.553341561,1.4153545679,9.0855474122,433
108180,178351,235933,-3.553341561,1.4153545679,9.0855474122,434
108347,178365,235946,-3.553341561,1.4153545679,9.0855474122,435
108503,178385,235960,-3.553341561,1.4153545679,9.0855474122,436
108570,178372,235919,-3.553341561,1.4153545679,9.0855474122,437
108137,178250,235832,-3.553341561,1.4153545679,9.0855474122,438
107318,178159,235723,-3.553341561,1.4153545679,9.0855474122,439
106735,178143,235737,-3.553341561,1.4153545679,9.0855474122,440
106481,178143,235713,-3.553341561,1.4153545679,9.0855474122,441
106431,178173,235731,-3.553341561,1.4153545679,9.0855474122,442
106497,178164,235798,-3.553341561,1.4153545679,9.0855474122,443
106769,178238,235833,-3.553341561,1.4153545679,9.0855474122,444
106956,178155,235497,-3.565305674,1.280160091,9.1597249128,445
106845,178149,235542,-3.565305674,1.280160091,9.1597249128,446
106887,178183,235568,-3.565305674,1.280160091,9.1597249128,447
107063,178262,235594,-3.565305674,1.280160091,9.1597249128,448
107362,178289,235655,-3.565305674,1.280160091,9.1597249128,449
107614,178318,235670,-3.565305674,1.280160091,9.1597249128,450
107810,178392,235702,-3.565305674,1.280160091,9.1597249128,451
107900,178364,235712,-3.565305674,1.280160091,9.1597249128,452
108012,178377,235721,-3.565305674,1.280160091,9.1597249128,453
108118,178401,235750,-3.565305674,1.280160091,9.1597249128,454
108231,178402,235754,-3.565305674,1.280160091,9.1597249128,455
108347,178391,235697,-3.565305674,1.280160091,9.1597249128,456
108454,178395,235724,-3.565305674,1.280160091,9.1597249128,457
108560,178418,235731,-3.565305674,1.280160091,9.1597249128,458
108668,178414,235725,-3.565305674,1.280160091,9.1597249128,459
108776,178422,235726,-3.565305674,1.280160091,9.1597249128,460
108863,178461,235755,-3.565305674,1.280160091,9.1597249128,461
108980,178481,235720,-3.565305674,1.280160091,9.1597249128,462
109049,178432,235712,-3.565305674,1.280160091,9.1597249128,463
108723,178348,235642,-3.565305674,1.280160091,9.1597249128,464
107884,178209,235577,-3.565305674,1.280160091,9.1597249128,465
107084,178140,235527,-3.565305674,1.280160091,9.1597249128,466
106550,178151,235515,-3.565305674,1.280160091,9.1597249128,467
106236,178140,235489,-3.565305674,1.280160091,9.1597249128,468
106097,178166,235591,-3.565305674,1.280160091,9.1597249128,469
106127,178179,235570,-3.565305674,1.280160091,9.1597249128,470
106348,178245,235640,-3.565305674,1.280160091,9.1597249128,471
106650,178281,235678,-3.565305674,1.280160091,9.1597249128,472
106949,178321,235730,-3.565305674,1.280160091,9.1597249128,473
107145,178336,235720,-3.565305674,1.280160091,9.1597249128,474
107302,178342,235730,-3.565305674,1.280160091,9.1597249128,475
107401,178374,235755,-3.565305674,1.280160091,9.1597249128,476
107529,178355,235752,-3.565305674,1.280160091,9.1597249128,477
107646,178397,235776,-3.565305674,1.280160091,9.1597249128,478
107770,178396,235744,-3.565305674,1.280160091,9.1597249128,479
107877,178435,235795,-3.565305674,1.280160091,9.1597249128,480
107991,178453,235773,-3.565305674,1.280160091,9.1597249128,481
108084,178430,235758,-3.565305674,1.280160091,9.1597249128,482
108229,178462,235751,-3.565305674,1.280160091,9.1597249128,483
108343,178463,235805,-3.565305674,1.280160091,9.1597249128,484
108301,178420,235730,-3.565305674,1.280160091,9.1597249128,485
107694,178315,235604,-3.565305674,1.280160091,9.1597249128,486
107940,178360,235941,-3.4875389395,1.3004990831,9.2087777761,487
107379,178225,235854,-3.4875389395,1.3004990831,9.2087777761,488
106624,178117,235780,-3.4875389395,1.3004990831,9.2087777761,489
106209,178066,235803,-3.4875389395,1.3004990831,9.2087777761,490
106016,178047,235780,-3.4875389395,1.3004990831,9.2087777761,491
105981,178111,235806,-3.4875389395,1.3004990831,9.2087777761,492
106093,178125,235826,-3.4875389395,1.3004990831,9.2087777761,493
106385,178204,235921,-3.4875389395,1.3004990831,9.2087777761,494
106744,178261,235959,-3.4875389395,1.3004990831,9.2087777761,495
107061,178294,235952,-3.4875389395,1.3004990831,9.2087777761,496
107276,178323,236002,-3.4875389395,1.3004990831,9.2087777761,497
107444,178311,236003,-3.4875389395,1.3004990831,9.2087777761,498
107586,178338,236017,-3.4875389395,1.3004990831,9.2087777761,499
107731,178348,236005,-3.4875389395,1.3004990831,9.2087777761,500
107868,178389,236031,-3.4875389395,1.3004990831,9.2087777761,501
108027,178402,236024,-3.4875389395,1.3004990831,9.2087777761,502
108051,178355,235971,-3.4875389395,1.3004990831,9.2087777761,503
107556,178196,235929,-3.4875389395,1.3004990831,9.2087777761,504
106810,178150,235847,-3.4875389395,1.3004990831,9.2087777761,505
106347,178093,235837,-3.4875389395,1.3004990831,9.2087777761,506
106171,178093,235822,-3.4875389395,1.3004990831,9.2087777761,507
106144,178098,235859,-3.4875389395,1.3004990831,9.2087777761,508
106278,178140,235904,-3.4875389395,1.3004990831,9.2087777761,509
106551,178204,235929,-3.4875389395,1.3004990831,9.2087777761,510
106926,178242,235991,-3.4875389395,1.3004990831,9.2087777761,511
107228,178311,236075,-3.4875389395,1.3004990831,9.2087777761,512
107432,178334,235991,-3.4875389395,1.3004990831,9.2087777761,513
107581,178318,236029,-3.4875389395,1.3004990831,9.2087777761,514
107703,178335,236054,-3.4875389395,1.3004990831,9.2087777761,515
107816,178319,236052,-3.4875389395,1.3004990831,9.2087777761,516
107938,178368,236053,-3.4875389395,1.3004990831,9.2087777761,517
108106,178345,236065,-3.4875389395,1.3004990831,9.2087777761,518
108131,178343,236017,-3.5641092626999997,1.2634103328,9.1860459614,519
107669,178166,235923,-3.5641092626999997,1.2634103328,9.1860459614,520
106950,178116,235853,-3.5641092626999997,1.2634103328,9.1860459614,521
106485,178064,235840,-3.5641092626999997,1.2634103328,9.1860459614,522
106300,178063,235847,-3.5641092626999997,1.2634103328,9.1860459614,523
106278,178060,235828,-3.5641092626999997,1.2634103328,9.1860459614,524
106430,178110,235871,-3.5150563993999997,1.3447663012,9.1908316066,525
106710,178156,235920,-3.5150563993999997,1.3447663012,9.1908316066,526
107037,178234,235962,-3.5569307949000004,1.3579268255,9.104689993,527
107341,178201,235964,-3.6000016017000003,1.3411770673,9.1501536224,528
107458,178252,235982,-3.6382867633,1.3292129543,9.1728854371,529
107578,178232,235938,-3.4887353508000003,1.3160524299999998,9.1944208405,530
107691,178239,235991,-3.5904303113,1.3160524299999998,9.1561356789,531
107809,178265,235950,-3.5030922864000003,1.2729816232,9.1022971704,532
107972,178286,235960,-3.6598221666999997,1.3651052933,9.1190469286,533
108115,178280,235942,-3.6993037396,1.2634103328,9.1848495501,534
108176,178236,235953,-3.5006994637999997,1.3411770673,9.2638126959,535
107811,178150,235858,-3.5557343836,1.1509476706000001,9.1549392676,536
107216,178055,235815,-3.5006994637999997,1.2394821068,9.0472622506,537
106846,177998,235757,-3.4265219632000004,1.2897313814,9.0879402348,538
106729,178018,235827,-3.5222348672,1.3196416639,9.233902413400001,539
106793,178061,235810,-3.5748769644,1.1425727915,9.290133744499999,540
107004,178068,235883,-3.5748769644,1.1425727915,9.290133744499999,541
107298,178121,235876,-3.5748769644,1.1425727915,9.290133744499999,542
107577,178193,235880,-3.5748769644,1.1425727915,9.290133744499999,543
107794,178163,235943,-3.5748769644,1.1425727915,9.290133744499999,544
107936,178205,235884,-3.5748769644,1.1425727915,9.290133744499999,545
108062,178231,235968,-3.5748769644,1.1425727915,9.290133744499999,546
108177,178235,235910,-3.5748769644,1.1425727915,9.290133744499999,547
108287,178217,235915,-3.5748769644,1.1425727915,9.290133744499999,548
108422,178245,235890,-3.5748769644,1.1425727915,9.290133744499999,549
108557,178272,235885,-3.5748769644,1.1425727915,9.290133744499999,550
108548,178216,235882,-3.5748769644,1.1425727915,9.290133744499999,551
108071,178089,235793,-3.5748769644,1.1425727915,9.290133744499999,552
107428,178053,235775,-3.5748769644,1.1425727915,9.290133744499999,553
107054,178047,235776,-3.5748769644,1.1425727915,9.290133744499999,554
106946,178068,235813,-3.5748769644,1.1425727915,9.290133744499999,555
107009,178116,235837,-3.5748769644,1.1425727915,9.290133744499999,556
107209,178140,235885,-3.5748769644,1.1425727915,9.290133744499999,557
107502,178166,235919,-3.5748769644,1.1425727915,9.290133744499999,558
107781,178206,235932,-3.5748769644,1.1425727915,9.290133744499999,559
107974,178248,235943,-3.5748769644,1.1425727915,9.290133744499999,560
108137,178286,235947,-3.5748769644,1.1425727915,9.290133744499999,561
108283,178307,235941,-3.5748769644,1.1425727915,9.290133744499999,562
108429,178324,236018,-3.5748769644,1.1425727915,9.290133744499999,563
108581,178329,235985,-3.5748769644,1.1425727915,9.290133744499999,564
108735,178341,236006,-3.5748769644,1.1425727915,9.290133744499999,565
108875,178365,236030,-3.5748769644,1.1425727915,9.290133744499999,566
108707,178250,235932,-3.5748769644,1.1425727915,9.290133744499999,567
107972,178120,235846,-3.5748769644,1.1425727915,9.290133744499999,568
107264,178060,235835,-3.5748769644,1.1425727915,9.290133744499999,569
106833,178056,235820,-3.5748769644,1.1425727915,9.290133744499999,570
106646,178068,235822,-3.5006994637999997,1.2167502921,9.1573320902,571
106576,178062,235877,-3.5006994637999997,1.2167502921,9.1573320902,572
106761,178147,235884,-3.5006994637999997,1.2167502921,9.1573320902,573
107091,178186,235947,-3.5006994637999997,1.2167502921,9.1573320902,574
107477,178259,235990,-3.5006994637999997,1.2167502921,9.1573320902,575
107758,178296,235997,-3.5006994637999997,1.2167502921,9.1573320902,576
107944,178305,235996,-3.5006994637999997,1.2167502921,9.1573320902,577
108048,178296,235990,-3.5006994637999997,1.2167502921,9.1573320902,578
108146,178284,235981,-3.5006994637999997,1.2167502921,9.1573320902,579
108256,178303,235979,-3.5006994637999997,1.2167502921,9.1573320902,580
108413,178330,235960,-3.5006994637999997,1.2167502921,9.1573320902,581
108461,178266,235969,-3.5006994637999997,1.2167502921,9.1573320902,582
108049,178164,235902,-3.5006994637999997,1.2167502921,9.1573320902,583
107260,178097,235815,-3.5629128513999997,1.3603196481,9.109475638200001,584
106658,178043,235785,-3.5629128513999997,1.3603196481,9.109475638200001,585
106338,178044,235815,-3.5629128513999997,1.3603196481,9.109475638200001,586
106216,178022,235799,-3.5844482548,1.3208380752,9.0484586619,587
106261,178032,235816,-3.4743784152000003,1.3172488413,9.2374916473,588
106490,178087,235861,-3.5509487384000002,1.3579268255,9.1920280179,589
106845,178146,235915,-3.3511480513,1.2191431147,9.1716890258,590
107175,178223,235982,-3.4683963587,1.3232308977999998,9.1860459614,591
107407,178236,235983,-3.6191441825000004,1.1760723079,9.164510558,592
107570,178241,235961,-3.4743784152000003,1.4057832774999999,9.0831545896,593
107703,178274,235963,-3.5294133349999997,1.2658031554,9.0759761218,594
107825,178303,235968,-3.5892339,1.2658031554,9.0879402348,595
107984,178293,236024,-3.4660035360999997,1.3914263419,9.1860459614,596
108120,178304,236011,-3.4313076084,1.2681959779999998,9.3068835027,597
108020,178241,235957,-3.3918260355000003,1.3531411803,9.0975115252,598
107311,178123,235860,-3.5724841418,1.3794622289,9.2159562439,599
106581,178056,235811,-3.5485559157999997,1.3818550514999999,9.1118684608,600
106167,178000,235806,-3.6047872469,1.3339985995,9.0999043478,601
106007,178022,235858,-3.4157542615,1.2849457361999999,9.1501536224,602
106030,178038,235813,-3.6646078119,1.3351950108,9.1238325738,603
106226,178078,235850,-3.4779676491,1.3483555351,9.1956172518,604
106571,178147,235901,-3.4480573666,1.2658031554,9.148957211099999,605
106919,178198,235961,-3.433700431,1.2825529136,9.0221376133,606
107177,178209,235983,-3.4863425282,1.2634103328,9.2853480993,607
107322,178239,235952,-3.5892339,1.1916256548,9.1896351953,608
107453,178249,235942,-3.4875389395,1.1557333158,9.117850517299999,609
107585,178243,235948,-3.4863425282,1.2993026717999998,9.1932244292,610
107717,178253,235960,-3.5018958750999998,1.3232308977999998,9.1022971704,611
107876,178250,235958,-3.5748769644,1.3423734786,9.0867438235,612
107954,178220,235961,-3.4875389395,1.220339526,9.1573320902,613
107504,178134,235902,-3.553341561,1.3016954943999999,9.09272588,614
106720,178024,235780,-3.4827532943,1.3351950108,9.1920280179,615
106220,178011,235764,-3.4037901484999997,1.280160091,9.0149591455,616
106034,177994,235785,-3.3702906320999997,1.2993026717999998,9.1190469286,617
106029,177992,235804,-3.4863425282,1.2610175101999999,9.1501536224,618
106200,178046,235846,-3.5473595045,1.2059825904,9.1836531388,619
106531,178124,235843,-3.5042886977,1.2909277927,9.109475638200001,620
106889,178150,235902,-3.4037901484999997,1.3052847283,9.206384953499999,621
107127,178166,235924,-3.601198013,1.208375413,9.1968136631,622
107321,178184,235902,-3.5198420446,1.3112667848,9.1453679772,623
107422,178182,235914,-3.4444681327,1.3722837611,9.1501536224,624
107579,178197,235898,-3.4815568829999997,1.2119646469,9.175278259699999,625
107704,178192,235921,-3.5509487384000002,1.2490533972,9.09272588,626
107843,178221,235929,-3.5282169237,1.3339985995,9.1190469286,627
108019,178242,235916,-3.5150563993999997,1.3184452526,9.0855474122,628
107894,178141,235835,-3.517449222,1.3256237203999999,9.1716890258,629
107308,178034,235765,-3.5700913192,1.3292129543,9.1070828156,630
106738,177974,235680,-3.5724841418,1.4057832774999999,9.1465643885,631
106499,177986,235715,-3.4743784152000003,1.3016954943999999,9.1704926145,632
106464,177999,235741,-3.5078779316,1.244267752,9.2446701151,633
106631,178056,235770,-3.5126635768,1.2143574695,9.2183490665,634
106921,178109,235822,-3.4301111971,1.4488540843,9.176474671,635
107235,178159,235845,-3.5964123677999997,1.3567304141999998,9.1597249128,636
107473,178124,235848,-3.4755748265,1.2681959779999998,9.1190469286,637
107607,178167,235833,-3.3511480513,1.3124631961,9.1238325738,638
107732,178172,235821,-3.5772697869999996,1.2622139215000001,9.055637129700001,639
107875,178176,235862,-3.5772697869999996,1.2622139215000001,9.055637129700001,640
108007,178230,235851,-3.5772697869999996,1.2622139215000001,9.055637129700001,641
108171,178215,235853,-3.5772697869999996,1.2622139215000001,9.055637129700001,642
108329,178251,235879,-3.5772697869999996,1.2622139215000001,9.055637129700001,643
108370,178236,235857,-3.5772697869999996,1.2622139215000001,9.055637129700001,644
107894,178096,235770,-3.5772697869999996,1.2622139215000001,9.055637129700001,645
107197,177990,235690,-3.5772697869999996,1.2622139215000001,9.055637129700001,646
106841,177995,235667,-3.5772697869999996,1.2622139215000001,9.055637129700001,647
106736,178034,235712,-3.5772697869999996,1.2622139215000001,9.055637129700001,648
106806,178045,235731,-3.5772697869999996,1.2622139215000001,9.055637129700001,649
106985,178092,235789,-3.5772697869999996,1.2622139215000001,9.055637129700001,650
107335,178142,235839,-3.5772697869999996,1.2622139215000001,9.055637129700001,651
107665,178191,235901,-3.5772697869999996,1.2622139215000001,9.055637129700001,652
107895,178210,235846,-3.5772697869999996,1.2622139215000001,9.055637129700001,653
108056,178243,235824,-3.5772697869999996,1.2622139215000001,9.055637129700001,654
108197,178255,235828,-3.5772697869999996,1.2622139215000001,9.055637129700001,655
108322,178243,235878,-3.5772697869999996,1.2622139215000001,9.055637129700001,656
108469,178241,235906,-3.5772697869999996,1.2622139215000001,9.055637129700001,657
108615,178272,235901,-3.5772697869999996,1.2622139215000001,9.055637129700001,658
108769,178293,235896,-3.5772697869999996,1.2622139215000001,9.055637129700001,659
108623,178231,235817,-3.5772697869999996,1.2622139215000001,9.055637129700001,660
107924,178103,235748,-3.5772697869999996,1.2622139215000001,9.055637129700001,661
107268,178020,235701,-3.5772697869999996,1.2622139215000001,9.055637129700001,662
106936,178013,235704,-3.5772697869999996,1.2622139215000001,9.055637129700001,663
106744,178044,235704,-3.5772697869999996,1.2622139215000001,9.055637129700001,664
106777,178024,235689,-3.5772697869999996,1.2622139215000001,9.055637129700001,665
106927,178076,235760,-3.5772697869999996,1.2622139215000001,9.055637129700001,666
107238,178115,235805,-3.5772697869999996,1.2622139215000001,9.055637129700001,667
107575,178186,235816,-3.5772697869999996,1.2622139215000001,9.055637129700001,668
107850,178186,235865,-3.5772697869999996,1.2622139215000001,9.055637129700001,669
108035,178204,235856,-3.5772697869999996,1.2622139215000001,9.055637129700001,670
108179,178232,235865,-3.5772697869999996,1.2622139215000001,9.055637129700001,671
108295,178210,235864,-3.5772697869999996,1.2622139215000001,9.055637129700001,672
108438,178259,235825,-3.5772697869999996,1.2622139215000001,9.055637129700001,673
108579,178230,235844,-3.5772697869999996,1.2622139215000001,9.055637129700001,674
108735,178274,235859,-3.5772697869999996,1.2622139215000001,9.055637129700001,675
108749,178244,235806,-3.5772697869999996,1.2622139215000001,9.055637129700001,676
108196,178121,235688,-3.5772697869999996,1.2622139215000001,9.055637129700001,677
107457,178052,235645,-3.5772697869999996,1.2622139215000001,9.055637129700001,678
107046,177987,235642,-3.5772697869999996,1.2622139215000001,9.055637129700001,679
106864,178039,235630,-3.5772697869999996,1.2622139215000001,9.055637129700001,680
108745,178178,235656,-3.5377882141000003,1.4153545679,9.153742856300001,681
108868,178201,235623,-3.5377882141000003,1.4153545679,9.153742856300001,682
108980,178177,235600,-3.5377882141000003,1.4153545679,9.153742856300001,683
109094,178173,235587,-3.5377882141000003,1.4153545679,9.153742856300001,684
109218,178233,235586,-3.5377882141000003,1.4153545679,9.153742856300001,685
109313,178202,235558,-3.5377882141000003,1.4153545679,9.153742856300001,686
109451,178195,235548,-3.5377882141000003,1.4153545679,9.153742856300001,687
109537,178209,235576,-3.5377882141000003,1.4153545679,9.153742856300001,688
109639,178200,235533,-3.5377882141000003,1.4153545679,9.153742856300001,689
109781,178200,235510,-3.5377882141000003,1.4153545679,9.153742856300001,690
109878,178193,235514,-3.5377882141000003,1.4153545679,9.153742856300001,691
109965,178197,235511,-3.5377882141000003,1.4153545679,9.153742856300001,692
110047,178193,235458,-3.5377882141000003,1.4153545679,9.153742856300001,693
110175,178192,235482,-3.5377882141000003,1.4153545679,9.153742856300001,694
110263,178217,235484,-3.5377882141000003,1.4153545679,9.153742856300001,695
110360,178174,235477,-3.5377882141000003,1.4153545679,9.153742856300001,696
110183,178081,235411,-3.5377882141000003,1.4153545679,9.153742856300001,697
109531,177959,235282,-3.5377882141000003,1.4153545679,9.153742856300001,698
108926,177967,235287,-3.5377882141000003,1.4153545679,9.153742856300001,699
108587,177966,235261,-3.5377882141000003,1.4153545679,9.153742856300001,700
108483,178008,235258,-3.5377882141000003,1.4153545679,9.153742856300001,701
108540,178046,235317,-3.5377882141000003,1.4153545679,9.153742856300001,702
108752,178115,235361,-3.5377882141000003,1.4153545679,9.153742856300001,703
108973,178135,235385,-3.5377882141000003,1.4153545679,9.153742856300001,704
109101,178135,235386,-3.5377882141000003,1.4153545679,9.153742856300001,705
109215,178166,235412,-3.5377882141000003,1.4153545679,9.153742856300001,706
109278,178154,235368,-3.5377882141000003,1.4153545679,9.153742856300001,707
109367,178162,235398,-3.5377882141000003,1.4153545679,9.153742856300001,708
109436,178179,235418,-3.5377882141000003,1.4153545679,9.153742856300001,709
109527,178222,235401,-3.5377882141000003,1.4153545679,9.153742856300001,710
109636,178225,235416,-3.5377882141000003,1.4153545679,9.153742856300001,711
109776,178223,235418,-3.5377882141000003,1.4153545679,9.153742856300001,712
109915,178264,235413,-3.5377882141000003,1.4153545679,9.153742856300001,713
110002,178254,235427,-3.5377882141000003,1.4153545679,9.153742856300001,714
110134,178283,235420,-3.5377882141000003,1.4153545679,9.153742856300001,715
110229,178266,235412,-3.5377882141000003,1.4153545679,9.153742856300001,716
110330,178280,235411,-3.5377882141000003,1.4153545679,9.153742856300001,717
110447,178299,235397,-3.5377882141000003,1.4153545679,9.153742856300001,718
110524,178299,235394,-3.5377882141000003,1.4153545679,9.153742856300001,719
110440,178209,235335,-3.5377882141000003,1.4153545679,9.153742856300001,720
109874,178092,235260,-3.5377882141000003,1.4153545679,9.153742856300001,721
109116,178048,235218,-3.5377882141000003,1.4153545679,9.153742856300001,722
107821,178091,235291,-3.5162528107,1.3232308977999998,9.1381895094,723
107950,178136,235305,-3.5162528107,1.3232308977999998,9.1381895094,724
108184,178229,235357,-3.5162528107,1.3232308977999998,9.1381895094,725
108447,178249,235418,-3.5162528107,1.3232308977999998,9.1381895094,726
108601,178273,235387,-3.5162528107,1.3232308977999998,9.1381895094,727
108751,178267,235412,-3.5162528107,1.3232308977999998,9.1381895094,728
108872,178274,235400,-3.5162528107,1.3232308977999998,9.1381895094,729
108948,178283,235379,-3.5162528107,1.3232308977999998,9.1381895094,730
109030,178300,235418,-3.5162528107,1.3232308977999998,9.1381895094,731
109133,178333,235405,-3.5162528107,1.3232308977999998,9.1381895094,732
109230,178310,235434,-3.5162528107,1.3232308977999998,9.1381895094,733
109354,178334,235377,-3.5162528107,1.3232308977999998,9.1381895094,734
109443,178347,235407,-3.5162528107,1.3232308977999998,9.1381895094,735
109520,178331,235417,-3.5162528107,1.3232308977999998,9.1381895094,736
109635,178349,235401,-3.5162528107,1.3232308977999998,9.1381895094,737
109714,178371,235347,-3.5162528107,1.3232308977999998,9.1381895094,738
109785,178371,235373,-3.5162528107,1.3232308977999998,9.1381895094,739
109590,178264,235288,-3.5162528107,1.3232308977999998,9.1381895094,740
108861,178142,235203,-3.5162528107,1.3232308977999998,9.1381895094,741
108088,178095,235163,-3.5162528107,1.3232308977999998,9.1381895094,742
107538,178097,235165,-3.5162528107,1.3232308977999998,9.1381895094,743
107173,178077,235176,-3.5162528107,1.3232308977999998,9.1381895094,744
107020,178093,235178,-3.5162528107,1.3232308977999998,9.1381895094,745
107012,178109,235222,-3.5162528107,1.3232308977999998,9.1381895094,746
107177,178202,235260,-3.5162528107,1.3232308977999998,9.1381895094,747
107450,178272,235283,-3.5162528107,1.3232308977999998,9.1381895094,748
107710,178277,235314,-3.5162528107,1.3232308977999998,9.1381895094,749
107872,178286,235375,-3.5162528107,1.3232308977999998,9.1381895094,750
108025,178322,235371,-3.5162528107,1.3232308977999998,9.1381895094,751
108117,178298,235341,-3.5162528107,1.3232308977999998,9.1381895094,752
108233,178326,235354,-3.5162528107,1.3232308977999998,9.1381895094,753
108332,178326,235333,-3.5162528107,1.3232308977999998,9.1381895094,754
108443,178349,235372,-3.5162528107,1.3232308977999998,9.1381895094,755
108557,178357,235355,-3.5162528107,1.3232308977999998,9.1381895094,756
108648,178372,235315,-3.5162528107,1.3232308977999998,9.1381895094,757
108742,178330,235364,-3.5162528107,1.3232308977999998,9.1381895094,758
108842,178377,235356,-3.5162528107,1.3232308977999998,9.1381895094,759
108936,178380,235312,-3.5162528107,1.3232308977999998,9.1381895094,760
109044,178399,235370,-3.5162528107,1.3232308977999998,9.1381895094,761
108931,178308,235284,-3.5162528107,1.3232308977999998,9.1381895094,762
108211,178186,235187,-3.5162528107,1.3232308977999998,9.1381895094,763
107422,178123,235140,-3.5162528107,1.3232308977999998,9.1381895094,764
107566,178287,235340,-3.4348968423,1.0671988796,8.9563349918,765
107701,178270,235327,-3.4348968423,1.0671988796,8.9563349918,766
107836,178301,235306,-3.4348968423,1.0671988796,8.9563349918,767
107955,178321,235313,-3.4348968423,1.0671988796,8.9563349918,768
108080,178290,235290,-3.4348968423,1.0671988796,8.9563349918,769
108185,178322,235289,-3.4348968423,1.0671988796,8.9563349918,770
108315,178337,235305,-3.4348968423,1.0671988796,8.9563349918,771
108425,178323,235308,-3.4348968423,1.0671988796,8.9563349918,772
108558,178326,235294,-3.4348968423,1.0671988796,8.9563349918,773
108481,178228,235210,-3.4348968423,1.0671988796,8.9563349918,774
107853,178126,235119,-3.4348968423,1.0671988796,8.9563349918,775
107213,178063,235083,-3.4348968423,1.0671988796,8.9563349918,776
106825,178061,235045,-3.4348968423,1.0671988796,8.9563349918,777
106686,178064,235078,-3.4348968423,1.0671988796,8.9563349918,778
106645,178126,235104,-3.4348968423,1.0671988796,8.9563349918,779
106768,178130,235092,-3.4348968423,1.0671988796,8.9563349918,780
107021,178165,235139,-3.4348968423,1.0671988796,8.9563349918,781
107259,178217,235181,-3.4348968423,1.0671988796,8.9563349918,782
107426,178204,235156,-3.4348968423,1.0671988796,8.9563349918,783
107563,178190,235211,-3.4348968423,1.0671988796,8.9563349918,784
107677,178217,235167,-3.4348968423,1.0671988796,8.9563349918,785
107795,178225,235200,-3.4348968423,1.0671988796,8.9563349918,786
107917,178219,235202,-3.4348968423,1.0671988796,8.9563349918,787
107972,178203,235162,-3.4348968423,1.0671988796,8.9563349918,788
107699,178128,235097,-3.4348968423,1.0671988796,8.9563349918,789
107281,178084,235072,-3.4348968423,1.0671988796,8.9563349918,790
107020,178107,235059,-3.4348968423,1.0671988796,8.9563349918,791
106986,178091,235070,-3.4348968423,1.0671988796,8.9563349918,792
107104,178128,235146,-3.4348968423,1.0671988796,8.9563349918,793
107371,178216,235164,-3.4348968423,1.0671988796,8.9563349918,794
107647,178223,235187,-3.4348968423,1.0671988796,8.9563349918,795
107849,178270,235209,-3.4348968423,1.0671988796,8.9563349918,796
107968,178258,235192,-3.4348968423,1.0671988796,8.9563349918,797
108049,178273,235166,-3.4348968423,1.0671988796,8.9563349918,798
108175,178279,235186,-3.4348968423,1.0671988796,8.9563349918,799
108296,178273,235211,-3.4348968423,1.0671988796,8.9563349918,800
108433,178284,235154,-3.4348968423,1.0671988796,8.9563349918,801
108543,178266,235225,-3.4348968423,1.0671988796,8.9563349918,802
108415,178219,235124,-3.4348968423,1.0671988796,8.9563349918,803
107821,178101,235052,-3.4348968423,1.0671988796,8.9563349918,804
107257,178093,235076,-3.4348968423,1.0671988796,8.9563349918,805
106948,178098,235037,-3.4348968423,1.0671988796,8.9563349918,806
108416,178389,235334,-3.5210384559,1.184447187,9.140582332,807
108594,178376,235260,-3.5210384559,1.184447187,9.140582332,808
108395,178235,235271,-3.5210384559,1.184447187,9.140582332,809
107720,178150,235104,-3.5210384559,1.184447187,9.140582332,810
107091,178074,235066,-3.5210384559,1.184447187,9.140582332,811
106769,178065,235064,-3.5210384559,1.184447187,9.140582332,812
106628,178050,235097,-3.5210384559,1.184447187,9.140582332,813
106619,178085,235093,-3.5210384559,1.184447187,9.140582332,814
106773,178133,235149,-3.5210384559,1.184447187,9.140582332,815
107028,178152,235187,-3.5210384559,1.184447187,9.140582332,816
107346,178216,235225,-3.5210384559,1.184447187,9.140582332,817
107598,178217,235255,-3.5210384559,1.184447187,9.140582332,818
107736,178223,235191,-3.5210384559,1.184447187,9.140582332,819
107841,178204,235190,-3.5210384559,1.184447187,9.140582332,820
107948,178238,235166,-3.5210384559,1.184447187,9.140582332,821
108082,178231,235223,-3.5210384559,1.184447187,9.140582332,822
108263,178279,235220,-3.5210384559,1.184447187,9.140582332,823
108244,178260,235198,-3.5210384559,1.184447187,9.140582332,824
107757,178116,235090,-3.5210384559,1.184447187,9.140582332,825
107217,178079,235001,-3.5210384559,1.184447187,9.140582332,826
106891,178088,235069,-3.5210384559,1.184447187,9.140582332,827
106759,178054,235051,-3.5210384559,1.184447187,9.140582332,828
106735,178036,235070,-3.5210384559,1.184447187,9.140582332,829
106826,178096,235062,-3.5210384559,1.184447187,9.140582332,830
107057,178134,235147,-3.5210384559,1.184447187,9.140582332,831
107342,178167,235137,-3.5210384559,1.184447187,9.140582332,832
107575,178174,235143,-3.5210384559,1.184447187,9.140582332,833
107732,178185,235176,-3.5210384559,1.184447187,9.140582332,834
107866,178204,235168,-3.5210384559,1.184447187,9.140582332,835
107992,178208,235150,-3.5210384559,1.184447187,9.140582332,836
108125,178199,235138,-3.5210384559,1.184447187,9.140582332,837
108241,178242,235132,-3.5210384559,1.184447187,9.140582332,838
108348,178181,235100,-3.5210384559,1.184447187,9.140582332,839
108082,178126,235023,-3.5210384559,1.184447187,9.140582332,840
107493,178025,234956,-3.5210384559,1.184447187,9.140582332,841
107065,178010,234925,-3.5210384559,1.184447187,9.140582332,842
106880,178010,234949,-3.5210384559,1.184447187,9.140582332,843
106851,178016,234929,-3.5210384559,1.184447187,9.140582332,844
106928,178083,234951,-3.5210384559,1.184447187,9.140582332,845
107149,178092,234982,-3.5210384559,1.184447187,9.140582332,846
107435,178133,234997,-3.5210384559,1.184447187,9.140582332,847
107683,178164,235024,-3.5210384559,1.184447187,9.140582332,848
108193,178184,234992,-3.5078779316,1.2299108163999999,9.0975115252,849
108328,178200,234982,-3.5078779316,1.2299108163999999,9.0975115252,850
108457,178162,234995,-3.5078779316,1.2299108163999999,9.0975115252,851
108381,178101,234926,-3.5078779316,1.2299108163999999,9.0975115252,852
107879,178018,234852,-3.5078779316,1.2299108163999999,9.0975115252,853
107382,177983,234834,-3.5078779316,1.2299108163999999,9.0975115252,854
107167,177958,234783,-3.5078779316,1.2299108163999999,9.0975115252,855
107115,177990,234798,-3.5078779316,1.2299108163999999,9.0975115252,856
107185,178005,234814,-3.5078779316,1.2299108163999999,9.0975115252,857
107408,178081,234847,-3.5078779316,1.2299108163999999,9.0975115252,858
107700,178066,234869,-3.5078779316,1.2299108163999999,9.0975115252,859
107939,178135,234906,-3.5078779316,1.2299108163999999,9.0975115252,860
108103,178129,234894,-3.5078779316,1.2299108163999999,9.0975115252,861
108220,178143,234884,-3.5078779316,1.2299108163999999,9.0975115252,862
108361,178165,234869,-3.5078779316,1.2299108163999999,9.0975115252,863
108497,178179,234913,-3.5078779316,1.2299108163999999,9.0975115252,864
108646,178213,234933,-3.5078779316,1.2299108163999999,9.0975115252,865
108804,178226,234899,-3.5078779316,1.2299108163999999,9.0975115252,866
108820,178156,234860,-3.5078779316,1.2299108163999999,9.0975115252,867
108350,178047,234773,-3.5078779316,1.2299108163999999,9.0975115252,868
107816,178018,234759,-3.5078779316,1.2299108163999999,9.0975115252,869
107537,178006,234736,-3.5078779316,1.2299108163999999,9.0975115252,870
107470,178011,234776,-3.5078779316,1.2299108163999999,9.0975115252,871
107508,178084,234826,-3.5078779316,1.2299108163999999,9.0975115252,872
107667,178133,234797,-3.5078779316,1.2299108163999999,9.0975115252,873
107964,178198,234875,-3.5078779316,1.2299108163999999,9.0975115252,874
108277,178237,234893,-3.5078779316,1.2299108163999999,9.0975115252,875
108495,178272,234889,-3.5078779316,1.2299108163999999,9.0975115252,876
108662,178267,234919,-3.5078779316,1.2299108163999999,9.0975115252,877
108803,178264,234935,-3.5078779316,1.2299108163999999,9.0975115252,878
108955,178270,234922,-3.5078779316,1.2299108163999999,9.0975115252,879
109096,178287,234908,-3.5078779316,1.2299108163999999,9.0975115252,880
109245,178335,234916,-3.5078779316,1.2299108163999999,9.0975115252,881
109314,178279,234902,-3.5078779316,1.2299108163999999,9.0975115252,882
108926,178169,234819,-3.5078779316,1.2299108163999999,9.0975115252,883
108276,178112,234770,-3.5078779316,1.2299108163999999,9.0975115252,884
107871,178094,234755,-3.5078779316,1.2299108163999999,9.0975115252,885
107691,178134,234785,-3.5078779316,1.2299108163999999,9.0975115252,886
107644,178141,234736,-3.5078779316,1.2299108163999999,9.0975115252,887
107726,178160,234783,-3.5078779316,1.2299108163999999,9.0975115252,888
107940,178216,234830,-3.5078779316,1.2299108163999999,9.0975115252,889
108246,178262,234844,-3.5078779316,1.2299108163999999,9.0975115252,890
107565,178116,234633,-3.493520996,1.3088739621999999,9.2590270507,891
107479,178151,234722,-3.493520996,1.3088739621999999,9.2590270507,892
107494,178164,234747,-3.493520996,1.3088739621999999,9.2590270507,893
107668,178213,234772,-3.493520996,1.3088739621999999,9.2590270507,894
107991,178267,234812,-3.493520996,1.3088739621999999,9.2590270507,895
108229,178310,234803,-3.493520996,1.3088739621999999,9.2590270507,896
108443,178350,234842,-3.493520996,1.3088739621999999,9.2590270507,897
108559,178329,234857,-3.493520996,1.3088739621999999,9.2590270507,898
108673,178314,234822,-3.493520996,1.3088739621999999,9.2590270507,899
108801,178343,234840,-3.493520996,1.3088739621999999,9.2590270507,900
108919,178348,234868,-3.493520996,1.3088739621999999,9.2590270507,901
109058,178364,234811,-3.493520996,1.3088739621999999,9.2590270507,902
109052,178335,234812,-3.493520996,1.3088739621999999,9.2590270507,903
108585,178217,234717,-3.493520996,1.3088739621999999,9.2590270507,904
107900,178181,234673,-3.493520996,1.3088739621999999,9.2590270507,905
107497,178174,234666,-3.493520996,1.3088739621999999,9.2590270507,906
107330,178174,234617,-3.493520996,1.3088739621999999,9.2590270507,907
107308,178198,234688,-3.493520996,1.3088739621999999,9.2590270507,908
107434,178228,234707,-3.493520996,1.3088739621999999,9.2590270507,909
107705,178306,234722,-3.493520996,1.3088739621999999,9.2590270507,910
108012,178327,234803,-3.493520996,1.3088739621999999,9.2590270507,911
108223,178338,234818,-3.493520996,1.3088739621999999,9.2590270507,912
108370,178336,234804,-3.493520996,1.3088739621999999,9.2590270507,913
108474,178355,234812,-3.493520996,1.3088739621999999,9.2590270507,914
108562,178372,234780,-3.493520996,1.3088739621999999,9.2590270507,915
108695,178360,234750,-3.493520996,1.3088739621999999,9.2590270507,916
108814,178366,234751,-3.6275190616,1.2993026717999998,9.1920280179,917
108912,178385,234728,-3.6275190616,1.2993026717999998,9.1920280179,918
108775,178281,234700,-3.6275190616,1.2993026717999998,9.1920280179,919
108154,178159,234578,-3.6275190616,1.2993026717999998,9.1920280179,920
107533,178111,234543,-3.6275190616,1.2993026717999998,9.1920280179,921
107213,178119,234583,-3.46959277,1.3555340029,8.9766739839,922
107125,178150,234592,-3.4887353508000003,1.3064811396,9.1848495501,923
107155,178175,234570,-3.5700913192,1.3627124707,9.3284189061,924
107306,178207,234610,-3.6263226502999997,1.3196416639,9.1944208405,925
107602,178262,234645,-3.6263226502999997,1.3196416639,9.1944208405,926
107839,178281,234660,-3.6263226502999997,1.3196416639,9.1944208405,927
107985,178294,234672,-3.6263226502999997,1.3196416639,9.1944208405,928
108095,178306,234580,-3.6263226502999997,1.3196416639,9.1944208405,929
108187,178260,234629,-3.6263226502999997,1.3196416639,9.1944208405,930
108266,178281,234638,-3.6263226502999997,1.3196416639,9.1944208405,931
108384,178286,234598,-3.6263226502999997,1.3196416639,9.1944208405,932
108497,178326,234617,-3.6263226502999997,1.3196416639,9.1944208405,933
108616,178286,234629,-3.6263226502999997,1.3196416639,9.1944208405,934
108475,178180,234533,-3.6263226502999997,1.3196416639,9.1944208405,935
107844,178069,234399,-3.6263226502999997,1.3196416639,9.1944208405,936
107352,178084,234454,-3.6071800695,1.3184452526,9.1896351953,937
107166,178094,234449,-3.6071800695,1.3184452526,9.1896351953,938
107113,178087,234433,-3.6071800695,1.3184452526,9.1896351953,939
107226,178160,234458,-3.6071800695,1.3184452526,9.1896351953,940
107494,178192,234478,-3.6071800695,1.3184452526,9.1896351953,941
107729,178246,234523,-3.6071800695,1.3184452526,9.1896351953,942
107903,178222,234540,-3.6071800695,1.3184452526,9.1896351953,943
108024,178215,234496,-3.6071800695,1.3184452526,9.1896351953,944
108093,178230,234505,-3.6071800695,1.3184452526,9.1896351953,945
108193,178214,234512,-3.6071800695,1.3184452526,9.1896351953,946
108287,178247,234467,-3.6071800695,1.3184452526,9.1896351953,947
108399,178216,234495,-3.6071800695,1.3184452526,9.1896351953,948
108521,178259,234494,-3.6071800695,1.3184452526,9.1896351953,949
108616,178256,234448,-3.6071800695,1.3184452526,9.1896351953,950
108400,178147,234408,-3.6071800695,1.3184452526,9.1896351953,951
107768,178082,234318,-3.6071800695,1.3184452526,9.1896351953,952
107247,178042,234316,-3.6071800695,1.3184452526,9.1896351953,953
106989,178041,234307,-3.6071800695,1.3184452526,9.1896351953,954
106953,178069,234323,-3.6071800695,1.3184452526,9.1896351953,955
107004,178082,234380,-3.6071800695,1.3184452526,9.1896351953,956
107225,178170,234412,-3.6071800695,1.3184452526,9.1896351953,957
107510,178212,234487,-3.6071800695,1.3184452526,9.1896351953,958
107764,178203,234452,-3.6071800695,1.3184452526,9.1896351953,959
107934,178222,234520,-3.6071800695,1.3184452526,9.1896351953,960
108066,178239,234485,-3.6071800695,1.3184452526,9.1896351953,961
108206,178292,234496,-3.6071800695,1.3184452526,9.1896351953,962
108336,178249,234474,-3.6071800695,1.3184452526,9.1896351953,963
108484,178306,234499,-3.6071800695,1.3184452526,9.1896351953,964
108613,178291,234470,-3.6071800695,1.3184452526,9.1896351953,965
108669,178273,234478,-3.6071800695,1.3184452526,9.1896351953,966
108220,178135,234399,-3.6071800695,1.3184452526,9.1896351953,967
107555,178111,234314,-3.6071800695,1.3184452526,9.1896351953,968
107133,178081,234315,-3.6071800695,1.3184452526,9.1896351953,969
106932,178097,234387,-3.6071800695,1.3184452526,9.1896351953,970
106873,178143,234383,-3.6071800695,1.3184452526,9.1896351953,971
106961,178160,234432,-3.6071800695,1.3184452526,9.1896351953,972
107195,178217,234488,-3.6071800695,1.3184452526,9.1896351953,973
107504,178266,234529,-3.6071800695,1.3184452526,9.1896351953,974
107770,178285,234538,-3.6071800695,1.3184452526,9.1896351953,975
107929,178251,234566,-3.6071800695,1.3184452526,9.1896351953,976
108060,178291,234542,-3.6071800695,1.3184452526,9.1896351953,977
108154,178307,234538,-3.6071800695,1.3184452526,9.1896351953,978
108562,178302,234525,-3.5318061576,1.3495519463999999,9.109475638200001,979
108035,178178,234459,-3.5318061576,1.3495519463999999,9.109475638200001,980
107359,178128,234411,-3.5318061576,1.3495519463999999,9.109475638200001,981
106943,178116,234410,-3.5318061576,1.3495519463999999,9.109475638200001,982
106765,178148,234408,-3.5318061576,1.3495519463999999,9.109475638200001,983
106739,178177,234474,-3.5318061576,1.3495519463999999,9.109475638200001,984
106857,178224,234492,-3.5318061576,1.3495519463999999,9.109475638200001,985
107108,178257,234544,-3.5318061576,1.3495519463999999,9.109475638200001,986
107445,178310,234550,-3.4923245847,1.2753744458,9.207581364800001,987
107689,178323,234596,-3.4923245847,1.2753744458,9.207581364800001,988
107857,178314,234624,-3.4923245847,1.2753744458,9.207581364800001,989
107979,178354,234612,-3.4923245847,1.2753744458,9.207581364800001,990
108091,178353,234631,-3.4923245847,1.2753744458,9.207581364800001,991
108226,178376,234602,-3.4923245847,1.2753744458,9.207581364800001,992
108359,178390,234650,-3.4923245847,1.2753744458,9.207581364800001,993
108495,178415,234647,-3.4923245847,1.2753744458,9.207581364800001,994
108444,178343,234604,-3.4923245847,1.2753744458,9.207581364800001,995
107884,178206,234518,-3.4923245847,1.2753744458,9.207581364800001,996
107234,178156,234452,-3.4923245847,1.2753744458,9.207581364800001,997
106880,178172,234498,-3.4923245847,1.2753744458,9.207581364800001,998
106727,178161,234507,-3.4923245847,1.2753744458,9.207581364800001,999
106764,178206,234542,-3.4923245847,1.2753744458,9.207581364800001,1000
106920,178275,234540,-3.4923245847,1.2753744458,9.207581364800001,1001
107212,178310,234591,-3.4923245847,1.2753744458,9.207581364800001,1002
107505,178384,234690,-3.4923245847,1.2753744458,9.207581364800001,1003
107730,178371,234677,-3.4923245847,1.2753744458,9.207581364800001,1004
107868,178400,234665,-3.4923245847,1.2753744458,9.207581364800001,1005
107996,178386,234692,-3.4923245847,1.2753744458,9.207581364800001,1006
108102,178399,234688,-3.4923245847,1.2753744458,9.207581364800001,1007
108224,178408,234681,-3.4923245847,1.2753744458,9.207581364800001,1008
108355,178441,234670,-3.4923245847,1.2753744458,9.207581364800001,1009
108510,178430,234703,-3.4923245847,1.2753744458,9.207581364800001,1010
108547,178366,234637,-3.4923245847,1.2753744458,9.207581364800001,1011
108047,178265,234571,-3.4923245847,1.2753744458,9.207581364800001,1012
107343,178224,234536,-3.4923245847,1.2753744458,9.207581364800001,1013
106915,178218,234522,-3.4923245847,1.2753744458,9.207581364800001,1014
106774,178201,234538,-3.4923245847,1.2753744458,9.207581364800001,1015
106799,178254,234571,-3.4923245847,1.2753744458,9.207581364800001,1016
106922,178276,234616,-3.4923245847,1.2753744458,9.207581364800001,1017
107192,178373,234671,-3.4923245847,1.2753744458,9.207581364800001,1018
107492,178381,234661,-3.4923245847,1.2753744458,9.207581364800001,1019
107705,178447,234744,-3.4923245847,1.2753744458,9.207581364800001,1020
107875,178440,234709,-3.4923245847,1.2753744458,9.207581364800001,1021
107982,178418,234753,-3.4923245847,1.2753744458,9.207581364800001,1022
108070,178420,234751,-3.4923245847,1.2753744458,9.207581364800001,1023
108180,178462,234737,-3.4923245847,1.2753744458,9.207581364800001,1024
108306,178467,234718,-3.4923245847,1.2753744458,9.207581364800001,1025
108410,178476,234758,-3.4923245847,1.2753744458,9.207581364800001,1026
108438,178421,234702,-3.4923245847,1.2753744458,9.207581364800001,1027
107944,178317,234658,-3.4923245847,1.2753744458,9.207581364800001,1028
106675,178232,234607,-3.4959138186,1.2251251712,9.178867493599999,1029
106688,178278,234569,-3.4959138186,1.2251251712,9.178867493599999,1030
106845,178302,234670,-3.4959138186,1.2251251712,9.178867493599999,1031
107146,178370,234663,-3.4959138186,1.2251251712,9.178867493599999,1032
107404,178393,234734,-3.4959138186,1.2251251712,9.178867493599999,1033
107598,178432,234773,-3.4959138186,1.2251251712,9.178867493599999,1034
107734,178424,234758,-3.4959138186,1.2251251712,9.178867493599999,1035
107806,178393,234769,-3.4959138186,1.2251251712,9.178867493599999,1036
107902,178423,234732,-3.4959138186,1.2251251712,9.178867493599999,1037
108025,178407,234750,-3.4959138186,1.2251251712,9.178867493599999,1038
108149,178405,234704,-3.4959138186,1.2251251712,9.178867493599999,1039
108258,178431,234744,-3.4959138186,1.2251251712,9.178867493599999,1040
108342,178420,234734,-3.4959138186,1.2251251712,9.178867493599999,1041
108025,178287,234663,-3.4959138186,1.2251251712,9.178867493599999,1042
107339,178231,234587,-3.4959138186,1.2251251712,9.178867493599999,1043
106881,178190,234560,-3.4959138186,1.2251251712,9.178867493599999,1044
106690,178196,234573,-3.4959138186,1.2251251712,9.178867493599999,1045
106702,178245,234604,-3.4959138186,1.2251251712,9.178867493599999,1046
106820,178258,234676,-3.4959138186,1.2251251712,9.178867493599999,1047
107108,178343,234707,-3.4959138186,1.2251251712,9.178867493599999,1048
107353,178362,234709,-3.4959138186,1.2251251712,9.178867493599999,1049
107532,178361,234732,-3.4959138186,1.2251251712,9.178867493599999,1050
107632,178354,234718,-3.4959138186,1.2251251712,9.178867493599999,1051
107727,178374,234727,-3.4959138186,1.2251251712,9.178867493599999,1052
107819,178394,234742,-3.4959138186,1.2251251712,9.178867493599999,1053
107925,178367,234717,-3.4959138186,1.2251251712,9.178867493599999,1054
108009,178400,234748,-3.4959138186,1.2251251712,9.178867493599999,1055
108130,178388,234744,-3.4959138186,1.2251251712,9.178867493599999,1056
108216,178376,234708,-3.4959138186,1.2251251712,9.178867493599999,1057
107959,178284,234656,-3.4959138186,1.2251251712,9.178867493599999,1058
107304,178164,234580,-3.4959138186,1.2251251712,9.178867493599999,1059
106789,178191,234610,-3.4959138186,1.2251251712,9.178867493599999,1060
106576,178189,234594,-3.4959138186,1.2251251712,9.178867493599999,1061
106513,178224,234642,-3.4959138186,1.2251251712,9.178867493599999,1062
106619,178244,234660,-3.4959138186,1.2251251712,9.178867493599999,1063
106871,178274,234751,-3.4959138186,1.2251251712,9.178867493599999,1064
107152,178317,234789,-3.4959138186,1.2251251712,9.178867493599999,1065
107412,178351,234795,-3.4959138186,1.2251251712,9.178867493599999,1066
107551,178354,234814,-3.4959138186,1.2251251712,9.178867493599999,1067
107670,178379,234830,-3.4959138186,1.2251251712,9.178867493599999,1068
107792,178384,234823,-3.4959138186,1.2251251712,9.178867493599999,1069
107921,178388,234823,-3.4959138186,1.2251251712,9.178867493599999,1070
108144,178212,235660,-3.46959277,1.2681959779999998,9.2315095908,1071
107788,178193,235691,-3.46959277,1.2681959779999998,9.2315095908,1072
107643,178249,235704,-3.46959277,1.2681959779999998,9.2315095908,1073
107672,178253,235730,-3.46959277,1.2681959779999998,9.2315095908,1074
107835,178315,235819,-3.46959277,1.2681959779999998,9.2315095908,1075
108061,178340,235847,-3.46959277,1.2681959779999998,9.2315095908,1076
108297,178387,235859,-3.46959277,1.2681959779999998,9.2315095908,1077
108439,178373,235863,-3.46959277,1.2681959779999998,9.2315095908,1078
108533,178363,235852,-3.46959277,1.2681959779999998,9.2315095908,1079
108630,178371,235851,-3.46959277,1.2681959779999998,9.2315095908,1080
108732,178404,235843,-3.46959277,1.2681959779999998,9.2315095908,1081
108804,178386,235840,-3.46959277,1.2681959779999998,9.2315095908,1082
108901,178397,235835,-3.46959277,1.2681959779999998,9.2315095908,1083
108995,178383,235871,-3.46959277,1.2681959779999998,9.2315095908,1084
109095,178371,235833,-3.46959277,1.2681959779999998,9.2315095908,1085
109179,178406,235799,-3.46959277,1.2681959779999998,9.2315095908,1086
109269,178406,235820,-3.46959277,1.2681959779999998,9.2315095908,1087
109357,178413,235831,-3.46959277,1.2681959779999998,9.2315095908,1088
109469,178395,235786,-3.46959277,1.2681959779999998,9.2315095908,1089
109572,178397,235832,-3.46959277,1.2681959779999998,9.2315095908,1090
109657,178400,235782,-3.46959277,1.2681959779999998,9.2315095908,1091
109609,178348,235736,-3.46959277,1.2681959779999998,9.2315095908,1092
109092,178227,235695,-3.46959277,1.2681959779999998,9.2315095908,1093
108484,178186,235661,-3.46959277,1.2681959779999998,9.2315095908,1094
108084,178201,235694,-3.46959277,1.2681959779999998,9.2315095908,1095
107937,178222,235700,-3.46959277,1.2681959779999998,9.2315095908,1096
107936,178238,235759,-3.46959277,1.2681959779999998,9.2315095908,1097
108059,178282,235808,-3.46959277,1.2681959779999998,9.2315095908,1098
108305,178338,235851,-3.46959277,1.2681959779999998,9.2315095908,1099
108511,178354,235853,-3.46959277,1.2681959779999998,9.2315095908,1100
108663,178363,235875,-3.46959277,1.2681959779999998,9.2315095908,1101
108804,178347,235874,-3.46959277,1.2681959779999998,9.2315095908,1102
108905,178387,235908,-3.46959277,1.2681959779999998,9.2315095908,1103
108992,178417,235894,-3.46959277,1.2681959779999998,9.2315095908,1104
109072,178400,235895,-3.46959277,1.2681959779999998,9.2315095908,1105
109177,178399,235934,-3.46959277,1.2681959779999998,9.2315095908,1106
109294,178391,235889,-3.46959277,1.2681959779999998,9.2315095908,1107
109391,178405,235911,-3.46959277,1.2681959779999998,9.2315095908,1108
109502,178433,235919,-3.46959277,1.2681959779999998,9.2315095908,1109
109580,178418,235918,-3.46959277,1.2681959779999998,9.2315095908,1110
109695,178464,235941,-3.46959277,1.2681959779999998,9.2315095908,1111
109779,178467,235939,-3.46959277,1.2681959779999998,9.2315095908,1112
108548,178231,235787,-3.5605200288,1.3818550514999999,9.247062937699999,1113
107992,178192,235772,-3.5605200288,1.3818550514999999,9.247062937699999,1114
107669,178186,235827,-3.5605200288,1.3818550514999999,9.247062937699999,1115
107516,178198,235820,-3.5605200288,1.3818550514999999,9.247062937699999,1116
107515,178214,235894,-3.5605200288,1.3818550514999999,9.247062937699999,1117
107621,178258,235941,-3.5605200288,1.3818550514999999,9.247062937699999,1118
107888,178331,235973,-3.5605200288,1.3818550514999999,9.247062937699999,1119
108132,178373,236021,-3.5605200288,1.3818550514999999,9.247062937699999,1120
108305,178372,236045,-3.5605200288,1.3818550514999999,9.247062937699999,1121
108429,178381,236050,-3.5605200288,1.3818550514999999,9.247062937699999,1122
108522,178403,236075,-3.5605200288,1.3818550514999999,9.247062937699999,1123
108614,178386,236044,-3.5605200288,1.3818550514999999,9.247062937699999,1124
108716,178419,236068,-3.5605200288,1.3818550514999999,9.247062937699999,1125
108816,178445,236113,-3.5605200288,1.3818550514999999,9.247062937699999,1126
108926,178422,236048,-3.5605200288,1.3818550514999999,9.247062937699999,1127
109027,178443,236078,-3.5605200288,1.3818550514999999,9.247062937699999,1128
109125,178449,236072,-3.5605200288,1.3818550514999999,9.247062937699999,1129
109243,178438,236092,-3.5605200288,1.3818550514999999,9.247062937699999,1130
109349,178448,236098,-3.5605200288,1.3818550514999999,9.247062937699999,1131
109441,178477,236096,-3.5605200288,1.3818550514999999,9.247062937699999,1132
109364,178419,236039,-3.5605200288,1.3818550514999999,9.247062937699999,1133
108829,178278,235973,-3.5605200288,1.3818550514999999,9.247062937699999,1134
108093,178205,235982,-3.5605200288,1.3818550514999999,9.247062937699999,1135
107613,178205,236002,-3.5605200288,1.3818550514999999,9.247062937699999,1136
107326,178227,236027,-3.5605200288,1.3818550514999999,9.247062937699999,1137
107213,178212,236036,-3.5605200288,1.3818550514999999,9.247062937699999,1138
107245,178255,236085,-3.5605200288,1.3818550514999999,9.247062937699999,1139
107406,178294,236144,-3.5605200288,1.3818550514999999,9.247062937699999,1140
107668,178340,236188,-3.5605200288,1.3818550514999999,9.247062937699999,1141
107914,178343,236221,-3.5605200288,1.3818550514999999,9.247062937699999,1142
108094,178387,236226,-3.5605200288,1.3818550514999999,9.247062937699999,1143
108235,178391,236197,-3.5605200288,1.3818550514999999,9.247062937699999,1144
108375,178425,236278,-3.5605200288,1.3818550514999999,9.247062937699999,1145
108475,178402,236219,-3.5605200288,1.3818550514999999,9.247062937699999,1146
108422,178333,236189,-3.5605200288,1.3818550514999999,9.247062937699999,1147
108020,178303,236145,-3.5605200288,1.3818550514999999,9.247062937699999,1148
107573,178236,236143,-3.5605200288,1.3818550514999999,9.247062937699999,1149
107302,178235,236187,-3.5605200288,1.3818550514999999,9.247062937699999,1150
107268,178259,236196,-3.5605200288,1.3818550514999999,9.247062937699999,1151
107352,178295,236251,-3.5605200288,1.3818550514999999,9.247062937699999,1152
107564,178333,236278,-3.5605200288,1.3818550514999999,9.247062937699999,1153
107832,178356,236335,-3.5605200288,1.3818550514999999,9.247062937699999,1154
108664,178233,236727,-3.5234312785000004,1.2981062605,9.131011041599999,1155
108779,178211,236735,-3.5234312785000004,1.2981062605,9.131011041599999,1156
108883,178194,236737,-3.5234312785000004,1.2981062605,9.131011041599999,1157
108967,178220,236757,-3.5234312785000004,1.2981062605,9.131011041599999,1158
109084,178231,236703,-3.5234312785000004,1.2981062605,9.131011041599999,1159
109177,178239,236692,-3.5234312785000004,1.2981062605,9.131011041599999,1160
109280,178246,236691,-3.5234312785000004,1.2981062605,9.131011041599999,1161
109363,178212,236715,-3.5234312785000004,1.2981062605,9.131011041599999,1162
109149,178099,236631,-3.5234312785000004,1.2981062605,9.131011041599999,1163
108562,178002,236576,-3.5234312785000004,1.2981062605,9.131011041599999,1164
107961,177957,236520,-3.5234312785000004,1.2981062605,9.131011041599999,1165
107637,177931,236574,-3.5234312785000004,1.2981062605,9.131011041599999,1166
107510,177945,236571,-3.5234312785000004,1.2981062605,9.131011041599999,1167
107527,177980,236606,-3.5234312785000004,1.2981062605,9.131011041599999,1168
107679,178016,236617,-3.5234312785000004,1.2981062605,9.131011041599999,1169
107915,178086,236612,-3.5234312785000004,1.2981062605,9.131011041599999,1170
108120,178067,236649,-3.5234312785000004,1.2981062605,9.131011041599999,1171
108270,178110,236674,-3.5234312785000004,1.2981062605,9.131011041599999,1172
108393,178090,236636,-3.5234312785000004,1.2981062605,9.131011041599999,1173
108457,178114,236648,-3.5234312785000004,1.2981062605,9.131011041599999,1174
108547,178111,236618,-3.5234312785000004,1.2981062605,9.131011041599999,1175
108663,178135,236662,-3.5234312785000004,1.2981062605,9.131011041599999,1176
108755,178120,236683,-3.5234312785000004,1.2981062605,9.131011041599999,1177
108852,178139,236663,-3.5234312785000004,1.2981062605,9.131011041599999,1178
108942,178138,236604,-3.5234312785000004,1.2981062605,9.131011041599999,1179
109040,178166,236641,-3.5234312785000004,1.2981062605,9.131011041599999,1180
109141,178172,236662,-3.5234312785000004,1.2981062605,9.131011041599999,1181
109247,178156,236666,-3.5234312785000004,1.2981062605,9.131011041599999,1182
109331,178179,236600,-3.5234312785000004,1.2981062605,9.131011041599999,1183
109187,178107,236587,-3.5234312785000004,1.2981062605,9.131011041599999,1184
108596,177989,236484,-3.5234312785000004,1.2981062605,9.131011041599999,1185
107984,177987,236492,-3.5234312785000004,1.2981062605,9.131011041599999,1186
107619,177941,236504,-3.5234312785000004,1.2981062605,9.131011041599999,1187
107456,177935,236548,-3.5234312785000004,1.2981062605,9.131011041599999,1188
107451,178031,236572,-3.5234312785000004,1.2981062605,9.131011041599999,1189
107609,178056,236636,-3.5234312785000004,1.2981062605,9.131011041599999,1190
107822,178094,236636,-3.5234312785000004,1.2981062605,9.131011041599999,1191
108066,178119,236699,-3.5234312785000004,1.2981062605,9.131011041599999,1192
108207,178149,236684,-3.5234312785000004,1.2981062605,9.131011041599999,1193
108324,178168,236705,-3.5234312785000004,1.2981062605,9.131011041599999,1194
108407,178143,236717,-3.5234312785000004,1.2981062605,9.131011041599999,1195
108514,178169,236659,-3.5234312785000004,1.2981062605,9.131011041599999,1196
108470,178183,236765,-3.565305674,1.2741780345,9.2183490665,1197
108598,178212,236758,-3.565305674,1.2741780345,9.2183490665,1198
108696,178172,236761,-3.565305674,1.2741780345,9.2183490665,1199
108821,178186,236745,-3.565305674,1.2741780345,9.2183490665,1200
108863,178184,236709,-3.565305674,1.2741780345,9.2183490665,1201
108526,178071,236607,-3.565305674,1.2741780345,9.2183490665,1202
107819,177945,236566,-3.565305674,1.2741780345,9.2183490665,1203
107291,177918,236561,-3.565305674,1.2741780345,9.2183490665,1204
107032,177940,236600,-3.565305674,1.2741780345,9.2183490665,1205
106959,177929,236590,-3.565305674,1.2741780345,9.2183490665,1206
107012,177991,236620,-3.565305674,1.2741780345,9.2183490665,1207
107205,178018,236667,-3.565305674,1.2741780345,9.2183490665,1208
107456,178037,236697,-3.565305674,1.2741780345,9.2183490665,1209
107686,178092,236694,-3.565305674,1.2741780345,9.2183490665,1210
107826,178113,236669,-3.565305674,1.2741780345,9.2183490665,1211
107944,178109,236697,-3.565305674,1.2741780345,9.2183490665,1212
108044,178126,236707,-3.565305674,1.2741780345,9.2183490665,1213
108135,178143,236711,-3.565305674,1.2741780345,9.2183490665,1214
108189,178084,236677,-3.565305674,1.2741780345,9.2183490665,1215
107859,178026,236643,-3.565305674,1.2741780345,9.2183490665,1216
107338,177974,236610,-3.565305674,1.2741780345,9.2183490665,1217
107056,177975,236570,-3.565305674,1.2741780345,9.2183490665,1218
107002,178006,236601,-3.565305674,1.2741780345,9.2183490665,1219
107137,178023,236659,-3.565305674,1.2741780345,9.2183490665,1220
107395,178063,236689,-3.565305674,1.2741780345,9.2183490665,1221
107675,178142,236682,-3.565305674,1.2741780345,9.2183490665,1222
107915,178149,236741,-3.565305674,1.2741780345,9.2183490665,1223
108053,178158,236735,-3.565305674,1.2741780345,9.2183490665,1224
108167,178190,236735,-3.565305674,1.2741780345,9.2183490665,1225
108250,178180,236776,-3.565305674,1.2741780345,9.2183490665,1226
108348,178187,236790,-3.565305674,1.2741780345,9.2183490665,1227
108471,178217,236759,-3.565305674,1.2741780345,9.2183490665,1228
108602,178213,236747,-3.565305674,1.2741780345,9.2183490665,1229
108588,178205,236729,-3.565305674,1.2741780345,9.2183490665,1230
108084,178039,236668,-3.565305674,1.2741780345,9.2183490665,1231
107260,177994,236630,-3.565305674,1.2741780345,9.2183490665,1232
106713,177927,236610,-3.565305674,1.2741780345,9.2183490665,1233
106393,177927,236601,-3.565305674,1.2741780345,9.2183490665,1234
106250,177962,236609,-3.565305674,1.2741780345,9.2183490665,1235
106271,177959,236673,-3.565305674,1.2741780345,9.2183490665,1236
106468,178012,236669,-3.565305674,1.2741780345,9.2183490665,1237
106764,178051,236753,-3.565305674,1.2741780345,9.2183490665,1238
108523,178204,236584,-3.4767712378,1.2873385588,9.206384953499999,1239
108245,178058,236504,-3.4767712378,1.2873385588,9.206384953499999,1240
107575,178000,236468,-3.4767712378,1.2873385588,9.206384953499999,1241
107034,177941,236432,-3.4767712378,1.2873385588,9.206384953499999,1242
106773,177950,236424,-3.4767712378,1.2873385588,9.206384953499999,1243
106656,177926,236423,-3.4767712378,1.2873385588,9.206384953499999,1244
106697,177966,236385,-3.4767712378,1.2873385588,9.206384953499999,1245
106919,177995,236434,-3.4767712378,1.2873385588,9.206384953499999,1246
107184,178032,236464,-3.4767712378,1.2873385588,9.206384953499999,1247
107398,178066,236500,-3.4767712378,1.2873385588,9.206384953499999,1248
107519,178059,236475,-3.4767712378,1.2873385588,9.206384953499999,1249
107637,178096,236487,-3.4767712378,1.2873385588,9.206384953499999,1250
107764,178118,236485,-3.4767712378,1.2873385588,9.206384953499999,1251
107882,178126,236497,-3.4767712378,1.2873385588,9.206384953499999,1252
107909,178115,236469,-3.4767712378,1.2873385588,9.206384953499999,1253
107569,178047,236436,-3.4767712378,1.2873385588,9.206384953499999,1254
107106,178006,236373,-3.4767712378,1.2873385588,9.206384953499999,1255
106878,178002,236374,-3.4767712378,1.2873385588,9.206384953499999,1256
106844,177986,236412,-3.4767712378,1.2873385588,9.206384953499999,1257
106970,178067,236450,-3.4767712378,1.2873385588,9.206384953499999,1258
107193,178114,236496,-3.4767712378,1.2873385588,9.206384953499999,1259
107466,178133,236570,-3.4767712378,1.2873385588,9.206384953499999,1260
107689,178154,236521,-3.4767712378,1.2873385588,9.206384953499999,1261
107852,178160,236536,-3.4767712378,1.2873385588,9.206384953499999,1262
107984,178153,236514,-3.4767712378,1.2873385588,9.206384953499999,1263
108106,178158,236510,-3.4767712378,1.2873385588,9.206384953499999,1264
108229,178174,236549,-3.4767712378,1.2873385588,9.206384953499999,1265
108363,178224,236539,-3.4767712378,1.2873385588,9.206384953499999,1266
108480,178243,236538,-3.4767712378,1.2873385588,9.206384953499999,1267
108251,178142,236468,-3.4767712378,1.2873385588,9.206384953499999,1268
107509,178004,236419,-3.4767712378,1.2873385588,9.206384953499999,1269
106829,177945,236370,-3.4767712378,1.2873385588,9.206384953499999,1270
106444,177964,236384,-3.4767712378,1.2873385588,9.206384953499999,1271
106262,177976,236407,-3.4767712378,1.2873385588,9.206384953499999,1272
106249,177964,236430,-3.4767712378,1.2873385588,9.206384953499999,1273
106373,178008,236492,-3.4767712378,1.2873385588,9.206384953499999,1274
106654,178067,236546,-3.4767712378,1.2873385588,9.206384953499999,1275
106978,178123,236587,-3.4767712378,1.2873385588,9.206384953499999,1276
107238,178144,236574,-3.4767712378,1.2873385588,9.206384953499999,1277
107399,178141,236534,-3.4767712378,1.2873385588,9.206384953499999,1278
107518,178162,236548,-3.4767712378,1.2873385588,9.206384953499999,1279
107649,178185,236579,-3.4767712378,1.2873385588,9.206384953499999,1280
107806,178183,236593,-3.5988051904000002,1.3806586402,9.095118702599999,1281
108002,178238,236602,-3.5988051904000002,1.3806586402,9.095118702599999,1282
108143,178225,236598,-3.5988051904000002,1.3806586402,9.095118702599999,1283
107956,178151,236510,-3.5988051904000002,1.3806586402,9.095118702599999,1284
107305,178012,236440,-3.5988051904000002,1.3806586402,9.095118702599999,1285
106788,177987,236402,-3.5988051904000002,1.3806586402,9.095118702599999,1286
106544,177999,236433,-3.5988051904000002,1.3806586402,9.095118702599999,1287
106470,177982,236424,-3.5988051904000002,1.3806586402,9.095118702599999,1288
106557,178014,236421,-3.5988051904000002,1.3806586402,9.095118702599999,1289
106780,178046,236473,-3.5988051904000002,1.3806586402,9.095118702599999,1290
107111,178112,236546,-3.5988051904000002,1.3806586402,9.095118702599999,1291
107419,178148,236543,-3.5988051904000002,1.3806586402,9.095118702599999,1292
107616,178117,236540,-3.5988051904000002,1.3806586402,9.095118702599999,1293
107760,178186,236545,-3.5988051904000002,1.3806586402,9.095118702599999,1294
107880,178158,236531,-3.5988051904000002,1.3806586402,9.095118702599999,1295
108022,178191,236518,-3.5988051904000002,1.3806586402,9.095118702599999,1296
108163,178142,236518,-3.5988051904000002,1.3806586402,9.095118702599999,1297
108290,178183,236509,-3.5988051904000002,1.3806586402,9.095118702599999,1298
108189,178110,236430,-3.5988051904000002,1.3806586402,9.095118702599999,1299
107607,178004,236373,-3.5988051904000002,1.3806586402,9.095118702599999,1300
107120,177941,236329,-3.5988051904000002,1.3806586402,9.095118702599999,1301
106933,177985,236332,-3.5988051904000002,1.3806586402,9.095118702599999,1302
106902,177961,236348,-3.5988051904000002,1.3806586402,9.095118702599999,1303
106987,178006,236365,-3.5988051904000002,1.3806586402,9.095118702599999,1304
107214,178055,236397,-3.5988051904000002,1.3806586402,9.095118702599999,1305
107522,178093,236465,-3.5988051904000002,1.3806586402,9.095118702599999,1306
107777,178116,236450,-3.5988051904000002,1.3806586402,9.095118702599999,1307
107952,178101,236438,-3.5988051904000002,1.3806586402,9.095118702599999,1308
108092,178080,236450,-3.5988051904000002,1.3806586402,9.095118702599999,1309
108225,178143,236397,-3.5988051904000002,1.3806586402,9.095118702599999,1310
108381,178141,236364,-3.5988051904000002,1.3806586402,9.095118702599999,1311
108538,178139,236410,-3.5988051904000002,1.3806586402,9.095118702599999,1312
108703,178136,236392,-3.5988051904000002,1.3806586402,9.095118702599999,1313
108747,178104,236368,-3.5988051904000002,1.3806586402,9.095118702599999,1314
108387,178002,236249,-3.5988051904000002,1.3806586402,9.095118702599999,1315
107888,177925,236232,-3.5988051904000002,1.3806586402,9.095118702599999,1316
107663,177935,236238,-3.5988051904000002,1.3806586402,9.095118702599999,1317
107633,177923,236229,-3.5988051904000002,1.3806586402,9.095118702599999,1318
107710,177963,236252,-3.5988051904000002,1.3806586402,9.095118702599999,1319
107921,178007,236270,-3.5988051904000002,1.3806586402,9.095118702599999,1320
108212,178077,236297,-3.5988051904000002,1.3806586402,9.095118702599999,1321
108485,178093,236314,-3.5988051904000002,1.3806586402,9.095118702599999,1322
111186,178185,235862,-3.6047872469,1.3304093655999998,9.1070828156,1323
110505,178131,235788,-3.6047872469,1.3304093655999998,9.1070828156,1324
109949,178129,235784,-3.6047872469,1.3304093655999998,9.1070828156,1325
109650,178176,235807,-3.6047872469,1.3304093655999998,9.1070828156,1326
109501,178207,235851,-3.6047872469,1.3304093655999998,9.1070828156,1327
109525,178232,235859,-3.6047872469,1.3304093655999998,9.1070828156,1328
109660,178264,235919,-3.6047872469,1.3304093655999998,9.1070828156,1329
109848,178317,235878,-3.6047872469,1.3304093655999998,9.1070828156,1330
109944,178313,235927,-3.6047872469,1.3304093655999998,9.1070828156,1331
109978,178333,235909,-3.6047872469,1.3304093655999998,9.1070828156,1332
110027,178311,235891,-3.6047872469,1.3304093655999998,9.1070828156,1333
110067,178342,235918,-3.6047872469,1.3304093655999998,9.1070828156,1334
110153,178347,235887,-3.6047872469,1.3304093655999998,9.1070828156,1335
110205,178355,235898,-3.6047872469,1.3304093655999998,9.1070828156,1336
110316,178330,235912,-3.6047872469,1.3304093655999998,9.1070828156,1337
110381,178379,235894,-3.6047872469,1.3304093655999998,9.1070828156,1338
110496,178395,235905,-3.6047872469,1.3304093655999998,9.1070828156,1339
110600,178388,235907,-3.6047872469,1.3304093655999998,9.1070828156,1340
110676,178404,235906,-3.6047872469,1.3304093655999998,9.1070828156,1341
110762,178390,235891,-3.6047872469,1.3304093655999998,9.1070828156,1342
110848,178413,235907,-3.6047872469,1.3304093655999998,9.1070828156,1343
110908,178412,235877,-3.6047872469,1.3304093655999998,9.1070828156,1344
110981,178414,235893,-3.6047872469,1.3304093655999998,9.1070828156,1345
110900,178351,235838,-3.6047872469,1.3304093655999998,9.1070828156,1346
110379,178241,235746,-3.6047872469,1.3304093655999998,9.1070828156,1347
109649,178171,235739,-3.6047872469,1.3304093655999998,9.1070828156,1348
109085,178198,235756,-3.6047872469,1.3304093655999998,9.1070828156,1349
108681,178207,235763,-3.6047872469,1.3304093655999998,9.1070828156,1350
108441,178220,235764,-3.6047872469,1.3304093655999998,9.1070828156,1351
108321,178256,235811,-3.6047872469,1.3304093655999998,9.1070828156,1352
108346,178278,235866,-3.6047872469,1.3304093655999998,9.1070828156,1353
108517,178345,235908,-3.6047872469,1.3304093655999998,9.1070828156,1354
108730,178355,235911,-3.6047872469,1.3304093655999998,9.1070828156,1355
108850,178392,235916,-3.6047872469,1.3304093655999998,9.1070828156,1356
108938,178393,235913,-3.6047872469,1.3304093655999998,9.1070828156,1357
109013,178375,235923,-3.6047872469,1.3304093655999998,9.1070828156,1358
109070,178399,235923,-3.6047872469,1.3304093655999998,9.1070828156,1359
109138,178426,235937,-3.6047872469,1.3304093655999998,9.1070828156,1360
109178,178432,235890,-3.6047872469,1.3304093655999998,9.1070828156,1361
109233,178396,235920,-3.6047872469,1.3304093655999998,9.1070828156,1362
109318,178385,235926,-3.6047872469,1.3304093655999998,9.1070828156,1363
109386,178388,235861,-3.6047872469,1.3304093655999998,9.1070828156,1364
108269,178118,235613,-3.6191441825000004,1.4009976323,9.0628155975,1365
107821,178059,235590,-3.6191441825000004,1.4009976323,9.0628155975,1366
107550,178075,235588,-3.6191441825000004,1.4009976323,9.0628155975,1367
107447,178049,235598,-3.6191441825000004,1.4009976323,9.0628155975,1368
107456,178113,235625,-3.6191441825000004,1.4009976323,9.0628155975,1369
107574,178148,235673,-3.6191441825000004,1.4009976323,9.0628155975,1370
107797,178197,235663,-3.6191441825000004,1.4009976323,9.0628155975,1371
107989,178190,235683,-3.6191441825000004,1.4009976323,9.0628155975,1372
108153,178211,235706,-3.6191441825000004,1.4009976323,9.0628155975,1373
108254,178185,235673,-3.6191441825000004,1.4009976323,9.0628155975,1374
108368,178251,235682,-3.6191441825000004,1.4009976323,9.0628155975,1375
108487,178201,235653,-3.6191441825000004,1.4009976323,9.0628155975,1376
108577,178190,235648,-3.6191441825000004,1.4009976323,9.0628155975,1377
108486,178125,235602,-3.6191441825000004,1.4009976323,9.0628155975,1378
108177,178068,235534,-3.6191441825000004,1.4009976323,9.0628155975,1379
107914,178035,235551,-3.6191441825000004,1.4009976323,9.0628155975,1380
107835,178046,235583,-3.6191441825000004,1.4009976323,9.0628155975,1381
107907,178103,235580,-3.6191441825000004,1.4009976323,9.0628155975,1382
108121,178195,235614,-3.6191441825000004,1.4009976323,9.0628155975,1383
108385,178190,235647,-3.6191441825000004,1.4009976323,9.0628155975,1384
108572,178243,235612,-3.6191441825000004,1.4009976323,9.0628155975,1385
108684,178229,235634,-3.6191441825000004,1.4009976323,9.0628155975,1386
108803,178182,235577,-3.6191441825000004,1.4009976323,9.0628155975,1387
108862,178195,235627,-3.6191441825000004,1.4009976323,9.0628155975,1388
108973,178217,235599,-3.6191441825000004,1.4009976323,9.0628155975,1389
109069,178260,235599,-3.6191441825000004,1.4009976323,9.0628155975,1390
109200,178236,235655,-3.6191441825000004,1.4009976323,9.0628155975,1391
109299,178234,235590,-3.6191441825000004,1.4009976323,9.0628155975,1392
109093,178125,235539,-3.6191441825000004,1.4009976323,9.0628155975,1393
108574,178071,235486,-3.6191441825000004,1.4009976323,9.0628155975,1394
108143,178067,235542,-3.6191441825000004,1.4009976323,9.0628155975,1395
107930,178063,235512,-3.6191441825000004,1.4009976323,9.0628155975,1396
107857,178098,235535,-3.6191441825000004,1.4009976323,9.0628155975,1397
107896,178134,235585,-3.6191441825000004,1.4009976323,9.0628155975,1398
108039,178152,235582,-3.6191441825000004,1.4009976323,9.0628155975,1399
108275,178211,235631,-3.6191441825000004,1.4009976323,9.0628155975,1400
108514,178235,235650,-3.6191441825000004,1.4009976323,9.0628155975,1401
108715,178278,235652,-3.6191441825000004,1.4009976323,9.0628155975,1402
108865,178250,235673,-3.6191441825000004,1.4009976323,9.0628155975,1403
108972,178263,235658,-3.6191441825000004,1.4009976323,9.0628155975,1404
109070,178269,235672,-3.6191441825000004,1.4009976323,9.0628155975,1405
109185,178273,235670,-3.6191441825000004,1.4009976323,9.0628155975,1406
109187,178300,235637,-3.5006994637999997,1.3028919057000001,9.2674019298,1407
109102,178264,235621,-3.5006994637999997,1.3028919057000001,9.2674019298,1408
108596,178154,235575,-3.5006994637999997,1.3028919057000001,9.2674019298,1409
108077,178120,235485,-3.5006994637999997,1.3028919057000001,9.2674019298,1410
107781,178119,235562,-3.5006994637999997,1.3028919057000001,9.2674019298,1411
107681,178146,235537,-3.5006994637999997,1.3028919057000001,9.2674019298,1412
107665,178192,235598,-3.5006994637999997,1.3028919057000001,9.2674019298,1413
107781,178210,235608,-3.5006994637999997,1.3028919057000001,9.2674019298,1414
108020,178295,235651,-3.5006994637999997,1.3028919057000001,9.2674019298,1415
108293,178316,235655,-3.5006994637999997,1.3028919057000001,9.2674019298,1416
108486,178304,235703,-3.5006994637999997,1.3028919057000001,9.2674019298,1417
108644,178334,235691,-3.5006994637999997,1.3028919057000001,9.2674019298,1418
108757,178348,235679,-3.5006994637999997,1.3028919057000001,9.2674019298,1419
108861,178378,235660,-3.5006994637999997,1.3028919057000001,9.2674019298,1420
108976,178330,235684,-3.5006994637999997,1.3028919057000001,9.2674019298,1421
109104,178359,235642,-3.5006994637999997,1.3028919057000001,9.2674019298,1422
109196,178348,235663,-3.5006994637999997,1.3028919057000001,9.2674019298,1423
108925,178244,235565,-3.5006994637999997,1.3028919057000001,9.2674019298,1424
108313,178190,235551,-3.5006994637999997,1.3028919057000001,9.2674019298,1425
107842,178161,235583,-3.5006994637999997,1.3028919057000001,9.2674019298,1426
107612,178177,235547,-3.5006994637999997,1.3028919057000001,9.2674019298,1427
107497,178194,235555,-3.5006994637999997,1.3028919057000001,9.2674019298,1428
107510,178232,235549,-3.5006994637999997,1.3028919057000001,9.2674019298,1429
107669,178266,235615,-3.5006994637999997,1.3028919057000001,9.2674019298,1430
107920,178296,235626,-3.5006994637999997,1.3028919057000001,9.2674019298,1431
108168,178330,235638,-3.5006994637999997,1.3028919057000001,9.2674019298,1432
108303,178318,235644,-3.5904303113,1.2047861791,9.0221376133,1433
108417,178308,235636,-3.5904303113,1.2047861791,9.0221376133,1434
108486,178327,235654,-3.5904303113,1.2047861791,9.0221376133,1435
108563,178315,235644,-3.5904303113,1.2047861791,9.0221376133,1436
108678,178332,235638,-3.5904303113,1.2047861791,9.0221376133,1437
108782,178354,235603,-3.5904303113,1.2047861791,9.0221376133,1438
108837,178293,235566,-3.5904303113,1.2047861791,9.0221376133,1439
108517,178206,235530,-3.5904303113,1.2047861791,9.0221376133,1440
107941,178162,235440,-3.5904303113,1.2047861791,9.0221376133,1441
107530,178117,235454,-3.5904303113,1.2047861791,9.0221376133,1442
107359,178146,235460,-3.5904303113,1.2047861791,9.0221376133,1443
107320,178161,235504,-3.5904303113,1.2047861791,9.0221376133,1444
107415,178200,235500,-3.5904303113,1.2047861791,9.0221376133,1445
107635,178259,235589,-3.5904303113,1.2047861791,9.0221376133,1446
107884,178292,235594,-3.5904303113,1.2047861791,9.0221376133,1447
108088,178321,235578,-3.5904303113,1.2047861791,9.0221376133,1448
108196,178322,235584,-3.5904303113,1.2047861791,9.0221376133,1449
108312,178313,235597,-3.5904303113,1.2047861791,9.0221376133,1450
108413,178358,235548,-3.5904303113,1.2047861791,9.0221376133,1451
108561,178371,235568,-3.5904303113,1.2047861791,9.0221376133,1452
108715,178345,235612,-3.5904303113,1.2047861791,9.0221376133,1453
108844,178356,235597,-3.5904303113,1.2047861791,9.0221376133,1454
108850,178330,235532,-3.5904303113,1.2047861791,9.0221376133,1455
108425,178231,235488,-3.5904303113,1.2047861791,9.0221376133,1456
107933,178204,235461,-3.5904303113,1.2047861791,9.0221376133,1457
107699,178197,235459,-3.5904303113,1.2047861791,9.0221376133,1458
107619,178246,235518,-3.5904303113,1.2047861791,9.0221376133,1459
107661,178277,235510,-3.5904303113,1.2047861791,9.0221376133,1460
107848,178292,235566,-3.5904303113,1.2047861791,9.0221376133,1461
108113,178352,235586,-3.5904303113,1.2047861791,9.0221376133,1462
108322,178345,235569,-3.5904303113,1.2047861791,9.0221376133,1463
108463,178347,235566,-3.5904303113,1.2047861791,9.0221376133,1464
108566,178378,235588,-3.5904303113,1.2047861791,9.0221376133,1465
108656,178371,235593,-3.5904303113,1.2047861791,9.0221376133,1466
108726,178364,235547,-3.5904303113,1.2047861791,9.0221376133,1467
108843,178368,235519,-3.5904303113,1.2047861791,9.0221376133,1468
108948,178384,235550,-3.5904303113,1.2047861791,9.0221376133,1469
109086,178372,235537,-3.5904303113,1.2047861791,9.0221376133,1470
108819,178268,235458,-3.5904303113,1.2047861791,9.0221376133,1471
108181,178183,235390,-3.5904303113,1.2047861791,9.0221376133,1472
107715,178193,235427,-3.5904303113,1.2047861791,9.0221376133,1473
107533,178227,235435,-3.5904303113,1.2047861791,9.0221376133,1474
107166,178069,235183,-3.5150563993999997,1.1880364209,9.176474671,1475
107105,178044,235176,-3.5150563993999997,1.1880364209,9.176474671,1476
107154,178109,235233,-3.5150563993999997,1.1880364209,9.176474671,1477
107327,178146,235294,-3.5150563993999997,1.1880364209,9.176474671,1478
107570,178192,235300,-3.5150563993999997,1.1880364209,9.176474671,1479
107855,178205,235299,-3.5150563993999997,1.1880364209,9.176474671,1480
108043,178249,235339,-3.5150563993999997,1.1880364209,9.176474671,1481
108181,178256,235336,-3.5150563993999997,1.1880364209,9.176474671,1482
108320,178255,235336,-3.5150563993999997,1.1880364209,9.176474671,1483
108465,178239,235337,-3.5150563993999997,1.1880364209,9.176474671,1484
108617,178277,235307,-3.5150563993999997,1.1880364209,9.176474671,1485
108750,178280,235327,-3.5150563993999997,1.1880364209,9.176474671,1486
108793,178226,235259,-3.5150563993999997,1.1880364209,9.176474671,1487
108438,178114,235185,-3.5150563993999997,1.1880364209,9.176474671,1488
107865,178059,235102,-3.5150563993999997,1.1880364209,9.176474671,1489
107539,178068,235127,-3.5150563993999997,1.1880364209,9.176474671,1490
107398,178071,235174,-3.5150563993999997,1.1880364209,9.176474671,1491
107401,178076,235178,-3.5150563993999997,1.1880364209,9.176474671,1492
107505,178104,235246,-3.5150563993999997,1.1880364209,9.176474671,1493
107743,178187,235255,-3.5150563993999997,1.1880364209,9.176474671,1494
108014,178215,235296,-3.5641092626999997,1.2275179938,9.2135634213,1495
108258,178259,235266,-3.5641092626999997,1.2275179938,9.2135634213,1496
108427,178245,235320,-3.5641092626999997,1.2275179938,9.2135634213,1497
108556,178287,235295,-3.5676984966,1.2622139215000001,9.0484586619,1498
108665,178247,235292,-3.5676984966,1.2622139215000001,9.0484586619,1499
108760,178265,235307,-3.5676984966,1.2622139215000001,9.0484586619,1500
108901,178277,235307,-3.5676984966,1.2622139215000001,9.0484586619,1501
109009,178243,235222,-3.5676984966,1.2622139215000001,9.0484586619,1502
108757,178161,235188,-3.5676984966,1.2622139215000001,9.0484586619,1503
108188,178082,235088,-3.5676984966,1.2622139215000001,9.0484586619,1504
107786,178063,235110,-3.5676984966,1.2622139215000001,9.0484586619,1505
107625,178090,235116,-3.5676984966,1.2622139215000001,9.0484586619,1506
107580,178083,235152,-3.5676984966,1.2622139215000001,9.0484586619,1507
107658,178113,235207,-3.5676984966,1.2622139215000001,9.0484586619,1508
107833,178151,235200,-3.5676984966,1.2622139215000001,9.0484586619,1509
108115,178221,235246,-3.5676984966,1.2622139215000001,9.0484586619,1510
108384,178242,235219,-3.5676984966,1.2622139215000001,9.0484586619,1511
108554,178240,235244,-3.5676984966,1.2622139215000001,9.0484586619,1512
108677,178247,235234,-3.5676984966,1.2622139215000001,9.0484586619,1513
108780,178269,235228,-3.5676984966,1.2622139215000001,9.0484586619,1514
108908,178256,235235,-3.5676984966,1.2622139215000001,9.0484586619,1515
109009,178256,235221,-3.5676984966,1.2622139215000001,9.0484586619,1516
109146,178268,235229,-3.5676984966,1.2622139215000001,9.0484586619,1517
109139,178221,235204,-3.5676984966,1.2622139215000001,9.0484586619,1518
108701,178088,235110,-3.5676984966,1.2622139215000001,9.0484586619,1519
108169,178066,235096,-3.5676984966,1.2622139215000001,9.0484586619,1520
107876,178063,235061,-3.5676984966,1.2622139215000001,9.0484586619,1521
107781,178081,235087,-3.5676984966,1.2622139215000001,9.0484586619,1522
107794,178110,235105,-3.5676984966,1.2622139215000001,9.0484586619,1523
107920,178182,235150,-3.5676984966,1.2622139215000001,9.0484586619,1524
108180,178203,235188,-3.5676984966,1.2622139215000001,9.0484586619,1525
108472,178272,235200,-3.5676984966,1.2622139215000001,9.0484586619,1526
108662,178233,235199,-3.5676984966,1.2622139215000001,9.0484586619,1527
108802,178284,235214,-3.5676984966,1.2622139215000001,9.0484586619,1528
108905,178278,235173,-3.5676984966,1.2622139215000001,9.0484586619,1529
