green,red,IR,acc_x,acc_y,acc_z,sample_index
86370,179616,242545,-9.355936366,0.0801595571,2.5052852621999997,1
86453,179628,242509,-9.3332045513,0.0382851616,2.5507488916,2
86591,179659,242552,-9.5677011661,0.021535403399999997,2.5160529638999996,3
86706,179680,242518,-9.4719882621,0.0299102825,2.4957139718,4
86655,179637,242498,-9.3415794304,0.1004985492,2.5076780847999998,5
86142,179572,242559,-9.3774717694,0.0502492746,2.416750826,6
85214,179482,242564,-9.3116691479,-0.0610169763,2.5232314317,7
84557,179410,242539,-9.4325066892,0.0191425808,2.5196421978,8
84495,179407,242482,-9.463613383,0.095712904,2.6069802227000003,9
84501,179401,242517,-9.3631148338,-0.035892339,2.6644079651,10
84666,179434,242563,-9.379864592,-0.0047856452,2.4693929232,11
84875,179468,242527,-9.463613383,0.04307080679999999,2.5363919559999997,12
85103,179487,242580,-9.2697947524,0.015553346899999999,2.5686950610999997,13
85266,179493,242545,-9.4731846734,0.10289137179999999,2.5830519966999996,14
85237,179532,242580,-9.477970318599999,-0.0275174599,2.5028924396,15
85237,179494,242575,-9.3786681807,0.045463629400000004,2.4550359876,16
85290,179503,242584,-9.371489712899999,-0.0191425808,2.5196421978,17
85426,179521,242573,-9.3355973739,0.2165504453,2.4239292938,18
85530,179532,242539,-9.510273423700001,0.1926222193,2.4574288102,19
85636,179541,242569,-9.299705034899999,0.0933200814,2.5196421978,20
85748,179546,242565,-9.4133641084,-0.06340979890000001,2.488535504,21
85907,179587,242563,-9.4301138666,0.1902293967,2.5184457865,22
85993,179645,242546,-9.456434915200001,-0.0167497582,2.4681965119,23
86119,179614,242535,-9.367900479,0.0705882667,2.5280170769,24
86253,179601,242517,-9.497112899400001,0.1256231865,2.4837498588,25
86373,179610,242582,-9.443274390900001,0.1543370577,2.5387847786,26
86486,179600,242545,-9.456434915200001,0.0466600407,2.5639094158999995,27
86587,179634,242537,-9.3188476157,0.0729810893,2.5244278430000002,28
86719,179652,242560,-9.3750789468,0.09930213789999999,2.404786713,29
86845,179665,242505,-9.2853480993,-0.0574277424,2.4741785684,30
86598,179605,242602,-9.3966143502,0.1136590735,2.4957139718,31
85882,179513,242567,-9.3009014462,0.1256231865,2.5363919559999997,32
85090,179436,242535,-9.427721044,0.071784678,2.6117658679000004,33
84754,179428,242553,-9.2398844699,-0.0191425808,2.464607278,34
84738,179431,242567,-9.4588277378,0.04307080679999999,2.500499617,35
84832,179444,242514,-9.495916488099999,0.0143569356,2.5268206656,36
85021,179452,242535,-9.2685983411,0.0646062102,2.5220350203999997,37
85255,179492,242560,-9.4085784632,0.0693918554,2.5447668351,38
85413,179514,242581,-9.4923272542,0.0825523797,2.440679052,39
85455,179462,242608,-9.343972252999999,-0.0167497582,2.476571391,40
85430,179515,242557,-9.3834538259,-0.023928226,2.6105694566,41
85454,179496,242620,-9.327222494799999,0.1543370577,2.5651058272,42
85535,179470,242615,-9.2973122123,0.047856452,2.488535504,43
85647,179529,242574,-9.1968136631,0.0059820565,2.5351955446999996,44
85735,179555,242576,-9.3188476157,0.0095712904,2.4957139718,45
85845,179521,242599,-9.3547399547,0.11964113,2.5615165933,46
85943,179530,242610,-9.4372923344,-0.0179461695,2.5220350203999997,47
86001,179521,242610,-9.3020978575,0.08614161359999999,2.51246373,48
86123,179564,242530,-9.3954179389,-0.0526420972,2.5686950610999997,49
86220,179567,242555,-9.410971285799999,0.12323036389999999,2.5088744961000002,50
86340,179525,242558,-9.3164547931,0.0,2.5244278430000002,51
86461,179553,242563,-9.376275358100001,0.0729810893,2.452643165,52
86514,179538,242553,-9.3966143502,0.2727817764,2.5507488916,53
86597,179546,242555,-9.4241318101,0.0023928226,2.4131615921,54
86691,179572,242514,-9.415756931,0.0550349198,2.4574288102,55
86827,179552,242537,-9.385846648500001,0.1328016543,2.3605194949,56
86660,179567,242527,-9.3499543095,-0.0550349198,2.5806591741,57
85992,179443,242560,-9.3367937852,0.071784678,2.5268206656,58
85204,179340,242522,-9.3966143502,0.1040877831,2.51246373,59
84783,179301,242505,-9.3667040677,0.1399801221,2.476571391,60
84752,179293,242532,-9.3726861242,0.1004985492,2.5064816735,61
84913,179306,242507,-9.4229353988,0.023928226,2.5220350203999997,62
85066,179347,242534,-9.3188476157,0.04307080679999999,2.4430718746,63
85288,179384,242559,-9.3882394711,0.071784678,2.5316063108,64
85443,179363,242541,-9.4301138666,0.0777667345,2.4789642136,65
85444,179357,242562,-9.3499543095,0.1256231865,2.4741785684,66
85368,179356,242536,-9.4839523751,-0.0035892339,2.4215364712,67
85418,179337,242588,-9.3427758417,0.062213387599999996,2.5423740125,68
85467,179343,242610,-9.3726861242,0.0275174599,2.5172493752,69
85558,179357,242550,-9.3834538259,0.0334995164,2.5112673187,70
85657,179353,242576,-9.415756931,0.0287138712,2.5268206656,71
85777,179359,242544,-9.2853480993,0.0849452023,2.440679052,72
85861,179385,242524,-9.5377908836,0.0287138712,2.4981067944,73
86017,179375,242521,-9.4061856406,0.1423729447,2.5148565526000004,74
86161,179440,242521,-9.3631148338,0.0574277424,2.5136601413,75
86302,179451,242493,-9.463613383,0.0143569356,2.4550359876,76
86495,179469,242508,-9.4612205604,0.1292124204,2.5639094158999995,77
86659,179477,242525,-9.3894358824,0.1950150419,2.4789642136,78
86875,179555,242554,-9.522237536699999,0.0574277424,2.5172493752,79
86896,179541,242494,-9.4133641084,0.0753739119,2.5710878837,80
86448,179453,242549,-9.3583291886,0.0981057266,2.500499617,81
85693,179413,242525,-9.3738825355,0.0921236701,2.5316063108,82
85237,179346,242548,-9.3942215276,0.011964113,2.4861426814,83
85182,179379,242580,-9.4408815683,0.09092725880000001,2.5926232871,84
85263,179382,242562,-9.4133641084,0.0526420972,2.4382862294,85
85490,179434,242583,-9.3822574146,0.0741775006,2.6165515131,86
85749,179471,242584,-9.4253282214,0.0765703232,2.5328027221,87
85973,179499,242595,-9.3834538259,0.09092725880000001,2.4789642136,88
85988,179483,242619,-9.4612205604,0.0765703232,2.4909283265999997,89
85998,179515,242622,-9.5258267706,0.08374879099999999,2.4909283265999997,90
86036,179517,242624,-9.3332045513,-0.0658026215,2.572284295,91
86102,179525,242600,-9.5018985446,0.0394815729,2.5806591741,92
86219,179552,242630,-9.3068835027,0.0849452023,2.5591237707,93
86352,179563,242573,-9.4468636248,0.0490528633,2.5268206656,94
86494,179554,242645,-9.4612205604,0.035892339,2.5878376418999998,95
86559,179588,242676,-9.4049892293,0.031106693799999998,2.5196421978,96
86687,179616,242586,-9.427721044,-0.0095712904,2.5435704238000003,97
86781,179588,242625,-9.391828705,0.0346959277,2.4550359876,98
86890,179613,242649,-9.4013999954,0.0071784678,2.5878376418999998,99
86996,179612,242607,-9.6251289085,0.0574277424,2.5064816735,100
87121,179697,242652,-9.3774717694,-0.0047856452,2.5196421978,101
87246,179651,242609,-9.330811728699999,0.12323036389999999,2.5076780847999998,102
87173,179622,242634,-9.499505722,0.0550349198,2.5507488916,103
86409,179576,242624,-9.4265246327,-0.0011964113,2.5220350203999997,104
85518,179450,242634,-9.4528456813,0.0011964113,2.4777678023000003,105
85038,179384,242618,-9.4325066892,0.0095712904,2.4957139718,106
84915,179360,242651,-9.3942215276,0.1160518961,2.5208386090999997,107
84940,179384,242578,-9.399007172800001,0.0669990328,2.440679052,108
85089,179403,242641,-9.3355973739,0.0143569356,2.5639094158999995,109
85306,179437,242640,-9.391828705,-0.0394815729,2.4550359876,110
85533,179494,242703,-9.3260260835,0.0777667345,2.4981067944,111
85619,179525,242661,-9.4229353988,0.0945164927,2.4598216327999998,112
85606,179500,242674,-9.4337031005,0.040677984199999996,2.4981067944,113
85609,179474,242705,-9.3152583818,0.0574277424,2.5316063108,114
85680,179502,242675,-9.330811728699999,0.1136590735,2.6045874001,115
85785,179503,242686,-9.3870430598,0.0586241537,2.5615165933,116
85886,179505,242707,-9.3260260835,0.0921236701,2.5447668351,117
85996,179522,242717,-9.353543543399999,0.10289137179999999,2.5196421978,118
86091,179569,242732,-9.456434915200001,0.1112662509,2.4837498588,119
86175,179545,242706,-9.4600241491,0.1004985492,2.6045874001,120
86288,179548,242736,-9.327222494799999,0.08614161359999999,2.5172493752,121
86423,179584,242703,-9.4181497536,-0.0095712904,2.4442682859,122
86519,179607,242701,-9.286544510599999,0.062213387599999996,2.5268206656,123
86635,179629,242669,-9.4540420926,0.16271193679999998,2.6189443356999997,124
86738,179614,242685,-9.4456672135,0.1112662509,2.4693929232,125
86843,179634,242654,-9.2685983411,0.0095712904,2.4909283265999997,126
86902,179624,242690,-9.443274390900001,0.0849452023,2.5100709074,127
86559,179576,242698,-9.3379901965,-0.011964113,2.5854448193,128
85682,179476,242711,-9.495916488099999,0.0346959277,2.4155544147,129
84894,179373,242681,-9.4624169717,0.08614161359999999,2.464607278,130
84567,179365,242630,-9.4492564474,-0.0035892339,2.5028924396,131
84518,179377,242653,-9.320044027,-0.023928226,2.5016960283,132
84612,179413,242669,-9.376275358100001,0.10648060570000001,2.5902304645,133
84832,179431,242654,-9.3750789468,0.071784678,2.5256242543,134
85093,179443,242676,-9.391828705,0.0143569356,2.5220350203999997,135
85190,179450,242685,-9.4169533423,0.023928226,2.4921247379,136
85215,179439,242722,-9.2877409219,0.0023928226,2.4574288102,137
85181,179469,242663,-9.420542576199999,0.1399801221,2.5064816735,138
85214,179488,242701,-9.340383019099999,0.08853443620000001,2.4921247379,139
85287,179471,242684,-9.3702933016,0.0933200814,2.4813570362,140
85402,179492,242684,-9.299705034899999,0.08374879099999999,2.6117658679000004,141
85509,179505,242661,-9.3822574146,0.1399801221,2.4598216327999998,142
85618,179516,242680,-9.3607220112,0.021535403399999997,2.4981067944,143
85714,179529,242666,-9.2949193897,0.0897308475,2.5172493752,144
85822,179534,242674,-9.391828705,-0.0526420972,2.5531417142,145
85912,179547,242650,-9.345168664300001,0.10169496049999999,2.5806591741,146
86034,179567,242665,-9.3894358824,-0.022731814700000002,2.4933211492,147
86149,179599,242643,-9.3966143502,-0.0502492746,2.4550359876,148
86229,179591,242615,-9.3044906801,0.0550349198,2.4382862294,149
86371,179620,242623,-9.3726861242,0.0263210486,2.5076780847999998,150
86470,179562,242664,-9.4947200768,0.09690931529999999,2.4813570362,151
86561,179630,242672,-9.4935236655,0.0777667345,2.5339991334,152
86658,179630,242637,-9.4372923344,0.062213387599999996,2.5543381254999997,153
86621,179607,242663,-9.4133641084,0.0849452023,2.5375883673,154
86031,179505,242656,-9.4743810847,0.1471585899,2.500499617,155
85122,179413,242673,-9.4229353988,0.0693918554,2.5100709074,156
84511,179375,242592,-9.3427758417,0.071784678,2.5746771176,157
84363,179341,242597,-9.5653083435,0.0658026215,2.5268206656,158
84389,179358,242606,-9.3212404383,0.010767701699999998,2.4813570362,159
84527,179276,242615,-9.3726861242,-0.0035892339,2.5543381254999997,160
84763,179373,242611,-9.290133744499999,0.040677984199999996,2.5220350203999997,161
84940,179418,242588,-9.427721044,-0.0334995164,2.5447668351,162
85012,179409,242624,-9.4480600361,0.20937197749999997,2.5531417142,163
84957,179378,242587,-9.415756931,0.021535403399999997,2.5268206656,164
84933,179380,242595,-9.391828705,0.021535403399999997,2.5088744961000002,165
84980,179398,242594,-9.4612205604,0.1806581063,2.5543381254999997,166
85068,179362,242612,-9.3379901965,0.0346959277,2.5040888509,167
85156,179305,242621,-9.4492564474,0.0263210486,2.5591237707,168
85227,179391,242565,-9.439685157,0.031106693799999998,2.4670001006,169
85300,179375,242563,-9.3176512044,0.131605243,2.4610180441000002,170
85409,179394,242592,-9.4025964067,0.071784678,2.5567309481,171
85461,179381,242540,-9.340383019099999,0.1100698396,2.5328027221,172
85515,179419,242550,-9.3870430598,0.059820565,2.4598216327999998,173
85624,179414,242578,-9.4504528587,0.0705882667,2.4598216327999998,174
85707,179408,242530,-9.3248296722,0.015553346899999999,2.4825534475,175
85780,179401,242484,-9.3379901965,0.24885355039999998,2.4921247379,176
85863,179374,242461,-9.463613383,0.0741775006,2.4454646972,177
85937,179403,242529,-9.403792818,-0.0323031051,2.5519453029,178
86014,179397,242491,-9.3810610033,0.15672988029999999,2.6189443356999997,179
85959,179368,242531,-9.4253282214,0.1782652837,2.5818555854,180
85290,179256,242470,-9.3260260835,0.0023928226,2.5459632464,181
84490,179146,242456,-9.4181497536,0.0801595571,2.4119651808,182
84071,179150,242429,-9.4253282214,0.0143569356,2.4335005842,183
84000,179137,242462,-9.2877409219,0.0825523797,2.5555345367999998,184
84100,179163,242470,-9.4803631412,0.0,2.5447668351,185
84240,179163,242431,-9.510273423700001,0.1639083481,2.428714939,186
84558,179210,242443,-9.4133641084,0.1256231865,2.4717857458,187
84705,179203,242442,-9.4444708022,0.0143569356,2.5196421978,188
84707,179201,242446,-9.4325066892,0.040677984199999996,2.4251257050999997,189
84674,179208,242437,-9.3499543095,0.041874395499999995,2.4358934068,190
84755,179227,242417,-9.5150590689,0.0825523797,2.5423740125,191
84883,179240,242449,-9.2829552767,0.1423729447,2.5519453029,192
85019,179288,242454,-9.3954179389,0.08853443620000001,2.4837498588,193
85190,179307,242477,-9.463613383,0.1160518961,2.5423740125,194
85346,179331,242408,-9.5007021333,0.0143569356,2.5052852621999997,195
85520,179347,242454,-9.3164547931,0.08853443620000001,2.5555345367999998,196
85648,179406,242397,-9.4133641084,0.011964113,2.51246373,197
85808,179431,242465,-9.290133744499999,-0.056231331100000004,2.5100709074,198
85951,179437,242451,-9.4097748745,0.1399801221,2.4777678023000003,199
86080,179449,242454,-9.410971285799999,0.045463629400000004,2.5208386090999997,200
86192,179492,242453,-9.3954179389,0.0047856452,2.4993032057,201
86298,179486,242479,-9.4863451977,0.0801595571,2.4442682859,202
86354,179479,242480,-9.384650237199999,0.0275174599,2.5052852621999997,203
85982,179455,242449,-9.367900479,0.09930213789999999,2.5196421978,204
85137,179355,242494,-9.3942215276,0.1088734283,2.4622144554,205
84504,179321,242474,-9.4013999954,0.0586241537,2.4502503424,206
84314,179284,242441,-9.3116691479,-0.011964113,2.3916261887,207
84418,179296,242464,-9.2877409219,0.047856452,2.6021945774999997,208
84507,179312,242447,-9.3176512044,0.12083754129999999,2.4215364712,209
84778,179331,242486,-9.3463650756,0.15672988029999999,2.6524438520999998,210
84972,179379,242472,-9.4289174553,0.1088734283,2.5555345367999998,211
85099,179417,242498,-9.410971285799999,-0.08853443620000001,2.5100709074,212
85100,179405,242470,-9.3882394711,0.1256231865,2.4693929232,213
85075,179389,242511,-9.559326287,0.062213387599999996,2.4478575198,214
85115,179402,242482,-9.495916488099999,0.0334995164,2.4837498588,215
85247,179407,242495,-9.2973122123,-0.0059820565,2.4909283265999997,216
85370,179430,242463,-9.439685157,-0.020338992099999998,2.500499617,217
85556,179476,242529,-9.3296153174,0.10648060570000001,2.476571391,218
85597,179465,242519,-9.4372923344,0.0526420972,2.6452653843,219
85704,179492,242459,-9.2303131795,0.09690931529999999,2.6309084487,220
85816,179497,242491,-9.3619184225,0.0502492746,2.4741785684,221
85918,179477,242483,-9.3415794304,0.11844471869999999,2.4957139718,222
85949,179530,242455,-9.5605226983,-0.0071784678,2.5615165933,223
86151,179537,242476,-9.3738825355,-0.0765703232,2.4574288102,224
86262,179577,242474,-9.3523471321,0.06340979890000001,2.4981067944,225
86414,179578,242509,-9.4253282214,0.0,2.500499617,226
86483,179568,242469,-9.4325066892,0.16151552549999998,2.4430718746,227
86413,179559,242479,-9.4444708022,-0.040677984199999996,2.4909283265999997,228
85815,179460,242446,-9.427721044,0.19381863059999999,2.4095723582,229
84913,179385,242488,-9.5030949559,0.1710868159,2.488535504,230
84344,179303,242440,-9.427721044,0.08135596839999999,2.4789642136,231
84181,179293,242431,-9.4660062056,0.1926222193,2.4933211492,232
84191,179313,242502,-9.4660062056,0.1926222193,2.4933211492,233
84298,179351,242464,-9.4660062056,0.1926222193,2.4933211492,234
84508,179356,242487,-9.4660062056,0.1926222193,2.4933211492,235
84738,179406,242481,-9.3966143502,-0.035892339,2.4909283265999997,236
84842,179395,242526,-9.4121676971,0.0825523797,2.5196421978,237
84853,179406,242521,-9.4313102779,0.0945164927,2.5639094158999995,238
84864,179413,242493,-9.3547399547,-0.021535403399999997,2.5220350203999997,239
84899,179426,242490,-9.3643112451,0.0981057266,2.4717857458,240
85010,179456,242518,-9.384650237199999,0.095712904,2.5555345367999998,241
85128,179450,242528,-9.4133641084,0.0705882667,2.4717857458,242
85247,179456,242498,-9.3631148338,0.1387837108,2.5184457865,243
85344,179462,242501,-9.4289174553,0.023928226,2.500499617,244
85433,179478,242457,-9.407382051899999,0.0251246373,2.4670001006,245
85559,179499,242479,-9.475577496,0.0897308475,2.4071795356,246
85683,179502,242464,-9.4229353988,0.1148554848,2.5663022385,247
85817,179511,242487,-9.4325066892,0.131605243,2.4981067944,248
85929,179536,242501,-9.3942215276,0.0143569356,2.4550359876,249
86035,179527,242462,-9.4229353988,0.0095712904,2.4861426814,250
86180,179539,242462,-9.5413801175,0.035892339,2.4502503424,251
86262,179556,242454,-9.4217389875,0.10169496049999999,2.4741785684,252
86354,179568,242499,-9.4983093107,0.0191425808,2.4873390927,253
86344,179554,242489,-9.463613383,0.1172483074,2.4215364712,254
85781,179459,242510,-9.3906322937,0.08374879099999999,2.5591237707,255
84867,179278,242439,-9.3942215276,-0.0131605243,2.5220350203999997,256
84306,179324,242483,-9.4193461649,0.1483550012,2.4598216327999998,257
84127,179329,242452,-9.4265246327,0.08135596839999999,2.5543381254999997,258
84176,179342,242456,-9.272187575,0.06340979890000001,2.4203400599,259
84321,179357,242474,-9.399007172800001,-0.0394815729,2.5615165933,260
84576,179367,242465,-9.2781696315,0.1579262916,2.4861426814,261
84819,179412,242465,-9.4061856406,0.14476576730000001,2.4598216327999998,262
84923,179430,242485,-9.4348995118,0.1519442351,2.4729821571,263
84904,179429,242482,-9.3547399547,0.06340979890000001,2.51246373,264
84933,179419,242504,-9.3822574146,0.0071784678,2.440679052,265
84985,179432,242475,-9.3894358824,0.11246266220000001,2.4813570362,266
85066,179421,242495,-9.495916488099999,0.10289137179999999,2.4598216327999998,267
85090,179441,242485,-9.420542576199999,0.047856452,2.5112673187,268
85246,179443,242474,-9.224331123,0.0777667345,2.5591237707,269
85341,179464,242448,-9.3966143502,0.0502492746,2.5686950610999997,270
85448,179474,242509,-9.4827559638,0.1399801221,2.5998017549,271
85525,179453,242486,-9.3942215276,0.0263210486,2.4622144554,272
85625,179464,242434,-9.3140619705,0.1220339526,2.5244278430000002,273
85731,179488,242448,-9.3702933016,0.1004985492,2.4777678023000003,274
85820,179490,242507,-9.355936366,0.08614161359999999,2.4622144554,275
85933,179471,242470,-9.3248296722,0.023928226,2.4454646972,276
86028,179457,242453,-9.3248296722,0.023928226,2.4454646972,277
86095,179466,242474,-9.3248296722,0.023928226,2.4454646972,278
86163,179496,242456,-9.3248296722,0.023928226,2.4454646972,279
86251,179490,242448,-9.3248296722,0.023928226,2.4454646972,280
86255,179462,242455,-9.3248296722,0.023928226,2.4454646972,281
85822,179374,242416,-9.3248296722,0.023928226,2.4454646972,282
84954,179281,242371,-9.3248296722,0.023928226,2.4454646972,283
84351,179211,242402,-9.3248296722,0.023928226,2.4454646972,284
84179,179217,242430,-9.3248296722,0.023928226,2.4454646972,285
84242,179200,242438,-9.3248296722,0.023928226,2.4454646972,286
84394,179244,242434,-9.3248296722,0.023928226,2.4454646972,287
84639,179249,242403,-9.3248296722,0.023928226,2.4454646972,288
84823,179234,242366,-9.3248296722,0.023928226,2.4454646972,289
84891,179264,242397,-9.3248296722,0.023928226,2.4454646972,290
84845,179264,242481,-9.3248296722,0.023928226,2.4454646972,291
84836,179251,242433,-9.3248296722,0.023928226,2.4454646972,292
84914,179258,242430,-9.3248296722,0.023928226,2.4454646972,293
85029,179276,242431,-9.3248296722,0.023928226,2.4454646972,294
85170,179304,242404,-9.3248296722,0.023928226,2.4454646972,295
85326,179343,242375,-9.3248296722,0.023928226,2.4454646972,296
85454,179349,242404,-9.3248296722,0.023928226,2.4454646972,297
85600,179366,242373,-9.3248296722,0.023928226,2.4454646972,298
85763,179388,242411,-9.3248296722,0.023928226,2.4454646972,299
85958,179415,242401,-9.3248296722,0.023928226,2.4454646972,300
86163,179431,242450,-9.3248296722,0.023928226,2.4454646972,301
86338,179481,242402,-9.3248296722,0.023928226,2.4454646972,302
86517,179529,242459,-9.3248296722,0.023928226,2.4454646972,303
86652,179546,242457,-9.3248296722,0.023928226,2.4454646972,304
86786,179563,242439,-9.3248296722,0.023928226,2.4454646972,305
86722,179522,242418,-9.3248296722,0.023928226,2.4454646972,306
86121,179487,242489,-9.3248296722,0.023928226,2.4454646972,307
85334,179398,242484,-9.3248296722,0.023928226,2.4454646972,308
84927,179343,242474,-9.3248296722,0.023928226,2.4454646972,309
84861,179366,242484,-9.3248296722,0.023928226,2.4454646972,310
84995,179378,242508,-9.3248296722,0.023928226,2.4454646972,311
85214,179431,242528,-9.3248296722,0.023928226,2.4454646972,312
85485,179477,242447,-9.3248296722,0.023928226,2.4454646972,313
85688,179451,242415,-9.3248296722,0.023928226,2.4454646972,314
85740,179483,242491,-9.3248296722,0.023928226,2.4454646972,315
85751,179481,242498,-9.3248296722,0.023928226,2.4454646972,316
85749,179482,242525,-9.3248296722,0.023928226,2.4454646972,317
87480,179687,242583,-9.3032942688,0.0921236701,2.5316063108,318
87388,179644,242612,-9.3032942688,0.0921236701,2.5316063108,319
86746,179571,242564,-9.3032942688,0.0921236701,2.5316063108,320
85828,179477,242577,-9.3032942688,0.0921236701,2.5316063108,321
85285,179424,242609,-9.3032942688,0.0921236701,2.5316063108,322
85151,179426,242549,-9.3032942688,0.0921236701,2.5316063108,323
85178,179426,242548,-9.3032942688,0.0921236701,2.5316063108,324
85300,179462,242568,-9.3032942688,0.0921236701,2.5316063108,325
85555,179434,242582,-9.3032942688,0.0921236701,2.5316063108,326
85756,179469,242576,-9.3032942688,0.0921236701,2.5316063108,327
85821,179508,242576,-9.3032942688,0.0921236701,2.5316063108,328
85794,179480,242636,-9.3032942688,0.0921236701,2.5316063108,329
85775,179479,242541,-9.3032942688,0.0921236701,2.5316063108,330
85809,179478,242566,-9.3032942688,0.0921236701,2.5316063108,331
85868,179515,242591,-9.3032942688,0.0921236701,2.5316063108,332
85947,179493,242595,-9.3032942688,0.0921236701,2.5316063108,333
86020,179481,242553,-9.3032942688,0.0921236701,2.5316063108,334
86085,179502,242555,-9.3032942688,0.0921236701,2.5316063108,335
86171,179516,242556,-9.3032942688,0.0921236701,2.5316063108,336
86265,179509,242545,-9.3032942688,0.0921236701,2.5316063108,337
86344,179515,242531,-9.3032942688,0.0921236701,2.5316063108,338
86439,179495,242499,-9.3032942688,0.0921236701,2.5316063108,339
86517,179509,242533,-9.3032942688,0.0921236701,2.5316063108,340
86582,179520,242500,-9.3032942688,0.0921236701,2.5316063108,341
86668,179504,242519,-9.3032942688,0.0921236701,2.5316063108,342
86728,179502,242534,-9.3032942688,0.0921236701,2.5316063108,343
86808,179511,242529,-9.3032942688,0.0921236701,2.5316063108,344
86853,179490,242520,-9.3032942688,0.0921236701,2.5316063108,345
86753,179449,242523,-9.3032942688,0.0921236701,2.5316063108,346
86121,179364,242497,-9.3032942688,0.0921236701,2.5316063108,347
85251,179290,242479,-9.3032942688,0.0921236701,2.5316063108,348
84776,179230,242453,-9.3032942688,0.0921236701,2.5316063108,349
84686,179200,242451,-9.3032942688,0.0921236701,2.5316063108,350
84774,179222,242492,-9.3032942688,0.0921236701,2.5316063108,351
84955,179248,242478,-9.3032942688,0.0921236701,2.5316063108,352
85186,179284,242510,-9.3032942688,0.0921236701,2.5316063108,353
85339,179290,242450,-9.3032942688,0.0921236701,2.5316063108,354
85353,179269,242473,-9.3032942688,0.0921236701,2.5316063108,355
85307,179276,242428,-9.3032942688,0.0921236701,2.5316063108,356
85327,179253,242461,-9.3032942688,0.0921236701,2.5316063108,357
85443,179279,242480,-9.3032942688,0.0921236701,2.5316063108,358
85563,179316,242438,-9.3032942688,0.0921236701,2.5316063108,359
86635,179590,242613,-9.4660062056,0.08135596839999999,2.4382862294,360
86738,179582,242574,-9.4660062056,0.08135596839999999,2.4382862294,361
86851,179620,242566,-9.4660062056,0.08135596839999999,2.4382862294,362
86983,179623,242605,-9.4660062056,0.08135596839999999,2.4382862294,363
87106,179636,242623,-9.4660062056,0.08135596839999999,2.4382862294,364
87210,179609,242608,-9.4660062056,0.08135596839999999,2.4382862294,365
87318,179647,242536,-9.4660062056,0.08135596839999999,2.4382862294,366
87383,179655,242590,-9.4660062056,0.08135596839999999,2.4382862294,367
87165,179597,242586,-9.4660062056,0.08135596839999999,2.4382862294,368
86351,179482,242601,-9.4660062056,0.08135596839999999,2.4382862294,369
85565,179423,242563,-9.4660062056,0.08135596839999999,2.4382862294,370
85213,179414,242528,-9.4660062056,0.08135596839999999,2.4382862294,371
85175,179387,242624,-9.4660062056,0.08135596839999999,2.4382862294,372
85264,179418,242599,-9.4660062056,0.08135596839999999,2.4382862294,373
85445,179436,242560,-9.4660062056,0.08135596839999999,2.4382862294,374
85698,179453,242581,-9.4660062056,0.08135596839999999,2.4382862294,375
85855,179467,242584,-9.4660062056,0.08135596839999999,2.4382862294,376
85920,179460,242589,-9.4660062056,0.08135596839999999,2.4382862294,377
85922,179506,242589,-9.4660062056,0.08135596839999999,2.4382862294,378
85926,179494,242600,-9.4660062056,0.08135596839999999,2.4382862294,379
86023,179511,242578,-9.4660062056,0.08135596839999999,2.4382862294,380
86134,179519,242615,-9.4660062056,0.08135596839999999,2.4382862294,381
86237,179519,242589,-9.4660062056,0.08135596839999999,2.4382862294,382
86320,179512,242657,-9.4660062056,0.08135596839999999,2.4382862294,383
86375,179552,242600,-9.4660062056,0.08135596839999999,2.4382862294,384
86459,179532,242608,-9.4660062056,0.08135596839999999,2.4382862294,385
86555,179557,242602,-9.4660062056,0.08135596839999999,2.4382862294,386
86651,179532,242614,-9.4660062056,0.08135596839999999,2.4382862294,387
86741,179536,242596,-9.4660062056,0.08135596839999999,2.4382862294,388
86830,179567,242608,-9.4660062056,0.08135596839999999,2.4382862294,389
86922,179544,242575,-9.4660062056,0.08135596839999999,2.4382862294,390
86995,179577,242537,-9.4660062056,0.08135596839999999,2.4382862294,391
87075,179557,242560,-9.4660062056,0.08135596839999999,2.4382862294,392
86988,179531,242556,-9.4660062056,0.08135596839999999,2.4382862294,393
86390,179423,242569,-9.4660062056,0.08135596839999999,2.4382862294,394
85521,179341,242558,-9.4660062056,0.08135596839999999,2.4382862294,395
85009,179270,242568,-9.4660062056,0.08135596839999999,2.4382862294,396
84889,179261,242510,-9.4660062056,0.08135596839999999,2.4382862294,397
84915,179297,242531,-9.4660062056,0.08135596839999999,2.4382862294,398
85078,179298,242548,-9.4660062056,0.08135596839999999,2.4382862294,399
85301,179300,242538,-9.4660062056,0.08135596839999999,2.4382862294,400
85469,179305,242546,-9.4660062056,0.08135596839999999,2.4382862294,401
85474,179314,242546,-9.384650237199999,0.09690931529999999,2.5220350203999997,402
85522,179317,242539,-9.384650237199999,0.09690931529999999,2.5220350203999997,403
85605,179296,242545,-9.384650237199999,0.09690931529999999,2.5220350203999997,404
85670,179288,242503,-9.384650237199999,0.09690931529999999,2.5220350203999997,405
85743,179310,242560,-9.384650237199999,0.09690931529999999,2.5220350203999997,406
85816,179301,242520,-9.384650237199999,0.09690931529999999,2.5220350203999997,407
85895,179301,242559,-9.384650237199999,0.09690931529999999,2.5220350203999997,408
86008,179358,242526,-9.384650237199999,0.09690931529999999,2.5220350203999997,409
86145,179353,242485,-9.384650237199999,0.09690931529999999,2.5220350203999997,410
86262,179364,242492,-9.384650237199999,0.09690931529999999,2.5220350203999997,411
86413,179381,242456,-9.384650237199999,0.09690931529999999,2.5220350203999997,412
86546,179396,242456,-9.384650237199999,0.09690931529999999,2.5220350203999997,413
86507,179381,242494,-9.384650237199999,0.09690931529999999,2.5220350203999997,414
85960,179322,242498,-9.384650237199999,0.09690931529999999,2.5220350203999997,415
85238,179262,242535,-9.384650237199999,0.09690931529999999,2.5220350203999997,416
84935,179223,242525,-9.384650237199999,0.09690931529999999,2.5220350203999997,417
84964,179287,242521,-9.384650237199999,0.09690931529999999,2.5220350203999997,418
85136,179265,242495,-9.384650237199999,0.09690931529999999,2.5220350203999997,419
85400,179343,242534,-9.384650237199999,0.09690931529999999,2.5220350203999997,420
85648,179392,242526,-9.384650237199999,0.09690931529999999,2.5220350203999997,421
85814,179375,242520,-9.384650237199999,0.09690931529999999,2.5220350203999997,422
85841,179390,242551,-9.384650237199999,0.09690931529999999,2.5220350203999997,423
85802,179359,242586,-9.384650237199999,0.09690931529999999,2.5220350203999997,424
85849,179413,242591,-9.384650237199999,0.09690931529999999,2.5220350203999997,425
85960,179448,242520,-9.384650237199999,0.09690931529999999,2.5220350203999997,426
86061,179447,242602,-9.384650237199999,0.09690931529999999,2.5220350203999997,427
86171,179447,242596,-9.384650237199999,0.09690931529999999,2.5220350203999997,428
86265,179484,242546,-9.384650237199999,0.09690931529999999,2.5220350203999997,429
86367,179514,242572,-9.384650237199999,0.09690931529999999,2.5220350203999997,430
86480,179483,242627,-9.384650237199999,0.09690931529999999,2.5220350203999997,431
86576,179546,242571,-9.384650237199999,0.09690931529999999,2.5220350203999997,432
86706,179567,242612,-9.384650237199999,0.09690931529999999,2.5220350203999997,433
86832,179571,242603,-9.384650237199999,0.09690931529999999,2.5220350203999997,434
86939,179540,242565,-9.384650237199999,0.09690931529999999,2.5220350203999997,435
86775,179520,242576,-9.384650237199999,0.09690931529999999,2.5220350203999997,436
86047,179419,242572,-9.384650237199999,0.09690931529999999,2.5220350203999997,437
85187,179357,242624,-9.384650237199999,0.09690931529999999,2.5220350203999997,438
84776,179265,242531,-9.384650237199999,0.09690931529999999,2.5220350203999997,439
84695,179311,242586,-9.384650237199999,0.09690931529999999,2.5220350203999997,440
84761,179310,242565,-9.384650237199999,0.09690931529999999,2.5220350203999997,441
84933,179330,242582,-9.384650237199999,0.09690931529999999,2.5220350203999997,442
85197,179416,242597,-9.384650237199999,0.09690931529999999,2.5220350203999997,443
85065,179360,242652,-9.2949193897,0.0059820565,2.5411776012,444
85259,179384,242660,-9.2949193897,0.0059820565,2.5411776012,445
85286,179373,242696,-9.2949193897,0.0059820565,2.5411776012,446
85287,179416,242692,-9.2949193897,0.0059820565,2.5411776012,447
85335,179420,242646,-9.2949193897,0.0059820565,2.5411776012,448
85433,179426,242703,-9.2949193897,0.0059820565,2.5411776012,449
85567,179419,242703,-9.2949193897,0.0059820565,2.5411776012,450
85679,179452,242719,-9.2949193897,0.0059820565,2.5411776012,451
85787,179441,242680,-9.2949193897,0.0059820565,2.5411776012,452
85893,179467,242683,-9.2949193897,0.0059820565,2.5411776012,453
86004,179480,242726,-9.2949193897,0.0059820565,2.5411776012,454
86130,179454,242711,-9.3631148338,0.08374879099999999,2.5447668351,455
86272,179503,242693,-9.3631148338,0.08374879099999999,2.5447668351,456
86378,179502,242665,-9.3631148338,0.08374879099999999,2.5447668351,457
86487,179511,242680,-9.3631148338,0.08374879099999999,2.5447668351,458
86619,179534,242733,-9.3631148338,0.08374879099999999,2.5447668351,459
86680,179527,242663,-9.3631148338,0.08374879099999999,2.5447668351,460
86337,179456,242701,-9.3631148338,0.08374879099999999,2.5447668351,461
85493,179380,242687,-9.3631148338,0.08374879099999999,2.5447668351,462
84836,179323,242695,-9.3894358824,0.0705882667,2.440679052,463
84550,179307,242678,-9.456434915200001,0.08374879099999999,2.5088744961000002,464
84564,179290,242697,-9.3260260835,0.0753739119,2.464607278,465
84692,179284,242682,-9.385846648500001,0.1172483074,2.5076780847999998,466
84870,179325,242662,-9.353543543399999,-0.021535403399999997,2.476571391,467
85100,179383,242694,-9.3140619705,-0.0011964113,2.4311077616,468
85195,179370,242693,-9.3906322937,0.0143569356,2.5148565526000004,469
85194,179406,242617,-9.439685157,0.1363908882,2.5172493752,470
85139,179347,242693,-9.3176512044,0.17587246110000002,2.5986053435999996,471
85160,179346,242673,-9.3607220112,0.0071784678,2.5471596577,472
85247,179382,242648,-9.3619184225,-0.0023928226,2.4191436486,473
85349,179347,242712,-9.4025964067,0.08135596839999999,2.5447668351,474
85411,179345,242670,-9.3104727366,0.040677984199999996,2.4693929232,475
85503,179348,242643,-9.397810761499999,0.0275174599,2.4215364712,476
85550,179359,242649,-9.5677011661,0.0526420972,2.51246373,477
85633,179344,242656,-9.4229353988,0.0825523797,2.4263221164,478
85714,179333,242652,-9.4803631412,0.0933200814,2.5028924396,479
85830,179383,242638,-9.2757768089,0.071784678,2.5507488916,480
85894,179384,242656,-9.4767739073,0.0346959277,2.4011974791,481
85988,179368,242648,-9.427721044,-0.010767701699999998,2.4921247379,482
86024,179356,242637,-9.330811728699999,0.040677984199999996,2.4933211492,483
85775,179317,242577,-9.4456672135,0.11246266220000001,2.5280170769,484
85004,179194,242648,-9.2925265671,0.09092725880000001,2.4454646972,485
84325,179126,242583,-9.4468636248,0.035892339,2.4634108667000003,486
84061,179086,242587,-9.407382051899999,0.011964113,2.4215364712,487
84058,179106,242593,-9.497112899400001,0.107677017,2.5734807063,488
84219,179130,242569,-9.391828705,0.0023928226,2.4741785684,489
84418,179152,242564,-9.3367937852,0.0526420972,2.4789642136,490
84616,179151,242619,-9.3750789468,0.1351944769,2.4634108667000003,491
84670,179170,242585,-9.3702933016,-0.0586241537,2.440679052,492
84613,179139,242557,-9.3236332609,-0.0167497582,2.5639094158999995,493
84582,179168,242573,-9.4899344316,0.1926222193,2.5172493752,494
84588,179139,242597,-9.3571327773,0.1866401628,2.5710878837,495
84682,179136,242569,-9.2566342281,0.12681959780000002,2.5351955446999996,496
84791,179135,242537,-9.4301138666,0.10169496049999999,2.560320182,497
84894,179186,242587,-9.4540420926,0.0023928226,2.4909283265999997,498
85013,179167,242584,-9.3547399547,0.031106693799999998,2.404786713,499
85119,179192,242523,-9.477970318599999,-0.035892339,2.5351955446999996,500
85272,179218,242521,-9.2949193897,0.1591227029,2.5854448193,501
85387,179229,242552,-9.379864592,0.011964113,2.5495524802999996,502
85550,179286,242541,-9.2231347117,0.0287138712,2.464607278,503
85725,179320,242587,-9.3415794304,0.011964113,2.4335005842,504
85835,179317,242563,-9.6155576181,0.041874395499999995,2.5112673187,505
85549,179256,242583,-9.3655076564,0.0323031051,2.5040888509,506
84850,179200,242525,-9.3822574146,0.1088734283,2.5423740125,507
84300,179173,242561,-9.3822574146,0.1088734283,2.5423740125,508
84162,179150,242561,-9.3822574146,0.1088734283,2.5423740125,509
84266,179168,242547,-9.3822574146,0.1088734283,2.5423740125,510
84437,179206,242590,-9.3822574146,0.1088734283,2.5423740125,511
84730,179262,242576,-9.3822574146,0.1088734283,2.5423740125,512
84959,179291,242534,-9.3822574146,0.1088734283,2.5423740125,513
85046,179278,242586,-9.3822574146,0.1088734283,2.5423740125,514
85040,179325,242626,-9.3822574146,0.1088734283,2.5423740125,515
85085,179338,242580,-9.3822574146,0.1088734283,2.5423740125,516
85158,179333,242614,-9.3822574146,0.1088734283,2.5423740125,517
85310,179336,242628,-9.3822574146,0.1088734283,2.5423740125,518
85433,179365,242644,-9.3822574146,0.1088734283,2.5423740125,519
85542,179392,242615,-9.3822574146,0.1088734283,2.5423740125,520
85653,179425,242623,-9.3822574146,0.1088734283,2.5423740125,521
85747,179414,242609,-9.3822574146,0.1088734283,2.5423740125,522
85874,179464,242623,-9.3822574146,0.1088734283,2.5423740125,523
85997,179460,242618,-9.3822574146,0.1088734283,2.5423740125,524
86127,179462,242635,-9.3822574146,0.1088734283,2.5423740125,525
86018,179432,242617,-9.3822574146,0.1088734283,2.5423740125,526
85379,179345,242625,-9.4983093107,0.251246373,2.4215364712,527
84566,179267,242588,-9.4983093107,0.251246373,2.4215364712,528
84142,179223,242607,-9.4983093107,0.251246373,2.4215364712,529
84078,179218,242577,-9.4983093107,0.251246373,2.4215364712,530
84131,179239,242605,-9.4504528587,0.021535403399999997,2.5220350203999997,531
84290,179259,242616,-9.4504528587,0.021535403399999997,2.5220350203999997,532
84533,179293,242637,-9.4504528587,0.021535403399999997,2.5220350203999997,533
84732,179340,242657,-9.4504528587,0.021535403399999997,2.5220350203999997,534
84799,179320,242661,-9.4504528587,0.021535403399999997,2.5220350203999997,535
84795,179347,242694,-9.4504528587,0.021535403399999997,2.5220350203999997,536
84834,179357,242645,-9.4504528587,0.021535403399999997,2.5220350203999997,537
84945,179353,242669,-9.4504528587,0.021535403399999997,2.5220350203999997,538
85029,179360,242639,-9.4504528587,0.021535403399999997,2.5220350203999997,539
85146,179366,242706,-9.4504528587,0.021535403399999997,2.5220350203999997,540
85262,179383,242653,-9.4504528587,0.021535403399999997,2.5220350203999997,541
85342,179393,242650,-9.4504528587,0.021535403399999997,2.5220350203999997,542
85438,179429,242653,-9.4504528587,0.021535403399999997,2.5220350203999997,543
85536,179438,242671,-9.4504528587,0.021535403399999997,2.5220350203999997,544
85657,179445,242639,-9.4504528587,0.021535403399999997,2.5220350203999997,545
85758,179456,242651,-9.4504528587,0.021535403399999997,2.5220350203999997,546
85794,179459,242699,-9.4504528587,0.021535403399999997,2.5220350203999997,547
85443,179379,242669,-9.4504528587,0.021535403399999997,2.5220350203999997,548
84588,179304,242670,-9.4504528587,0.021535403399999997,2.5220350203999997,549
83921,179231,242663,-9.4504528587,0.021535403399999997,2.5220350203999997,550
83692,179223,242639,-9.4504528587,0.021535403399999997,2.5220350203999997,551
83701,179231,242628,-9.4504528587,0.021535403399999997,2.5220350203999997,552
83828,179222,242671,-9.4504528587,0.021535403399999997,2.5220350203999997,553
84051,179256,242639,-9.4504528587,0.021535403399999997,2.5220350203999997,554
84306,179298,242639,-9.4504528587,0.021535403399999997,2.5220350203999997,555
84429,179320,242664,-9.4504528587,0.021535403399999997,2.5220350203999997,556
84430,179308,242655,-9.4504528587,0.021535403399999997,2.5220350203999997,557
84423,179335,242653,-9.4504528587,0.021535403399999997,2.5220350203999997,558
84514,179353,242666,-9.4504528587,0.021535403399999997,2.5220350203999997,559
84617,179353,242658,-9.4504528587,0.021535403399999997,2.5220350203999997,560
84735,179388,242646,-9.4504528587,0.021535403399999997,2.5220350203999997,561
84864,179401,242653,-9.4504528587,0.021535403399999997,2.5220350203999997,562
84988,179375,242646,-9.4504528587,0.021535403399999997,2.5220350203999997,563
85089,179420,242660,-9.4504528587,0.021535403399999997,2.5220350203999997,564
85217,179435,242641,-9.4504528587,0.021535403399999997,2.5220350203999997,565
85355,179414,242612,-9.4504528587,0.021535403399999997,2.5220350203999997,566
85484,179448,242647,-9.4504528587,0.021535403399999997,2.5220350203999997,567
85632,179479,242634,-9.4504528587,0.021535403399999997,2.5220350203999997,568
85753,179486,242644,-9.4504528587,0.021535403399999997,2.5220350203999997,569
85869,179488,242592,-9.4504528587,0.021535403399999997,2.5220350203999997,570
85994,179526,242609,-9.4504528587,0.021535403399999997,2.5220350203999997,571
85962,179501,242638,-9.4061856406,0.04307080679999999,2.4789642136,572
85363,179395,242576,-9.4061856406,0.04307080679999999,2.4789642136,573
84498,179336,242587,-9.4061856406,0.04307080679999999,2.4789642136,574
84065,179305,242604,-9.4061856406,0.04307080679999999,2.4789642136,575
84000,179290,242630,-9.4061856406,0.04307080679999999,2.4789642136,576
84086,179320,242638,-9.4061856406,0.04307080679999999,2.4789642136,577
84291,179337,242576,-9.4061856406,0.04307080679999999,2.4789642136,578
84588,179353,242586,-9.4061856406,0.04307080679999999,2.4789642136,579
84767,179401,242614,-9.4061856406,0.04307080679999999,2.4789642136,580
84877,179400,242595,-9.4061856406,0.04307080679999999,2.4789642136,581
84858,179389,242616,-9.4061856406,0.04307080679999999,2.4789642136,582
84895,179389,242557,-9.4061856406,0.04307080679999999,2.4789642136,583
85000,179421,242577,-9.4061856406,0.04307080679999999,2.4789642136,584
85120,179414,242575,-9.4061856406,0.04307080679999999,2.4789642136,585
85257,179457,242574,-9.4061856406,0.04307080679999999,2.4789642136,586
85366,179445,242581,-9.4061856406,0.04307080679999999,2.4789642136,587
85479,179473,242548,-9.4061856406,0.04307080679999999,2.4789642136,588
85612,179431,242565,-9.4061856406,0.04307080679999999,2.4789642136,589
85741,179462,242518,-9.4061856406,0.04307080679999999,2.4789642136,590
85885,179456,242524,-9.4061856406,0.04307080679999999,2.4789642136,591
86029,179488,242526,-9.4061856406,0.04307080679999999,2.4789642136,592
86151,179498,242521,-9.4061856406,0.04307080679999999,2.4789642136,593
86276,179497,242513,-9.4061856406,0.04307080679999999,2.4789642136,594
86392,179504,242514,-9.4061856406,0.04307080679999999,2.4789642136,595
86522,179509,242457,-9.4061856406,0.04307080679999999,2.4789642136,596
86536,179502,242460,-9.4061856406,0.04307080679999999,2.4789642136,597
86131,179434,242484,-9.4061856406,0.04307080679999999,2.4789642136,598
85539,179398,242447,-9.4061856406,0.04307080679999999,2.4789642136,599
85242,179379,242438,-9.4061856406,0.04307080679999999,2.4789642136,600
85295,179416,242391,-9.4061856406,0.04307080679999999,2.4789642136,601
85490,179427,242403,-9.4061856406,0.04307080679999999,2.4789642136,602
85783,179452,242410,-9.4061856406,0.04307080679999999,2.4789642136,603
86089,179515,242389,-9.4061856406,0.04307080679999999,2.4789642136,604
86298,179558,242399,-9.4061856406,0.04307080679999999,2.4789642136,605
86443,179548,242399,-9.4061856406,0.04307080679999999,2.4789642136,606
86537,179582,242416,-9.4061856406,0.04307080679999999,2.4789642136,607
86682,179592,242408,-9.4061856406,0.04307080679999999,2.4789642136,608
86857,179649,242389,-9.4061856406,0.04307080679999999,2.4789642136,609
87059,179662,242422,-9.4061856406,0.04307080679999999,2.4789642136,610
87251,179683,242421,-9.4061856406,0.04307080679999999,2.4789642136,611
87427,179722,242385,-9.4061856406,0.04307080679999999,2.4789642136,612
87586,179746,242379,-9.4061856406,0.04307080679999999,2.4789642136,613
88825,179862,241980,-9.3655076564,0.071784678,2.5471596577,614
88946,179837,241960,-9.3655076564,0.071784678,2.5471596577,615
88994,179844,241948,-9.3655076564,0.071784678,2.5471596577,616
89009,179845,241931,-9.3655076564,0.071784678,2.5471596577,617
89003,179817,241917,-9.3655076564,0.071784678,2.5471596577,618
89061,179837,241936,-9.3655076564,0.071784678,2.5471596577,619
89124,179847,241895,-9.3655076564,0.071784678,2.5471596577,620
89197,179837,241876,-9.3655076564,0.071784678,2.5471596577,621
89276,179880,241870,-9.3655076564,0.071784678,2.5471596577,622
89356,179824,241871,-9.3655076564,0.071784678,2.5471596577,623
89428,179841,241829,-9.3655076564,0.071784678,2.5471596577,624
89514,179861,241864,-9.3655076564,0.071784678,2.5471596577,625
89590,179850,241790,-9.3655076564,0.071784678,2.5471596577,626
89689,179862,241799,-9.3655076564,0.071784678,2.5471596577,627
89766,179837,241794,-9.3655076564,0.071784678,2.5471596577,628
89828,179855,241773,-9.3655076564,0.071784678,2.5471596577,629
89910,179864,241743,-9.3655076564,0.071784678,2.5471596577,630
89987,179847,241763,-9.3655076564,0.071784678,2.5471596577,631
90068,179868,241783,-9.3655076564,0.071784678,2.5471596577,632
90122,179869,241720,-9.4229353988,0.045463629400000004,2.5435704238000003,633
90200,179846,241724,-9.4229353988,0.045463629400000004,2.5435704238000003,634
90158,179855,241663,-9.4229353988,0.045463629400000004,2.5435704238000003,635
89709,179777,241687,-9.4229353988,0.045463629400000004,2.5435704238000003,636
89066,179754,241714,-9.4229353988,0.045463629400000004,2.5435704238000003,637
88630,179756,241657,-9.4229353988,0.045463629400000004,2.5435704238000003,638
88423,179734,241682,-9.4229353988,0.045463629400000004,2.5435704238000003,639
88384,179738,241645,-9.4229353988,0.045463629400000004,2.5435704238000003,640
88392,179750,241546,-9.4229353988,0.045463629400000004,2.5435704238000003,641
88497,179776,241641,-9.4229353988,0.045463629400000004,2.5435704238000003,642
88551,179763,241564,-9.4229353988,0.045463629400000004,2.5435704238000003,643
88539,179720,241611,-9.4229353988,0.045463629400000004,2.5435704238000003,644
88456,179725,241621,-9.4229353988,0.045463629400000004,2.5435704238000003,645
88410,179711,241573,-9.4229353988,0.045463629400000004,2.5435704238000003,646
88392,179733,241535,-9.4229353988,0.045463629400000004,2.5435704238000003,647
88400,179704,241514,-9.4229353988,0.045463629400000004,2.5435704238000003,648
88393,179674,241489,-9.4229353988,0.045463629400000004,2.5435704238000003,649
88399,179684,241489,-9.4229353988,0.045463629400000004,2.5435704238000003,650
88419,179691,241448,-9.4229353988,0.045463629400000004,2.5435704238000003,651
88420,179667,241422,-9.4229353988,0.045463629400000004,2.5435704238000003,652
88454,179648,241436,-9.4229353988,0.045463629400000004,2.5435704238000003,653
88480,179656,241422,-9.4229353988,0.045463629400000004,2.5435704238000003,654
88511,179642,241339,-9.4229353988,0.045463629400000004,2.5435704238000003,655
88551,179628,241365,-9.4229353988,0.045463629400000004,2.5435704238000003,656
88574,179655,241314,-9.4229353988,0.045463629400000004,2.5435704238000003,657
88606,179591,241331,-9.4229353988,0.045463629400000004,2.5435704238000003,658
88628,179608,241335,-9.2949193897,0.09930213789999999,2.5172493752,659
88647,179573,241288,-9.2949193897,0.09930213789999999,2.5172493752,660
88670,179587,241292,-9.2949193897,0.09930213789999999,2.5172493752,661
88679,179561,241241,-9.2949193897,0.09930213789999999,2.5172493752,662
88562,179515,241246,-9.2949193897,0.09930213789999999,2.5172493752,663
88014,179461,241237,-9.2949193897,0.09930213789999999,2.5172493752,664
87295,179418,241199,-9.2949193897,0.09930213789999999,2.5172493752,665
86829,179416,241226,-9.2949193897,0.09930213789999999,2.5172493752,666
86664,179394,241173,-9.2949193897,0.09930213789999999,2.5172493752,667
86631,179375,241151,-9.2949193897,0.09930213789999999,2.5172493752,668
86721,179415,241139,-9.2949193897,0.09930213789999999,2.5172493752,669
86829,179382,241145,-9.2949193897,0.09930213789999999,2.5172493752,670
86880,179393,241114,-9.2949193897,0.09930213789999999,2.5172493752,671
86874,179402,241084,-9.2949193897,0.09930213789999999,2.5172493752,672
86780,179377,241090,-9.2949193897,0.09930213789999999,2.5172493752,673
86763,179377,241062,-9.2949193897,0.09930213789999999,2.5172493752,674
86814,179387,241030,-9.2949193897,0.09930213789999999,2.5172493752,675
86902,179410,241064,-9.2949193897,0.09930213789999999,2.5172493752,676
87003,179454,241017,-9.2949193897,0.09930213789999999,2.5172493752,677
87096,179448,241038,-9.6179504407,0.10648060570000001,2.4789642136,678
87204,179460,241048,-9.6179504407,0.10648060570000001,2.4789642136,679
87323,179517,241044,-9.6179504407,0.10648060570000001,2.4789642136,680
87479,179567,241052,-9.6179504407,0.10648060570000001,2.4789642136,681
87622,179554,241066,-9.6179504407,0.10648060570000001,2.4789642136,682
87768,179602,241067,-9.6179504407,0.10648060570000001,2.4789642136,683
87900,179592,240982,-9.6179504407,0.10648060570000001,2.4789642136,684
87974,179609,241059,-9.6179504407,0.10648060570000001,2.4789642136,685
88085,179612,240999,-9.6179504407,0.10648060570000001,2.4789642136,686
88050,179596,241019,-9.6179504407,0.10648060570000001,2.4789642136,687
87600,179567,241048,-9.6179504407,0.10648060570000001,2.4789642136,688
86884,179510,241042,-9.6179504407,0.10648060570000001,2.4789642136,689
86429,179524,241006,-9.6179504407,0.10648060570000001,2.4789642136,690
86305,179501,241007,-9.6179504407,0.10648060570000001,2.4789642136,691
86349,179540,241021,-9.6179504407,0.10648060570000001,2.4789642136,692
86523,179528,241020,-9.6179504407,0.10648060570000001,2.4789642136,693
86732,179576,241016,-9.6179504407,0.10648060570000001,2.4789642136,694
86917,179562,241033,-9.6179504407,0.10648060570000001,2.4789642136,695
86967,179554,241008,-9.6179504407,0.10648060570000001,2.4789642136,696
86960,179590,241029,-9.6179504407,0.10648060570000001,2.4789642136,697
86976,179572,241040,-9.6179504407,0.10648060570000001,2.4789642136,698
87012,179557,241029,-9.6179504407,0.10648060570000001,2.4789642136,699
87137,179608,241034,-9.6179504407,0.10648060570000001,2.4789642136,700
87246,179614,241053,-9.6179504407,0.10648060570000001,2.4789642136,701
87334,179647,241050,-9.6179504407,0.10648060570000001,2.4789642136,702
87438,179639,241014,-9.6179504407,0.10648060570000001,2.4789642136,703
87523,179629,241004,-9.3631148338,-0.0071784678,2.4909283265999997,704
87657,179621,241008,-9.3631148338,-0.0071784678,2.4909283265999997,705
87767,179681,241033,-9.3631148338,-0.0071784678,2.4909283265999997,706
87873,179677,240993,-9.3631148338,-0.0071784678,2.4909283265999997,707
87980,179680,240968,-9.3631148338,-0.0071784678,2.4909283265999997,708
88073,179668,240962,-9.3631148338,-0.0071784678,2.4909283265999997,709
88179,179658,240942,-9.3631148338,-0.0071784678,2.4909283265999997,710
88256,179679,240951,-9.3631148338,-0.0071784678,2.4909283265999997,711
88190,179679,240940,-9.3631148338,-0.0071784678,2.4909283265999997,712
87625,179616,240953,-9.3631148338,-0.0071784678,2.4909283265999997,713
86889,179583,240966,-9.3631148338,-0.0071784678,2.4909283265999997,714
86463,179591,240959,-9.3631148338,-0.0071784678,2.4909283265999997,715
86359,179540,240914,-9.3631148338,-0.0071784678,2.4909283265999997,716
86426,179594,240998,-9.3631148338,-0.0071784678,2.4909283265999997,717
86558,179621,240931,-9.3631148338,-0.0071784678,2.4909283265999997,718
86777,179646,240949,-9.3631148338,-0.0071784678,2.4909283265999997,719
86966,179613,240932,-9.3631148338,-0.0071784678,2.4909283265999997,720
87071,179645,240982,-9.3631148338,-0.0071784678,2.4909283265999997,721
87072,179671,240957,-9.3631148338,-0.0071784678,2.4909283265999997,722
87101,179635,240944,-9.3631148338,-0.0071784678,2.4909283265999997,723
87181,179645,240924,-9.3631148338,-0.0071784678,2.4909283265999997,724
87255,179679,240975,-9.3631148338,-0.0071784678,2.4909283265999997,725
87365,179686,240956,-9.3631148338,-0.0071784678,2.4909283265999997,726
87459,179698,240925,-9.3631148338,-0.0071784678,2.4909283265999997,727
87558,179708,240974,-9.3631148338,-0.0071784678,2.4909283265999997,728
87656,179706,240947,-9.3631148338,-0.0071784678,2.4909283265999997,729
87762,179727,240910,-9.3631148338,-0.0071784678,2.4909283265999997,730
87887,179742,240905,-9.3631148338,-0.0071784678,2.4909283265999997,731
87988,179746,240953,-9.3631148338,-0.0071784678,2.4909283265999997,732
88090,179750,240942,-9.3631148338,-0.0071784678,2.4909283265999997,733
88187,179751,240938,-9.3631148338,-0.0071784678,2.4909283265999997,734
88298,179736,240892,-9.3631148338,-0.0071784678,2.4909283265999997,735
88376,179777,240927,-9.3631148338,-0.0071784678,2.4909283265999997,736
88277,179725,240911,-9.3631148338,-0.0071784678,2.4909283265999997,737
87741,179690,240930,-9.3631148338,-0.0071784678,2.4909283265999997,738
87057,179647,240939,-9.3631148338,-0.0071784678,2.4909283265999997,739
86686,179626,240918,-9.3631148338,-0.0071784678,2.4909283265999997,740
86601,179611,240941,-9.3631148338,-0.0071784678,2.4909283265999997,741
86650,179621,240952,-9.3631148338,-0.0071784678,2.4909283265999997,742
86800,179676,240958,-9.3631148338,-0.0071784678,2.4909283265999997,743
87014,179667,240978,-9.3631148338,-0.0071784678,2.4909283265999997,744
87181,179690,240965,-9.3631148338,-0.0071784678,2.4909283265999997,745
87307,179695,240984,-9.5270231819,0.0658026215,2.5244278430000002,746
87348,179693,241022,-9.5270231819,0.0658026215,2.5244278430000002,747
87441,179704,241015,-9.5270231819,0.0658026215,2.5244278430000002,748
87522,179707,241001,-9.5270231819,0.0658026215,2.5244278430000002,749
87568,179699,240977,-9.5270231819,0.0658026215,2.5244278430000002,750
87675,179687,240971,-9.5270231819,0.0658026215,2.5244278430000002,751
87748,179671,240993,-9.5270231819,0.0658026215,2.5244278430000002,752
87813,179660,240985,-9.5270231819,0.0658026215,2.5244278430000002,753
87920,179665,240973,-9.5270231819,0.0658026215,2.5244278430000002,754
87984,179665,241005,-9.5270231819,0.0658026215,2.5244278430000002,755
88055,179663,240997,-9.5270231819,0.0658026215,2.5244278430000002,756
88125,179662,240997,-9.5270231819,0.0658026215,2.5244278430000002,757
88175,179648,240953,-9.5270231819,0.0658026215,2.5244278430000002,758
88229,179653,240932,-9.5270231819,0.0658026215,2.5244278430000002,759
88211,179604,240934,-9.5270231819,0.0658026215,2.5244278430000002,760
87763,179575,240979,-9.5270231819,0.0658026215,2.5244278430000002,761
87031,179486,240941,-9.5270231819,0.0658026215,2.5244278430000002,762
86540,179468,240959,-9.5270231819,0.0658026215,2.5244278430000002,763
86359,179447,240987,-9.5270231819,0.0658026215,2.5244278430000002,764
86354,179447,240968,-9.5270231819,0.0658026215,2.5244278430000002,765
86478,179498,240995,-9.5270231819,0.0658026215,2.5244278430000002,766
86620,179480,241010,-9.5270231819,0.0658026215,2.5244278430000002,767
86773,179503,240971,-9.5270231819,0.0658026215,2.5244278430000002,768
86792,179489,240970,-9.5270231819,0.0658026215,2.5244278430000002,769
86719,179476,240979,-9.5270231819,0.0658026215,2.5244278430000002,770
86692,179454,240984,-9.5270231819,0.0658026215,2.5244278430000002,771
86700,179449,241006,-9.5270231819,0.0658026215,2.5244278430000002,772
86766,179459,240999,-9.5270231819,0.0658026215,2.5244278430000002,773
86831,179469,240983,-9.5270231819,0.0658026215,2.5244278430000002,774
86874,179429,240986,-9.5270231819,0.0658026215,2.5244278430000002,775
86933,179452,240993,-9.5270231819,0.0658026215,2.5244278430000002,776
86993,179436,240994,-9.5270231819,0.0658026215,2.5244278430000002,777
87064,179465,241037,-9.5270231819,0.0658026215,2.5244278430000002,778
87139,179439,241035,-9.5270231819,0.0658026215,2.5244278430000002,779
87216,179455,240992,-9.5270231819,0.0658026215,2.5244278430000002,780
87321,179483,240988,-9.5270231819,0.0658026215,2.5244278430000002,781
87420,179496,241009,-9.5270231819,0.0658026215,2.5244278430000002,782
87563,179498,241010,-9.5270231819,0.0658026215,2.5244278430000002,783
87588,179498,240985,-9.5270231819,0.0658026215,2.5244278430000002,784
87252,179497,241006,-9.5270231819,0.0658026215,2.5244278430000002,785
86599,179444,241047,-9.5270231819,0.0658026215,2.5244278430000002,786
86157,179442,241091,-9.5270231819,0.0658026215,2.5244278430000002,787
85859,179575,241315,-9.4002035841,0.0801595571,2.5244278430000002,788
85556,179547,241310,-9.4002035841,0.0801595571,2.5244278430000002,789
85508,179571,241344,-9.4002035841,0.0801595571,2.5244278430000002,790
85556,179575,241354,-9.4002035841,0.0801595571,2.5244278430000002,791
85717,179587,241321,-9.4002035841,0.0801595571,2.5244278430000002,792
85929,179618,241341,-9.4002035841,0.0801595571,2.5244278430000002,793
86056,179606,241368,-9.4002035841,0.0801595571,2.5244278430000002,794
86057,179630,241393,-9.4002035841,0.0801595571,2.5244278430000002,795
86008,179609,241400,-9.4002035841,0.0801595571,2.5244278430000002,796
86036,179638,241421,-9.4002035841,0.0801595571,2.5244278430000002,797
86135,179633,241441,-9.4002035841,0.0801595571,2.5244278430000002,798
86222,179669,241459,-9.4002035841,0.0801595571,2.5244278430000002,799
86331,179665,241447,-9.4002035841,0.0801595571,2.5244278430000002,800
86450,179680,241436,-9.4002035841,0.0801595571,2.5244278430000002,801
86540,179684,241458,-9.4002035841,0.0801595571,2.5244278430000002,802
86658,179700,241455,-9.4002035841,0.0801595571,2.5244278430000002,803
86758,179694,241440,-9.4002035841,0.0801595571,2.5244278430000002,804
86895,179717,241484,-9.4002035841,0.0801595571,2.5244278430000002,805
86976,179720,241489,-9.4002035841,0.0801595571,2.5244278430000002,806
87085,179725,241502,-9.4002035841,0.0801595571,2.5244278430000002,807
87193,179738,241494,-9.4002035841,0.0801595571,2.5244278430000002,808
87289,179742,241454,-9.4002035841,0.0801595571,2.5244278430000002,809
87396,179738,241462,-9.4002035841,0.0801595571,2.5244278430000002,810
87329,179726,241445,-9.4002035841,0.0801595571,2.5244278430000002,811
86683,179675,241492,-9.4002035841,0.0801595571,2.5244278430000002,812
85780,179579,241498,-9.4002035841,0.0801595571,2.5244278430000002,813
85214,179554,241480,-9.4002035841,0.0801595571,2.5244278430000002,814
85082,179574,241495,-9.4002035841,0.0801595571,2.5244278430000002,815
85115,179552,241541,-9.4002035841,0.0801595571,2.5244278430000002,816
85261,179556,241556,-9.4002035841,0.0801595571,2.5244278430000002,817
85464,179602,241559,-9.4002035841,0.0801595571,2.5244278430000002,818
85688,179616,241566,-9.4002035841,0.0801595571,2.5244278430000002,819
85800,179635,241607,-9.4002035841,0.0801595571,2.5244278430000002,820
85765,179615,241647,-9.4002035841,0.0801595571,2.5244278430000002,821
85762,179598,241623,-9.4002035841,0.0801595571,2.5244278430000002,822
85837,179608,241644,-9.4002035841,0.0801595571,2.5244278430000002,823
85955,179601,241677,-9.4002035841,0.0801595571,2.5244278430000002,824
86069,179660,241607,-9.4002035841,0.0801595571,2.5244278430000002,825
86183,179651,241675,-9.4002035841,0.0801595571,2.5244278430000002,826
86288,179646,241672,-9.4002035841,0.0801595571,2.5244278430000002,827
86398,179682,241664,-9.4002035841,0.0801595571,2.5244278430000002,828
86499,179704,241713,-9.4002035841,0.0801595571,2.5244278430000002,829
85690,179550,241717,-9.3260260835,0.1112662509,2.4550359876,830
85675,179543,241764,-9.3260260835,0.1112662509,2.4550359876,831
85715,179514,241759,-9.3260260835,0.1112662509,2.4550359876,832
85820,179539,241758,-9.3260260835,0.1112662509,2.4550359876,833
85920,179519,241748,-9.3260260835,0.1112662509,2.4550359876,834
85978,179547,241732,-9.3260260835,0.1112662509,2.4550359876,835
86077,179541,241734,-9.3260260835,0.1112662509,2.4550359876,836
86139,179554,241803,-9.3260260835,0.1112662509,2.4550359876,837
86219,179545,241761,-9.3260260835,0.1112662509,2.4550359876,838
86333,179551,241737,-9.3260260835,0.1112662509,2.4550359876,839
86408,179515,241784,-9.3260260835,0.1112662509,2.4550359876,840
86497,179586,241745,-9.3260260835,0.1112662509,2.4550359876,841
86615,179537,241767,-9.3260260835,0.1112662509,2.4550359876,842
86666,179564,241714,-9.3260260835,0.1112662509,2.4550359876,843
86541,179490,241716,-9.3260260835,0.1112662509,2.4550359876,844
85948,179413,241781,-9.3260260835,0.1112662509,2.4550359876,845
85274,179345,241685,-9.3260260835,0.1112662509,2.4550359876,846
84969,179360,241799,-9.3260260835,0.1112662509,2.4550359876,847
85009,179383,241746,-9.3260260835,0.1112662509,2.4550359876,848
85186,179411,241782,-9.3260260835,0.1112662509,2.4550359876,849
85479,179442,241744,-9.3260260835,0.1112662509,2.4550359876,850
85781,179493,241788,-9.3260260835,0.1112662509,2.4550359876,851
85953,179497,241747,-9.3260260835,0.1112662509,2.4550359876,852
86013,179507,241796,-9.3260260835,0.1112662509,2.4550359876,853
86040,179525,241868,-9.3260260835,0.1112662509,2.4550359876,854
86140,179554,241826,-9.3260260835,0.1112662509,2.4550359876,855
86283,179568,241852,-9.3260260835,0.1112662509,2.4550359876,856
86437,179612,241841,-9.3260260835,0.1112662509,2.4550359876,857
86570,179618,241837,-9.3260260835,0.1112662509,2.4550359876,858
86693,179643,241906,-9.3260260835,0.1112662509,2.4550359876,859
86808,179658,241888,-9.3260260835,0.1112662509,2.4550359876,860
86914,179681,241871,-9.3260260835,0.1112662509,2.4550359876,861
87035,179676,241944,-9.3260260835,0.1112662509,2.4550359876,862
87183,179702,241889,-9.3260260835,0.1112662509,2.4550359876,863
87315,179711,241944,-9.3260260835,0.1112662509,2.4550359876,864
87445,179709,241931,-9.3260260835,0.1112662509,2.4550359876,865
87439,179706,241931,-9.3260260835,0.1112662509,2.4550359876,866
86931,179652,241950,-9.3260260835,0.1112662509,2.4550359876,867
86131,179556,241938,-9.3260260835,0.1112662509,2.4550359876,868
85610,179575,241964,-9.3260260835,0.1112662509,2.4550359876,869
85489,179548,241940,-9.3260260835,0.1112662509,2.4550359876,870
85567,179538,241978,-9.3260260835,0.1112662509,2.4550359876,871
85621,179487,241946,-9.2685983411,0.0334995164,2.5196421978,872
85766,179484,241966,-9.2685983411,0.0334995164,2.5196421978,873
85914,179557,241965,-9.2685983411,0.0334995164,2.5196421978,874
86101,179556,241944,-9.2685983411,0.0334995164,2.5196421978,875
86275,179566,241963,-9.2685983411,0.0334995164,2.5196421978,876
86435,179617,241940,-9.2685983411,0.0334995164,2.5196421978,877
86563,179623,241963,-9.2685983411,0.0334995164,2.5196421978,878
86699,179664,241962,-9.2685983411,0.0334995164,2.5196421978,879
86804,179660,241962,-9.2685983411,0.0334995164,2.5196421978,880
86835,179635,241985,-9.2685983411,0.0334995164,2.5196421978,881
86364,179583,241983,-9.2685983411,0.0334995164,2.5196421978,882
85588,179535,241956,-9.2685983411,0.0334995164,2.5196421978,883
85051,179442,241947,-9.2685983411,0.0334995164,2.5196421978,884
84919,179470,241926,-9.2685983411,0.0334995164,2.5196421978,885
84974,179485,241976,-9.2685983411,0.0334995164,2.5196421978,886
85176,179498,241974,-9.2685983411,0.0334995164,2.5196421978,887
85411,179553,241963,-9.2685983411,0.0334995164,2.5196421978,888
85634,179556,241993,-9.2685983411,0.0334995164,2.5196421978,889
85717,179568,242016,-9.2685983411,0.0334995164,2.5196421978,890
85699,179561,242012,-9.2685983411,0.0334995164,2.5196421978,891
85693,179581,242019,-9.2685983411,0.0334995164,2.5196421978,892
85767,179588,242018,-9.2685983411,0.0334995164,2.5196421978,893
85873,179594,242028,-9.2685983411,0.0334995164,2.5196421978,894
85999,179585,241990,-9.2685983411,0.0334995164,2.5196421978,895
86129,179624,242048,-9.2685983411,0.0334995164,2.5196421978,896
86235,179630,242021,-9.2685983411,0.0334995164,2.5196421978,897
86336,179668,242049,-9.2685983411,0.0334995164,2.5196421978,898
86446,179665,242000,-9.2685983411,0.0334995164,2.5196421978,899
86585,179699,242035,-9.2685983411,0.0334995164,2.5196421978,900
86715,179702,241964,-9.2685983411,0.0334995164,2.5196421978,901
86829,179715,242010,-9.2685983411,0.0334995164,2.5196421978,902
86938,179717,242028,-9.2685983411,0.0334995164,2.5196421978,903
87055,179696,242019,-9.2685983411,0.0334995164,2.5196421978,904
87169,179720,241976,-9.2685983411,0.0334995164,2.5196421978,905
87268,179737,242050,-9.2685983411,0.0334995164,2.5196421978,906
87053,179671,241986,-9.2685983411,0.0334995164,2.5196421978,907
86286,179597,242002,-9.2685983411,0.0334995164,2.5196421978,908
85518,179515,242006,-9.2685983411,0.0334995164,2.5196421978,909
85134,179487,241987,-9.2685983411,0.0334995164,2.5196421978,910
85090,179482,242014,-9.2685983411,0.0334995164,2.5196421978,911
85144,179503,242006,-9.2685983411,0.0334995164,2.5196421978,912
85287,179532,242046,-9.2685983411,0.0334995164,2.5196421978,913
85264,179471,242014,-9.3619184225,0.0287138712,2.6285156261,914
85204,179478,242040,-9.3619184225,0.0287138712,2.6285156261,915
85239,179480,242034,-9.3619184225,0.0287138712,2.6285156261,916
85418,179525,242058,-9.3619184225,0.0287138712,2.6285156261,917
85659,179531,242034,-9.3619184225,0.0287138712,2.6285156261,918
85832,179578,242065,-9.3619184225,0.0287138712,2.6285156261,919
85865,179563,242065,-9.3619184225,0.0287138712,2.6285156261,920
85828,179597,242059,-9.3619184225,0.0287138712,2.6285156261,921
85838,179579,242063,-9.3619184225,0.0287138712,2.6285156261,922
85921,179589,242036,-9.3619184225,0.0287138712,2.6285156261,923
86016,179596,242069,-9.3619184225,0.0287138712,2.6285156261,924
86102,179609,242057,-9.3619184225,0.0287138712,2.6285156261,925
86177,179579,242068,-9.3619184225,0.0287138712,2.6285156261,926
86246,179602,242053,-9.3619184225,0.0287138712,2.6285156261,927
86324,179607,242062,-9.3619184225,0.0287138712,2.6285156261,928
86411,179620,242072,-9.3619184225,0.0287138712,2.6285156261,929
86471,179601,242083,-9.3619184225,0.0287138712,2.6285156261,930
86550,179602,242078,-9.3619184225,0.0287138712,2.6285156261,931
86627,179581,242017,-9.3619184225,0.0287138712,2.6285156261,932
86693,179632,241991,-9.3619184225,0.0287138712,2.6285156261,933
86760,179603,242020,-9.3619184225,0.0287138712,2.6285156261,934
86807,179603,241997,-9.3619184225,0.0287138712,2.6285156261,935
86769,179587,242034,-9.3619184225,0.0287138712,2.6285156261,936
86217,179475,242000,-9.3619184225,0.0287138712,2.6285156261,937
85383,179397,241981,-9.3619184225,0.0287138712,2.6285156261,938
84809,179373,241984,-9.3619184225,0.0287138712,2.6285156261,939
84638,179339,241972,-9.3619184225,0.0287138712,2.6285156261,940
84666,179361,242022,-9.3619184225,0.0287138712,2.6285156261,941
84810,179367,241971,-9.3619184225,0.0287138712,2.6285156261,942
85004,179379,241996,-9.3619184225,0.0287138712,2.6285156261,943
85161,179385,241992,-9.3619184225,0.0287138712,2.6285156261,944
85155,179392,241993,-9.3619184225,0.0287138712,2.6285156261,945
85083,179387,241982,-9.3619184225,0.0287138712,2.6285156261,946
85025,179368,241999,-9.3619184225,0.0287138712,2.6285156261,947
85063,179392,241986,-9.3619184225,0.0287138712,2.6285156261,948
85131,179369,241977,-9.3619184225,0.0287138712,2.6285156261,949
85197,179412,241991,-9.3619184225,0.0287138712,2.6285156261,950
85258,179368,241939,-9.3619184225,0.0287138712,2.6285156261,951
85314,179368,241995,-9.3619184225,0.0287138712,2.6285156261,952
85377,179388,241954,-9.3619184225,0.0287138712,2.6285156261,953
85467,179388,241928,-9.3619184225,0.0287138712,2.6285156261,954
85520,179397,241963,-9.3619184225,0.0287138712,2.6285156261,955
85724,179430,241931,-9.3822574146,0.17706887240000002,2.5686950610999997,956
85169,179335,241926,-9.3822574146,0.17706887240000002,2.5686950610999997,957
84554,179304,241927,-9.3822574146,0.17706887240000002,2.5686950610999997,958
84296,179300,241954,-9.3822574146,0.17706887240000002,2.5686950610999997,959
84351,179338,241965,-9.3822574146,0.17706887240000002,2.5686950610999997,960
84549,179378,241920,-9.3822574146,0.17706887240000002,2.5686950610999997,961
84821,179395,241975,-9.3822574146,0.17706887240000002,2.5686950610999997,962
85082,179442,242014,-9.3822574146,0.17706887240000002,2.5686950610999997,963
85207,179464,242045,-9.3822574146,0.17706887240000002,2.5686950610999997,964
85190,179477,242015,-9.3822574146,0.17706887240000002,2.5686950610999997,965
85186,179489,242016,-9.3822574146,0.17706887240000002,2.5686950610999997,966
85247,179480,242022,-9.3822574146,0.17706887240000002,2.5686950610999997,967
85341,179493,242023,-9.3822574146,0.17706887240000002,2.5686950610999997,968
85472,179527,242055,-9.3822574146,0.17706887240000002,2.5686950610999997,969
85601,179529,242094,-9.3822574146,0.17706887240000002,2.5686950610999997,970
85701,179557,242031,-9.3822574146,0.17706887240000002,2.5686950610999997,971
85796,179565,242049,-9.3822574146,0.17706887240000002,2.5686950610999997,972
85919,179569,242048,-9.3822574146,0.17706887240000002,2.5686950610999997,973
86012,179610,242018,-9.3822574146,0.17706887240000002,2.5686950610999997,974
86135,179593,242074,-9.3822574146,0.17706887240000002,2.5686950610999997,975
86263,179611,242029,-9.3822574146,0.17706887240000002,2.5686950610999997,976
86333,179614,242059,-9.3822574146,0.17706887240000002,2.5686950610999997,977
86044,179578,242076,-9.3822574146,0.17706887240000002,2.5686950610999997,978
85241,179518,242073,-9.3822574146,0.17706887240000002,2.5686950610999997,979
84588,179418,242095,-9.3822574146,0.17706887240000002,2.5686950610999997,980
84316,179413,242060,-9.3822574146,0.17706887240000002,2.5686950610999997,981
84322,179418,242051,-9.3822574146,0.17706887240000002,2.5686950610999997,982
84446,179439,242042,-9.3822574146,0.17706887240000002,2.5686950610999997,983
84621,179505,242101,-9.3822574146,0.17706887240000002,2.5686950610999997,984
84885,179489,242063,-9.3822574146,0.17706887240000002,2.5686950610999997,985
85013,179521,242050,-9.3822574146,0.17706887240000002,2.5686950610999997,986
85029,179560,242104,-9.3822574146,0.17706887240000002,2.5686950610999997,987
85020,179525,242122,-9.3822574146,0.17706887240000002,2.5686950610999997,988
85071,179542,242104,-9.3822574146,0.17706887240000002,2.5686950610999997,989
85183,179538,242119,-9.3822574146,0.17706887240000002,2.5686950610999997,990
85302,179564,242130,-9.3822574146,0.17706887240000002,2.5686950610999997,991
85415,179534,242171,-9.3822574146,0.17706887240000002,2.5686950610999997,992
85524,179590,242187,-9.3822574146,0.17706887240000002,2.5686950610999997,993
85631,179619,242186,-9.3822574146,0.17706887240000002,2.5686950610999997,994
85737,179617,242117,-9.3822574146,0.17706887240000002,2.5686950610999997,995
85858,179627,242160,-9.3822574146,0.17706887240000002,2.5686950610999997,996
85961,179609,242137,-9.3822574146,0.17706887240000002,2.5686950610999997,997
85057,179422,241915,-9.439685157,0.1100698396,2.5028924396,998
85167,179438,241913,-9.439685157,0.1100698396,2.5028924396,999
85312,179457,241874,-9.439685157,0.1100698396,2.5028924396,1000
85444,179465,241865,-9.439685157,0.1100698396,2.5028924396,1001
85618,179487,241904,-9.439685157,0.1100698396,2.5028924396,1002
85799,179518,241944,-9.439685157,0.1100698396,2.5028924396,1003
85969,179565,241846,-9.439685157,0.1100698396,2.5028924396,1004
86165,179576,241889,-9.439685157,0.1100698396,2.5028924396,1005
86323,179603,241876,-9.439685157,0.1100698396,2.5028924396,1006
86375,179604,241871,-9.439685157,0.1100698396,2.5028924396,1007
85966,179584,241935,-9.439685157,0.1100698396,2.5028924396,1008
85241,179519,241857,-9.439685157,0.1100698396,2.5028924396,1009
84796,179525,241865,-9.439685157,0.1100698396,2.5028924396,1010
84745,179485,241887,-9.439685157,0.1100698396,2.5028924396,1011
84876,179524,241874,-9.439685157,0.1100698396,2.5028924396,1012
85122,179570,241877,-9.439685157,0.1100698396,2.5028924396,1013
85384,179595,241922,-9.439685157,0.1100698396,2.5028924396,1014
85613,179615,241888,-9.439685157,0.1100698396,2.5028924396,1015
85673,179591,241920,-9.439685157,0.1100698396,2.5028924396,1016
85665,179605,241879,-9.439685157,0.1100698396,2.5028924396,1017
85681,179620,241887,-9.439685157,0.1100698396,2.5028924396,1018
85777,179613,241913,-9.439685157,0.1100698396,2.5028924396,1019
85918,179640,241895,-9.439685157,0.1100698396,2.5028924396,1020
86069,179660,241917,-9.439685157,0.1100698396,2.5028924396,1021
86196,179666,241918,-9.439685157,0.1100698396,2.5028924396,1022
86303,179659,241910,-9.4301138666,0.0526420972,2.5040888509,1023
86416,179676,241903,-9.4301138666,0.0526420972,2.5040888509,1024
86544,179694,241907,-9.4301138666,0.0526420972,2.5040888509,1025
86650,179705,241916,-9.4301138666,0.0526420972,2.5040888509,1026
86802,179708,241863,-9.4301138666,0.0526420972,2.5040888509,1027
86901,179732,241904,-9.4301138666,0.0526420972,2.5040888509,1028
87022,179734,241887,-9.4301138666,0.0526420972,2.5040888509,1029
87138,179718,241864,-9.4301138666,0.0526420972,2.5040888509,1030
87197,179743,241827,-9.4301138666,0.0526420972,2.5040888509,1031
86820,179695,241889,-9.4301138666,0.0526420972,2.5040888509,1032
85997,179604,241872,-9.4301138666,0.0526420972,2.5040888509,1033
85350,179588,241856,-9.4301138666,0.0526420972,2.5040888509,1034
85123,179557,241861,-9.4301138666,0.0526420972,2.5040888509,1035
85135,179562,241834,-9.4301138666,0.0526420972,2.5040888509,1036
85259,179569,241870,-9.4301138666,0.0526420972,2.5040888509,1037
85467,179628,241870,-9.4301138666,0.0526420972,2.5040888509,1038
85731,179620,241828,-9.4301138666,0.0526420972,2.5040888509,1039
85897,179629,241851,-9.4301138666,0.0526420972,2.5040888509,1040
85931,179640,241858,-9.4301138666,0.0526420972,2.5040888509,1041
85947,179643,241874,-9.4301138666,0.0526420972,2.5040888509,1042
86000,179630,241885,-9.4301138666,0.0526420972,2.5040888509,1043
86119,179664,241874,-9.4301138666,0.0526420972,2.5040888509,1044
86244,179658,241847,-9.4301138666,0.0526420972,2.5040888509,1045
86375,179636,241875,-9.4301138666,0.0526420972,2.5040888509,1046
86494,179681,241880,-9.4301138666,0.0526420972,2.5040888509,1047
86609,179699,241858,-9.4301138666,0.0526420972,2.5040888509,1048
86698,179679,241860,-9.3822574146,-0.031106693799999998,2.500499617,1049
86845,179697,241877,-9.3822574146,-0.031106693799999998,2.500499617,1050
86988,179714,241864,-9.3822574146,-0.031106693799999998,2.500499617,1051
87107,179730,241907,-9.3822574146,-0.031106693799999998,2.500499617,1052
87217,179717,241829,-9.3822574146,-0.031106693799999998,2.500499617,1053
87311,179715,241838,-9.3822574146,-0.031106693799999998,2.500499617,1054
87421,179746,241851,-9.3822574146,-0.031106693799999998,2.500499617,1055
87536,179748,241903,-9.3822574146,-0.031106693799999998,2.500499617,1056
87625,179759,241848,-9.3822574146,-0.031106693799999998,2.500499617,1057
87703,179753,241841,-9.3822574146,-0.031106693799999998,2.500499617,1058
87539,179713,241887,-9.3822574146,-0.031106693799999998,2.500499617,1059
86773,179649,241841,-9.3822574146,-0.031106693799999998,2.500499617,1060
85978,179571,241847,-9.3822574146,-0.031106693799999998,2.500499617,1061
85614,179574,241875,-9.3822574146,-0.031106693799999998,2.500499617,1062
85560,179572,241850,-9.3822574146,-0.031106693799999998,2.500499617,1063
85627,179589,241847,-9.3822574146,-0.031106693799999998,2.500499617,1064
85787,179600,241822,-9.3822574146,-0.031106693799999998,2.500499617,1065
86030,179601,241872,-9.3822574146,-0.031106693799999998,2.500499617,1066
86203,179628,241917,-9.3822574146,-0.031106693799999998,2.500499617,1067
86247,179612,241856,-9.3822574146,-0.031106693799999998,2.500499617,1068
86219,179632,241864,-9.3822574146,-0.031106693799999998,2.500499617,1069
86238,179662,241849,-9.3822574146,-0.031106693799999998,2.500499617,1070
86303,179636,241867,-9.3822574146,-0.031106693799999998,2.500499617,1071
86421,179631,241850,-9.3822574146,-0.031106693799999998,2.500499617,1072
86517,179640,241910,-9.3822574146,-0.031106693799999998,2.500499617,1073
86623,179650,241833,-9.3822574146,-0.031106693799999998,2.500499617,1074
86708,179659,241882,-9.3822574146,-0.031106693799999998,2.500499617,1075
86783,179651,241847,-9.3822574146,-0.031106693799999998,2.500499617,1076
86887,179667,241884,-9.3822574146,-0.031106693799999998,2.500499617,1077
86978,179674,241908,-9.3822574146,-0.031106693799999998,2.500499617,1078
87048,179657,241847,-9.3822574146,-0.031106693799999998,2.500499617,1079
87141,179665,241832,-9.3822574146,-0.031106693799999998,2.500499617,1080
87204,179602,241760,-9.495916488099999,0.0526420972,2.5591237707,1081
87280,179643,241819,-9.495916488099999,0.0526420972,2.5591237707,1082
87361,179613,241865,-9.495916488099999,0.0526420972,2.5591237707,1083
87419,179603,241815,-9.495916488099999,0.0526420972,2.5591237707,1084
87491,179596,241805,-9.495916488099999,0.0526420972,2.5591237707,1085
87570,179635,241754,-9.495916488099999,0.0526420972,2.5591237707,1086
87416,179564,241779,-9.495916488099999,0.0526420972,2.5591237707,1087
86736,179476,241771,-9.495916488099999,0.0526420972,2.5591237707,1088
85907,179423,241766,-9.495916488099999,0.0526420972,2.5591237707,1089
85494,179395,241777,-9.495916488099999,0.0526420972,2.5591237707,1090
85417,179388,241774,-9.495916488099999,0.0526420972,2.5591237707,1091
85510,179386,241745,-9.495916488099999,0.0526420972,2.5591237707,1092
85701,179424,241733,-9.495916488099999,0.0526420972,2.5591237707,1093
85904,179416,241740,-9.495916488099999,0.0526420972,2.5591237707,1094
86045,179430,241745,-9.495916488099999,0.0526420972,2.5591237707,1095
86029,179419,241728,-9.495916488099999,0.0526420972,2.5591237707,1096
85975,179420,241755,-9.495916488099999,0.0526420972,2.5591237707,1097
85933,179417,241708,-9.495916488099999,0.0526420972,2.5591237707,1098
85966,179405,241711,-9.495916488099999,0.0526420972,2.5591237707,1099
86059,179404,241717,-9.495916488099999,0.0526420972,2.5591237707,1100
86122,179423,241736,-9.495916488099999,0.0526420972,2.5591237707,1101
86206,179389,241729,-9.495916488099999,0.0526420972,2.5591237707,1102
86279,179400,241729,-9.495916488099999,0.0526420972,2.5591237707,1103
86370,179414,241712,-9.495916488099999,0.0526420972,2.5591237707,1104
86506,179432,241742,-9.495916488099999,0.0526420972,2.5591237707,1105
86633,179470,241731,-9.495916488099999,0.0526420972,2.5591237707,1106
86775,179482,241784,-9.495916488099999,0.0526420972,2.5591237707,1107
86928,179517,241725,-9.495916488099999,0.0526420972,2.5591237707,1108
87077,179548,241776,-9.495916488099999,0.0526420972,2.5591237707,1109
87236,179554,241781,-9.495916488099999,0.0526420972,2.5591237707,1110
87402,179583,241759,-9.495916488099999,0.0526420972,2.5591237707,1111
87479,179603,241785,-9.495916488099999,0.0526420972,2.5591237707,1112
87180,179556,241795,-9.495916488099999,0.0526420972,2.5591237707,1113
86433,179533,241799,-9.495916488099999,0.0526420972,2.5591237707,1114
85880,179456,241762,-9.495916488099999,0.0526420972,2.5591237707,1115
85754,179501,241800,-9.495916488099999,0.0526420972,2.5591237707,1116
85825,179493,241801,-9.495916488099999,0.0526420972,2.5591237707,1117
86022,179498,241850,-9.495916488099999,0.0526420972,2.5591237707,1118
86257,179546,241799,-9.495916488099999,0.0526420972,2.5591237707,1119
86456,179540,241834,-9.495916488099999,0.0526420972,2.5591237707,1120
86517,179548,241879,-9.495916488099999,0.0526420972,2.5591237707,1121
86478,179573,241870,-9.495916488099999,0.0526420972,2.5591237707,1122
86779,179641,241906,-9.3595255999,0.044267218100000005,2.4861426814,1123
86865,179631,241870,-9.3595255999,0.044267218100000005,2.4861426814,1124
86967,179645,241926,-9.3595255999,0.044267218100000005,2.4861426814,1125
87092,179677,241858,-9.3595255999,0.044267218100000005,2.4861426814,1126
87201,179701,241880,-9.3595255999,0.044267218100000005,2.4861426814,1127
87330,179699,241857,-9.3595255999,0.044267218100000005,2.4861426814,1128
87433,179740,241895,-9.3595255999,0.044267218100000005,2.4861426814,1129
87534,179742,241912,-9.3595255999,0.044267218100000005,2.4861426814,1130
87662,179734,241932,-9.3595255999,0.044267218100000005,2.4861426814,1131
87751,179702,241910,-9.3595255999,0.044267218100000005,2.4861426814,1132
87848,179721,241870,-9.3595255999,0.044267218100000005,2.4861426814,1133
87893,179707,241953,-9.3595255999,0.044267218100000005,2.4861426814,1134
87466,179665,241895,-9.3595255999,0.044267218100000005,2.4861426814,1135
86569,179552,241882,-9.3595255999,0.044267218100000005,2.4861426814,1136
85869,179544,241890,-9.3595255999,0.044267218100000005,2.4861426814,1137
85620,179523,241907,-9.3595255999,0.044267218100000005,2.4861426814,1138
85611,179520,241882,-9.3595255999,0.044267218100000005,2.4861426814,1139
85688,179573,241858,-9.3595255999,0.044267218100000005,2.4861426814,1140
85884,179586,241911,-9.3595255999,0.044267218100000005,2.4861426814,1141
86084,179598,241928,-9.3595255999,0.044267218100000005,2.4861426814,1142
86261,179596,241960,-9.3595255999,0.044267218100000005,2.4861426814,1143
86256,179589,241981,-9.3595255999,0.044267218100000005,2.4861426814,1144
86254,179608,241980,-9.3595255999,0.044267218100000005,2.4861426814,1145
86297,179632,241921,-9.3595255999,0.044267218100000005,2.4861426814,1146
86381,179620,241956,-9.3595255999,0.044267218100000005,2.4861426814,1147
86493,179679,241993,-9.3595255999,0.044267218100000005,2.4861426814,1148
86605,179653,242004,-9.3595255999,0.044267218100000005,2.4861426814,1149
86706,179663,241993,-9.3595255999,0.044267218100000005,2.4861426814,1150
86819,179682,242035,-9.3595255999,0.044267218100000005,2.4861426814,1151
86908,179683,242008,-9.3595255999,0.044267218100000005,2.4861426814,1152
87038,179713,242011,-9.3595255999,0.044267218100000005,2.4861426814,1153
87140,179705,242041,-9.3595255999,0.044267218100000005,2.4861426814,1154
87270,179717,242016,-9.3595255999,0.044267218100000005,2.4861426814,1155
87364,179720,242020,-9.3595255999,0.044267218100000005,2.4861426814,1156
87467,179722,242009,-9.3595255999,0.044267218100000005,2.4861426814,1157
87569,179740,242057,-9.3595255999,0.044267218100000005,2.4861426814,1158
87675,179749,241982,-9.3595255999,0.044267218100000005,2.4861426814,1159
87767,179739,242011,-9.3595255999,0.044267218100000005,2.4861426814,1160
87632,179722,242055,-9.3595255999,0.044267218100000005,2.4861426814,1161
86917,179627,242053,-9.3595255999,0.044267218100000005,2.4861426814,1162
86106,179562,242046,-9.3595255999,0.044267218100000005,2.4861426814,1163
85691,179550,242014,-9.3595255999,0.044267218100000005,2.4861426814,1164
85390,179543,242177,-9.4887380203,0.0825523797,2.5363919559999997,1165
85420,179492,242220,-9.4887380203,0.0825523797,2.5363919559999997,1166
85563,179580,242191,-9.4887380203,0.0825523797,2.5363919559999997,1167
85769,179578,242172,-9.4887380203,0.0825523797,2.5363919559999997,1168
85980,179603,242231,-9.4887380203,0.0825523797,2.5363919559999997,1169
86032,179619,242212,-9.4887380203,0.0825523797,2.5363919559999997,1170
85990,179619,242239,-9.4887380203,0.0825523797,2.5363919559999997,1171
85952,179591,242233,-9.4887380203,0.0825523797,2.5363919559999997,1172
86022,179618,242220,-9.4887380203,0.0825523797,2.5363919559999997,1173
86110,179650,242239,-9.4887380203,0.0825523797,2.5363919559999997,1174
86231,179650,242233,-9.4887380203,0.0825523797,2.5363919559999997,1175
86308,179668,242243,-9.4887380203,0.0825523797,2.5363919559999997,1176
86407,179658,242235,-9.4887380203,0.0825523797,2.5363919559999997,1177
86505,179691,242230,-9.4887380203,0.0825523797,2.5363919559999997,1178
86599,179695,242211,-9.4887380203,0.0825523797,2.5363919559999997,1179
86717,179710,242191,-9.4887380203,0.0825523797,2.5363919559999997,1180
86827,179707,242224,-9.4887380203,0.0825523797,2.5363919559999997,1181
86909,179735,242218,-9.4887380203,0.0825523797,2.5363919559999997,1182
87022,179762,242200,-9.4887380203,0.0825523797,2.5363919559999997,1183
87095,179740,242232,-9.4887380203,0.0825523797,2.5363919559999997,1184
86995,179706,242194,-9.4887380203,0.0825523797,2.5363919559999997,1185
86307,179636,242203,-9.4887380203,0.0825523797,2.5363919559999997,1186
85459,179549,242192,-9.4887380203,0.0825523797,2.5363919559999997,1187
84934,179515,242213,-9.4887380203,0.0825523797,2.5363919559999997,1188
84813,179526,242177,-9.4887380203,0.0825523797,2.5363919559999997,1189
84843,179518,242176,-9.4887380203,0.0825523797,2.5363919559999997,1190
84973,179567,242211,-9.4887380203,0.0825523797,2.5363919559999997,1191
85174,179594,242252,-9.4887380203,0.0825523797,2.5363919559999997,1192
85371,179598,242196,-9.4887380203,0.0825523797,2.5363919559999997,1193
85431,179603,242197,-9.4887380203,0.0825523797,2.5363919559999997,1194
85420,179603,242200,-9.4887380203,0.0825523797,2.5363919559999997,1195
85414,179575,242242,-9.4887380203,0.0825523797,2.5363919559999997,1196
85462,179594,242188,-9.4887380203,0.0825523797,2.5363919559999997,1197
85573,179618,242244,-9.4887380203,0.0825523797,2.5363919559999997,1198
85676,179632,242225,-9.4887380203,0.0825523797,2.5363919559999997,1199
85786,179645,242241,-9.4887380203,0.0825523797,2.5363919559999997,1200
85867,179671,242233,-9.4887380203,0.0825523797,2.5363919559999997,1201
85971,179670,242244,-9.4887380203,0.0825523797,2.5363919559999997,1202
86081,179680,242196,-9.4887380203,0.0825523797,2.5363919559999997,1203
86195,179700,242220,-9.4887380203,0.0825523797,2.5363919559999997,1204
86305,179703,242231,-9.4887380203,0.0825523797,2.5363919559999997,1205
86405,179700,242201,-9.4887380203,0.0825523797,2.5363919559999997,1206
85572,179526,242227,-9.4097748745,0.10289137179999999,2.5387847786,1207
85662,179555,242205,-9.4097748745,0.10289137179999999,2.5387847786,1208
85786,179534,242240,-9.4097748745,0.10289137179999999,2.5387847786,1209
85909,179603,242227,-9.4097748745,0.10289137179999999,2.5387847786,1210
86050,179617,242246,-9.4097748745,0.10289137179999999,2.5387847786,1211
86134,179631,242255,-9.4097748745,0.10289137179999999,2.5387847786,1212
86259,179633,242266,-9.4097748745,0.10289137179999999,2.5387847786,1213
86361,179644,242202,-9.4097748745,0.10289137179999999,2.5387847786,1214
86481,179681,242226,-9.4097748745,0.10289137179999999,2.5387847786,1215
86617,179666,242222,-9.4097748745,0.10289137179999999,2.5387847786,1216
86757,179704,242244,-9.4097748745,0.10289137179999999,2.5387847786,1217
86768,179682,242264,-9.4097748745,0.10289137179999999,2.5387847786,1218
86329,179618,242214,-9.4097748745,0.10289137179999999,2.5387847786,1219
85486,179524,242211,-9.4097748745,0.10289137179999999,2.5387847786,1220
84896,179469,242237,-9.4097748745,0.10289137179999999,2.5387847786,1221
84718,179466,242177,-9.4097748745,0.10289137179999999,2.5387847786,1222
84735,179484,242252,-9.4097748745,0.10289137179999999,2.5387847786,1223
84839,179503,242193,-9.4097748745,0.10289137179999999,2.5387847786,1224
85056,179557,242281,-9.4097748745,0.10289137179999999,2.5387847786,1225
85287,179569,242233,-9.4097748745,0.10289137179999999,2.5387847786,1226
85394,179581,242277,-9.4097748745,0.10289137179999999,2.5387847786,1227
85385,179579,242297,-9.4097748745,0.10289137179999999,2.5387847786,1228
85386,179598,242265,-9.4097748745,0.10289137179999999,2.5387847786,1229
85455,179594,242334,-9.4097748745,0.10289137179999999,2.5387847786,1230
85557,179621,242307,-9.4097748745,0.10289137179999999,2.5387847786,1231
85664,179665,242307,-9.4097748745,0.10289137179999999,2.5387847786,1232
85767,179649,242309,-9.4097748745,0.10289137179999999,2.5387847786,1233
85880,179655,242309,-9.4097748745,0.10289137179999999,2.5387847786,1234
85974,179663,242299,-9.4097748745,0.10289137179999999,2.5387847786,1235
86093,179660,242342,-9.4097748745,0.10289137179999999,2.5387847786,1236
86196,179699,242356,-9.4097748745,0.10289137179999999,2.5387847786,1237
86312,179686,242386,-9.4097748745,0.10289137179999999,2.5387847786,1238
86411,179692,242337,-9.4097748745,0.10289137179999999,2.5387847786,1239
86504,179720,242363,-9.4097748745,0.10289137179999999,2.5387847786,1240
86443,179683,242366,-9.4097748745,0.10289137179999999,2.5387847786,1241
85854,179599,242314,-9.4097748745,0.10289137179999999,2.5387847786,1242
85019,179546,242298,-9.4097748745,0.10289137179999999,2.5387847786,1243
84516,179486,242351,-9.4097748745,0.10289137179999999,2.5387847786,1244
84406,179458,242368,-9.4097748745,0.10289137179999999,2.5387847786,1245
84472,179488,242349,-9.4097748745,0.10289137179999999,2.5387847786,1246
84635,179524,242357,-9.4097748745,0.10289137179999999,2.5387847786,1247
84902,179547,242355,-9.4097748745,0.10289137179999999,2.5387847786,1248
85844,179641,242432,-9.4612205604,0.0526420972,2.4562323989,1249
85973,179646,242435,-9.4612205604,0.0526420972,2.4562323989,1250
86072,179643,242365,-9.4612205604,0.0526420972,2.4562323989,1251
86206,179677,242416,-9.4612205604,0.0526420972,2.4562323989,1252
86298,179660,242400,-9.4612205604,0.0526420972,2.4562323989,1253
86418,179694,242388,-9.4612205604,0.0526420972,2.4562323989,1254
86546,179710,242376,-9.4612205604,0.0526420972,2.4562323989,1255
86633,179719,242394,-9.4612205604,0.0526420972,2.4562323989,1256
86535,179685,242398,-9.4612205604,0.0526420972,2.4562323989,1257
85868,179606,242389,-9.4612205604,0.0526420972,2.4562323989,1258
85086,179542,242402,-9.4612205604,0.0526420972,2.4562323989,1259
84702,179469,242395,-9.4612205604,0.0526420972,2.4562323989,1260
84652,179504,242364,-9.4612205604,0.0526420972,2.4562323989,1261
84727,179517,242439,-9.4612205604,0.0526420972,2.4562323989,1262
84919,179554,242397,-9.4612205604,0.0526420972,2.4562323989,1263
85177,179563,242416,-9.4612205604,0.0526420972,2.4562323989,1264
85333,179592,242438,-9.4612205604,0.0526420972,2.4562323989,1265
85409,179605,242434,-9.4612205604,0.0526420972,2.4562323989,1266
85375,179572,242433,-9.4612205604,0.0526420972,2.4562323989,1267
85400,179591,242460,-9.4612205604,0.0526420972,2.4562323989,1268
85468,179575,242427,-9.4612205604,0.0526420972,2.4562323989,1269
85552,179593,242495,-9.4612205604,0.0526420972,2.4562323989,1270
85633,179560,242460,-9.4612205604,0.0526420972,2.4562323989,1271
85723,179574,242440,-9.4612205604,0.0526420972,2.4562323989,1272
85799,179592,242389,-9.4612205604,0.0526420972,2.4562323989,1273
85870,179575,242456,-9.4612205604,0.0526420972,2.4562323989,1274
85966,179578,242398,-9.4612205604,0.0526420972,2.4562323989,1275
86077,179603,242477,-9.4612205604,0.0526420972,2.4562323989,1276
86165,179598,242420,-9.4612205604,0.0526420972,2.4562323989,1277
86258,179615,242400,-9.4612205604,0.0526420972,2.4562323989,1278
86349,179618,242415,-9.4612205604,0.0526420972,2.4562323989,1279
86434,179614,242417,-9.4612205604,0.0526420972,2.4562323989,1280
86487,179595,242359,-9.4612205604,0.0526420972,2.4562323989,1281
86374,179583,242402,-9.4612205604,0.0526420972,2.4562323989,1282
85768,179455,242422,-9.4612205604,0.0526420972,2.4562323989,1283
85022,179396,242382,-9.4612205604,0.0526420972,2.4562323989,1284
84674,179365,242379,-9.4612205604,0.0526420972,2.4562323989,1285
84639,179369,242355,-9.4612205604,0.0526420972,2.4562323989,1286
84733,179368,242376,-9.4612205604,0.0526420972,2.4562323989,1287
84939,179399,242372,-9.4612205604,0.0526420972,2.4562323989,1288
85179,179392,242349,-9.4612205604,0.0526420972,2.4562323989,1289
85301,179433,242411,-9.4612205604,0.0526420972,2.4562323989,1290
84672,179539,242357,-9.2805624541,0.15672988029999999,2.4837498588,1291
84902,179525,242420,-9.2805624541,0.15672988029999999,2.4837498588,1292
85026,179542,242414,-9.2805624541,0.15672988029999999,2.4837498588,1293
85044,179519,242419,-9.2805624541,0.15672988029999999,2.4837498588,1294
85033,179548,242425,-9.2805624541,0.15672988029999999,2.4837498588,1295
85094,179534,242396,-9.2805624541,0.15672988029999999,2.4837498588,1296
85176,179561,242417,-9.2805624541,0.15672988029999999,2.4837498588,1297
85303,179575,242440,-9.2805624541,0.15672988029999999,2.4837498588,1298
85393,179589,242422,-9.2805624541,0.15672988029999999,2.4837498588,1299
85470,179602,242346,-9.2805624541,0.15672988029999999,2.4837498588,1300
85580,179580,242393,-9.2805624541,0.15672988029999999,2.4837498588,1301
85645,179590,242407,-9.2805624541,0.15672988029999999,2.4837498588,1302
85743,179605,242429,-9.2805624541,0.15672988029999999,2.4837498588,1303
85836,179574,242393,-9.2805624541,0.15672988029999999,2.4837498588,1304
85904,179601,242399,-9.2805624541,0.15672988029999999,2.4837498588,1305
85969,179552,242414,-9.2805624541,0.15672988029999999,2.4837498588,1306
86077,179568,242394,-9.2805624541,0.15672988029999999,2.4837498588,1307
86115,179585,242369,-9.2805624541,0.15672988029999999,2.4837498588,1308
85982,179510,242358,-9.2805624541,0.15672988029999999,2.4837498588,1309
85282,179434,242375,-9.2805624541,0.15672988029999999,2.4837498588,1310
84526,179354,242365,-9.2805624541,0.15672988029999999,2.4837498588,1311
84149,179313,242372,-9.2805624541,0.15672988029999999,2.4837498588,1312
84117,179297,242351,-9.2805624541,0.15672988029999999,2.4837498588,1313
84219,179305,242378,-9.2805624541,0.15672988029999999,2.4837498588,1314
84393,179344,242337,-9.2805624541,0.15672988029999999,2.4837498588,1315
84646,179362,242334,-9.2805624541,0.15672988029999999,2.4837498588,1316
84793,179360,242355,-9.2805624541,0.15672988029999999,2.4837498588,1317
84797,179375,242350,-9.2805624541,0.15672988029999999,2.4837498588,1318
84755,179333,242361,-9.2805624541,0.15672988029999999,2.4837498588,1319
84769,179312,242371,-9.2805624541,0.15672988029999999,2.4837498588,1320
84850,179344,242349,-9.2805624541,0.15672988029999999,2.4837498588,1321
84932,179301,242354,-9.2805624541,0.15672988029999999,2.4837498588,1322
85039,179352,242387,-9.2805624541,0.15672988029999999,2.4837498588,1323
85091,179342,242346,-9.2805624541,0.15672988029999999,2.4837498588,1324
85190,179382,242325,-9.2805624541,0.15672988029999999,2.4837498588,1325
85281,179347,242339,-9.2805624541,0.15672988029999999,2.4837498588,1326
85404,179368,242326,-9.2805624541,0.15672988029999999,2.4837498588,1327
85526,179413,242324,-9.2805624541,0.15672988029999999,2.4837498588,1328
85676,179437,242358,-9.2805624541,0.15672988029999999,2.4837498588,1329
85824,179409,242320,-9.2805624541,0.15672988029999999,2.4837498588,1330
85976,179457,242322,-9.2805624541,0.15672988029999999,2.4837498588,1331
86076,179453,242345,-9.2805624541,0.15672988029999999,2.4837498588,1332
85386,179524,242521,-9.5198447141,0.1483550012,2.6285156261,1333
85451,179537,242545,-9.5198447141,0.1483550012,2.6285156261,1334
85426,179510,242528,-9.5198447141,0.1483550012,2.6285156261,1335
85383,179511,242560,-9.5198447141,0.1483550012,2.6285156261,1336
85392,179530,242536,-9.5198447141,0.1483550012,2.6285156261,1337
85447,179502,242531,-9.5198447141,0.1483550012,2.6285156261,1338
85526,179547,242500,-9.5198447141,0.1483550012,2.6285156261,1339
85587,179526,242502,-9.5198447141,0.1483550012,2.6285156261,1340
85648,179539,242508,-9.5198447141,0.1483550012,2.6285156261,1341
85732,179524,242555,-9.5198447141,0.1483550012,2.6285156261,1342
85797,179505,242524,-9.5198447141,0.1483550012,2.6285156261,1343
85915,179554,242559,-9.5198447141,0.1483550012,2.6285156261,1344
85992,179518,242481,-9.5198447141,0.1483550012,2.6285156261,1345
86069,179550,242482,-9.5198447141,0.1483550012,2.6285156261,1346
86139,179534,242443,-9.5198447141,0.1483550012,2.6285156261,1347
86213,179495,242473,-9.5198447141,0.1483550012,2.6285156261,1348
86268,179527,242468,-9.5198447141,0.1483550012,2.6285156261,1349
86309,179514,242492,-9.5198447141,0.1483550012,2.6285156261,1350
86013,179443,242480,-9.5198447141,0.1483550012,2.6285156261,1351
85251,179358,242459,-9.5198447141,0.1483550012,2.6285156261,1352
84575,179311,242425,-9.5198447141,0.1483550012,2.6285156261,1353
84315,179262,242445,-9.5198447141,0.1483550012,2.6285156261,1354
84357,179309,242443,-9.5198447141,0.1483550012,2.6285156261,1355
84507,179307,242470,-9.5198447141,0.1483550012,2.6285156261,1356
84731,179322,242464,-9.5198447141,0.1483550012,2.6285156261,1357
84931,179372,242403,-9.5198447141,0.1483550012,2.6285156261,1358
85006,179345,242433,-9.5198447141,0.1483550012,2.6285156261,1359
84947,179354,242434,-9.5198447141,0.1483550012,2.6285156261,1360
84919,179335,242408,-9.5198447141,0.1483550012,2.6285156261,1361
84959,179338,242440,-9.5198447141,0.1483550012,2.6285156261,1362
85053,179368,242415,-9.5198447141,0.1483550012,2.6285156261,1363
85175,179367,242451,-9.5198447141,0.1483550012,2.6285156261,1364
85306,179367,242442,-9.5198447141,0.1483550012,2.6285156261,1365
85426,179408,242408,-9.5198447141,0.1483550012,2.6285156261,1366
85566,179445,242391,-9.5198447141,0.1483550012,2.6285156261,1367
85708,179467,242407,-9.5198447141,0.1483550012,2.6285156261,1368
85866,179485,242393,-9.5198447141,0.1483550012,2.6285156261,1369
86043,179506,242396,-9.5198447141,0.1483550012,2.6285156261,1370
86207,179546,242426,-9.5198447141,0.1483550012,2.6285156261,1371
86355,179552,242403,-9.5198447141,0.1483550012,2.6285156261,1372
86262,179555,242462,-9.5198447141,0.1483550012,2.6285156261,1373
85668,179475,242412,-9.5198447141,0.1483550012,2.6285156261,1374
84413,179301,242470,-9.531808827099999,0.1351944769,2.5100709074,1375
84441,179259,242391,-9.531808827099999,0.1351944769,2.5100709074,1376
84398,179256,242438,-9.531808827099999,0.1351944769,2.5100709074,1377
84439,179256,242447,-9.531808827099999,0.1351944769,2.5100709074,1378
84578,179310,242455,-9.531808827099999,0.1351944769,2.5100709074,1379
84713,179328,242416,-9.531808827099999,0.1351944769,2.5100709074,1380
84877,179361,242439,-9.531808827099999,0.1351944769,2.5100709074,1381
85048,179382,242404,-9.531808827099999,0.1351944769,2.5100709074,1382
85192,179404,242413,-9.531808827099999,0.1351944769,2.5100709074,1383
85361,179448,242442,-9.531808827099999,0.1351944769,2.5100709074,1384
85523,179470,242429,-9.531808827099999,0.1351944769,2.5100709074,1385
85654,179472,242457,-9.531808827099999,0.1351944769,2.5100709074,1386
85800,179515,242500,-9.531808827099999,0.1351944769,2.5100709074,1387
85937,179540,242526,-9.531808827099999,0.1351944769,2.5100709074,1388
86062,179539,242509,-9.531808827099999,0.1351944769,2.5100709074,1389
86115,179549,242471,-9.531808827099999,0.1351944769,2.5100709074,1390
85745,179520,242522,-9.531808827099999,0.1351944769,2.5100709074,1391
84920,179422,242532,-9.531808827099999,0.1351944769,2.5100709074,1392
84326,179369,242481,-9.531808827099999,0.1351944769,2.5100709074,1393
84164,179359,242487,-9.531808827099999,0.1351944769,2.5100709074,1394
84197,179374,242535,-9.531808827099999,0.1351944769,2.5100709074,1395
84339,179381,242501,-9.531808827099999,0.1351944769,2.5100709074,1396
84603,179445,242539,-9.531808827099999,0.1351944769,2.5100709074,1397
84816,179443,242513,-9.531808827099999,0.1351944769,2.5100709074,1398
84918,179471,242516,-9.531808827099999,0.1351944769,2.5100709074,1399
84884,179468,242518,-9.531808827099999,0.1351944769,2.5100709074,1400
84873,179471,242525,-9.531808827099999,0.1351944769,2.5100709074,1401
84960,179465,242504,-9.531808827099999,0.1351944769,2.5100709074,1402
85074,179497,242500,-9.531808827099999,0.1351944769,2.5100709074,1403
85208,179520,242537,-9.531808827099999,0.1351944769,2.5100709074,1404
85332,179555,242541,-9.531808827099999,0.1351944769,2.5100709074,1405
85430,179534,242511,-9.531808827099999,0.1351944769,2.5100709074,1406
85545,179572,242542,-9.531808827099999,0.1351944769,2.5100709074,1407
85654,179560,242550,-9.531808827099999,0.1351944769,2.5100709074,1408
85782,179607,242520,-9.531808827099999,0.1351944769,2.5100709074,1409
85893,179607,242522,-9.531808827099999,0.1351944769,2.5100709074,1410
86021,179610,242552,-9.531808827099999,0.1351944769,2.5100709074,1411
86128,179620,242527,-9.531808827099999,0.1351944769,2.5100709074,1412
86251,179654,242562,-9.531808827099999,0.1351944769,2.5100709074,1413
86361,179656,242570,-9.531808827099999,0.1351944769,2.5100709074,1414
86313,179633,242550,-9.531808827099999,0.1351944769,2.5100709074,1415
85663,179526,242572,-9.531808827099999,0.1351944769,2.5100709074,1416
85222,179517,242648,-9.3379901965,0.0526420972,2.5016960283,1417
85314,179514,242643,-9.3379901965,0.0526420972,2.5016960283,1418
85435,179530,242637,-9.3379901965,0.0526420972,2.5016960283,1419
85530,179541,242627,-9.3379901965,0.0526420972,2.5016960283,1420
85622,179538,242636,-9.3379901965,0.0526420972,2.5016960283,1421
85717,179541,242621,-9.3379901965,0.0526420972,2.5016960283,1422
85795,179551,242640,-9.3379901965,0.0526420972,2.5016960283,1423
85903,179563,242612,-9.3379901965,0.0526420972,2.5016960283,1424
85998,179560,242612,-9.3379901965,0.0526420972,2.5016960283,1425
86096,179570,242614,-9.3379901965,0.0526420972,2.5016960283,1426
86198,179541,242609,-9.3379901965,0.0526420972,2.5016960283,1427
86276,179571,242612,-9.3379901965,0.0526420972,2.5016960283,1428
86369,179558,242615,-9.3379901965,0.0526420972,2.5016960283,1429
86452,179579,242586,-9.3379901965,0.0526420972,2.5016960283,1430
86434,179545,242610,-9.3379901965,0.0526420972,2.5016960283,1431
85994,179472,242593,-9.3379901965,0.0526420972,2.5016960283,1432
85149,179382,242554,-9.3379901965,0.0526420972,2.5016960283,1433
84583,179301,242570,-9.3379901965,0.0526420972,2.5016960283,1434
84404,179303,242557,-9.3379901965,0.0526420972,2.5016960283,1435
84457,179311,242587,-9.3379901965,0.0526420972,2.5016960283,1436
84611,179316,242597,-9.3379901965,0.0526420972,2.5016960283,1437
84854,179340,242536,-9.3379901965,0.0526420972,2.5016960283,1438
85035,179382,242598,-9.3379901965,0.0526420972,2.5016960283,1439
85098,179365,242577,-9.3379901965,0.0526420972,2.5016960283,1440
85039,179327,242560,-9.3379901965,0.0526420972,2.5016960283,1441
85006,179337,242559,-9.3379901965,0.0526420972,2.5016960283,1442
85080,179330,242564,-9.3379901965,0.0526420972,2.5016960283,1443
85146,179383,242593,-9.3379901965,0.0526420972,2.5016960283,1444
85231,179325,242610,-9.3379901965,0.0526420972,2.5016960283,1445
85291,179336,242556,-9.3379901965,0.0526420972,2.5016960283,1446
85369,179348,242552,-9.3379901965,0.0526420972,2.5016960283,1447
85464,179353,242502,-9.3379901965,0.0526420972,2.5016960283,1448
85530,179371,242538,-9.3379901965,0.0526420972,2.5016960283,1449
85653,179374,242547,-9.3379901965,0.0526420972,2.5016960283,1450
85772,179377,242549,-9.3379901965,0.0526420972,2.5016960283,1451
85905,179405,242505,-9.3379901965,0.0526420972,2.5016960283,1452
86042,179415,242595,-9.3379901965,0.0526420972,2.5016960283,1453
86198,179461,242509,-9.3379901965,0.0526420972,2.5016960283,1454
86345,179448,242559,-9.3379901965,0.0526420972,2.5016960283,1455
86403,179470,242523,-9.3379901965,0.0526420972,2.5016960283,1456
86049,179414,242548,-9.3379901965,0.0526420972,2.5016960283,1457
85317,179351,242523,-9.3379901965,0.0526420972,2.5016960283,1458
84943,179493,242632,-9.3487578982,-0.011964113,2.4813570362,1459
85038,179541,242592,-9.3487578982,-0.011964113,2.4813570362,1460
85128,179555,242586,-9.3487578982,-0.011964113,2.4813570362,1461
85244,179545,242640,-9.3487578982,-0.011964113,2.4813570362,1462
85345,179566,242616,-9.3487578982,-0.011964113,2.4813570362,1463
85435,179568,242604,-9.3487578982,-0.011964113,2.4813570362,1464
85554,179580,242577,-9.3487578982,-0.011964113,2.4813570362,1465
85670,179565,242558,-9.3487578982,-0.011964113,2.4813570362,1466
85792,179590,242579,-9.3487578982,-0.011964113,2.4813570362,1467
85900,179620,242617,-9.3487578982,-0.011964113,2.4813570362,1468
86007,179623,242622,-9.3487578982,-0.011964113,2.4813570362,1469
86112,179606,242608,-9.3487578982,-0.011964113,2.4813570362,1470
86223,179627,242558,-9.3487578982,-0.011964113,2.4813570362,1471
86281,179632,242567,-9.3487578982,-0.011964113,2.4813570362,1472
85928,179587,242612,-9.3487578982,-0.011964113,2.4813570362,1473
85107,179463,242620,-9.3487578982,-0.011964113,2.4813570362,1474
84398,179403,242568,-9.3487578982,-0.011964113,2.4813570362,1475
84170,179399,242569,-9.3487578982,-0.011964113,2.4813570362,1476
84205,179412,242582,-9.3487578982,-0.011964113,2.4813570362,1477
84335,179436,242592,-9.3487578982,-0.011964113,2.4813570362,1478
84549,179473,242576,-9.3487578982,-0.011964113,2.4813570362,1479
84785,179490,242595,-9.3487578982,-0.011964113,2.4813570362,1480
84909,179498,242590,-9.3487578982,-0.011964113,2.4813570362,1481
84911,179487,242601,-9.3487578982,-0.011964113,2.4813570362,1482
84904,179490,242644,-9.3487578982,-0.011964113,2.4813570362,1483
84946,179477,242571,-9.3487578982,-0.011964113,2.4813570362,1484
85052,179498,242603,-9.3487578982,-0.011964113,2.4813570362,1485
85146,179477,242574,-9.3487578982,-0.011964113,2.4813570362,1486
85238,179515,242571,-9.3487578982,-0.011964113,2.4813570362,1487
85331,179526,242622,-9.3487578982,-0.011964113,2.4813570362,1488
85402,179529,242610,-9.3487578982,-0.011964113,2.4813570362,1489
85480,179545,242559,-9.3487578982,-0.011964113,2.4813570362,1490
85578,179514,242536,-9.3487578982,-0.011964113,2.4813570362,1491
85679,179529,242573,-9.3487578982,-0.011964113,2.4813570362,1492
85753,179529,242575,-9.3487578982,-0.011964113,2.4813570362,1493
85841,179526,242554,-9.3487578982,-0.011964113,2.4813570362,1494
85924,179550,242567,-9.3487578982,-0.011964113,2.4813570362,1495
85976,179514,242556,-9.3487578982,-0.011964113,2.4813570362,1496
86066,179544,242561,-9.3487578982,-0.011964113,2.4813570362,1497
86007,179493,242537,-9.3487578982,-0.011964113,2.4813570362,1498
85405,179419,242588,-9.3487578982,-0.011964113,2.4813570362,1499
84572,179291,242561,-9.3487578982,-0.011964113,2.4813570362,1500
87041,179614,242712,-9.3176512044,0.0370887503,2.5423740125,1501
86888,179573,242696,-9.3176512044,0.0370887503,2.5423740125,1502
86185,179497,242699,-9.3176512044,0.0370887503,2.5423740125,1503
85499,179435,242696,-9.3176512044,0.0370887503,2.5423740125,1504
85223,179449,242731,-9.3176512044,0.0370887503,2.5423740125,1505
85250,179452,242750,-9.3176512044,0.0370887503,2.5423740125,1506
85403,179503,242763,-9.3176512044,0.0370887503,2.5423740125,1507
85632,179498,242777,-9.3176512044,0.0370887503,2.5423740125,1508
85870,179528,242784,-9.3176512044,0.0370887503,2.5423740125,1509
86000,179545,242783,-9.3176512044,0.0370887503,2.5423740125,1510
85981,179528,242741,-9.3176512044,0.0370887503,2.5423740125,1511
85976,179560,242761,-9.3176512044,0.0370887503,2.5423740125,1512
86025,179560,242773,-9.3176512044,0.0370887503,2.5423740125,1513
86115,179586,242774,-9.3176512044,0.0370887503,2.5423740125,1514
86215,179588,242791,-9.3176512044,0.0370887503,2.5423740125,1515
86350,179626,242750,-9.3176512044,0.0370887503,2.5423740125,1516
86443,179603,242814,-9.3176512044,0.0370887503,2.5423740125,1517
86544,179632,242784,-9.3176512044,0.0370887503,2.5423740125,1518
86654,179655,242787,-9.3176512044,0.0370887503,2.5423740125,1519
86751,179673,242802,-9.3176512044,0.0370887503,2.5423740125,1520
86885,179670,242785,-9.3176512044,0.0370887503,2.5423740125,1521
86993,179693,242788,-9.3176512044,0.0370887503,2.5423740125,1522
87093,179719,242732,-9.3176512044,0.0370887503,2.5423740125,1523
87188,179702,242781,-9.3176512044,0.0370887503,2.5423740125,1524
86968,179657,242792,-9.3176512044,0.0370887503,2.5423740125,1525
86164,179548,242802,-9.3176512044,0.0370887503,2.5423740125,1526
85358,179484,242758,-9.3176512044,0.0370887503,2.5423740125,1527
84973,179454,242784,-9.3176512044,0.0370887503,2.5423740125,1528
84917,179443,242760,-9.3176512044,0.0370887503,2.5423740125,1529
