green,red,IR,acc_x,acc_y,acc_z,sample_index
114859,198293,229503,-1.0456634762,7.639086150500001,6.326622954399999,1
114789,198294,229457,-1.0133603711,7.473981391100001,6.452246140900001,2
114700,198251,229475,-1.0791629926,7.570890706399999,6.410371745399999,3
114610,198234,229508,-1.0444670649,7.5278198996,6.448656907,4
114514,198216,229463,-0.9942177902999999,7.505088084900001,6.2775700911,5
114504,198242,229461,-0.9535398061,7.4177500599999995,6.3804614629,6
114492,198212,229434,-0.8207381518,7.668996433,6.293123438,7
114494,198220,229455,-0.9044869428,7.6558359087,6.5144595285,8
114542,198210,229432,-0.9355936366,7.5206414318,6.4115681567000005,9
114543,198206,229427,-1.0552347666,7.5314091335,6.3314085996000005,10
114558,198208,229436,-1.0025926694,7.446463931199999,6.4043896889,11
114545,198234,229493,-1.2358928729,7.3591259063,6.5694944482999995,12
114515,198153,229472,-1.0253244841,7.5026952623000005,6.3828542855,13
114533,198204,229466,-1.0624132344,7.5804619967999995,6.3577296482,14
114513,198187,229463,-1.0241280728,7.525427077,6.4546389635,15
114568,198196,229425,-1.0480562988,7.539784012599999,6.4091753340999995,16
114598,198184,229469,-1.0731809361,7.645068207,6.3577296482,17
114586,198182,229466,-1.0277173067,7.53739119,6.3613188821,18
114603,198203,229493,-1.052841944,7.6008009889000006,6.4055861002,19
114662,198220,229436,-1.0959127508,7.573283529,6.425925092299999,20
114695,198220,229461,-0.95712904,7.5792655855,6.368497349899999,21
114724,198231,229486,-1.0576275892,7.542176835199999,6.410371745399999,22
114752,198232,229471,-0.9702895642999999,7.5804619967999995,6.3314085996000005,23
114779,198273,229464,-1.0839486378,7.447660342499999,6.388836342,24
114827,198270,229455,-0.9702895642999999,7.5290163108999995,6.3601224708,25
114870,198230,229466,-1.052841944,7.639086150500001,6.4498533183,26
114882,198244,229516,-1.579262916,7.2993053413,6.5659052144,27
114939,198253,229462,-0.9655039191,7.5038916736,6.439085616600001,28
114981,198271,229477,-1.0456634762,7.6498538522,6.3182480753000005,29
115025,198290,229495,-0.9607182739,7.5637122386,6.3122660188,30
115025,198284,229506,-0.9272187574999999,7.5541409482,6.305087551,31
114965,198213,229458,-0.5826523031,7.6438717957,6.5096738833000005,32
114843,198212,229497,-1.1210373881,7.5948189324,6.4654066652,33
114775,198208,229498,-1.052841944,7.5349983674,6.364908116,34
114748,198222,229461,-1.0983055734,7.5134629639999995,6.2644095668,35
114725,198185,229472,-1.0743773474,7.5948189324,6.302694728400001,36
114740,198204,229462,-1.1437692028,7.622336392299999,6.4713887217,37
114735,198204,229471,-1.0719845248,7.4356962295,6.406782511499999,38
114740,198223,229458,-1.1796615418,7.505088084900001,6.3960148098,39
114792,198233,229454,-1.112662509,7.6175507471,6.2979090831999995,40
114803,198239,229470,-1.0181460163,7.5924261098,6.4115681567000005,41
114781,198202,229491,-1.0576275892,7.5948189324,6.301498317099999,42
114757,198176,229448,-1.004985492,7.653443086099999,6.2500526312,43
114790,198253,229453,-1.1042876299,7.5625158273,6.4462640844,44
114745,198219,229454,-0.9367900479,7.5924261098,6.3134624300999995,45
114850,198228,229493,-1.1389835576,7.4751778024,6.2464633973,46
114845,198189,229445,-1.0480562988,7.5158557866,6.368497349899999,47
114864,198213,229448,-1.0061819033000001,7.720442118899999,6.3936219871999995,48
114904,198164,229488,-0.9798608547,7.651050263499999,6.3900327533,49
114930,198209,229465,-1.2155538808,7.5804619967999995,6.3924255759,50
114972,198249,229460,-1.6725829974,7.3005017526,6.6903319896,51
114980,198227,229462,-0.8578269021,7.5960153436999995,6.4558353748,52
115087,198184,229470,-0.9822536772999999,7.4847490928,6.4187466245,53
115058,198185,229500,-1.0552347666,7.542176835199999,6.2356956956000005,54
115093,198228,229459,-0.9308079913999999,7.6235328036,6.3098731962,55
115165,198214,229459,-1.2191431147,7.6151579245,6.397211221099999,56
115190,198203,229502,-1.2765708571,7.585247642000001,6.439085616600001,57
115234,198200,229437,-0.9463613382999999,7.5194450205,6.305087551,58
115220,198158,229464,-0.9188438784,7.5541409482,6.3912291645999995,59
115124,198128,229454,-1.1760723079,7.5637122386,6.4402820279,60
115070,198096,229429,-1.1533404932,7.549355303,6.2668023894,61
115029,198067,229447,-1.1389835576,7.5517481256,6.3577296482,62
114985,198068,229421,-1.0995019847,7.4931239719,6.3254265431,63
114987,198072,229361,-1.0588240005,7.573283529,6.324230131799999,64
114998,198067,229380,-0.9918249677,7.568497883799999,6.4342999714,65
114992,198024,229365,-1.3292129543,7.365107962800001,6.4857456573,66
115049,198003,229394,-1.0588240005,7.5481588917,6.388836342,67
115080,198009,229424,-1.0839486378,7.5038916736,6.376872229,68
115124,198015,229384,-1.0504491214,7.542176835199999,6.4295143262,69
115096,198013,229388,-1.0456634762,7.5182486092000005,6.324230131799999,70
115064,197996,229360,-1.028913718,7.6343005053,6.3601224708,71
115117,197984,229397,-1.004985492,7.6402825618,6.4319071488,72
115101,198020,229347,-1.040877831,7.4823562701999995,6.3673009386,73
115129,198016,229357,-1.07677017,7.6055866341,6.4151573906,74
115149,198000,229361,-1.0253244841,7.6043902228,6.425925092299999,75
115169,198019,229369,-1.1449656141,7.5158557866,6.3206408979,76
115214,197978,229350,-0.9762716208,7.4344998182,6.3110696074999995,77
115226,198073,229394,-0.981057266,7.5696942951,6.3517475917,78
115258,198033,229400,-1.0432706536,7.5948189324,6.467799487800001,79
115291,198064,229434,-1.136590735,7.6618179652,6.4151573906,80
115316,198047,229420,-1.0636096457,7.4560352216,6.3314085996000005,81
115355,198054,229406,-1.0540383553,7.4524459877,6.3661045273,82
115381,198108,229431,-1.1150553316,7.501498850999999,6.3625152933999995,83
115430,198084,229463,-1.0217352502000001,7.612765101899999,6.412764568,84
115444,198095,229454,-1.8939190879,7.1617180418,6.5048882380999995,85
115453,198088,229476,-0.9415756931,7.6307112714,6.5156559398,86
115409,198064,229456,-1.1282158559,7.6175507471,6.4139609793000005,87
115327,198036,229490,-1.0121639598,7.5589265934,6.324230131799999,88
115214,198073,229442,-0.9296115801,7.3866433661999995,6.259623921599999,89
115179,198039,229430,-1.7551353771,7.198806792099999,6.5192451737,90
115144,198025,229402,-1.0827522265,7.4787670363,6.4905313025,91
115140,198039,229433,-1.0181460163,7.6319076827,6.422335858399999,92
115115,198035,229428,-1.0121639598,7.6139615132000005,6.3505511804,93
115143,198053,229426,-1.0061819033000001,7.5661050612,6.3912291645999995,94
115143,198038,229445,-0.9499505722,7.624729214899999,6.4055861002,95
115163,198074,229419,-1.0719845248,7.5242306657,6.324230131799999,96
115146,198038,229421,-1.0277173067,7.645068207,6.437889205299999,97
115130,198016,229431,-1.0133603711,7.6235328036,6.2919270267,98
115158,198012,229423,-1.0731809361,7.6821569573,6.3134624300999995,99
115129,197996,229435,-1.0707881135,7.5661050612,6.3804614629,100
115144,198044,229407,-1.1222337994,7.606783045399999,6.4474604957,101
115171,198048,229421,-1.028913718,7.612765101899999,6.381657874199999,102
115168,198047,229393,-0.897308475,7.4847490928,6.3792650516,103
115177,198035,229435,-1.0432706536,7.4823562701999995,6.4139609793000005,104
115220,198040,229424,-0.9798608547,7.6606215538999995,6.6819571105,105
115259,198031,229442,-0.9463613382999999,7.5673014725,6.3517475917,106
115262,198051,229429,-0.9667003303999999,7.5242306657,6.397211221099999,107
115280,198051,229448,-1.0217352502000001,7.5194450205,6.3457655352,108
115309,198061,229455,-1.1569297271,7.5828548194,6.419943035799999,109
115382,198097,229453,-0.4247260115,7.8556365958,6.1292150899,110
115393,198052,229445,-1.1174481541999999,7.5278198996,6.3673009386,111
115432,198063,229409,-0.9655039191,7.5828548194,6.3338014222,112
115437,198077,229499,-0.9954142015999999,7.6151579245,6.451049729599999,113
115470,198053,229460,-1.0013962581,7.5469624804,6.381657874199999,114
115503,198060,229462,-0.9343972253,7.749155990099999,6.384050696799999,115
115438,198059,229446,-1.0384850084,7.6701928443,6.4319071488,116
115372,197997,229448,-0.981057266,7.5637122386,6.3984076324000005,117
115208,197998,229434,-1.0145567824000001,7.635496916599999,6.419943035799999,118
115240,198009,229395,-0.9008977089,7.4380890521,6.4546389635,119
115160,198004,229394,-0.9858429111999999,7.6019974002,6.384050696799999,120
115106,198027,229433,-0.9523433948,7.624729214899999,6.3601224708,121
115146,198008,229390,-1.0313065406,7.6283184488,6.4402820279,122
115147,198013,229382,-1.0313065406,7.6283184488,6.4402820279,123
115153,198009,229415,-1.0313065406,7.6283184488,6.4402820279,124
115164,197994,229405,-1.0313065406,7.6283184488,6.4402820279,125
115163,198020,229400,-1.0313065406,7.6283184488,6.4402820279,126
115156,198028,229365,-1.0313065406,7.6283184488,6.4402820279,127
115146,198010,229398,-1.0313065406,7.6283184488,6.4402820279,128
115157,198007,229408,-1.0313065406,7.6283184488,6.4402820279,129
115131,198038,229416,-1.0313065406,7.6283184488,6.4402820279,130
115163,198009,229425,-1.0313065406,7.6283184488,6.4402820279,131
115219,198035,229411,-1.0313065406,7.6283184488,6.4402820279,132
115201,198017,229422,-1.0313065406,7.6283184488,6.4402820279,133
115229,198047,229403,-1.0313065406,7.6283184488,6.4402820279,134
115267,198055,229404,-1.0313065406,7.6283184488,6.4402820279,135
115283,198059,229442,-1.0313065406,7.6283184488,6.4402820279,136
115303,198065,229442,-1.0313065406,7.6283184488,6.4402820279,137
115333,198030,229379,-1.0313065406,7.6283184488,6.4402820279,138
115367,198038,229424,-1.0313065406,7.6283184488,6.4402820279,139
115386,198062,229424,-1.0313065406,7.6283184488,6.4402820279,140
115441,198091,229436,-1.0313065406,7.6283184488,6.4402820279,141
115460,198044,229434,-1.0313065406,7.6283184488,6.4402820279,142
115493,198099,229489,-1.0313065406,7.6283184488,6.4402820279,143
115532,198091,229446,-1.0313065406,7.6283184488,6.4402820279,144
115538,198083,229459,-1.0313065406,7.6283184488,6.4402820279,145
115536,198054,229415,-1.0313065406,7.6283184488,6.4402820279,146
115464,198055,229438,-1.0133603711,7.573283529,6.3673009386,147
115393,198033,229432,-1.0133603711,7.573283529,6.3673009386,148
115332,198059,229463,-1.0133603711,7.573283529,6.3673009386,149
115254,198016,229391,-1.0133603711,7.573283529,6.3673009386,150
115241,198019,229463,-1.0133603711,7.573283529,6.3673009386,151
115261,198007,229384,-1.0133603711,7.573283529,6.3673009386,152
115247,198031,229420,-1.0133603711,7.573283529,6.3673009386,153
115286,198068,229442,-1.0133603711,7.573283529,6.3673009386,154
115282,198028,229433,-1.0133603711,7.573283529,6.3673009386,155
115272,198012,229433,-1.0133603711,7.573283529,6.3673009386,156
115290,198051,229423,-1.0133603711,7.573283529,6.3673009386,157
115290,198018,229465,-1.0133603711,7.573283529,6.3673009386,158
115308,198031,229437,-1.0133603711,7.573283529,6.3673009386,159
115288,197972,229425,-1.0133603711,7.573283529,6.3673009386,160
115305,198002,229418,-1.0133603711,7.573283529,6.3673009386,161
115313,197989,229427,-1.0133603711,7.573283529,6.3673009386,162
115356,198013,229423,-1.0133603711,7.573283529,6.3673009386,163
115375,198039,229420,-1.0133603711,7.573283529,6.3673009386,164
115384,198021,229430,-1.0133603711,7.573283529,6.3673009386,165
115432,198008,229407,-1.0133603711,7.573283529,6.3673009386,166
115441,198015,229446,-1.0133603711,7.573283529,6.3673009386,167
115467,198033,229445,-1.0133603711,7.573283529,6.3673009386,168
115510,198041,229415,-1.0133603711,7.573283529,6.3673009386,169
115527,198017,229390,-1.0133603711,7.573283529,6.3673009386,170
115579,198060,229387,-1.0133603711,7.573283529,6.3673009386,171
115589,198085,229420,-1.0133603711,7.573283529,6.3673009386,172
115622,198037,229405,-1.0133603711,7.573283529,6.3673009386,173
115593,197993,229361,-1.0133603711,7.573283529,6.3673009386,174
115537,197985,229411,-1.0133603711,7.573283529,6.3673009386,175
115463,197950,229332,-1.0133603711,7.573283529,6.3673009386,176
115401,197949,229345,-1.0133603711,7.573283529,6.3673009386,177
115384,197926,229349,-1.0133603711,7.573283529,6.3673009386,178
115348,197893,229375,-1.0133603711,7.573283529,6.3673009386,179
115377,197910,229316,-1.0133603711,7.573283529,6.3673009386,180
115377,197838,229343,-1.0133603711,7.573283529,6.3673009386,181
115403,197837,229347,-1.0133603711,7.573283529,6.3673009386,182
115421,197845,229304,-1.0133603711,7.573283529,6.3673009386,183
115435,197810,229346,-1.0133603711,7.573283529,6.3673009386,184
115472,197854,229319,-1.0133603711,7.573283529,6.3673009386,185
115426,197850,229283,-1.0133603711,7.573283529,6.3673009386,186
115445,197806,229262,-1.0133603711,7.573283529,6.3673009386,187
115466,197829,229298,-1.0133603711,7.573283529,6.3673009386,188
115470,197881,229337,-0.3672982691,7.6749784895,6.7872413049,189
115499,197878,229346,-0.3672982691,7.6749784895,6.7872413049,190
115509,197898,229309,-0.3672982691,7.6749784895,6.7872413049,191
115539,197889,229387,-0.3672982691,7.6749784895,6.7872413049,192
115564,197912,229343,-0.3672982691,7.6749784895,6.7872413049,193
115595,197907,229349,-0.3672982691,7.6749784895,6.7872413049,194
115652,197935,229341,-0.3672982691,7.6749784895,6.7872413049,195
115682,197907,229395,-0.3672982691,7.6749784895,6.7872413049,196
115681,197938,229403,-0.3672982691,7.6749784895,6.7872413049,197
115684,197894,229414,-0.3672982691,7.6749784895,6.7872413049,198
115711,197910,229402,-0.3672982691,7.6749784895,6.7872413049,199
115658,197901,229377,-0.3672982691,7.6749784895,6.7872413049,200
115564,197858,229340,-0.3672982691,7.6749784895,6.7872413049,201
115516,197939,229386,-0.3672982691,7.6749784895,6.7872413049,202
115448,197878,229353,-0.3672982691,7.6749784895,6.7872413049,203
115409,197886,229327,-0.3672982691,7.6749784895,6.7872413049,204
115409,197886,229338,-0.3672982691,7.6749784895,6.7872413049,205
115405,197889,229355,-0.3672982691,7.6749784895,6.7872413049,206
115437,197871,229333,-0.3672982691,7.6749784895,6.7872413049,207
115429,197899,229365,-0.3672982691,7.6749784895,6.7872413049,208
115400,197896,229319,-0.3672982691,7.6749784895,6.7872413049,209
115425,197885,229325,-0.3672982691,7.6749784895,6.7872413049,210
115463,197886,229334,-0.3672982691,7.6749784895,6.7872413049,211
115427,197896,229363,-0.3672982691,7.6749784895,6.7872413049,212
115437,197890,229352,-0.3672982691,7.6749784895,6.7872413049,213
115433,197887,229365,-0.3672982691,7.6749784895,6.7872413049,214
115456,197898,229338,-0.3672982691,7.6749784895,6.7872413049,215
115450,197861,229329,-0.3672982691,7.6749784895,6.7872413049,216
115490,197900,229332,-0.3672982691,7.6749784895,6.7872413049,217
115512,197903,229309,-0.3672982691,7.6749784895,6.7872413049,218
115535,197902,229327,-0.3672982691,7.6749784895,6.7872413049,219
115535,197922,229375,-0.3672982691,7.6749784895,6.7872413049,220
115595,197884,229345,-0.3672982691,7.6749784895,6.7872413049,221
115586,197912,229378,-0.3672982691,7.6749784895,6.7872413049,222
115629,197933,229380,-0.3672982691,7.6749784895,6.7872413049,223
115665,197906,229375,-0.3672982691,7.6749784895,6.7872413049,224
115693,197918,229335,-0.3672982691,7.6749784895,6.7872413049,225
115707,197923,229345,-0.3672982691,7.6749784895,6.7872413049,226
115721,197898,229383,-0.3672982691,7.6749784895,6.7872413049,227
115690,197904,229398,-0.3672982691,7.6749784895,6.7872413049,228
115623,197884,229372,-0.3672982691,7.6749784895,6.7872413049,229
115571,197839,229351,-0.3672982691,7.6749784895,6.7872413049,230
115767,197819,229326,-1.1665010175000001,7.4943203832,6.3003019058,231
115694,197822,229362,-1.1665010175000001,7.4943203832,6.3003019058,232
115633,197783,229356,-1.1665010175000001,7.4943203832,6.3003019058,233
115563,197779,229329,-1.1665010175000001,7.4943203832,6.3003019058,234
115479,197805,229349,-1.1665010175000001,7.4943203832,6.3003019058,235
115468,197813,229314,-1.1665010175000001,7.4943203832,6.3003019058,236
115441,197784,229325,-1.1665010175000001,7.4943203832,6.3003019058,237
115457,197776,229317,-1.1665010175000001,7.4943203832,6.3003019058,238
115459,197779,229321,-1.1665010175000001,7.4943203832,6.3003019058,239
115473,197804,229325,-1.1665010175000001,7.4943203832,6.3003019058,240
115495,197772,229321,-1.1665010175000001,7.4943203832,6.3003019058,241
115489,197793,229287,-1.1665010175000001,7.4943203832,6.3003019058,242
115470,197793,229325,-1.1665010175000001,7.4943203832,6.3003019058,243
115458,197748,229356,-1.1665010175000001,7.4943203832,6.3003019058,244
115459,197767,229318,-1.1665010175000001,7.4943203832,6.3003019058,245
115482,197771,229288,-1.1665010175000001,7.4943203832,6.3003019058,246
115502,197791,229285,-1.1665010175000001,7.4943203832,6.3003019058,247
115493,197787,229332,-1.1665010175000001,7.4943203832,6.3003019058,248
115514,197756,229297,-1.1665010175000001,7.4943203832,6.3003019058,249
115539,197785,229287,-1.1665010175000001,7.4943203832,6.3003019058,250
115575,197780,229338,-1.1665010175000001,7.4943203832,6.3003019058,251
115569,197752,229325,-1.1665010175000001,7.4943203832,6.3003019058,252
115589,197754,229281,-1.1665010175000001,7.4943203832,6.3003019058,253
115623,197764,229333,-1.1665010175000001,7.4943203832,6.3003019058,254
115663,197789,229316,-1.1665010175000001,7.4943203832,6.3003019058,255
115676,197767,229326,-1.1665010175000001,7.4943203832,6.3003019058,256
115694,197795,229302,-1.1665010175000001,7.4943203832,6.3003019058,257
115723,197771,229309,-1.1665010175000001,7.4943203832,6.3003019058,258
115671,197728,229252,-1.1665010175000001,7.4943203832,6.3003019058,259
115621,197737,229258,-1.1665010175000001,7.4943203832,6.3003019058,260
115513,197636,229235,-1.1665010175000001,7.4943203832,6.3003019058,261
115470,197657,229216,-1.1665010175000001,7.4943203832,6.3003019058,262
115445,197609,229233,-1.1665010175000001,7.4943203832,6.3003019058,263
115413,197620,229231,-1.1665010175000001,7.4943203832,6.3003019058,264
115458,197612,229234,-1.1665010175000001,7.4943203832,6.3003019058,265
115476,197582,229215,-1.1665010175000001,7.4943203832,6.3003019058,266
115489,197589,229205,-1.1665010175000001,7.4943203832,6.3003019058,267
115500,197608,229187,-1.1665010175000001,7.4943203832,6.3003019058,268
115503,197600,229217,-1.1665010175000001,7.4943203832,6.3003019058,269
115485,197556,229208,-1.1665010175000001,7.4943203832,6.3003019058,270
115482,197555,229207,-1.1665010175000001,7.4943203832,6.3003019058,271
115510,197573,229186,-1.1665010175000001,7.4943203832,6.3003019058,272
115508,197637,229255,-1.07677017,7.5385876013,6.3457655352,273
115459,197579,229188,-1.07677017,7.5385876013,6.3457655352,274
115409,197595,229219,-1.07677017,7.5385876013,6.3457655352,275
115365,197604,229244,-1.07677017,7.5385876013,6.3457655352,276
115365,197581,229253,-1.07677017,7.5385876013,6.3457655352,277
115384,197568,229261,-1.07677017,7.5385876013,6.3457655352,278
115416,197564,229226,-1.07677017,7.5385876013,6.3457655352,279
115402,197576,229228,-1.07677017,7.5385876013,6.3457655352,280
115396,197597,229215,-1.07677017,7.5385876013,6.3457655352,281
115384,197599,229191,-1.07677017,7.5385876013,6.3457655352,282
115393,197548,229211,-1.07677017,7.5385876013,6.3457655352,283
115392,197540,229244,-1.07677017,7.5984081663000005,6.3984076324000005,284
115407,197571,229199,-1.07677017,7.5984081663000005,6.3984076324000005,285
115390,197573,229214,-0.9786644433999999,7.570890706399999,6.2979090831999995,286
115428,197597,229242,-1.0743773474,7.5948189324,6.3792650516,287
115434,197624,229236,-1.0743773474,7.5948189324,6.3792650516,288
115456,197562,229240,-1.0743773474,7.5948189324,6.3792650516,289
115454,197624,229272,-1.0743773474,7.5948189324,6.3792650516,290
115498,197621,229204,-1.0743773474,7.5948189324,6.3792650516,291
115514,197605,229279,-1.0743773474,7.5948189324,6.3792650516,292
115569,197631,229272,-1.0743773474,7.5948189324,6.3792650516,293
115581,197611,229248,-1.0743773474,7.5948189324,6.3792650516,294
115613,197608,229267,-1.0743773474,7.5948189324,6.3792650516,295
115642,197634,229242,-1.0743773474,7.5948189324,6.3792650516,296
115684,197660,229246,-1.0743773474,7.5948189324,6.3792650516,297
115689,197663,229247,-1.0743773474,7.5948189324,6.3792650516,298
115674,197636,229281,-1.0743773474,7.5948189324,6.3792650516,299
115574,197569,229280,-1.0743773474,7.5948189324,6.3792650516,300
115468,197570,229262,-1.0743773474,7.5948189324,6.3792650516,301
115396,197550,229260,-1.0743773474,7.5948189324,6.3792650516,302
115365,197556,229244,-1.0743773474,7.5948189324,6.3792650516,303
115322,197615,229259,-1.0743773474,7.5948189324,6.3792650516,304
115306,197548,229249,-1.0743773474,7.5948189324,6.3792650516,305
115317,197598,229242,-1.0743773474,7.5948189324,6.3792650516,306
115328,197622,229219,-1.0743773474,7.5948189324,6.3792650516,307
115323,197579,229247,-1.0743773474,7.5948189324,6.3792650516,308
115352,197611,229214,-1.0743773474,7.5948189324,6.3792650516,309
115313,197631,229205,-1.0743773474,7.5948189324,6.3792650516,310
115317,197619,229232,-1.0743773474,7.5948189324,6.3792650516,311
115296,197605,229233,-1.0815558152,7.5589265934,6.2644095668,312
115317,197637,229225,-1.0815558152,7.5589265934,6.2644095668,313
115320,197623,229241,-1.0815558152,7.5589265934,6.2644095668,314
115327,197571,229245,-1.0815558152,7.5589265934,6.2644095668,315
115366,197593,229226,-1.0815558152,7.5589265934,6.2644095668,316
115373,197640,229233,-1.0815558152,7.5589265934,6.2644095668,317
115401,197654,229226,-1.0815558152,7.5589265934,6.2644095668,318
115424,197631,229251,-1.0815558152,7.5589265934,6.2644095668,319
115447,197645,229236,-1.0815558152,7.5589265934,6.2644095668,320
115459,197649,229254,-1.0815558152,7.5589265934,6.2644095668,321
115480,197670,229263,-1.0815558152,7.5589265934,6.2644095668,322
115521,197676,229279,-1.0815558152,7.5589265934,6.2644095668,323
115556,197676,229260,-1.0815558152,7.5589265934,6.2644095668,324
115577,197682,229287,-1.0815558152,7.5589265934,6.2644095668,325
115599,197694,229259,-1.0815558152,7.5589265934,6.2644095668,326
115648,197709,229254,-1.0815558152,7.5589265934,6.2644095668,327
115568,197664,229278,-1.0815558152,7.5589265934,6.2644095668,328
115512,197680,229215,-1.0815558152,7.5589265934,6.2644095668,329
115422,197636,229220,-1.0815558152,7.5589265934,6.2644095668,330
115379,197634,229251,-1.0851450490999999,7.622336392299999,6.2668023894,331
115348,197623,229280,-1.0851450490999999,7.622336392299999,6.2668023894,332
115320,197665,229212,-1.0851450490999999,7.622336392299999,6.2668023894,333
115347,197616,229217,-1.1330015010999999,7.5290163108999995,6.355336825599999,334
115334,197631,229267,-0.9320044027,7.6019974002,6.324230131799999,335
115380,197646,229219,-1.0396814197,7.6917282476999995,6.3505511804,336
115442,197622,229225,-1.0743773474,7.5541409482,6.342176301299999,337
115331,197624,229226,-1.0791629926,7.6115686905999995,6.3625152933999995,338
115352,197641,229279,-1.0133603711,7.556533770800001,6.293123438,339
115355,197658,229221,-0.9750752094999999,7.526623488299999,6.356533236900001,340
115361,197614,229229,-1.0181460163,7.654639497399999,6.3493547691,341
115359,197635,229167,-0.9128618219,7.6091758679999995,6.2620167442,342
115387,197620,229189,-0.9128618219,7.6091758679999995,6.2620167442,343
115374,197620,229199,-1.1928220661,7.6474610296,6.2584275103,344
115410,197634,229184,-0.9248259349,7.5864440533,6.3541404143,345
115431,197581,229232,-1.1162517428999998,7.6486574409,6.3038911397,346
115451,197572,229183,-1.0671988796,7.6654071991,6.4115681567000005,347
115460,197581,229162,-1.0301101293000001,7.6522466748,6.3457655352,348
115515,197552,229198,-0.9942177902999999,7.556533770800001,6.452246140900001,349
115497,197553,229120,-1.0360921858,7.5541409482,6.364908116,350
115550,197546,229124,-1.052841944,7.6139615132000005,6.2955162605999995,351
115548,197542,229161,-2.261217357,7.1210400576,6.728617151199999,352
115616,197512,229148,-0.95712904,7.5804619967999995,6.3828542855,353
115604,197541,229151,-0.9846464999,7.5469624804,6.3601224708,354
115577,197512,229146,-1.028913718,7.53739119,6.4187466245,355
115501,197461,229068,-1.0683952909,7.5038916736,6.4235322697,356
115397,197437,229085,-1.0313065406,7.5517481256,6.412764568,357
115321,197421,229091,-1.1198409768,7.53739119,6.384050696799999,358
115360,197423,229135,-1.0217352502000001,7.5445696578,6.3876399307,359
115186,197428,229105,-1.0624132344,7.570890706399999,6.4091753340999995,360
115329,197400,229092,-1.1114660977,7.5278198996,6.293123438,361
115307,197410,229128,-0.32901310749999996,7.884350467,6.0454662989,362
115338,197413,229075,-0.9439685157,7.5661050612,6.3505511804,363
115318,197402,229102,-1.0265208954,7.6462646183,6.364908116,364
115341,197426,229067,-1.0396814197,7.5038916736,6.355336825599999,365
115330,197418,229089,-1.0719845248,7.403393124400001,6.2644095668,366
115323,197394,229104,-1.0743773474,7.5792655855,6.4713887217,367
115316,197418,229112,-0.933200814,7.5912296985,6.4055861002,368
115340,197420,229104,-0.9224331123,7.679764134699999,6.369693761200001,369
115336,197411,229110,-0.9978070242,7.5637122386,6.3732829951,370
115367,197419,229105,-0.909272588,7.488338326699999,6.2620167442,371
115407,197457,229128,-1.1018948073,7.695317481599999,6.3708901725,372
115405,197462,229127,-1.0624132344,7.6187471584,6.4342999714,373
115434,197443,229184,-0.9535398061,7.5912296985,6.4546389635,374
115485,197469,229169,-0.9176474671,7.5278198996,6.464210253899999,375
115488,197458,229158,-1.0121639598,7.501498850999999,6.3481583578,376
115464,197496,229159,-0.9619146851999999,7.5649086499,6.464210253899999,377
115563,197472,229132,-1.0241280728,7.6319076827,6.3481583578,378
115583,197515,229133,-1.0695917021999999,7.6043902228,6.317051664,379
115601,197473,229183,-1.0001998468,7.6319076827,6.5012990042,380
115616,197535,229189,-0.8338986760999999,7.7036923607,6.4307107375,381
115597,197467,229195,-0.9906285563999999,7.5026952623000005,6.2500526312,382
115526,197456,229129,-0.9762716208,7.4751778024,6.3254265431,383
115423,197450,229167,-0.9978070242,7.6043902228,6.4055861002,384
115337,197421,229154,-0.9822536772999999,7.624729214899999,6.305087551,385
115281,197437,229126,-0.9702895642999999,7.585247642000001,6.3349978335,386
115241,197407,229116,-1.0217352502000001,7.556533770800001,6.314658841399999,387
115246,197438,229170,-1.0803594039,7.5326055448,6.4630138426,388
115233,197423,229168,-1.0552347666,7.4524459877,6.410371745399999,389
115238,197452,229157,-0.9930213789999999,7.511070141399999,6.4055861002,390
115251,197435,229144,-1.3232308977999998,7.336394091599999,6.502495415499999,391
115257,197459,229169,-0.9236295236,7.635496916599999,6.3577296482,392
115267,197419,229119,-1.0336993632,7.624729214899999,6.3457655352,393
115233,197415,229184,-1.0600204118,7.7060851833,6.3505511804,394
115237,197420,229125,-0.9786644433999999,7.5206414318,6.508477471999999,395
115234,197458,229170,-0.9607182739,7.501498850999999,6.4283179149,396
115243,197448,229134,-1.1413763801999999,7.5936225210999995,6.4175502132,397
115262,197438,229118,-0.9858429111999999,7.4644101007,6.397211221099999,398
115260,197436,229140,-0.9439685157,7.5828548194,6.305087551,399
115306,197439,229144,-1.0336993632,7.6965138929000005,6.4307107375,400
115314,197475,229128,-1.2358928729,7.495516794499999,6.2428741634,401
115340,197468,229154,-0.9894321450999999,7.5505517143,6.3900327533,402
115383,197444,229150,-0.9882357338,7.5469624804,6.4905313025,403
115296,197475,229156,-1.07677017,7.5661050612,6.3385870674,404
115449,197464,229154,-0.9427721043999999,7.5326055448,6.4055861002,405
115438,197479,229150,-1.0025926694,7.4644101007,6.466603076499999,406
115470,197485,229123,-1.0241280728,7.4787670363,6.451049729599999,407
115499,197529,229166,-1.0313065406,7.6271220375,6.4091753340999995,408
115537,197557,229192,-0.9511469834999999,7.5876404646,6.3481583578,409
115537,197505,229201,-1.3124631961,7.4380890521,6.4426748505,410
115518,197507,229127,-1.0576275892,7.6426753844,6.4319071488,411
115433,197518,229175,-1.1521440819,7.5756763516,6.3194444866,412
115358,197492,229126,-1.0791629926,7.668996433,6.384050696799999,413
115248,197473,229109,-1.0480562988,7.4644101007,6.3780686402999995,414
115203,197483,229147,-0.9786644433999999,7.543373246500001,6.3361942448,415
115177,197463,229184,-0.9738787981999999,7.549355303,6.3912291645999995,416
115131,197457,229136,-1.0875378717,7.5134629639999995,6.339783478699999,417
115200,197465,229175,-1.0576275892,7.5673014725,6.3720865838,418
115164,197507,229158,-0.9559326287,7.624729214899999,6.4079789228,419
115204,197465,229155,-1.040877831,7.6558359087,6.4247286809999995,420
115118,197510,229170,-1.0097711372,7.5864440533,6.3218373092,421
115186,197479,229152,-1.0456634762,7.573283529,6.269195212,422
115180,197477,229160,-1.1294122672,7.6283184488,6.3361942448,423
115160,197471,229147,-1.1150553316,7.5230342544,6.4833528347,424
115174,197487,229146,-1.0456634762,7.5589265934,6.4043896889,425
115185,197484,229145,-1.1006983959999999,7.6151579245,6.3122660188,426
115215,197486,229135,-1.0253244841,7.549355303,6.3912291645999995,427
115240,197516,229148,-1.0277173067,7.501498850999999,6.3457655352,428
115267,197506,229120,-1.0265208954,7.7036923607,6.343372712599999,429
115280,197575,229118,-1.4452648504,7.3411797368,6.6006011420999995,430
115219,197560,229147,-0.9248259349,7.568497883799999,6.3625152933999995,431
115352,197493,229128,-1.040877831,7.5960153436999995,6.3577296482,432
115340,197503,229117,-1.0001998468,7.6319076827,6.352944002999999,433
115383,197574,229175,-1.0241280728,7.6606215538999995,6.3589260595,434
115388,197555,229167,-1.0444670649,7.5038916736,6.3637117047,435
115449,197530,229173,-1.1054840412,7.5158557866,6.3038911397,436
115474,197549,229165,-1.0229316615,7.539784012599999,6.326622954399999,437
115496,197530,229171,-0.9750752094999999,7.585247642000001,6.3469619465000005,438
115450,197535,229176,-1.0253244841,7.7120672398000005,6.3960148098,439
115413,197561,229106,-1.0743773474,7.5768727629,6.305087551,440
115334,197476,229149,-1.0480562988,7.501498850999999,6.4139609793000005,441
115263,197498,229176,-1.0480562988,7.501498850999999,6.4139609793000005,442
115242,197519,229171,-1.0480562988,7.501498850999999,6.4139609793000005,443
115220,197507,229175,-1.0480562988,7.501498850999999,6.4139609793000005,444
115236,197514,229145,-1.0480562988,7.501498850999999,6.4139609793000005,445
115241,197523,229099,-1.0480562988,7.501498850999999,6.4139609793000005,446
115266,197536,229140,-1.0480562988,7.501498850999999,6.4139609793000005,447
115284,197502,229132,-1.0480562988,7.501498850999999,6.4139609793000005,448
115288,197501,229101,-1.0480562988,7.501498850999999,6.4139609793000005,449
115274,197544,229143,-1.0480562988,7.501498850999999,6.4139609793000005,450
115273,197476,229123,-1.0480562988,7.501498850999999,6.4139609793000005,451
115307,197470,229111,-1.0815558152,7.653443086099999,6.4307107375,452
115312,197466,229091,-1.0815558152,7.653443086099999,6.4307107375,453
115318,197444,229131,-1.0815558152,7.653443086099999,6.4307107375,454
115334,197435,229118,-1.0707881135,7.7120672398000005,6.2632131555,455
115376,197469,229091,-1.112662509,7.6366933279,6.452246140900001,456
115312,197407,229084,-1.136590735,7.6606215538999995,6.3900327533,457
115441,197385,229093,-0.9272187574999999,7.6271220375,6.376872229,458
115423,197412,229042,-0.9726823869,7.556533770800001,6.4426748505,459
115443,197388,229074,-1.1389835576,7.624729214899999,6.326622954399999,460
115465,197358,229053,-1.1162517428999998,7.5828548194,6.3673009386,461
115508,197393,229088,-1.0121639598,7.5038916736,6.2835521476,462
115498,197405,229059,-1.0085747259,7.5756763516,6.3505511804,463
115429,197329,229071,-0.9487541609,7.501498850999999,6.3756758177,464
115372,197300,229056,-0.9320044027,7.6486574409,6.4055861002,465
115287,197296,229059,-1.0492527101,7.5505517143,6.4761743669,466
115237,197322,229039,-1.040877831,7.6474610296,6.425925092299999,467
115196,197322,229033,-1.0456634762,7.549355303,6.2847485589,468
115176,197331,229053,-1.1174481541999999,7.5924261098,6.3601224708,469
115209,197335,229049,-1.016949605,7.597211754999999,6.3457655352,470
115208,197321,229028,-1.1162517428999998,7.6091758679999995,6.406782511499999,471
115217,197284,229046,-1.0839486378,7.573283529,6.2955162605999995,472
115229,197296,229055,-0.9750752094999999,7.6151579245,6.3505511804,473
115230,197296,229001,-0.9834500885999999,7.4213392939,6.4283179149,474
115203,197284,229098,-1.088734283,7.6989067155,6.352944002999999,475
115216,197310,229045,-0.9906285563999999,7.6486574409,6.4342999714,476
115217,197319,229041,-0.9008977089,7.5577301821,6.4211394471,477
115229,197295,229078,-0.9547362173999999,7.5984081663000005,6.355336825599999,478
115206,197338,229076,-1.040877831,7.5816584081,6.3780686402999995,479
115261,197315,229068,-1.0360921858,7.6199435697,6.3960148098,480
115282,197346,229092,-0.9918249677,7.622336392299999,6.410371745399999,481
115314,197334,229066,-0.9379864592,7.5996045776,6.388836342,482
115311,197314,229061,-1.028913718,7.6103722793,6.3493547691,483
115377,197406,229068,-1.0552347666,7.6008009889000006,6.3457655352,484
115379,197357,229063,-0.9930213789999999,7.6438717957,6.293123438,485
115407,197378,229099,-1.1066804525,7.5338019561000005,6.364908116,486
115456,197407,229087,-1.0097711372,7.6187471584,6.3720865838,487
115465,197397,229089,-2.2767707039,7.1126651784999995,6.5240308189,488
115466,197363,229072,-0.9475577495999999,7.5182486092000005,6.3744794064,489
115446,197379,229108,-0.9942177902999999,7.5744799403,6.2584275103,490
115316,197367,229107,-1.0624132344,7.511070141399999,6.4498533183,491
115237,197287,229076,-1.0983055734,7.526623488299999,6.4139609793000005,492
115105,197331,229025,-1.0695917021999999,7.5278198996,6.2979090831999995,493
115124,197321,229049,-0.9595218625999999,7.612765101899999,6.3720865838,494
114906,197320,229056,-1.052841944,7.6091758679999995,6.4091753340999995,495
115004,197282,229049,-1.0815558152,7.7156564737,6.4546389635,496
115002,197312,229080,-0.9942177902999999,7.5756763516,6.368497349899999,497
115026,197323,229060,-1.0731809361,7.597211754999999,6.3804614629,498
114984,197308,229037,-0.9882357338,7.5768727629,6.3936219871999995,499
114998,197299,229053,-0.9667003303999999,7.5792655855,6.3720865838,500
114975,197311,229077,-0.9714859755999999,7.746763167499999,6.388836342,501
114939,197333,229018,-1.040877831,7.4787670363,6.314658841399999,502
114914,197269,229073,-1.1330015010999999,7.511070141399999,6.34097989,503
114941,197316,229013,-0.8434699665000001,7.5900332872,6.406782511499999,504
114849,197313,229071,-1.0540383553,7.668996433,6.388836342,505
114955,197293,229030,-1.0923235169,7.5445696578,6.4079789228,506
114950,197317,229039,-1.0145567824000001,7.5625158273,6.4402820279,507
114971,197234,229067,-1.0145567824000001,7.5625158273,6.4402820279,508
115004,197315,229055,-1.0145567824000001,7.5625158273,6.4402820279,509
114995,197318,229067,-1.0145567824000001,7.5625158273,6.4402820279,510
114996,197317,229052,-1.0145567824000001,7.5625158273,6.4402820279,511
115033,197311,229093,-1.0145567824000001,7.5625158273,6.4402820279,512
115032,197324,229024,-1.0145567824000001,7.5625158273,6.4402820279,513
115075,197356,229091,-1.0145567824000001,7.5625158273,6.4402820279,514
115112,197356,229074,-1.0145567824000001,7.5625158273,6.4402820279,515
115132,197350,229060,-1.0145567824000001,7.5625158273,6.4402820279,516
115162,197395,229096,-1.0145567824000001,7.5625158273,6.4402820279,517
115187,197403,229088,-1.0145567824000001,7.5625158273,6.4402820279,518
115168,197348,229093,-1.0145567824000001,7.5625158273,6.4402820279,519
115079,197354,229085,-1.0145567824000001,7.5625158273,6.4402820279,520
114962,197299,229052,-1.0145567824000001,7.5625158273,6.4402820279,521
114802,197345,229016,-1.0145567824000001,7.5625158273,6.4402820279,522
114680,197300,229047,-1.0145567824000001,7.5625158273,6.4402820279,523
114605,197308,229028,-1.0145567824000001,7.5625158273,6.4402820279,524
114551,197293,229068,-1.0145567824000001,7.5625158273,6.4402820279,525
114498,197289,229038,-1.0145567824000001,7.5625158273,6.4402820279,526
114499,197292,229063,-1.0145567824000001,7.5625158273,6.4402820279,527
114503,197301,229083,-1.0145567824000001,7.5625158273,6.4402820279,528
114472,197283,229029,-1.0145567824000001,7.5625158273,6.4402820279,529
114438,197297,229025,-1.0145567824000001,7.5625158273,6.4402820279,530
114387,197292,229007,-1.0145567824000001,7.5625158273,6.4402820279,531
114360,197293,229015,-1.0145567824000001,7.5625158273,6.4402820279,532
114310,197285,229044,-1.0145567824000001,7.5625158273,6.4402820279,533
114311,197259,229050,-1.0145567824000001,7.5625158273,6.4402820279,534
114300,197268,229005,-1.0145567824000001,7.6307112714,6.3505511804,535
114279,197261,228997,-1.0145567824000001,7.6307112714,6.3505511804,536
114325,197291,228969,-1.0145567824000001,7.6307112714,6.3505511804,537
114297,197293,229020,-1.0145567824000001,7.6307112714,6.3505511804,538
114324,197277,229017,-1.0145567824000001,7.6307112714,6.3505511804,539
114329,197302,229003,-1.0145567824000001,7.6307112714,6.3505511804,540
114379,197315,228956,-1.0145567824000001,7.6307112714,6.3505511804,541
114397,197264,228994,-1.0145567824000001,7.6307112714,6.3505511804,542
114393,197301,228978,-1.0145567824000001,7.6307112714,6.3505511804,543
114424,197286,228997,-1.0145567824000001,7.6307112714,6.3505511804,544
114460,197242,229040,-1.0145567824000001,7.6307112714,6.3505511804,545
114478,197268,228986,-1.0145567824000001,7.6307112714,6.3505511804,546
114506,197261,228996,-1.0145567824000001,7.6307112714,6.3505511804,547
114511,197237,228977,-1.0145567824000001,7.6307112714,6.3505511804,548
114545,197254,229016,-1.0145567824000001,7.6307112714,6.3505511804,549
114516,197238,228979,-1.0145567824000001,7.6307112714,6.3505511804,550
114419,197179,228951,-1.0145567824000001,7.6307112714,6.3505511804,551
114240,197165,228964,-1.0145567824000001,7.6307112714,6.3505511804,552
114064,197116,228944,-1.0145567824000001,7.6307112714,6.3505511804,553
113901,197119,228915,-1.0145567824000001,7.6307112714,6.3505511804,554
113815,197105,228899,-1.0145567824000001,7.6307112714,6.3505511804,555
113755,197129,228862,-1.0145567824000001,7.6307112714,6.3505511804,556
113760,197123,228894,-1.0145567824000001,7.6307112714,6.3505511804,557
113747,197099,228888,-1.0145567824000001,7.6307112714,6.3505511804,558
113785,197124,228863,-1.0145567824000001,7.6307112714,6.3505511804,559
113752,197100,228893,-1.0145567824000001,7.6307112714,6.3505511804,560
113728,197094,228846,-1.0145567824000001,7.6307112714,6.3505511804,561
113691,197066,228923,-1.0145567824000001,7.6307112714,6.3505511804,562
113639,197074,228870,-1.0145567824000001,7.6307112714,6.3505511804,563
113648,197039,228860,-1.0145567824000001,7.6307112714,6.3505511804,564
113587,197045,228884,-1.0145567824000001,7.6307112714,6.3505511804,565
113612,197096,228883,-1.0145567824000001,7.6307112714,6.3505511804,566
113626,197105,228863,-1.0145567824000001,7.6307112714,6.3505511804,567
113625,197095,228874,-1.0145567824000001,7.6307112714,6.3505511804,568
113652,197143,228822,-1.0145567824000001,7.6307112714,6.3505511804,569
113671,197124,228854,-1.0145567824000001,7.6307112714,6.3505511804,570
113717,197115,228893,-1.0145567824000001,7.6307112714,6.3505511804,571
113750,197161,228889,-1.0145567824000001,7.6307112714,6.3505511804,572
113767,197121,228887,-1.0145567824000001,7.6307112714,6.3505511804,573
113819,197151,228888,-1.0145567824000001,7.6307112714,6.3505511804,574
113818,197152,228939,-1.0145567824000001,7.6307112714,6.3505511804,575
113856,197183,228874,-1.0145567824000001,7.6307112714,6.3505511804,576
112100,197103,228729,-0.95712904,7.5469624804,6.314658841399999,577
112144,197103,228754,-0.95712904,7.5469624804,6.314658841399999,578
112169,197123,228735,-0.95712904,7.5469624804,6.314658841399999,579
112203,197133,228720,-0.95712904,7.5469624804,6.314658841399999,580
112270,197107,228756,-0.95712904,7.5469624804,6.314658841399999,581
112290,197146,228767,-0.95712904,7.5469624804,6.314658841399999,582
112370,197134,228749,-0.95712904,7.5469624804,6.314658841399999,583
112434,197174,228790,-0.95712904,7.5469624804,6.314658841399999,584
112463,197155,228751,-0.95712904,7.5469624804,6.314658841399999,585
112535,197180,228754,-0.95712904,7.5469624804,6.314658841399999,586
112596,197206,228761,-0.95712904,7.5469624804,6.314658841399999,587
112625,197186,228774,-0.95712904,7.5469624804,6.314658841399999,588
112548,197115,228784,-0.95712904,7.5469624804,6.314658841399999,589
112328,197108,228774,-0.95712904,7.5469624804,6.314658841399999,590
112036,197062,228715,-0.95712904,7.5469624804,6.314658841399999,591
111793,197105,228709,-0.95712904,7.5469624804,6.314658841399999,592
111589,197043,228699,-0.95712904,7.5469624804,6.314658841399999,593
111471,197056,228687,-0.95712904,7.5469624804,6.314658841399999,594
111430,197036,228697,-0.95712904,7.5469624804,6.314658841399999,595
111410,197059,228669,-0.95712904,7.5469624804,6.314658841399999,596
111442,197064,228654,-0.95712904,7.5469624804,6.314658841399999,597
111454,197072,228703,-0.95712904,7.5469624804,6.314658841399999,598
111440,197070,228656,-0.95712904,7.5469624804,6.314658841399999,599
111435,197070,228687,-0.95712904,7.5469624804,6.314658841399999,600
111378,197094,228640,-0.95712904,7.5469624804,6.314658841399999,601
111330,197070,228677,-0.95712904,7.5469624804,6.314658841399999,602
111335,197039,228701,-0.95712904,7.5469624804,6.314658841399999,603
111345,197073,228642,-0.95712904,7.5469624804,6.314658841399999,604
111380,197110,228639,-0.95712904,7.5469624804,6.314658841399999,605
111413,197046,228652,-0.95712904,7.5469624804,6.314658841399999,606
111462,197057,228647,-0.95712904,7.5469624804,6.314658841399999,607
111472,197110,228611,-0.95712904,7.5469624804,6.314658841399999,608
111556,197123,228635,-0.95712904,7.5469624804,6.314658841399999,609
111593,197109,228655,-0.95712904,7.5469624804,6.314658841399999,610
111642,197112,228689,-0.95712904,7.5469624804,6.314658841399999,611
111751,197136,228657,-0.95712904,7.5469624804,6.314658841399999,612
111790,197132,228634,-0.95712904,7.5469624804,6.314658841399999,613
111879,197134,228684,-0.95712904,7.5469624804,6.314658841399999,614
111943,197120,228675,-0.95712904,7.5469624804,6.314658841399999,615
111990,197207,228739,-0.95712904,7.5469624804,6.314658841399999,616
112054,197197,228738,-0.95712904,7.5469624804,6.314658841399999,617
112135,197171,228725,-0.95712904,7.5469624804,6.314658841399999,618
111236,197116,228674,-1.0145567824000001,7.5900332872,6.400800455,619
111204,197116,228660,-1.0145567824000001,7.5900332872,6.400800455,620
111190,197153,228625,-1.0145567824000001,7.5900332872,6.400800455,621
111225,197145,228652,-1.0145567824000001,7.5900332872,6.400800455,622
111238,197118,228667,-1.0145567824000001,7.5900332872,6.400800455,623
111296,197135,228631,-1.0145567824000001,7.5900332872,6.400800455,624
111350,197166,228655,-1.0145567824000001,7.5900332872,6.400800455,625
111400,197173,228640,-1.0145567824000001,7.5900332872,6.400800455,626
111454,197182,228661,-1.0145567824000001,7.5900332872,6.400800455,627
111509,197153,228629,-1.0145567824000001,7.5900332872,6.400800455,628
111575,197188,228650,-1.0145567824000001,7.5900332872,6.400800455,629
111626,197219,228687,-1.0145567824000001,7.5900332872,6.400800455,630
111722,197226,228720,-1.0145567824000001,7.5900332872,6.400800455,631
111757,197211,228691,-1.0145567824000001,7.5900332872,6.400800455,632
111837,197235,228727,-1.0145567824000001,7.5900332872,6.400800455,633
111914,197234,228694,-1.0145567824000001,7.5900332872,6.400800455,634
111953,197251,228715,-1.0145567824000001,7.5900332872,6.400800455,635
112046,197277,228732,-1.0145567824000001,7.5900332872,6.400800455,636
112099,197281,228724,-1.0145567824000001,7.5900332872,6.400800455,637
112108,197246,228751,-1.0145567824000001,7.5900332872,6.400800455,638
112028,197193,228721,-1.0145567824000001,7.5900332872,6.400800455,639
111801,197151,228697,-1.0145567824000001,7.5900332872,6.400800455,640
111548,197155,228709,-1.0145567824000001,7.5900332872,6.400800455,641
111376,197159,228674,-1.0145567824000001,7.5900332872,6.400800455,642
111278,197159,228657,-1.0145567824000001,7.5900332872,6.400800455,643
111234,197143,228650,-1.0145567824000001,7.5900332872,6.400800455,644
111277,197136,228617,-0.9966106129000001,7.6522466748,6.4091753340999995,645
111331,197169,228665,-0.9966106129000001,7.6522466748,6.4091753340999995,646
111368,197148,228638,-0.9966106129000001,7.6522466748,6.4091753340999995,647
111426,197146,228639,-0.9966106129000001,7.6522466748,6.4091753340999995,648
111421,197160,228677,-0.9966106129000001,7.6522466748,6.4091753340999995,649
111424,197149,228649,-0.9966106129000001,7.6522466748,6.4091753340999995,650
111418,197168,228687,-0.9966106129000001,7.6522466748,6.4091753340999995,651
111417,197139,228635,-0.9966106129000001,7.6522466748,6.4091753340999995,652
111464,197146,228673,-0.9966106129000001,7.6522466748,6.4091753340999995,653
111510,197207,228658,-0.9966106129000001,7.6522466748,6.4091753340999995,654
111547,197111,228676,-0.9966106129000001,7.6522466748,6.4091753340999995,655
111587,197171,228699,-0.9966106129000001,7.6522466748,6.4091753340999995,656
111657,197213,228644,-0.9966106129000001,7.6522466748,6.4091753340999995,657
111704,197199,228655,-0.9966106129000001,7.6522466748,6.4091753340999995,658
111768,197207,228671,-0.9966106129000001,7.6522466748,6.4091753340999995,659
111829,197256,228732,-0.9966106129000001,7.6522466748,6.4091753340999995,660
111911,197215,228711,-0.9966106129000001,7.6522466748,6.4091753340999995,661
111949,197238,228707,-0.9966106129000001,7.6522466748,6.4091753340999995,662
112068,197218,228701,-0.9966106129000001,7.6522466748,6.4091753340999995,663
112101,197206,228736,-0.9966106129000001,7.6522466748,6.4091753340999995,664
112206,197267,228705,-0.9966106129000001,7.6522466748,6.4091753340999995,665
112251,197285,228736,-0.9966106129000001,7.6522466748,6.4091753340999995,666
112345,197315,228741,-0.9966106129000001,7.6522466748,6.4091753340999995,667
112419,197263,228799,-0.9966106129000001,7.6522466748,6.4091753340999995,668
112463,197307,228772,-0.9966106129000001,7.6522466748,6.4091753340999995,669
112389,197236,228725,-0.9966106129000001,7.6522466748,6.4091753340999995,670
112238,197182,228708,-0.9966106129000001,7.6522466748,6.4091753340999995,671
111974,197194,228711,-0.9966106129000001,7.6522466748,6.4091753340999995,672
111767,197221,228673,-0.9966106129000001,7.6522466748,6.4091753340999995,673
111599,197171,228749,-0.9966106129000001,7.6522466748,6.4091753340999995,674
111520,197161,228699,-0.9966106129000001,7.6522466748,6.4091753340999995,675
111501,197176,228710,-0.9966106129000001,7.6522466748,6.4091753340999995,676
111483,197163,228689,-0.9966106129000001,7.6522466748,6.4091753340999995,677
111538,197191,228719,-0.9966106129000001,7.6522466748,6.4091753340999995,678
111593,197179,228656,-0.9966106129000001,7.6522466748,6.4091753340999995,679
111597,197199,228682,-0.9966106129000001,7.6522466748,6.4091753340999995,680
111585,197225,228699,-0.9966106129000001,7.6522466748,6.4091753340999995,681
111567,197183,228695,-0.9966106129000001,7.6522466748,6.4091753340999995,682
111579,197201,228699,-0.9439685157,7.624729214899999,6.3577296482,683
111568,197144,228685,-0.9439685157,7.624729214899999,6.3577296482,684
111571,197180,228664,-0.9439685157,7.624729214899999,6.3577296482,685
111642,197157,228688,-0.9439685157,7.624729214899999,6.3577296482,686
111666,197181,228677,-0.9439685157,7.624729214899999,6.3577296482,687
111732,197210,228659,-0.9439685157,7.624729214899999,6.3577296482,688
111805,197219,228690,-0.9439685157,7.624729214899999,6.3577296482,689
111865,197213,228684,-0.9439685157,7.624729214899999,6.3577296482,690
111931,197249,228726,-0.9439685157,7.624729214899999,6.3577296482,691
111974,197219,228707,-0.9439685157,7.624729214899999,6.3577296482,692
112052,197234,228687,-0.9439685157,7.624729214899999,6.3577296482,693
112121,197246,228654,-0.9439685157,7.624729214899999,6.3577296482,694
112184,197260,228734,-0.9439685157,7.624729214899999,6.3577296482,695
112254,197233,228702,-0.9439685157,7.624729214899999,6.3577296482,696
112320,197285,228722,-0.9439685157,7.624729214899999,6.3577296482,697
112394,197282,228723,-0.9439685157,7.624729214899999,6.3577296482,698
112431,197284,228724,-0.9439685157,7.624729214899999,6.3577296482,699
112522,197272,228723,-0.9439685157,7.624729214899999,6.3577296482,700
112578,197297,228742,-0.9439685157,7.624729214899999,6.3577296482,701
112546,197218,228724,-0.9439685157,7.624729214899999,6.3577296482,702
112420,197220,228721,-0.9439685157,7.624729214899999,6.3577296482,703
112226,197213,228688,-0.9439685157,7.624729214899999,6.3577296482,704
112057,197217,228682,-0.9439685157,7.624729214899999,6.3577296482,705
111929,197201,228731,-0.9439685157,7.624729214899999,6.3577296482,706
111879,197176,228676,-0.9439685157,7.624729214899999,6.3577296482,707
111866,197198,228750,-0.9439685157,7.624729214899999,6.3577296482,708
111921,197233,228711,-0.9439685157,7.624729214899999,6.3577296482,709
111924,197232,228680,-0.9439685157,7.624729214899999,6.3577296482,710
111986,197197,228737,-0.9439685157,7.624729214899999,6.3577296482,711
112005,197182,228690,-0.9439685157,7.624729214899999,6.3577296482,712
111981,197208,228709,-0.9439685157,7.624729214899999,6.3577296482,713
111970,197161,228694,-0.9439685157,7.624729214899999,6.3577296482,714
111952,197163,228680,-0.9439685157,7.624729214899999,6.3577296482,715
111986,197187,228665,-0.9439685157,7.624729214899999,6.3577296482,716
111996,197201,228693,-0.9439685157,7.624729214899999,6.3577296482,717
112022,197171,228732,-0.9439685157,7.624729214899999,6.3577296482,718
112108,197204,228692,-0.9439685157,7.624729214899999,6.3577296482,719
112144,197189,228697,-0.9439685157,7.624729214899999,6.3577296482,720
112185,197178,228696,-0.9439685157,7.624729214899999,6.3577296482,721
112230,197160,228679,-0.9439685157,7.624729214899999,6.3577296482,722
112292,197201,228725,-0.9439685157,7.624729214899999,6.3577296482,723
112356,197190,228709,-0.9439685157,7.624729214899999,6.3577296482,724
112598,197194,228732,-1.1294122672,7.683353368600001,6.3900327533,725
112616,197171,228764,-1.1294122672,7.683353368600001,6.3900327533,726
112664,197171,228731,-1.1294122672,7.683353368600001,6.3900327533,727
112709,197175,228734,-1.1294122672,7.683353368600001,6.3900327533,728
112758,197204,228748,-1.1294122672,7.683353368600001,6.3900327533,729
112796,197182,228728,-1.1294122672,7.683353368600001,6.3900327533,730
112814,197164,228733,-1.1294122672,7.683353368600001,6.3900327533,731
112858,197163,228763,-1.1294122672,7.683353368600001,6.3900327533,732
112938,197179,228792,-1.1294122672,7.683353368600001,6.3900327533,733
112986,197162,228762,-1.1294122672,7.683353368600001,6.3900327533,734
113031,197178,228761,-1.1294122672,7.683353368600001,6.3900327533,735
113086,197185,228791,-1.1294122672,7.683353368600001,6.3900327533,736
113116,197147,228771,-1.1294122672,7.683353368600001,6.3900327533,737
113173,197192,228778,-1.1294122672,7.683353368600001,6.3900327533,738
113235,197138,228745,-1.1294122672,7.683353368600001,6.3900327533,739
113138,197141,228756,-1.1294122672,7.683353368600001,6.3900327533,740
113005,197088,228728,-1.1294122672,7.683353368600001,6.3900327533,741
112882,197085,228757,-1.1294122672,7.683353368600001,6.3900327533,742
112800,197084,228710,-1.1294122672,7.683353368600001,6.3900327533,743
112753,197068,228715,-1.1294122672,7.683353368600001,6.3900327533,744
112713,197041,228697,-1.1294122672,7.683353368600001,6.3900327533,745
112743,197069,228732,-1.1294122672,7.683353368600001,6.3900327533,746
112747,197074,228762,-1.1294122672,7.683353368600001,6.3900327533,747
112809,197046,228664,-1.1294122672,7.683353368600001,6.3900327533,748
112830,197030,228726,-1.1294122672,7.683353368600001,6.3900327533,749
112832,197065,228711,-1.1294122672,7.683353368600001,6.3900327533,750
112842,197035,228687,-1.1294122672,7.683353368600001,6.3900327533,751
112865,197072,228720,-1.1294122672,7.683353368600001,6.3900327533,752
112864,197053,228752,-1.1294122672,7.683353368600001,6.3900327533,753
112896,197047,228686,-1.1294122672,7.683353368600001,6.3900327533,754
112890,197041,228730,-1.1294122672,7.683353368600001,6.3900327533,755
112913,197067,228724,-1.1294122672,7.683353368600001,6.3900327533,756
112982,197064,228738,-1.1294122672,7.683353368600001,6.3900327533,757
113046,197097,228733,-1.1294122672,7.683353368600001,6.3900327533,758
113068,197111,228758,-1.1294122672,7.683353368600001,6.3900327533,759
113117,197126,228735,-1.1294122672,7.683353368600001,6.3900327533,760
113175,197109,228790,-1.1294122672,7.683353368600001,6.3900327533,761
113227,197122,228761,-1.1294122672,7.683353368600001,6.3900327533,762
113292,197094,228773,-1.1294122672,7.683353368600001,6.3900327533,763
113330,197131,228738,-1.1294122672,7.683353368600001,6.3900327533,764
113358,197125,228758,-1.1294122672,7.683353368600001,6.3900327533,765
113439,197171,228774,-1.1294122672,7.683353368600001,6.3900327533,766
113232,196964,228684,-0.9786644433999999,7.573283529,6.4342999714,767
113242,196958,228671,-0.9786644433999999,7.573283529,6.4342999714,768
113277,196962,228677,-0.9786644433999999,7.573283529,6.4342999714,769
113277,196951,228675,-0.9786644433999999,7.573283529,6.4342999714,770
113249,196949,228678,-0.9786644433999999,7.573283529,6.4342999714,771
113255,196939,228653,-0.9786644433999999,7.573283529,6.4342999714,772
113287,196967,228674,-0.9786644433999999,7.573283529,6.4342999714,773
113306,196912,228640,-0.9786644433999999,7.573283529,6.4342999714,774
113353,196946,228706,-0.9786644433999999,7.573283529,6.4342999714,775
113379,196981,228684,-0.9786644433999999,7.573283529,6.4342999714,776
113381,196959,228711,-0.9786644433999999,7.573283529,6.4342999714,777
113436,196941,228680,-0.9786644433999999,7.573283529,6.4342999714,778
113491,196985,228700,-0.9786644433999999,7.573283529,6.4342999714,779
113537,197015,228721,-0.9786644433999999,7.573283529,6.4342999714,780
113561,197002,228698,-0.9786644433999999,7.573283529,6.4342999714,781
113619,196999,228707,-0.9786644433999999,7.573283529,6.4342999714,782
113651,196980,228758,-0.9786644433999999,7.573283529,6.4342999714,783
113687,197038,228736,-0.9786644433999999,7.573283529,6.4342999714,784
113746,197061,228729,-0.9786644433999999,7.573283529,6.4342999714,785
113775,197053,228765,-0.9786644433999999,7.573283529,6.4342999714,786
113793,197033,228740,-0.9786644433999999,7.573283529,6.4342999714,787
113705,197007,228703,-0.9786644433999999,7.573283529,6.4342999714,788
113568,196963,228707,-0.9786644433999999,7.573283529,6.4342999714,789
113433,196985,228726,-0.9786644433999999,7.573283529,6.4342999714,790
113353,196989,228687,-0.9786644433999999,7.573283529,6.4342999714,791
113301,196955,228702,-0.9786644433999999,7.573283529,6.4342999714,792
113279,196975,228676,-0.9786644433999999,7.573283529,6.4342999714,793
113272,196962,228678,-0.9786644433999999,7.573283529,6.4342999714,794
113299,196971,228687,-0.9786644433999999,7.573283529,6.4342999714,795
113331,196948,228660,-0.9786644433999999,7.573283529,6.4342999714,796
113335,196955,228672,-0.9786644433999999,7.573283529,6.4342999714,797
113323,196938,228706,-0.9786644433999999,7.573283529,6.4342999714,798
113328,196946,228677,-1.0468598875,7.473981391100001,6.452246140900001,799
113304,196951,228649,-1.0468598875,7.473981391100001,6.452246140900001,800
113296,196958,228652,-1.0468598875,7.473981391100001,6.452246140900001,801
113303,196946,228670,-1.0468598875,7.473981391100001,6.452246140900001,802
113362,196956,228665,-1.0468598875,7.473981391100001,6.452246140900001,803
113377,196876,228655,-1.0468598875,7.473981391100001,6.452246140900001,804
113414,196938,228690,-1.0468598875,7.473981391100001,6.452246140900001,805
113457,196926,228705,-1.0468598875,7.473981391100001,6.452246140900001,806
113481,196947,228707,-1.0468598875,7.473981391100001,6.452246140900001,807
113530,196995,228701,-1.0468598875,7.473981391100001,6.452246140900001,808
113564,196979,228700,-1.0468598875,7.473981391100001,6.452246140900001,809
113615,196989,228704,-1.0468598875,7.473981391100001,6.452246140900001,810
113642,197011,228734,-1.0468598875,7.473981391100001,6.452246140900001,811
113689,196974,228747,-1.0468598875,7.473981391100001,6.452246140900001,812
113764,197030,228723,-1.0468598875,7.473981391100001,6.452246140900001,813
113803,197026,228721,-1.0468598875,7.473981391100001,6.452246140900001,814
113820,197084,228740,-1.0468598875,7.473981391100001,6.452246140900001,815
113870,197057,228744,-1.0468598875,7.473981391100001,6.452246140900001,816
113861,196999,228732,-1.0468598875,7.473981391100001,6.452246140900001,817
113807,197026,228705,-1.0468598875,7.473981391100001,6.452246140900001,818
113671,196968,228712,-1.0468598875,7.473981391100001,6.452246140900001,819
113552,197013,228756,-1.0468598875,7.473981391100001,6.452246140900001,820
113501,197004,228713,-1.0468598875,7.473981391100001,6.452246140900001,821
113436,196980,228733,-1.0468598875,7.473981391100001,6.452246140900001,822
113429,196973,228741,-1.0468598875,7.473981391100001,6.452246140900001,823
113468,196987,228674,-1.0468598875,7.473981391100001,6.452246140900001,824
113475,196999,228697,-1.0468598875,7.473981391100001,6.452246140900001,825
113509,197000,228696,-1.0468598875,7.473981391100001,6.452246140900001,826
113527,197005,228696,-1.0468598875,7.473981391100001,6.452246140900001,827
113507,196985,228674,-1.0468598875,7.473981391100001,6.452246140900001,828
113496,197005,228726,-1.0468598875,7.473981391100001,6.452246140900001,829
113468,197005,228736,-1.0468598875,7.473981391100001,6.452246140900001,830
113474,197004,228742,-1.0468598875,7.473981391100001,6.452246140900001,831
113502,196984,228687,-1.0468598875,7.473981391100001,6.452246140900001,832
113526,196947,228685,-1.0468598875,7.473981391100001,6.452246140900001,833
113542,196988,228728,-1.0468598875,7.473981391100001,6.452246140900001,834
113565,196980,228653,-1.0468598875,7.473981391100001,6.452246140900001,835
113598,196949,228669,-1.0468598875,7.473981391100001,6.452246140900001,836
113669,196965,228721,-1.0468598875,7.473981391100001,6.452246140900001,837
113687,196977,228689,-1.0468598875,7.473981391100001,6.452246140900001,838
113706,196955,228667,-1.0468598875,7.473981391100001,6.452246140900001,839
113755,196922,228671,-1.0468598875,7.473981391100001,6.452246140900001,840
113874,196999,228675,-0.8697910151,7.720442118899999,6.1100725091,841
113914,196958,228663,-0.8697910151,7.720442118899999,6.1100725091,842
113956,196977,228700,-0.8697910151,7.720442118899999,6.1100725091,843
113968,196929,228694,-0.8697910151,7.720442118899999,6.1100725091,844
113914,196934,228662,-0.8697910151,7.720442118899999,6.1100725091,845
113802,196885,228688,-0.8697910151,7.720442118899999,6.1100725091,846
113686,196942,228670,-0.8697910151,7.720442118899999,6.1100725091,847
113612,196912,228696,-0.8697910151,7.720442118899999,6.1100725091,848
113563,196886,228679,-0.8697910151,7.720442118899999,6.1100725091,849
113508,196904,228653,-0.8697910151,7.720442118899999,6.1100725091,850
113506,196869,228687,-0.8697910151,7.720442118899999,6.1100725091,851
113587,196880,228643,-0.8697910151,7.720442118899999,6.1100725091,852
113576,196885,228718,-0.8697910151,7.720442118899999,6.1100725091,853
113588,196865,228621,-0.8697910151,7.720442118899999,6.1100725091,854
113570,196860,228677,-0.8697910151,7.720442118899999,6.1100725091,855
113563,196893,228659,-0.8697910151,7.720442118899999,6.1100725091,856
113565,196876,228656,-0.8697910151,7.720442118899999,6.1100725091,857
113559,196898,228661,-0.8697910151,7.720442118899999,6.1100725091,858
113577,196887,228660,-0.8697910151,7.720442118899999,6.1100725091,859
113617,196910,228675,-0.8697910151,7.720442118899999,6.1100725091,860
113629,196892,228692,-0.8697910151,7.720442118899999,6.1100725091,861
113677,196926,228707,-0.8697910151,7.720442118899999,6.1100725091,862
113686,196900,228714,-0.8697910151,7.720442118899999,6.1100725091,863
113731,196895,228689,-0.8697910151,7.720442118899999,6.1100725091,864
113763,196909,228690,-0.8697910151,7.720442118899999,6.1100725091,865
113816,196918,228695,-0.8697910151,7.720442118899999,6.1100725091,866
113815,196924,228726,-0.8697910151,7.720442118899999,6.1100725091,867
113904,196939,228720,-0.8697910151,7.720442118899999,6.1100725091,868
113914,196925,228723,-0.8697910151,7.720442118899999,6.1100725091,869
113977,196987,228749,-0.8697910151,7.720442118899999,6.1100725091,870
114003,196937,228731,-0.8697910151,7.720442118899999,6.1100725091,871
114008,196983,228719,-0.8697910151,7.720442118899999,6.1100725091,872
114037,196966,228727,-0.8697910151,7.720442118899999,6.1100725091,873
113943,196934,228749,-0.8697910151,7.720442118899999,6.1100725091,874
113812,196902,228727,-0.8697910151,7.720442118899999,6.1100725091,875
113701,196889,228708,-0.8697910151,7.720442118899999,6.1100725091,876
113617,196886,228712,-0.8697910151,7.720442118899999,6.1100725091,877
113572,196890,228733,-0.8697910151,7.720442118899999,6.1100725091,878
113551,196936,228722,-0.8697910151,7.720442118899999,6.1100725091,879
113573,196925,228741,-0.8697910151,7.720442118899999,6.1100725091,880
113584,196905,228695,-0.8697910151,7.720442118899999,6.1100725091,881
113601,196902,228701,-0.8697910151,7.720442118899999,6.1100725091,882
113724,196826,228733,-1.0743773474,7.7240313528,6.3912291645999995,883
113705,196825,228710,-1.0743773474,7.7240313528,6.3912291645999995,884
113755,196849,228670,-1.0743773474,7.7240313528,6.3912291645999995,885
113757,196857,228663,-1.0743773474,7.7240313528,6.3912291645999995,886
113815,196848,228726,-1.0743773474,7.7240313528,6.3912291645999995,887
113824,196867,228728,-1.0743773474,7.7240313528,6.3912291645999995,888
113854,196865,228732,-1.0743773474,7.7240313528,6.3912291645999995,889
113883,196874,228718,-1.0743773474,7.7240313528,6.3912291645999995,890
113916,196915,228745,-1.0743773474,7.7240313528,6.3912291645999995,891
113965,196869,228723,-1.0743773474,7.7240313528,6.3912291645999995,892
113985,196906,228713,-1.0743773474,7.7240313528,6.3912291645999995,893
114031,196914,228757,-1.0743773474,7.7240313528,6.3912291645999995,894
114064,196927,228745,-1.0743773474,7.7240313528,6.3912291645999995,895
114110,196948,228709,-1.0743773474,7.7240313528,6.3912291645999995,896
114146,196906,228755,-1.0743773474,7.7240313528,6.3912291645999995,897
114205,196931,228735,-1.0743773474,7.7240313528,6.3912291645999995,898
114197,196939,228776,-1.0743773474,7.7240313528,6.3912291645999995,899
114163,196926,228744,-1.0743773474,7.7240313528,6.3912291645999995,900
114036,196868,228754,-1.0743773474,7.7240313528,6.3912291645999995,901
113873,196869,228790,-1.0743773474,7.7240313528,6.3912291645999995,902
113786,196894,228733,-1.0743773474,7.7240313528,6.3912291645999995,903
113746,196886,228759,-1.0743773474,7.7240313528,6.3912291645999995,904
113688,196897,228727,-1.0743773474,7.7240313528,6.3912291645999995,905
113676,196852,228718,-1.0743773474,7.7240313528,6.3912291645999995,906
113700,196880,228711,-1.0743773474,7.7240313528,6.3912291645999995,907
113704,196859,228719,-1.0743773474,7.7240313528,6.3912291645999995,908
113730,196888,228732,-1.0743773474,7.7240313528,6.3912291645999995,909
113713,196855,228715,-1.0743773474,7.7240313528,6.3912291645999995,910
113686,196876,228732,-1.0743773474,7.7240313528,6.3912291645999995,911
113655,196849,228692,-1.0743773474,7.7240313528,6.3912291645999995,912
113642,196850,228725,-1.0743773474,7.7240313528,6.3912291645999995,913
113641,196895,228745,-1.0743773474,7.7240313528,6.3912291645999995,914
113682,196874,228722,-1.0743773474,7.7240313528,6.3912291645999995,915
113707,196886,228715,-1.0743773474,7.7240313528,6.3912291645999995,916
113724,196887,228732,-1.0743773474,7.7240313528,6.3912291645999995,917
113726,196874,228732,-1.0743773474,7.7240313528,6.3912291645999995,918
113779,196901,228730,-1.0743773474,7.7240313528,6.3912291645999995,919
113807,196933,228706,-1.0743773474,7.7240313528,6.3912291645999995,920
113835,196921,228711,-1.0743773474,7.7240313528,6.3912291645999995,921
113877,196925,228726,-1.0743773474,7.7240313528,6.3912291645999995,922
113892,196959,228724,-1.0743773474,7.7240313528,6.3912291645999995,923
113943,196944,228751,-1.0743773474,7.7240313528,6.3912291645999995,924
113519,196776,228640,-1.0037890807,7.679764134699999,6.326622954399999,925
113531,196765,228683,-1.0037890807,7.679764134699999,6.326622954399999,926
113587,196811,228664,-1.0037890807,7.679764134699999,6.326622954399999,927
113625,196812,228676,-1.0037890807,7.679764134699999,6.326622954399999,928
113664,196813,228749,-1.0037890807,7.679764134699999,6.326622954399999,929
113683,196832,228655,-1.0037890807,7.679764134699999,6.326622954399999,930
113735,196818,228690,-1.0037890807,7.679764134699999,6.326622954399999,931
113764,196834,228657,-1.0037890807,7.679764134699999,6.326622954399999,932
113812,196851,228695,-1.0037890807,7.679764134699999,6.326622954399999,933
113841,196856,228728,-1.0037890807,7.679764134699999,6.326622954399999,934
113877,196864,228683,-1.0037890807,7.679764134699999,6.326622954399999,935
113808,196801,228682,-1.0037890807,7.679764134699999,6.326622954399999,936
113668,196753,228661,-1.0037890807,7.679764134699999,6.326622954399999,937
113525,196736,228677,-1.0037890807,7.679764134699999,6.326622954399999,938
113407,196781,228693,-1.0037890807,7.679764134699999,6.326622954399999,939
113320,196743,228673,-1.0037890807,7.679764134699999,6.326622954399999,940
113267,196744,228627,-1.0037890807,7.679764134699999,6.326622954399999,941
113271,196765,228660,-1.0037890807,7.679764134699999,6.326622954399999,942
113274,196735,228635,-1.0037890807,7.679764134699999,6.326622954399999,943
113291,196745,228681,-1.0037890807,7.679764134699999,6.326622954399999,944
113304,196738,228663,-1.0037890807,7.679764134699999,6.326622954399999,945
113272,196735,228635,-1.0037890807,7.679764134699999,6.326622954399999,946
113273,196739,228626,-1.0037890807,7.679764134699999,6.326622954399999,947
113205,196754,228633,-1.0037890807,7.679764134699999,6.326622954399999,948
113179,196710,228644,-1.0037890807,7.679764134699999,6.326622954399999,949
113214,196711,228583,-1.0037890807,7.679764134699999,6.326622954399999,950
113195,196720,228580,-1.0037890807,7.679764134699999,6.326622954399999,951
113256,196693,228602,-1.0037890807,7.679764134699999,6.326622954399999,952
113253,196698,228611,-1.0037890807,7.679764134699999,6.326622954399999,953
113301,196729,228636,-1.0037890807,7.679764134699999,6.326622954399999,954
113325,196789,228643,-1.0037890807,7.679764134699999,6.326622954399999,955
113377,196761,228628,-1.0037890807,7.679764134699999,6.326622954399999,956
113402,196772,228590,-1.0037890807,7.679764134699999,6.326622954399999,957
113461,196796,228649,-1.0037890807,7.679764134699999,6.326622954399999,958
113481,196791,228642,-1.0037890807,7.679764134699999,6.326622954399999,959
113524,196806,228661,-1.0037890807,7.679764134699999,6.326622954399999,960
113595,196825,228657,-1.0037890807,7.679764134699999,6.326622954399999,961
113627,196819,228639,-1.0037890807,7.679764134699999,6.326622954399999,962
113658,196782,228655,-1.0037890807,7.679764134699999,6.326622954399999,963
113635,196769,228672,-1.0037890807,7.679764134699999,6.326622954399999,964
113509,196794,228676,-1.0037890807,7.679764134699999,6.326622954399999,965
113372,196729,228630,-1.0037890807,7.679764134699999,6.326622954399999,966
113134,196713,228619,-1.052841944,7.6115686905999995,6.2907306154,967
113160,196708,228578,-1.052841944,7.6115686905999995,6.2907306154,968
113175,196702,228628,-1.052841944,7.6115686905999995,6.2907306154,969
113219,196720,228655,-1.052841944,7.6115686905999995,6.2907306154,970
113206,196686,228624,-1.052841944,7.6115686905999995,6.2907306154,971
113182,196673,228596,-1.052841944,7.6115686905999995,6.2907306154,972
113185,196728,228635,-1.052841944,7.6115686905999995,6.2907306154,973
113180,196718,228624,-1.052841944,7.6115686905999995,6.2907306154,974
113196,196701,228607,-1.052841944,7.6115686905999995,6.2907306154,975
113185,196693,228570,-1.052841944,7.6115686905999995,6.2907306154,976
113224,196687,228574,-1.052841944,7.6115686905999995,6.2907306154,977
113262,196675,228596,-1.052841944,7.6115686905999995,6.2907306154,978
113303,196681,228574,-1.052841944,7.6115686905999995,6.2907306154,979
113326,196655,228577,-1.052841944,7.6115686905999995,6.2907306154,980
113350,196675,228589,-1.052841944,7.6115686905999995,6.2907306154,981
113402,196671,228594,-1.052841944,7.6115686905999995,6.2907306154,982
113459,196682,228571,-1.052841944,7.6115686905999995,6.2907306154,983
113483,196648,228608,-1.052841944,7.6115686905999995,6.2907306154,984
113516,196653,228574,-1.052841944,7.6115686905999995,6.2907306154,985
113559,196662,228600,-1.052841944,7.6115686905999995,6.2907306154,986
113612,196660,228574,-1.052841944,7.6115686905999995,6.2907306154,987
113636,196634,228593,-1.052841944,7.6115686905999995,6.2907306154,988
113600,196604,228547,-1.052841944,7.6115686905999995,6.2907306154,989
113472,196580,228574,-1.052841944,7.6115686905999995,6.2907306154,990
113320,196577,228543,-1.052841944,7.6115686905999995,6.2907306154,991
113226,196571,228566,-1.052841944,7.6115686905999995,6.2907306154,992
113144,196566,228571,-1.052841944,7.6115686905999995,6.2907306154,993
113091,196550,228547,-1.052841944,7.6115686905999995,6.2907306154,994
113088,196553,228513,-1.052841944,7.6115686905999995,6.2907306154,995
113092,196550,228550,-1.052841944,7.6115686905999995,6.2907306154,996
113133,196570,228547,-1.052841944,7.6115686905999995,6.2907306154,997
113142,196534,228528,-1.052841944,7.6115686905999995,6.2907306154,998
113150,196583,228583,-1.052841944,7.6115686905999995,6.2907306154,999
113135,196558,228535,-1.052841944,7.6115686905999995,6.2907306154,1000
113118,196536,228536,-1.052841944,7.6115686905999995,6.2907306154,1001
113127,196584,228516,-1.052841944,7.6115686905999995,6.2907306154,1002
113127,196561,228553,-1.052841944,7.6115686905999995,6.2907306154,1003
113169,196568,228555,-1.052841944,7.6115686905999995,6.2907306154,1004
113176,196567,228503,-1.052841944,7.6115686905999995,6.2907306154,1005
113221,196565,228562,-1.052841944,7.6115686905999995,6.2907306154,1006
113236,196582,228549,-1.052841944,7.6115686905999995,6.2907306154,1007
113323,196599,228552,-1.052841944,7.6115686905999995,6.2907306154,1008
113518,196595,228554,-1.0695917021999999,7.6079794567,6.388836342,1009
113386,196605,228612,-1.0695917021999999,7.6079794567,6.388836342,1010
113253,196598,228608,-1.0695917021999999,7.6079794567,6.388836342,1011
113172,196597,228585,-1.0695917021999999,7.6079794567,6.388836342,1012
113097,196568,228578,-1.0695917021999999,7.6079794567,6.388836342,1013
113096,196567,228556,-1.0695917021999999,7.6079794567,6.388836342,1014
113111,196604,228546,-1.0695917021999999,7.6079794567,6.388836342,1015
113103,196575,228591,-1.0695917021999999,7.6079794567,6.388836342,1016
113125,196624,228556,-1.0695917021999999,7.6079794567,6.388836342,1017
113139,196593,228545,-1.0695917021999999,7.6079794567,6.388836342,1018
113124,196580,228566,-1.0695917021999999,7.6079794567,6.388836342,1019
113112,196579,228534,-1.0695917021999999,7.6079794567,6.388836342,1020
113116,196554,228553,-1.0695917021999999,7.6079794567,6.388836342,1021
113120,196578,228599,-1.0695917021999999,7.6079794567,6.388836342,1022
113141,196575,228614,-1.0695917021999999,7.6079794567,6.388836342,1023
113186,196603,228586,-1.0695917021999999,7.6079794567,6.388836342,1024
113232,196584,228559,-1.0695917021999999,7.6079794567,6.388836342,1025
113235,196579,228564,-1.0695917021999999,7.6079794567,6.388836342,1026
113313,196590,228586,-1.0695917021999999,7.6079794567,6.388836342,1027
113311,196594,228627,-1.0695917021999999,7.6079794567,6.388836342,1028
113340,196578,228584,-1.0695917021999999,7.6079794567,6.388836342,1029
113391,196611,228604,-1.0695917021999999,7.6079794567,6.388836342,1030
113453,196654,228661,-1.0695917021999999,7.6079794567,6.388836342,1031
113505,196672,228686,-1.0695917021999999,7.6079794567,6.388836342,1032
113605,196721,228690,-1.0695917021999999,7.6079794567,6.388836342,1033
113668,196728,228741,-1.0695917021999999,7.6079794567,6.388836342,1034
113711,196733,228739,-1.0695917021999999,7.6079794567,6.388836342,1035
113749,196780,228748,-1.0695917021999999,7.6079794567,6.388836342,1036
113796,196808,228777,-1.0695917021999999,7.6079794567,6.388836342,1037
113849,196773,228776,-1.0695917021999999,7.6079794567,6.388836342,1038
113790,196767,228807,-1.0695917021999999,7.6079794567,6.388836342,1039
113694,196743,228789,-1.0695917021999999,7.6079794567,6.388836342,1040
113538,196783,228815,-1.0695917021999999,7.6079794567,6.388836342,1041
113484,196763,228806,-1.0695917021999999,7.6079794567,6.388836342,1042
113444,196769,228814,-1.0695917021999999,7.6079794567,6.388836342,1043
113430,196726,228768,-1.0695917021999999,7.6079794567,6.388836342,1044
113459,196719,228784,-1.0695917021999999,7.6079794567,6.388836342,1045
113521,196696,228744,-1.0695917021999999,7.6079794567,6.388836342,1046
113567,196713,228726,-1.0695917021999999,7.6079794567,6.388836342,1047
113598,196660,228659,-1.0695917021999999,7.6079794567,6.388836342,1048
113574,196621,228679,-1.0695917021999999,7.6079794567,6.388836342,1049
113595,196628,228673,-1.0695917021999999,7.6079794567,6.388836342,1050
113947,196736,228715,-0.9020941202,7.6845497799,6.3385870674,1051
113966,196717,228732,-0.9020941202,7.6845497799,6.3385870674,1052
114037,196714,228762,-0.9020941202,7.6845497799,6.3385870674,1053
114049,196762,228728,-0.9020941202,7.6845497799,6.3385870674,1054
114094,196764,228746,-0.9020941202,7.6845497799,6.3385870674,1055
114142,196755,228775,-0.9020941202,7.6845497799,6.3385870674,1056
114196,196774,228778,-0.9020941202,7.6845497799,6.3385870674,1057
114200,196799,228756,-0.9020941202,7.6845497799,6.3385870674,1058
114159,196765,228763,-0.9020941202,7.6845497799,6.3385870674,1059
114044,196737,228743,-0.9020941202,7.6845497799,6.3385870674,1060
113894,196735,228734,-0.9020941202,7.6845497799,6.3385870674,1061
113780,196691,228751,-0.9020941202,7.6845497799,6.3385870674,1062
113690,196702,228691,-0.9020941202,7.6845497799,6.3385870674,1063
113654,196700,228741,-0.9020941202,7.6845497799,6.3385870674,1064
113624,196708,228685,-0.9020941202,7.6845497799,6.3385870674,1065
113621,196738,228726,-0.9020941202,7.6845497799,6.3385870674,1066
113638,196696,228692,-0.9020941202,7.6845497799,6.3385870674,1067
113657,196705,228737,-0.9020941202,7.6845497799,6.3385870674,1068
113663,196688,228691,-0.9020941202,7.6845497799,6.3385870674,1069
113647,196720,228686,-0.9020941202,7.6845497799,6.3385870674,1070
113614,196717,228722,-0.9020941202,7.6845497799,6.3385870674,1071
113583,196728,228727,-0.9020941202,7.6845497799,6.3385870674,1072
113594,196708,228716,-0.9020941202,7.6845497799,6.3385870674,1073
113589,196695,228679,-0.9020941202,7.6845497799,6.3385870674,1074
113617,196701,228729,-0.9020941202,7.6845497799,6.3385870674,1075
113636,196724,228725,-0.9020941202,7.6845497799,6.3385870674,1076
113662,196729,228724,-0.9020941202,7.6845497799,6.3385870674,1077
113658,196735,228737,-0.9020941202,7.6845497799,6.3385870674,1078
113676,196761,228740,-0.9020941202,7.6845497799,6.3385870674,1079
113715,196758,228807,-0.9020941202,7.6845497799,6.3385870674,1080
113739,196727,228718,-0.9020941202,7.6845497799,6.3385870674,1081
113766,196757,228744,-0.9020941202,7.6845497799,6.3385870674,1082
113773,196766,228710,-0.9020941202,7.6845497799,6.3385870674,1083
113833,196779,228729,-0.9020941202,7.6845497799,6.3385870674,1084
113839,196774,228756,-0.9020941202,7.6845497799,6.3385870674,1085
113793,196727,228739,-0.9020941202,7.6845497799,6.3385870674,1086
113665,196724,228722,-0.9020941202,7.6845497799,6.3385870674,1087
113495,196678,228671,-0.9020941202,7.6845497799,6.3385870674,1088
113355,196656,228697,-0.9020941202,7.6845497799,6.3385870674,1089
113234,196642,228651,-0.9020941202,7.6845497799,6.3385870674,1090
113195,196637,228682,-0.9020941202,7.6845497799,6.3385870674,1091
113143,196652,228701,-0.9020941202,7.6845497799,6.3385870674,1092
111034,196585,228453,-1.052841944,7.6151579245,6.3792650516,1093
111067,196594,228442,-1.052841944,7.6151579245,6.3792650516,1094
111026,196605,228475,-1.052841944,7.6151579245,6.3792650516,1095
110979,196590,228413,-1.052841944,7.6151579245,6.3792650516,1096
110958,196539,228441,-1.052841944,7.6151579245,6.3792650516,1097
110927,196549,228437,-1.052841944,7.6151579245,6.3792650516,1098
110909,196545,228417,-1.052841944,7.6151579245,6.3792650516,1099
110935,196533,228416,-1.052841944,7.6151579245,6.3792650516,1100
110964,196550,228407,-1.052841944,7.6151579245,6.3792650516,1101
111003,196555,228404,-1.052841944,7.6151579245,6.3792650516,1102
111014,196590,228394,-1.052841944,7.6151579245,6.3792650516,1103
111057,196583,228436,-1.052841944,7.6151579245,6.3792650516,1104
111108,196615,228409,-1.052841944,7.6151579245,6.3792650516,1105
111180,196579,228434,-1.052841944,7.6151579245,6.3792650516,1106
111214,196611,228416,-1.052841944,7.6151579245,6.3792650516,1107
111303,196629,228442,-1.052841944,7.6151579245,6.3792650516,1108
111344,196607,228450,-1.052841944,7.6151579245,6.3792650516,1109
111379,196610,228422,-1.052841944,7.6151579245,6.3792650516,1110
111254,196575,228430,-1.052841944,7.6151579245,6.3792650516,1111
110881,196555,228394,-1.052841944,7.6151579245,6.3792650516,1112
110429,196515,228382,-1.052841944,7.6151579245,6.3792650516,1113
110106,196481,228350,-1.052841944,7.6151579245,6.3792650516,1114
109884,196467,228342,-1.052841944,7.6151579245,6.3792650516,1115
109703,196486,228301,-1.052841944,7.6151579245,6.3792650516,1116
109646,196478,228321,-1.052841944,7.6151579245,6.3792650516,1117
109605,196495,228284,-1.052841944,7.6151579245,6.3792650516,1118
109625,196475,228318,-1.052841944,7.6151579245,6.3792650516,1119
109605,196535,228305,-1.052841944,7.6151579245,6.3792650516,1120
109579,196488,228319,-1.052841944,7.6151579245,6.3792650516,1121
109528,196497,228319,-1.052841944,7.6151579245,6.3792650516,1122
109448,196464,228283,-1.052841944,7.6151579245,6.3792650516,1123
109419,196520,228262,-1.052841944,7.6151579245,6.3792650516,1124
109393,196480,228275,-1.052841944,7.6151579245,6.3792650516,1125
109403,196493,228313,-1.052841944,7.6151579245,6.3792650516,1126
109450,196484,228313,-1.052841944,7.6151579245,6.3792650516,1127
109462,196535,228248,-1.052841944,7.6151579245,6.3792650516,1128
109529,196513,228312,-1.052841944,7.6151579245,6.3792650516,1129
109590,196559,228314,-1.052841944,7.6151579245,6.3792650516,1130
109650,196543,228296,-1.052841944,7.6151579245,6.3792650516,1131
109702,196525,228330,-1.052841944,7.6151579245,6.3792650516,1132
109776,196604,228306,-1.052841944,7.6151579245,6.3792650516,1133
109833,196612,228302,-1.052841944,7.6151579245,6.3792650516,1134
106937,196186,228025,-0.9750752094999999,7.570890706399999,6.451049729599999,1135
107040,196186,228012,-0.9750752094999999,7.570890706399999,6.451049729599999,1136
107119,196198,228038,-0.9750752094999999,7.570890706399999,6.451049729599999,1137
107227,196233,228014,-0.9750752094999999,7.570890706399999,6.451049729599999,1138
107331,196271,228018,-0.9750752094999999,7.570890706399999,6.451049729599999,1139
107432,196227,228023,-0.9750752094999999,7.570890706399999,6.451049729599999,1140
107556,196234,228030,-0.9750752094999999,7.570890706399999,6.451049729599999,1141
107678,196265,228030,-0.9750752094999999,7.570890706399999,6.451049729599999,1142
107788,196263,228063,-0.9750752094999999,7.570890706399999,6.451049729599999,1143
107906,196284,228050,-0.9750752094999999,7.570890706399999,6.451049729599999,1144
108019,196292,228082,-0.9750752094999999,7.570890706399999,6.451049729599999,1145
108124,196340,228061,-0.9750752094999999,7.570890706399999,6.451049729599999,1146
108251,196327,228101,-0.9750752094999999,7.570890706399999,6.451049729599999,1147
108379,196343,228111,-0.9750752094999999,7.570890706399999,6.451049729599999,1148
108469,196341,228125,-0.9750752094999999,7.570890706399999,6.451049729599999,1149
108396,196351,228091,-0.9750752094999999,7.570890706399999,6.451049729599999,1150
108086,196291,228116,-0.9750752094999999,7.570890706399999,6.451049729599999,1151
107652,196276,228084,-0.9750752094999999,7.570890706399999,6.451049729599999,1152
107276,196239,228097,-0.9750752094999999,7.570890706399999,6.451049729599999,1153
107126,196244,228076,-0.9750752094999999,7.570890706399999,6.451049729599999,1154
107016,196187,228053,-0.9750752094999999,7.570890706399999,6.451049729599999,1155
107004,196230,228030,-0.9750752094999999,7.570890706399999,6.451049729599999,1156
107066,196247,228062,-0.9750752094999999,7.570890706399999,6.451049729599999,1157
107122,196213,228061,-0.9750752094999999,7.570890706399999,6.451049729599999,1158
107203,196178,228073,-0.9750752094999999,7.570890706399999,6.451049729599999,1159
107166,196215,228043,-0.9750752094999999,7.570890706399999,6.451049729599999,1160
107115,196186,228036,-0.9750752094999999,7.570890706399999,6.451049729599999,1161
107111,196204,228039,-0.9750752094999999,7.570890706399999,6.451049729599999,1162
107125,196220,228067,-0.9750752094999999,7.570890706399999,6.451049729599999,1163
107150,196205,228045,-0.9750752094999999,7.570890706399999,6.451049729599999,1164
107211,196202,228074,-0.9750752094999999,7.570890706399999,6.451049729599999,1165
107271,196193,228054,-0.9750752094999999,7.570890706399999,6.451049729599999,1166
107365,196177,228081,-0.9750752094999999,7.570890706399999,6.451049729599999,1167
107452,196224,228058,-0.9750752094999999,7.570890706399999,6.451049729599999,1168
107539,196216,228091,-0.9750752094999999,7.570890706399999,6.451049729599999,1169
107657,196228,228036,-0.9750752094999999,7.570890706399999,6.451049729599999,1170
107758,196211,228077,-0.9750752094999999,7.570890706399999,6.451049729599999,1171
107878,196240,228063,-0.9750752094999999,7.570890706399999,6.451049729599999,1172
107969,196275,228046,-0.9750752094999999,7.570890706399999,6.451049729599999,1173
108076,196230,228048,-0.9750752094999999,7.570890706399999,6.451049729599999,1174
108215,196238,228086,-0.9750752094999999,7.570890706399999,6.451049729599999,1175
108312,196237,228092,-0.9750752094999999,7.570890706399999,6.451049729599999,1176
107303,196246,228134,-1.0600204118,7.6498538522,6.451049729599999,1177
107348,196246,228135,-1.0600204118,7.6498538522,6.451049729599999,1178
107407,196209,228106,-1.0600204118,7.6498538522,6.451049729599999,1179
107355,196161,228068,-1.0600204118,7.6498538522,6.451049729599999,1180
107217,196032,227991,-1.0600204118,7.6498538522,6.451049729599999,1181
107085,196005,227934,-1.0600204118,7.6498538522,6.451049729599999,1182
107138,196055,227934,-1.0600204118,7.6498538522,6.451049729599999,1183
107257,196122,227906,-1.0600204118,7.6498538522,6.451049729599999,1184
107252,195986,227774,-1.0600204118,7.6498538522,6.451049729599999,1185
107221,195875,227668,-1.0863414604,7.5062844962,6.439085616600001,1186
107122,195781,227554,-1.0863414604,7.5062844962,6.439085616600001,1187
106926,195595,227401,-1.0863414604,7.5062844962,6.439085616600001,1188
106574,195610,227435,-1.0863414604,7.5062844962,6.439085616600001,1189
106307,195638,227527,-1.0863414604,7.5062844962,6.439085616600001,1190
106207,195794,227641,-1.0863414604,7.5062844962,6.439085616600001,1191
106346,196083,227946,-1.0863414604,7.5062844962,6.439085616600001,1192
106552,196209,228001,-1.0863414604,7.5062844962,6.439085616600001,1193
106728,196308,228046,-1.0863414604,7.5062844962,6.439085616600001,1194
106888,196365,228129,-1.0863414604,7.5062844962,6.439085616600001,1195
107041,196479,228241,-1.0863414604,7.5062844962,6.439085616600001,1196
107564,196472,228715,-1.0863414604,7.5062844962,6.439085616600001,1197
109037,195640,228128,-1.0863414604,7.5062844962,6.439085616600001,1198
110103,195060,227519,-1.0863414604,7.5062844962,6.439085616600001,1199
110788,195035,227247,-1.0863414604,7.5062844962,6.439085616600001,1200
111385,195071,227104,-1.0863414604,7.5062844962,6.439085616600001,1201
111621,195595,227581,-1.0863414604,7.5062844962,6.439085616600001,1202
111156,196294,228395,-1.0863414604,7.5062844962,6.439085616600001,1203
110456,196301,228487,-1.0863414604,7.5062844962,6.439085616600001,1204
109976,196280,228359,-1.0863414604,7.5062844962,6.439085616600001,1205
109683,196127,228168,-1.0863414604,7.5062844962,6.439085616600001,1206
109561,196134,228090,-1.0863414604,7.5062844962,6.439085616600001,1207
109499,196176,228119,-1.0863414604,7.5062844962,6.439085616600001,1208
109482,196243,228189,-1.2765708571,7.5577301821,6.4821564234,1209
109420,196243,228157,-1.2765708571,7.5577301821,6.4821564234,1210
109364,196269,228194,-1.2765708571,7.5577301821,6.4821564234,1211
109329,196295,228169,-1.2765708571,7.5577301821,6.4821564234,1212
109306,196279,228167,-1.0205388389,7.65703232,6.3110696074999995,1213
109323,196269,228158,-1.0480562988,7.5385876013,6.4295143262,1214
109319,196299,228169,-1.0540383553,7.5278198996,6.436692794,1215
109331,196319,228173,-1.0085747259,7.530212722199999,6.5096738833000005,1216
109428,196320,228205,-1.0372885971,7.525427077,6.4151573906,1217
109428,196339,228189,-1.0396814197,7.530212722199999,6.287141381500001,1218
109445,196337,228210,-1.1114660977,7.4799634476,6.5168523511,1219
109577,196367,228222,-1.0456634762,7.5230342544,6.4031932776,1220
109585,196409,228236,-1.0432706536,7.5122665527,6.3505511804,1221
109544,196402,228207,-1.040877831,7.4823562701999995,6.3948183985,1222
109310,196330,228234,-1.0205388389,7.525427077,6.439085616600001,1223
108992,196292,228156,-1.1497512593,7.4548388103,6.364908116,1224
108729,196299,228169,-0.9834500885999999,7.5541409482,6.46062102,1225
108605,196297,228114,-1.0743773474,7.4943203832,6.369693761200001,1226
108556,196295,228141,-1.0803594039,7.5182486092000005,6.410371745399999,1227
108571,196286,228175,-1.0145567824000001,7.542176835199999,6.5072810607,1228
108628,196276,228134,-1.0707881135,7.526623488299999,6.3744794064,1229
108704,196292,228150,-1.112662509,7.5900332872,6.376872229,1230
108735,196314,228132,-1.0624132344,7.5924261098,6.4079789228,1231
108709,196275,228114,-0.9882357338,7.5062844962,6.369693761200001,1232
108715,196270,228102,-1.148554848,7.5206414318,6.4761743669,1233
108711,196292,228127,-1.148554848,7.5206414318,6.4761743669,1234
108714,196249,228134,-1.148554848,7.5206414318,6.4761743669,1235
108763,196258,228099,-1.148554848,7.5206414318,6.4761743669,1236
108844,196257,228115,-1.148554848,7.5206414318,6.4761743669,1237
108911,196264,228135,-1.148554848,7.5206414318,6.4761743669,1238
108928,196261,228126,-1.148554848,7.5206414318,6.4761743669,1239
109025,196304,228131,-1.148554848,7.5206414318,6.4761743669,1240
109075,196287,228128,-1.148554848,7.5206414318,6.4761743669,1241
109071,196256,228104,-1.148554848,7.5206414318,6.4761743669,1242
108863,196210,228095,-1.148554848,7.5206414318,6.4761743669,1243
108531,196130,228078,-1.148554848,7.5206414318,6.4761743669,1244
108220,196144,228000,-1.148554848,7.5206414318,6.4761743669,1245
108054,196116,228010,-1.148554848,7.5206414318,6.4761743669,1246
107950,196125,227989,-1.148554848,7.5206414318,6.4761743669,1247
107953,196149,227965,-1.148554848,7.5206414318,6.4761743669,1248
108001,196114,228042,-1.148554848,7.5206414318,6.4761743669,1249
108036,196106,228015,-1.148554848,7.5206414318,6.4761743669,1250
108075,196103,227965,-1.148554848,7.5206414318,6.4761743669,1251
108074,196064,227995,-1.148554848,7.5206414318,6.4761743669,1252
108063,196103,228022,-1.148554848,7.5206414318,6.4761743669,1253
108056,196091,227990,-1.148554848,7.5206414318,6.4761743669,1254
108062,196081,227964,-1.148554848,7.5206414318,6.4761743669,1255
108107,196132,227996,-1.148554848,7.5206414318,6.4761743669,1256
108188,196099,227992,-1.148554848,7.5206414318,6.4761743669,1257
108230,196098,227939,-1.148554848,7.5206414318,6.4761743669,1258
108297,196107,227990,-1.148554848,7.5206414318,6.4761743669,1259
108390,196107,227917,-1.0085747259,7.621139981,6.3792650516,1260
108421,196118,227992,-1.0085747259,7.621139981,6.3792650516,1261
108382,196100,227950,-1.0085747259,7.621139981,6.3792650516,1262
108033,196040,227947,-1.0085747259,7.621139981,6.3792650516,1263
107544,195970,227892,-1.0085747259,7.621139981,6.3792650516,1264
107064,195946,227928,-1.0671988796,7.5206414318,6.4618174313,1265
106730,195906,227876,-0.9463613382999999,7.6498538522,6.437889205299999,1266
106529,195889,227831,-0.9463613382999999,7.6498538522,6.437889205299999,1267
106372,195913,227796,-0.9463613382999999,7.6498538522,6.437889205299999,1268
106340,195840,227780,-0.9463613382999999,7.6498538522,6.437889205299999,1269
106376,195859,227821,-0.9463613382999999,7.6498538522,6.437889205299999,1270
106371,195833,227790,-0.9463613382999999,7.6498538522,6.437889205299999,1271
106309,195869,227786,-0.9463613382999999,7.6498538522,6.437889205299999,1272
106210,195835,227774,-0.9463613382999999,7.6498538522,6.437889205299999,1273
106188,195768,227785,-0.9463613382999999,7.6498538522,6.437889205299999,1274
106158,195772,227728,-0.9463613382999999,7.6498538522,6.437889205299999,1275
106176,195778,227730,-0.9463613382999999,7.6498538522,6.437889205299999,1276
106222,195800,227772,-0.9463613382999999,7.6498538522,6.437889205299999,1277
106273,195816,227779,-0.9463613382999999,7.6498538522,6.437889205299999,1278
106316,195791,227738,-1.0193424276,7.4847490928,6.4295143262,1279
106416,195810,227739,-1.0193424276,7.4847490928,6.4295143262,1280
106488,195804,227777,-1.2705888006,7.2550381232,6.7645094902,1281
106548,195802,227754,-1.0241280728,7.4620172781,6.2763736798,1282
106629,195842,227769,-1.1569297271,7.514659375300001,6.4319071488,1283
106693,195835,227800,-0.9487541609,7.4333034069,6.419943035799999,1284
106809,195819,227785,-1.0145567824000001,7.5900332872,6.410371745399999,1285
106868,195826,227845,-1.1808579531,7.5158557866,6.4055861002,1286
106956,195828,227789,-1.0217352502000001,7.53739119,6.3936219871999995,1287
107039,195877,227797,-0.2572284295,7.9345997416,6.1842500096999995,1288
107096,195848,227828,-0.2572284295,7.9345997416,6.1842500096999995,1289
107171,195877,227800,-0.2572284295,7.9345997416,6.1842500096999995,1290
107257,195904,227856,-0.2572284295,7.9345997416,6.1842500096999995,1291
107349,195954,227822,-0.9427721043999999,7.5003024396999995,6.2847485589,1292
107414,195928,227856,-1.0336993632,7.514659375300001,6.4175502132,1293
107506,195964,227889,-0.9140582332,7.459624455499999,6.435496382699999,1294
107596,195903,227871,-0.8362914987,7.4045895357,6.480960012100001,1295
107644,195948,227891,-1.1162517428999998,7.4871419154,6.3912291645999995,1296
107754,195973,227917,-1.0336993632,7.568497883799999,6.4821564234,1297
107864,195981,227900,-1.07677017,7.5218378431,6.376872229,1298
107913,196007,227888,-1.1760723079,7.6749784895,6.5264236415,1299
107978,196028,227877,-1.1760723079,7.6749784895,6.5264236415,1300
108012,196026,227924,-1.1760723079,7.6749784895,6.5264236415,1301
107961,196015,227957,-1.1760723079,7.6749784895,6.5264236415,1302
107484,195923,227898,-1.1760723079,7.6749784895,6.5264236415,1303
106733,195858,227824,-1.2011969452,7.6857461912,6.2847485589,1304
106078,195822,227837,-1.2011969452,7.6857461912,6.2847485589,1305
105629,195788,227806,-0.9774680320999999,7.4847490928,6.326622954399999,1306
105360,195849,227738,-1.0863414604,7.4273213504,6.4857456573,1307
105205,195798,227781,-1.0025926694,7.606783045399999,6.4618174313,1308
105120,195820,227774,-0.9643075078,7.5541409482,6.5072810607,1309
105092,195796,227758,-1.088734283,7.6151579245,6.3038911397,1310
105009,195793,227743,-1.0564311779,7.5003024396999995,6.4079789228,1311
104787,195756,227738,-1.0600204118,7.4548388103,6.385247108100001,1312
104540,195749,227724,-1.0241280728,7.5792655855,6.385247108100001,1313
104381,195759,227723,-1.1030912186,7.4991060284,6.3481583578,1314
104197,195756,227702,-0.9056833541,7.549355303,6.3361942448,1315
104187,195750,227696,-1.0540383553,7.429714173,6.410371745399999,1316
104269,195740,227674,-1.0277173067,7.525427077,6.384050696799999,1317
104285,195745,227729,-1.0683952909,7.561319416,6.4953169477,1318
104306,195766,227721,-1.0229316615,7.549355303,6.410371745399999,1319
104364,195755,227726,-1.2981062605,7.446463931199999,6.5694944482999995,1320
104416,195774,227711,-1.1270194446,7.53739119,6.3984076324000005,1321
104488,195776,227740,-0.9391828704999999,7.625925626199999,6.381657874199999,1322
104531,195791,227731,-1.148554848,7.4967132058,6.369693761200001,1323
104672,195819,227710,-1.0396814197,7.5469624804,6.326622954399999,1324
104631,195788,227747,-1.0444670649,7.5290163108999995,6.3314085996000005,1325
104762,195809,227748,-1.016949605,7.585247642000001,6.4474604957,1326
104864,195815,227786,-0.9535398061,7.5996045776,6.3792650516,1327
104950,195787,227769,-1.1389835576,7.5314091335,6.4115681567000005,1328
105038,195795,227716,-1.0061819033000001,7.6019974002,6.3254265431,1329
105136,195829,227779,-1.3028919057000001,7.2957161074000005,6.687939167000001,1330
105173,195864,227787,-1.0671988796,7.5637122386,6.4582281974,1331
105251,195814,227785,-0.9678967417,7.6019974002,6.4570317861,1332
105191,195776,227761,-0.9224331123,7.418946471299999,6.3864435194,1333
104691,195776,227728,-1.0636096457,7.5936225210999995,6.419943035799999,1334
103880,195704,227663,-1.0671988796,7.511070141399999,6.5407805771,1335
103162,195629,227631,-1.052841944,7.446463931199999,6.4474604957,1336
102781,195631,227658,-1.0253244841,7.441678286,6.384050696799999,1337
102576,195647,227640,-1.0073783146,7.5744799403,6.4857456573,1338
102458,195643,227642,-1.1246266219999999,7.5242306657,6.4402820279,1339
102441,195587,227666,-1.2825529136,7.6283184488,6.212963880899999,1340
102451,195618,227580,-1.0935199281999999,7.5864440533,6.384050696799999,1341
102447,195638,227618,-1.1904292435000001,7.573283529,6.3541404143,1342
102331,195617,227656,-0.9894321450999999,7.511070141399999,6.3936219871999995,1343
102172,195615,227602,-1.0671988796,7.542176835199999,6.435496382699999,1344
102046,195597,227586,-1.136590735,7.549355303,6.4462640844,1345
102018,195633,227577,-1.1258230332999999,7.6031938115,6.369693761200001,1346
101997,195607,227592,-1.0396814197,7.4512495764,6.364908116,1347
102082,195636,227636,-1.1341979124,7.5218378431,6.4785671895,1348
102141,195682,227601,-0.5910271822000001,7.6869426025,6.1280186786,1349
102231,195646,227677,-1.0576275892,7.525427077,6.546762633599999,1350
102350,195673,227648,-0.9535398061,7.4931239719,6.3481583578,1351
102460,195684,227657,-0.9535398061,7.4560352216,6.4426748505,1352
102558,195687,227683,-0.8697910151,7.5625158273,6.4402820279,1353
102698,195675,227659,-1.1832507757,7.573283529,6.422335858399999,1354
102835,195744,227677,-1.0755737587,7.5349983674,6.3625152933999995,1355
102960,195786,227695,-1.0217352502000001,7.5278198996,6.369693761200001,1356
103086,195797,227669,-0.9200402897,7.5912296985,6.4833528347,1357
103199,195784,227736,-0.969093153,7.5469624804,6.3589260595,1358
103366,195772,227743,0.4881358104,8.2348989779,6.216553114800001,1359
103518,195842,227741,-1.0600204118,7.488338326699999,6.3936219871999995,1360
103641,195858,227771,-0.9774680320999999,7.5960153436999995,6.5431733997,1361
103758,195853,227768,-1.0073783146,7.5589265934,6.3361942448,1362
103982,195913,227788,-0.9343972253,7.4225357052000005,6.4175502132,1363
104071,195911,227794,-1.0336993632,7.5960153436999995,6.4055861002,1364
104203,195895,227833,-1.136590735,7.549355303,6.3720865838,1365
104353,195939,227830,-1.0815558152,7.5182486092000005,6.4031932776,1366
104349,195928,227811,-0.9176474671,7.390232600099999,6.4630138426,1367
103949,195914,227800,-0.8350950873999999,7.6271220375,6.4307107375,1368
103234,195853,227793,-0.9990034355,7.5768727629,6.5730836822,1369
102688,195806,227743,-1.1521440819,7.5541409482,6.3984076324000005,1370
102314,195798,227778,-1.0815558152,7.5589265934,6.4905313025,1371
102096,195788,227790,-1.028913718,7.4703921572,6.3314085996000005,1372
102015,195780,227775,-1.0983055734,7.4751778024,6.314658841399999,1373
101998,195819,227719,-0.9726823869,7.6151579245,6.466603076499999,1374
102047,195797,227762,-1.0277173067,7.5637122386,6.376872229,1375
102091,195851,227734,-0.9966106129000001,7.5876404646,6.388836342,1376
102093,195852,227772,-1.1234302107,7.489534738000001,6.3912291645999995,1377
101953,195826,227747,-1.3148560187,7.3890361888,6.4079789228,1378
101901,195813,227765,-1.0707881135,7.573283529,6.451049729599999,1379
101849,195823,227737,-1.0719845248,7.5924261098,6.412764568,1380
101888,195800,227766,-1.184447187,7.4991060284,6.4079789228,1381
101972,195839,227759,-0.9750752094999999,7.5349983674,6.4546389635,1382
102059,195842,227738,-1.0444670649,7.4644101007,6.3457655352,1383
102182,195875,227796,-1.0564311779,7.5230342544,6.4594246087,1384
102330,195898,227807,-1.0241280728,7.5290163108999995,6.3960148098,1385
102476,195929,227790,-0.9906285563999999,7.4273213504,6.4175502132,1386
102621,195887,227782,-1.0719845248,7.4500531651,6.3864435194,1387
102744,195912,227831,-1.1389835576,7.539784012599999,6.2488562199,1388
102905,195953,227850,-1.0671988796,7.5505517143,6.4079789228,1389
103075,195974,227878,-0.9248259349,7.5445696578,6.406782511499999,1390
103258,196010,227861,-1.0552347666,7.5816584081,6.5240308189,1391
103404,195990,227905,-1.0061819033000001,7.5349983674,6.3361942448,1392
103491,196018,227858,-1.0612168231,7.5469624804,6.479763600799999,1393
103713,196057,227885,-1.1665010175000001,7.6426753844,6.4558353748,1394
103852,196061,227903,-1.0241280728,7.5529445369,6.3792650516,1395
104002,196073,227928,-0.9858429111999999,7.4871419154,6.419943035799999,1396
104163,196103,227920,-1.0336993632,7.501498850999999,6.435496382699999,1397
104320,196143,227973,-1.0552347666,7.4847490928,6.3720865838,1398
104452,196146,227915,-1.0480562988,7.6175507471,6.4713887217,1399
104646,196167,227945,-0.9918249677,7.721638530200001,6.3720865838,1400
104775,196218,227954,-1.0217352502000001,7.4703921572,6.3625152933999995,1401
104766,196163,227967,-1.0504491214,7.4979096170999995,6.329015777,1402
104391,196140,227982,-1.0480562988,7.4488567538,6.376872229,1403
103921,196085,227946,-1.0313065406,7.6941210703,6.4175502132,1404
103615,196075,227916,-0.9702895642999999,7.7515488127,6.412764568,1405
103422,196081,227911,-0.9726823869,7.5086773188,6.4761743669,1406
103407,196125,227874,-1.0360921858,7.4871419154,6.439085616600001,1407
103446,196141,227870,-1.0815558152,7.511070141399999,6.4307107375,1408
103537,196087,227915,-1.0456634762,7.5445696578,6.3361942448,1409
103647,196127,227938,-1.0420742423,7.4907311493,6.317051664,1410
103591,196114,227975,-1.064806057,7.489534738000001,6.3074803736,1411
103676,196151,227924,-1.0277173067,7.539784012599999,6.384050696799999,1412
103562,196142,227905,-0.9535398061,7.7012995381,6.4426748505,1413
103589,196158,227887,-0.9343972253,7.5505517143,6.3936219871999995,1414
103651,196148,227975,-1.0600204118,7.5038916736,6.289534204100001,1415
103710,196172,227931,-1.0492527101,7.5445696578,6.3625152933999995,1416
103817,196159,227925,-0.9559326287,7.4943203832,6.3673009386,1417
103958,196197,227896,-1.0013962581,7.6055866341,6.3481583578,1418
104096,196213,227947,-0.9942177902999999,7.5314091335,6.3720865838,1419
104219,196170,227937,-0.9966106129000001,7.539784012599999,6.4749779556,1420
104318,196189,227965,-1.0683952909,7.453642399,6.451049729599999,1421
104441,196183,227945,-1.088734283,7.5326055448,6.381657874199999,1422
104598,196278,227991,-0.9463613382999999,7.4093751809,6.4151573906,1423
104741,196198,227946,-1.1341979124,7.5984081663000005,6.3122660188,1424
104868,196216,227999,-0.9858429111999999,7.5780691741999995,6.448656907,1425
105027,196250,227948,-0.9786644433999999,7.501498850999999,6.4462640844,1426
105174,196266,228037,-0.9655039191,7.472784979799999,6.4534425522,1427
105330,196293,228008,-1.1162517428999998,7.4715885685,6.3984076324000005,1428
105446,196351,228036,-0.9224331123,7.5086773188,6.4689958991,1429
105586,196315,228051,-1.0671988796,7.666603610399999,6.4498533183,1430
105733,196317,228049,-1.0121639598,7.6773713121,6.4785671895,1431
105721,196340,228041,-1.0576275892,7.597211754999999,6.3744794064,1432
105425,196270,228002,-1.0719845248,7.501498850999999,6.422335858399999,1433
104947,196234,227987,-0.861416136,7.5661050612,6.4462640844,1434
104568,196243,228003,-1.0612168231,7.525427077,6.3936219871999995,1435
104328,196218,228010,-0.9152546444999999,7.511070141399999,6.439085616600001,1436
104188,196219,227960,-0.9858429111999999,7.5349983674,6.492924125099999,1437
104109,196252,227960,-1.0624132344,7.526623488299999,6.448656907,1438
104176,196246,227965,-1.028913718,7.556533770800001,6.422335858399999,1439
104203,196249,227988,-0.945164927,7.4703921572,6.3864435194,1440
104280,196225,227980,-0.9678967417,7.429714173,6.4498533183,1441
104296,196256,227945,-1.016949605,7.4177500599999995,6.439085616600001,1442
104275,196244,227970,-0.9858429111999999,7.5541409482,6.3744794064,1443
104247,196253,227990,-1.0791629926,7.5589265934,6.4031932776,1444
104260,196264,227938,-1.0301101293000001,7.561319416,6.4893348911999995,1445
104325,196272,227952,-1.0935199281999999,7.570890706399999,6.3194444866,1446
104391,196263,227962,-1.0360921858,7.6343005053,6.419943035799999,1447
104491,196270,228008,-0.9834500885999999,7.472784979799999,6.3984076324000005,1448
104619,196311,227984,-1.088734283,7.5158557866,6.4713887217,1449
104733,196306,227992,-0.9702895642999999,7.5601230047,6.4905313025,1450
104844,196315,227982,-0.9272187574999999,7.5816584081,6.3828542855,1451
104972,196331,227994,-1.0013962581,7.5756763516,6.4570317861,1452
105124,196337,228017,-1.1856435983,7.4835526815,6.4307107375,1453
105301,196369,228032,-1.0396814197,7.5349983674,6.4701923104,1454
105416,196390,228057,-1.0480562988,7.3471617933,6.4785671895,1455
105556,196410,228032,-1.0001998468,7.5960153436999995,6.4079789228,1456
105746,196374,228054,-1.0791629926,7.5086773188,6.419943035799999,1457
105875,196406,228071,-0.8889335959,7.4871419154,6.4414784392,1458
106047,196464,228070,-0.9499505722,7.5768727629,6.4749779556,1459
106183,196449,228060,-1.0504491214,7.472784979799999,6.4426748505,1460
106327,196452,228069,-1.0671988796,7.5326055448,6.4079789228,1461
106451,196451,228105,-1.0815558152,7.5780691741999995,6.3122660188,1462
106474,196464,228106,-1.004985492,7.4500531651,6.400800455,1463
106192,196479,228063,-1.0983055734,7.556533770800001,6.326622954399999,1464
105735,196377,228034,-1.1150553316,7.5338019561000005,6.3505511804,1465
105352,196363,228021,-1.016949605,7.4751778024,6.518048762399999,1466
105089,196328,228008,-0.9631110964999999,7.5242306657,6.4977097703,1467
104951,196328,228019,-1.1090732750999999,7.5577301821,6.4175502132,1468
104912,196324,227993,-0.9643075078,7.477570625,6.4773707782,1469
104914,196372,228015,-1.0205388389,7.6019974002,6.5551375127,1470
104968,196366,228004,-1.0600204118,7.5326055448,6.3254265431,1471
105059,196373,228011,-0.9224331123,7.444071108599999,6.4474604957,1472
105052,196349,228039,-1.2047861791,7.5445696578,6.4737815442999995,1473
105034,196341,228016,-1.0516455327,7.5661050612,6.4630138426,1474
105000,196357,227974,-1.0348957745,7.5625158273,6.4175502132,1475
105066,196344,227958,-1.052841944,7.4632136894,6.4857456573,1476
105095,196353,228003,-0.9439685157,7.5768727629,6.4319071488,1477
105206,196362,227972,-1.0983055734,7.539784012599999,6.410371745399999,1478
105226,196366,227960,-1.052841944,7.5338019561000005,6.4582281974,1479
105373,196375,227986,-1.0193424276,7.5326055448,6.4247286809999995,1480
105481,196413,228016,-1.064806057,7.4225357052000005,6.4319071488,1481
105610,196397,228003,-1.0265208954,7.5086773188,6.272784445899999,1482
105751,196414,228004,-0.8315058535,7.6019974002,6.3960148098,1483
105895,196411,228027,-1.1318050897999998,7.6462646183,6.388836342,1484
106016,196464,228002,-1.052841944,7.5780691741999995,6.479763600799999,1485
106151,196430,228043,-1.0576275892,7.5361947787,6.5240308189,1486
106337,196457,228043,-0.9631110964999999,7.441678286,6.2955162605999995,1487
106464,196479,228045,-0.9894321450999999,7.2885376395999995,6.3673009386,1488
106610,196480,228015,-1.0600204118,7.5541409482,6.4582281974,1489
106759,196481,228044,-1.0815558152,7.5541409482,6.5288164641,1490
106910,196497,228105,-1.0145567824000001,7.5601230047,6.3110696074999995,1491
107046,196540,228098,-0.9499505722,7.5278198996,6.4187466245,1492
107170,196518,228081,-0.945164927,7.6438717957,6.355336825599999,1493
107239,196530,228098,-0.981057266,7.4751778024,6.4187466245,1494
107037,196450,228092,-0.9607182739,7.542176835199999,6.4689958991,1495
106687,196478,228079,-1.1234302107,7.4943203832,6.3625152933999995,1496
106356,196430,228045,-0.9918249677,7.5804619967999995,6.212963880899999,1497
106165,196414,228031,-1.0360921858,7.5601230047,6.3481583578,1498
106063,196418,228015,-1.0731809361,7.6857461912,6.369693761200001,1499
106024,196424,227985,-1.0695917021999999,7.5661050612,6.4534425522,1500
106071,196411,228013,-1.1006983959999999,7.6199435697,6.4307107375,1501
106164,196427,228008,-0.9738787981999999,7.6175507471,6.46062102,1502
106256,196427,228016,-1.1246266219999999,7.399803890499999,6.3864435194,1503
106313,196427,228026,-1.1509476706000001,7.4679993346,6.4139609793000005,1504
106311,196435,228039,-1.1653046062,7.5445696578,6.4713887217,1505
106293,196436,228027,-1.0671988796,7.5792655855,6.3338014222,1506
106287,196417,227980,-1.1198409768,7.5469624804,6.3481583578,1507
106355,196408,227974,-0.9056833541,7.5541409482,6.327819365700001,1508
106417,196404,227983,-1.0301101293000001,7.4823562701999995,6.4594246087,1509
106522,196460,227997,-1.040877831,7.6175507471,6.4283179149,1510
106622,196427,228019,-0.9583254512999999,7.5924261098,6.305087551,1511
106759,196448,228011,-1.1868400096,7.5218378431,6.3720865838,1512
106844,196462,228030,-1.0935199281999999,7.525427077,6.3792650516,1513
106984,196459,228042,-1.0205388389,7.6474610296,6.3720865838,1514
107108,196498,228035,-0.9343972253,7.5649086499,6.376872229,1515
107233,196502,228052,-1.0325029519,7.5349983674,6.3708901725,1516
107382,196527,228048,-1.0109675485,7.585247642000001,6.4342999714,1517
107513,196506,228024,-1.016949605,7.4560352216,6.4283179149,1518
