green,red,IR,acc_x,acc_y,acc_z,sample_index
103122,159804,185722,1.9932212258000002,-9.0017986212,-3.2889346637,1
103016,159795,185733,2.1798613886,-8.8917287816,-3.3044880106,2
103103,159745,185722,2.0865413072,-8.9060857172,-3.3092736558,3
103118,159760,185726,2.1738793321000003,-8.937192411,-3.2949167202,4
103081,159730,185779,2.0362920326,-8.8713897895,-3.3690942208,5
103208,159756,185749,2.0769700168,-8.872586200799999,-3.3667013982,6
103160,159771,185666,2.0745771942,-8.9778703952,-3.3044880106,7
103174,159755,185733,2.1906290903,-9.0185483794,-3.2650064377,8
103193,159770,185741,2.141576227,-8.918049830200001,-3.3284162366,9
103212,159801,185729,2.0075781614,-8.864211321700001,-3.3403803495999997,10
103227,159801,185718,2.1583259852,-8.9515493466,-3.337987527,11
103281,159795,185760,2.1978075581,-8.748159425599999,-3.2817561959000003,12
103299,159799,185736,2.0745771942,-8.7792661194,-3.2769705507,13
103284,159813,185757,2.057827436,-8.8917287816,-3.2721849055,14
103318,159801,185728,2.1427726383,-8.8450687409,-3.3595229304,15
103350,159872,185755,1.9932212258000002,-8.7014993849,-3.2817561959000003,16
103361,159894,185788,2.1643080417,-8.877371846,-3.361915753,17
103361,159884,185772,2.1355941704999997,-8.8785682573,-3.2554351473,18
103336,159855,185758,2.0733807828999997,-9.1298146303,-3.361915753,19
103239,159814,185788,2.0650059038,-8.9419780562,-3.2506495021,20
103133,159851,185695,2.2552353005,-8.757730716,-3.3104700671000002,21
103088,159738,185715,2.2815563491,-8.865407733,-3.2877382523999996,22
103055,159735,185722,2.0075781614,-8.9204426528,-3.3188449462,23
103047,159720,185692,2.1942183242,-8.8163548697,-3.2327033326,24
103074,159740,185692,2.1954147355,-8.7852481759,-3.3020951879999996,25
103130,159725,185700,2.2097716711,-8.930013943199999,-3.2805597846,26
103116,159742,185692,2.0949161863,-8.8307118053,-3.2985059541,27
103144,159743,185718,2.0913269524,-8.873782612100001,-3.326023414,28
103132,159750,185660,2.0673987264,-9.0269232585,-3.2997023654,29
103149,159744,185697,2.0279171535,-8.8845503138,-3.3212377687999997,30
103176,159765,185680,2.2791635265,-8.925228298,-3.3403803495999997,31
103195,159770,185684,2.0410776778,-8.9156570076,-3.2386853891,32
103212,159760,185720,2.1080767106,-8.8498543861,-3.3667013982,33
103227,159769,185706,1.9920248145,-8.8845503138,-3.2494530908,34
103287,159799,185714,1.9884355805999998,-8.9539421692,-3.3044880106,35
103289,159805,185696,2.069791549,-8.8402830957,-3.3690942208,36
103326,159822,185752,2.0961125976,-8.8223369262,-3.3355947043999996,37
103343,159829,185756,2.0949161863,-8.872586200799999,-3.3523444626,38
103357,159845,185747,2.0638094925,-8.85344362,-3.3188449462,39
103361,159845,185779,2.0159530405,-8.876175434699999,-3.314059301,40
103300,159852,185720,2.0434705004000002,-8.8426759183,-3.2410782117,41
103200,159853,185765,2.1152551784,-8.8821574912,-3.2985059541,42
103118,159762,185733,2.0171494518,-8.831908216599999,-3.3176485349,43
103090,159727,185730,2.1427726383,-8.8546400313,-3.3020951879999996,44
103055,159757,185720,2.189432679,-8.9898345082,-3.2997023654,45
103010,159734,185687,2.2624137683,-8.8235333375,-3.2973095428,46
103090,159747,185700,2.0291135648000003,-8.806783579300001,-3.242274623,47
103115,159721,185680,2.2552353005,-8.864211321700001,-3.3212377687999997,48
103128,159722,185694,2.1750757434,-8.8821574912,-3.3954152694,49
103153,159734,185713,2.0566310246999997,-9.0017986212,-3.3068808331999997,50
103158,159750,185702,2.2683958248,-8.8630149104,-3.3499516399999996,51
103175,159772,185658,2.2313070745,-8.8869431364,-3.3738798660000002,52
103165,159766,185705,2.1643080417,-8.8785682573,-3.2973095428,53
103202,159755,185692,2.0566310246999997,-8.757730716,-3.3571301077999998,54
103221,159801,185711,2.1355941704999997,-8.9084785398,-3.3164521235999995,55
103245,159779,185705,2.1188444122999996,-8.9036928946,-3.3427731722,56
103259,159775,185691,2.1367905818,-8.828318982699999,-3.3403803495999997,57
103285,159775,185719,2.141576227,-8.8474615635,-3.3080772444999997,58
103318,159814,185721,1.9920248145,-8.8630149104,-3.2410782117,59
103342,159872,185759,2.1080767106,-8.8103728132,-3.3200413575,60
103371,159824,185736,2.0518453795,-8.9156570076,-3.206382284,61
103322,159836,185770,2.2336998971,-8.9228354754,-3.3415767608999998,62
103262,159872,185694,2.1690936869,-8.9862452743,-3.3882368016,63
103173,159750,185727,2.1822542112,-8.877371846,-3.3810583338,64
103087,159708,185693,2.0434705004000002,-8.926424709299999,-3.3738798660000002,65
103073,159671,185672,2.1080767106,-8.864211321700001,-3.397808092,66
102972,159657,185681,1.9908284031999999,-8.877371846,-3.2315069213,67
103062,159702,185704,2.2671994135,-8.9060857172,-3.3882368016,68
103091,159762,185703,2.1726829208,-8.8271225714,-3.3355947043999996,69
103117,159665,185661,2.0769700168,-8.889335959,-3.3475588174,70
103143,159703,185662,2.117648001,-8.8091764019,-3.2614172038,71
103141,159661,185681,2.1439690496,-8.926424709299999,-3.2159535744,72
103166,159696,185671,2.0518453795,-8.889335959,-3.2410782117,73
103147,159719,185686,2.1511475174,-9.0580299523,-3.2446674455999998,74
103185,159711,185741,2.1332013479,-8.8211405149,-3.3355947043999996,75
103223,159718,185730,2.0865413072,-8.805587167999999,-3.3427731722,76
103219,159716,185707,2.0685951377,-8.930013943199999,-3.2362925665,77
103242,159753,185703,2.0985054202,-8.7804625307,-3.3044880106,78
103281,159741,185722,2.1906290903,-8.8797646686,-3.3667013982,79
103304,159755,185734,1.998006871,-8.9407816449,-3.3332018818,80
103316,159796,185763,2.2719850587,-8.9324067658,-3.2733813167999997,81
103346,159779,185752,2.1870398563999998,-8.831908216599999,-3.2865418411,82
103287,159815,185736,2.0039889275,-8.8354974505,-3.3092736558,83
103326,159833,185773,2.117648001,-8.8450687409,-3.3343982931,84
103231,159824,185742,2.1355941704999997,-8.864211321700001,-3.361915753,85
103142,159746,185724,2.141576227,-8.829515394,-3.3355947043999996,86
103076,159723,185752,2.1080767106,-8.9922273308,-3.3678978095,87
103054,159689,185702,1.9908284031999999,-8.885746725099999,-3.2829526072,88
103043,159700,185721,2.1511475174,-8.7804625307,-3.3367911156999996,89
103074,159664,185675,2.093719775,-8.8797646686,-3.3427731722,90
103094,159700,185679,2.1619152191,-8.9874416856,-3.3020951879999996,91
103125,159690,185707,2.1391834043999998,-8.9204426528,-3.2075786953,92
103128,159739,185738,2.1631116304,-8.8019979341,-3.3942188581,93
103161,159707,185685,2.177468566,-8.8749790234,-3.2793633733,94
103131,159673,185728,2.1475582835,-8.707481441399999,-3.2949167202,95
103185,159744,185768,2.0721843716,-8.9455672901,-3.3451659948,96
103184,159718,185747,2.1080767106,-8.7876409985,-3.2745777280999997,97
103230,159734,185722,2.129612114,-8.7804625307,-3.2853454298,98
103233,159748,185711,2.0721843716,-8.970691927399999,-3.2925238975999997,99
103283,159743,185711,2.0985054202,-8.8426759183,-3.2913274863,100
103278,159770,185762,2.1260228801,-8.8558364426,-3.2267212761,101
103327,159803,185739,2.1942183242,-8.8905323703,-3.2757741394,102
103326,159782,185725,2.0685951377,-8.8678005556,-3.3427731722,103
103361,159818,185784,2.1978075581,-8.9479601127,-3.3367911156999996,104
103363,159869,185737,1.9920248145,-8.9347995884,-3.2518459134,105
103311,159834,185765,2.0865413072,-8.806783579300001,-3.2566315586,106
103229,159839,185762,2.1798613886,-8.8378902731,-3.2626136151000003,107
103142,159749,185774,2.1272192914,-8.8247297488,-3.3068808331999997,108
103064,159695,185709,2.1379869930999997,-8.8689969669,-3.2506495021,109
103084,159738,185724,2.1128623558,-9.0364945489,-3.2889346637,110
102974,159700,185715,2.1475582835,-8.9036928946,-3.2805597846,111
103107,159680,185703,2.1236300575,-8.865407733,-3.2350961552,112
103147,159732,185692,2.0925233637,-8.9946201534,-3.2279176874,113
103141,159678,185700,2.105683888,-8.9036928946,-3.2805597846,114
103151,159660,185685,2.1511475174,-9.0149591455,-3.3403803495999997,115
103158,159681,185689,2.2013967919999997,-8.8989072494,-3.3499516399999996,116
103189,159686,185687,2.1403798157,-8.9228354754,-3.23031051,117
103194,159683,185654,2.0841484846,-8.9072821285,-3.2614172038,118
103253,159698,185717,2.057827436,-8.9922273308,-3.3020951879999996,119
103226,159714,185719,2.1702900981999997,-8.9347995884,-3.3643085755999995,120
103260,159730,185741,2.0913269524,-8.8390866844,-3.2685956716,121
103265,159740,185714,2.2205393728,-8.8689969669,-3.2530423247,122
103288,159765,185724,2.1272192914,-8.9539421692,-3.2889346637,123
103306,159784,185769,2.2336998971,-8.9659062822,-3.3200413575,124
103379,159771,185756,2.1810577999,-8.8606220878,-3.2650064377,125
103363,159803,185735,2.03389921,-9.0053878551,-3.3308090592,126
103360,159785,185801,2.057827436,-8.8809610799,-3.2219356309,127
103296,159772,185784,1.9214365478,-8.97308475,-3.3068808331999997,128
103208,159752,185727,2.1260228801,-8.877371846,-3.4265219632000004,129
103132,159735,185772,2.0410776778,-8.8797646686,-3.3355947043999996,130
103088,159706,185744,2.2432711875,-8.9204426528,-3.3930224468000003,131
103098,159642,185700,2.2049860259000003,-8.9204426528,-3.2494530908,132
103096,159657,185713,2.1391834043999998,-8.8558364426,-3.1872397032,133
103144,159667,185718,2.1702900981999997,-8.9084785398,-3.3427731722,134
103151,159676,185659,2.1020946541,-8.8965144268,-3.3667013982,135
103176,159706,185660,2.1367905818,-8.9682991048,-3.361915753,136
103198,159697,185716,2.2025932033,-8.8139620471,-3.2733813167999997,137
103185,159678,185757,2.177468566,-8.8845503138,-3.4241291406,138
103216,159700,185698,2.1667008643,-8.9563349918,-3.2602207924999997,139
103227,159692,185728,2.1738793321000003,-8.9874416856,-3.2578279699,140
103257,159729,185739,2.105683888,-8.817551281,-3.2578279699,141
103271,159714,185744,2.1272192914,-8.9862452743,-3.3403803495999997,142
103357,159766,185776,2.1714865095,-8.9539421692,-3.361915753,143
103323,159731,185717,2.1690936869,-8.8809610799,-3.2362925665,144
103339,159789,185689,2.0865413072,-8.8809610799,-3.278166962,145
103375,159790,185794,2.0841484846,-8.9216390641,-3.3762726886,146
103389,159803,185809,2.2863419943,-8.748159425599999,-3.3343982931,147
103404,159826,185801,2.0315063874,-8.8905323703,-3.3678978095,148
103366,159821,185801,2.0614166699,-8.916853418899999,-3.2877382523999996,149
103277,159847,185798,2.093719775,-8.9898345082,-3.3930224468000003,150
103227,159766,185789,2.0769700168,-8.7900338211,-3.3008987767,151
103171,159718,185763,2.1080767106,-8.7876409985,-3.2961131315000003,152
103133,159729,185749,2.1367905818,-8.873782612100001,-3.3068808331999997,153
103142,159715,185771,2.0793628394,-8.876175434699999,-3.3212377687999997,154
103148,159696,185761,2.1559331626,-8.9324067658,-3.3690942208,155
103168,159723,185759,2.1128623558,-8.8606220878,-3.2997023654,156
103184,159739,185741,2.1200408236,-8.9659062822,-3.3954152694,157
103214,159718,185727,2.141576227,-9.0077806777,-3.3487552287,158
103226,159708,185787,2.0925233637,-8.9347995884,-3.3248270027,159
103237,159753,185779,2.1080767106,-8.8881395477,-3.266202849,160
103261,159764,185760,2.1990039694,-8.8905323703,-3.3236305914,161
103272,159781,185769,2.1882362677000002,-8.885746725099999,-3.3403803495999997,162
103307,159769,185771,2.0422740890999997,-8.806783579300001,-3.3714870434,163
103344,159792,185790,2.0865413072,-8.931210354500001,-3.3092736558,164
103353,159805,185798,2.0961125976,-8.864211321700001,-3.1621150658999997,165
103380,159834,185818,2.0745771942,-8.9467637014,-3.3212377687999997,166
103414,159834,185812,2.0985054202,-8.8558364426,-3.2542387359999996,167
103467,159883,185818,2.0614166699,-8.8103728132,-3.314059301,168
103447,159889,185812,2.081755662,-8.9479601127,-3.3451659948,169
103473,159882,185856,1.9824535241,-8.925228298,-3.3332018818,170
103454,159901,185866,2.1152551784,-9.0843510009,-3.206382284,171
103382,159793,185832,2.1463618722,-8.9419780562,-3.3798619225,172
103301,159860,185807,2.0901305410999997,-8.7732840629,-3.2853454298,173
103256,159806,185829,2.1786649773,-8.9060857172,-3.3176485349,174
103235,159811,185786,2.1595223965,-8.9946201534,-3.2925238975999997,175
103271,159792,185816,2.1738793321000003,-8.8989072494,-3.3044880106,176
103237,159795,185787,2.0913269524,-8.8510507974,-3.2685956716,177
103283,159814,185824,2.0554346134,-8.8259261601,-3.2973095428,178
103294,159799,185777,2.1667008643,-8.937192411,-3.2805597846,179
103298,159718,185779,2.0745771942,-8.8163548697,-3.3284162366,180
103301,159775,185814,2.0889341298,-8.8450687409,-3.2877382523999996,181
103308,159840,185810,2.0769700168,-9.0281196698,-3.2853454298,182
103367,159839,185766,2.0315063874,-8.9001036607,-3.3248270027,183
103347,159802,185813,2.0027925162,-8.85344362,-3.2434710343,184
103386,159820,185829,2.1248264688,-8.7972122889,-3.3427731722,185
103435,159830,185827,2.1152551784,-8.9036928946,-3.3643085755999995,186
103413,159841,185796,1.9609181207,-8.885746725099999,-3.3690942208,187
103455,159862,185817,2.0075781614,-8.9419780562,-3.326023414,188
103452,159862,185811,2.0841484846,-8.9120677737,-3.2446674455999998,189
103484,159881,185834,2.2037896146,-8.889335959,-3.2733813167999997,190
103503,159941,185831,2.1080767106,-8.8618184991,-3.3643085755999995,191
103530,159920,185845,2.0303099761,-8.9587278144,-3.4025937372,192
103517,159937,185865,2.1810577999,-8.944370878800001,-3.3595229304,193
103384,159866,185843,2.2145573163,-8.8378902731,-3.361915753,194
103360,159865,185863,2.1451654609,-8.761319949899999,-3.3355947043999996,195
103320,159800,185863,2.1032910654,-8.9922273308,-3.326023414,196
103305,159857,185837,2.1104695332,-8.9347995884,-3.2829526072,197
103299,159847,185816,2.0087745727,-8.819944103600001,-3.3272198253,198
103316,159801,185814,2.2600209457,-8.9778703952,-3.2769705507,199
103285,159828,185800,2.0733807828999997,-8.9551385805,-3.2733813167999997,200
103347,159786,185805,2.2037896146,-8.7469630143,-3.337987527,201
103374,159828,185844,2.2743778813,-8.9156570076,-3.4025937372,202
103380,159819,185813,2.1822542112,-8.937192411,-3.3020951879999996,203
103390,159811,185786,2.1008982428,-8.8450687409,-3.2614172038,204
103409,159824,185815,2.0470597343,-8.8211405149,-3.2853454298,205
103405,159838,185844,2.0087745727,-8.9276211206,-3.3008987767,206
103508,159842,185820,2.081755662,-8.8917287816,-3.3786655112000004,207
103458,159873,185819,2.2947168733999996,-8.8797646686,-3.3104700671000002,208
103430,159900,185847,2.0446669117,-8.9946201534,-3.3236305914,209
103534,159887,185834,2.1343977592,-8.8713897895,-3.2793633733,210
103515,159882,185846,2.0171494518,-9.0221376133,-3.3092736558,211
103517,159897,185830,2.093719775,-8.9479601127,-3.2709884942,212
103541,159901,185824,2.0662023151,-8.8235333375,-3.397808092,213
103577,159882,185853,2.1248264688,-9.055637129700001,-3.3834511564,214
103536,159887,185890,2.1379869930999997,-9.006584266399999,-3.2602207924999997,215
103486,159891,185906,2.1571295739000003,-8.7876409985,-3.2853454298,216
103392,159916,185852,2.1906290903,-8.7673020064,-3.3128628897,217
103406,159892,185884,2.1523439287,-9.0029950325,-3.337987527,218
103381,159907,185878,2.0877377184999997,-9.0041914438,-3.3451659948,219
103370,159865,185892,2.1906290903,-8.7433737804,-3.3164521235999995,220
103400,159817,185854,2.2576281231,-8.8079799906,-3.3475588174,221
103383,159819,185842,2.1846470338,-9.0077806777,-3.2578279699,222
103329,159841,185817,2.1726829208,-9.0843510009,-3.2757741394,223
103428,159818,185811,2.1092731219,-8.9910309195,-3.2757741394,224
103407,159791,185821,2.1200408236,-8.925228298,-3.2805597846,225
103435,159836,185813,2.1750757434,-8.8701933782,-3.4767712378,226
103450,159840,185862,2.2911276395,-8.859425676499999,-3.3236305914,227
103495,159900,185838,2.3330020350000003,-8.9515493466,-3.2877382523999996,228
103517,159896,185838,2.0350956213,-8.8582292652,-3.2614172038,229
103528,159928,185855,2.2396819536,-8.8678005556,-3.3068808331999997,230
103626,159911,185871,2.117648001,-8.8965144268,-3.3212377687999997,231
103599,159927,185859,2.0135602179,-9.050851484499999,-3.2255248647999997,232
103589,159929,185831,2.1547367513,-8.8546400313,-3.2685956716,233
103601,159928,185907,2.141576227,-8.9120677737,-3.2877382523999996,234
103626,159940,185840,2.1236300575,-8.9084785398,-3.2470602682000003,235
103641,159978,185884,2.1463618722,-8.9682991048,-3.2147571631,236
103636,159957,185893,2.0243279196,-8.930013943199999,-3.2949167202,237
103578,159919,185885,2.1906290903,-8.9455672901,-3.3954152694,238
103511,159908,185885,2.1499511061,-8.9910309195,-3.2913274863,239
103456,159943,185849,1.9657037659,-9.037690960199999,-3.278166962,240
103483,159911,185850,2.1667008643,-9.0185483794,-3.361915753,241
103441,159876,185837,2.1930219129,-8.925228298,-3.1956145822999997,242
103431,159858,185810,2.1320049366,-8.931210354500001,-3.337987527,243
103470,159836,185841,2.1008982428,-8.9407816449,-3.314059301,244
103477,159860,185826,2.0721843716,-8.8091764019,-3.3523444626,245
103478,159856,185816,2.0566310246999997,-8.9347995884,-3.385843979,246
103524,159839,185806,2.1499511061,-8.8522472087,-3.337987527,247
103494,159853,185799,2.1451654609,-8.985048863000001,-3.3236305914,248
103506,159819,185813,2.1080767106,-8.859425676499999,-3.2697920829,249
103544,159839,185838,2.1080767106,-8.9539421692,-3.3104700671000002,250
103542,159859,185848,2.0973090089,-8.9347995884,-3.326023414,251
103566,159836,185824,2.1619152191,-8.9024964833,-3.4109686163,252
103569,159882,185841,2.0530417908,-8.8163548697,-3.278166962,253
103611,159828,185802,2.1104695332,-8.8929251929,-3.4049865597999998,254
103610,159870,185863,2.2336998971,-8.8749790234,-3.4360932536,255
103630,159950,185871,2.0267207422,-8.9240318867,-3.2925238975999997,256
103678,159957,185857,2.1224336462,-8.8965144268,-3.3786655112000004,257
103674,159974,185917,2.1224336462,-8.8941216042,-3.337987527,258
103673,160009,185891,2.021935097,-8.985048863000001,-3.3116664784,259
103608,159957,185905,2.0207386857,-8.901300072,-3.3044880106,260
103535,159911,185852,2.2683958248,-8.865407733,-3.385843979,261
103490,159897,185880,2.1499511061,-8.8570328539,-3.4002009146,262
103463,159859,185880,2.2480568327,-8.841479506999999,-3.2913274863,263
103449,159867,185847,2.1954147355,-8.9742811613,-3.3547372851999997,264
103503,159836,185817,2.1020946541,-8.9922273308,-3.3224341800999997,265
103523,159873,185834,2.1200408236,-8.901300072,-3.2446674455999998,266
103493,159843,185855,2.0961125976,-8.961120637,-3.3212377687999997,267
103488,159813,185820,2.2145573163,-8.876175434699999,-3.337987527,268
103491,159828,185804,2.1667008643,-8.7840517646,-3.3188449462,269
103512,159857,185826,2.1439690496,-8.9718883387,-3.2518459134,270
103507,159822,185851,2.2049860259000003,-9.0113699116,-3.3284162366,271
103529,159830,185850,2.0470597343,-8.9240318867,-3.3164521235999995,272
103577,159853,185860,2.1343977592,-8.8223369262,-3.2350961552,273
103480,159881,185889,2.1116659445,-8.8522472087,-3.2985059541,274
103587,159877,185816,2.117648001,-8.8450687409,-3.3667013982,275
103603,159910,185857,2.0506489682,-8.8235333375,-3.2877382523999996,276
103659,159923,185844,2.1559331626,-8.8378902731,-3.2566315586,277
103659,159932,185863,2.1080767106,-8.885746725099999,-3.2709884942,278
103687,159927,185886,2.0805592507,-8.9946201534,-3.3930224468000003,279
103701,159980,185866,2.0111673952999998,-8.9922273308,-3.3451659948,280
103608,159980,185901,2.0913269524,-9.0077806777,-3.3116664784,281
103618,159907,185909,2.2121644937,-8.8965144268,-3.2913274863,282
103517,159908,185915,2.1236300575,-8.8630149104,-3.266202849,283
103496,159876,185882,2.1200408236,-8.8833539025,-3.3092736558,284
103477,159865,185851,2.0554346134,-8.9060857172,-3.290131075,285
103478,159851,185845,2.117648001,-8.8618184991,-3.3966116807,286
103495,159840,185853,2.0745771942,-8.961120637,-3.2973095428,287
103502,159880,185843,2.1224336462,-8.8905323703,-3.3427731722,288
103539,159842,185836,2.0889341298,-9.0891366461,-3.3068808331999997,289
103522,159850,185849,2.1284157027,-8.859425676499999,-3.3188449462,290
103532,159827,185855,2.1451654609,-8.885746725099999,-3.3332018818,291
103535,159849,185828,2.1128623558,-8.9383888223,-3.2889346637,292
103558,159848,185845,2.0961125976,-8.9874416856,-3.3451659948,293
103528,159859,185822,2.0470597343,-8.876175434699999,-3.3499516399999996,294
103594,159898,185824,2.1738793321000003,-8.8366938618,-3.2769705507,295
103601,159866,185866,2.1702900981999997,-8.752945070800001,-3.3667013982,296
103626,159903,185853,2.0482561456,-8.8139620471,-3.397808092,297
103621,159898,185854,2.0745771942,-8.819944103600001,-3.2697920829,298
103670,159922,185883,2.117648001,-8.8307118053,-3.314059301,299
103691,159894,185857,1.9932212258000002,-9.006584266399999,-3.3188449462,300
103703,159928,185861,2.2121644937,-8.876175434699999,-3.3128628897,301
103711,159886,185848,2.0530417908,-8.9084785398,-3.314059301,302
103683,159931,185848,2.0470597343,-8.8785682573,-3.2542387359999996,303
103606,159874,185848,2.081755662,-8.9587278144,-3.337987527,304
103537,159872,185830,1.9609181207,-8.937192411,-3.3224341800999997,305
103501,159788,185797,2.2169501389,-8.8307118053,-3.3499516399999996,306
103462,159825,185812,2.0913269524,-9.056833541,-3.3308090592,307
103473,159821,185833,2.057827436,-8.961120637,-3.2889346637,308
103510,159782,185812,2.1391834043999998,-8.889335959,-3.3427731722,309
103544,159807,185803,2.1032910654,-8.7912302324,-3.314059301,310
103519,159824,185774,2.1080767106,-8.8630149104,-3.4049865597999998,311
103432,159816,185821,2.0889341298,-8.833104627900001,-3.337987527,312
103559,159806,185808,2.0793628394,-8.8917287816,-3.2949167202,313
103547,159809,185808,2.1212372348999997,-8.961120637,-3.3355947043999996,314
103565,159844,185809,2.1571295739000003,-8.930013943199999,-3.385843979,315
103585,159865,185847,2.0255243308999997,-8.7972122889,-3.3308090592,316
103610,159850,185840,1.9932212258000002,-8.9108713624,-3.326023414,317
103609,159879,185864,2.0985054202,-8.8378902731,-3.2913274863,318
103630,159888,185866,2.045863323,-8.8223369262,-3.3547372851999997,319
103653,159906,185869,1.9812571127999998,-8.939585233599999,-3.4049865597999998,320
103642,159894,185876,2.1547367513,-8.9336031771,-3.2829526072,321
103695,159940,185888,2.1511475174,-8.8522472087,-3.3332018818,322
103706,159988,185888,2.1714865095,-8.97308475,-3.2554351473,323
103765,159961,185901,2.2002003807,-8.8821574912,-3.3020951879999996,324
103668,159948,185888,1.9872391693,-8.8749790234,-3.3427731722,325
103612,159930,185908,2.2552353005,-8.805587167999999,-3.3116664784,326
103536,159919,185918,2.1367905818,-8.8079799906,-3.3511480513,327
103484,159870,185852,2.1463618722,-8.9479601127,-3.3583265191000002,328
103537,159852,185879,2.093719775,-8.8678005556,-3.2410782117,329
103471,159850,185855,2.0865413072,-8.877371846,-3.3164521235999995,330
103485,159851,185834,2.1427726383,-8.8905323703,-3.2673992603000004,331
103463,159845,185850,2.0075781614,-8.806783579300001,-3.3188449462,332
103507,159834,185842,1.9489540077,-9.0352981376,-3.3020951879999996,333
103532,159862,185854,2.2600209457,-8.949156524,-3.3451659948,334
103552,159805,185815,2.2169501389,-8.8989072494,-3.2219356309,335
103542,159847,185875,2.1547367513,-8.8701933782,-3.2877382523999996,336
103533,159844,185830,1.9465611851,-8.876175434699999,-3.2913274863,337
103614,159877,185854,2.0171494518,-9.0580299523,-3.2721849055,338
103577,159873,185868,2.0673987264,-8.8043907567,-3.3810583338,339
103601,159858,185828,1.9824535241,-8.8223369262,-3.3116664784,340
103615,159879,185888,2.0901305410999997,-8.9060857172,-3.3128628897,341
103637,159911,185857,2.0434705004000002,-8.9898345082,-3.2638100264,342
103676,159926,185871,2.1750757434,-8.8809610799,-3.2458638569,343
103670,159939,185864,2.0602202586000002,-8.937192411,-3.3930224468000003,344
103701,159933,185847,2.1272192914,-8.8127656358,-3.2925238975999997,345
103671,159914,185905,2.1810577999,-8.8498543861,-3.2147571631,346
103643,159955,185918,2.165504453,-8.949156524,-3.3020951879999996,347
103567,159948,185906,2.1379869930999997,-8.7601235386,-3.3164521235999995,348
103559,159873,185845,2.1367905818,-8.9874416856,-3.3236305914,349
103481,159865,185819,2.0793628394,-8.9802632178,-3.2937203089,350
103449,159817,185806,2.15354034,-8.8965144268,-3.2338997439000003,351
103468,159812,185813,2.0051853388,-8.9204426528,-3.2709884942,352
103490,159840,185845,2.1260228801,-8.7553378934,-3.337987527,353
103512,159811,185804,2.117648001,-8.877371846,-3.3020951879999996,354
103490,159834,185827,2.2528424779,-8.8438723296,-3.3116664784,355
103527,159828,185847,2.0530417908,-8.7960158776,-3.3595229304,356
103496,159797,185840,2.1343977592,-8.8833539025,-3.3020951879999996,357
103534,159846,185810,2.1152551784,-8.8366938618,-3.2446674455999998,358
103534,159799,185821,2.237289131,-8.8749790234,-3.4277183745,359
103557,159849,185863,2.1032910654,-8.8426759183,-3.3547372851999997,360
103554,159806,185821,2.1714865095,-8.9635134596,-3.2626136151000003,361
103589,159865,185773,2.1487546948,-8.8450687409,-3.2853454298,362
103593,159889,185828,2.1547367513,-8.9156570076,-3.3475588174,363
103666,159894,185840,2.1391834043999998,-8.8701933782,-3.278166962,364
103640,159895,185846,2.1990039694,-8.8211405149,-3.3523444626,365
103665,159936,185879,2.1068802992999998,-8.818747692299999,-3.3236305914,366
103659,159942,185848,1.9597217094,-8.9276211206,-3.1932217597,367
103656,159911,185894,2.0769700168,-8.918049830200001,-3.2291140987,368
103587,159896,185828,2.1367905818,-8.9144605963,-3.3212377687999997,369
103505,159872,185863,2.0327027987,-8.9742811613,-3.2554351473,370
103459,159858,185833,2.0889341298,-8.9407816449,-3.2769705507,371
103454,159880,185820,2.0650059038,-8.9826560404,-3.3499516399999996,372
103436,159834,185786,2.0350956213,-8.8019979341,-3.2937203089,373
103457,159834,185810,2.1248264688,-8.8522472087,-3.3451659948,374
103485,159816,185808,2.0841484846,-8.9647098709,-3.3188449462,375
103527,159795,185808,2.1320049366,-8.8235333375,-3.2997023654,376
103528,159809,185810,2.1690936869,-8.9647098709,-3.3738798660000002,377
103502,159823,185798,2.297109696,-9.0041914438,-3.3284162366,378
103491,159797,185800,2.1499511061,-9.0520478958,-3.3882368016,379
103490,159770,185779,2.2061824372,-8.9467637014,-3.3762726886,380
103503,159821,185790,2.1308085253,-8.8713897895,-3.2889346637,381
103525,159818,185801,2.0195422744,-8.9072821285,-3.2805597846,382
103529,159817,185846,2.2360927197000002,-8.9383888223,-3.2925238975999997,383
103559,159835,185814,2.057827436,-8.873782612100001,-3.3667013982,384
103573,159846,185813,2.1080767106,-8.9228354754,-3.2961131315000003,385
103595,159851,185803,2.1882362677000002,-8.925228298,-3.2805597846,386
103588,159847,185840,2.0745771942,-8.8390866844,-3.3116664784,387
103626,159842,185835,2.1834506225,-8.7756768855,-3.218346397,388
103641,159863,185867,2.1511475174,-8.774480474199999,-3.3308090592,389
103566,159861,185867,2.0949161863,-8.8881395477,-3.3272198253,390
103489,159821,185845,2.093719775,-8.828318982699999,-3.3176485349,391
103414,159801,185808,2.1367905818,-8.9240318867,-3.4432717214,392
103381,159762,185799,2.1619152191,-8.9276211206,-3.4313076084,393
103370,159738,185785,2.1511475174,-8.9994057986,-3.2530423247,394
103425,159746,185761,2.1200408236,-9.0341017263,-3.3523444626,395
103387,159724,185794,2.2002003807,-8.8582292652,-3.3308090592,396
103368,159735,185793,2.2073788485,-8.8833539025,-3.4073793824000003,397
103388,159733,185790,2.0745771942,-8.9503529353,-3.3212377687999997,398
103385,159736,185773,2.1284157027,-8.9288175319,-3.3762726886,399
103407,159746,185827,2.1367905818,-8.9084785398,-3.2961131315000003,400
103417,159698,185770,2.0434705004000002,-8.9324067658,-3.2877382523999996,401
103429,159745,185787,2.1355941704999997,-8.8522472087,-3.2769705507,402
103435,159759,185801,2.1439690496,-8.9515493466,-3.2961131315000003,403
103457,159764,185770,2.2528424779,-8.7996051115,-3.326023414,404
103481,159752,185778,2.045863323,-8.9790668065,-3.2709884942,405
103496,159785,185788,2.1008982428,-8.9108713624,-3.2638100264,406
103514,159814,185808,2.105683888,-8.818747692299999,-3.3738798660000002,407
103552,159844,185822,2.117648001,-8.889335959,-3.3738798660000002,408
103564,159849,185849,2.1403798157,-8.846265152199999,-3.4229327293,409
103571,159841,185802,2.0063817501,-8.975477572600001,-3.2650064377,410
103529,159870,185838,2.2013967919999997,-8.939585233599999,-3.1980074049,411
103450,159778,185844,2.0362920326,-8.8869431364,-3.3547372851999997,412
103378,159811,185766,2.0135602179,-8.7469630143,-3.3631121643,413
103313,159771,185829,2.0123638066000002,-8.8606220878,-3.1956145822999997,414
103319,159753,185740,2.0889341298,-8.9204426528,-3.2697920829,415
103251,159688,185779,2.1140587671,-8.8510507974,-3.2769705507,416
103260,159732,185768,2.0829520733,-8.9024964833,-3.3284162366,417
103272,159741,185738,2.081755662,-8.9635134596,-3.3499516399999996,418
103313,159697,185751,2.1044874766999997,-8.8438723296,-3.2470602682000003,419
103290,159696,185768,1.9393827173,-8.889335959,-3.3511480513,420
103282,159730,185761,2.1451654609,-8.925228298,-3.3762726886,421
103229,159696,185729,2.0123638066000002,-8.8749790234,-3.2650064377,422
103331,159712,185769,2.1020946541,-8.937192411,-3.2949167202,423
103336,159725,185776,2.1858434451,-8.925228298,-3.2793633733,424
103359,159712,185811,2.0195422744,-8.8450687409,-3.3188449462,425
103392,159725,185761,2.0207386857,-8.8271225714,-3.3080772444999997,426
103398,159749,185780,2.1583259852,-8.8558364426,-3.3248270027,427
103360,159762,185814,2.177468566,-8.7996051115,-3.3475588174,428
103447,159771,185781,2.009970984,-8.8354974505,-3.3714870434,429
103503,159810,185815,2.105683888,-8.9802632178,-3.3667013982,430
103482,159811,185786,2.261217357,-8.985048863000001,-3.3032915993,431
103487,159800,185837,2.045863323,-8.9659062822,-3.2590243811999997,432
103448,159816,185802,2.1427726383,-8.9108713624,-3.2482566795000003,433
103371,159771,185754,1.9836499354,-8.930013943199999,-3.3667013982,434
103268,159723,185760,2.0877377184999997,-8.985048863000001,-3.3308090592,435
103202,159717,185776,2.0626130812,-8.8977108381,-3.3176485349,436
103191,159681,185764,2.0051853388,-8.9515493466,-3.3332018818,437
103189,159710,185702,2.0769700168,-8.8474615635,-3.2733813167999997,438
103259,159654,185749,2.0889341298,-8.9886380969,-3.3355947043999996,439
103215,159662,185731,2.2456640101,-8.8977108381,-3.3714870434,440
103301,159669,185703,2.1571295739000003,-8.8343010392,-3.4061829711000002,441
103239,159675,185734,2.0745771942,-8.8941216042,-3.4085757937,442
103302,159644,185738,2.1080767106,-8.918049830200001,-3.2566315586,443
103240,159637,185743,2.0410776778,-8.8402830957,-3.2793633733,444
103302,159666,185710,2.0386848552,-8.918049830200001,-3.314059301,445
103277,159690,185723,2.069791549,-8.8749790234,-3.2853454298,446
103323,159640,185731,2.0315063874,-8.9694955161,-3.4025937372,447
103319,159650,185721,2.1391834043999998,-8.8630149104,-3.3690942208,448
103340,159671,185739,2.03389921,-8.9204426528,-3.2530423247,449
103360,159714,185704,2.1355941704999997,-8.9946201534,-3.290131075,450
103380,159744,185735,2.0602202586000002,-8.9036928946,-3.290131075,451
103397,159707,185750,2.1343977592,-8.9551385805,-3.3942188581,452
103377,159716,185757,2.261217357,-9.0173519681,-3.3523444626,453
103405,159744,185776,2.0877377184999997,-8.9383888223,-3.2470602682000003,454
103369,159736,185762,2.1248264688,-8.9001036607,-3.2530423247,455
103262,159663,185698,2.0506489682,-8.9419780562,-3.4002009146,456
103184,159648,185718,2.1355941704999997,-8.7445701917,-3.3810583338,457
103119,159643,185725,2.15354034,-8.9958165647,-3.4073793824000003,458
103089,159591,185748,2.0410776778,-8.9324067658,-3.3738798660000002,459
103025,159612,185697,2.1367905818,-8.937192411,-3.3643085755999995,460
103118,159586,185692,2.0997018315,-8.9084785398,-3.2673992603000004,461
103134,159585,185682,2.2121644937,-8.8749790234,-3.326023414,462
103202,159594,185708,2.0434705004000002,-8.873782612100001,-3.3595229304,463
103181,159561,185719,2.0961125976,-8.7684984177,-3.2602207924999997,464
103174,159612,185717,2.1714865095,-8.8546400313,-3.2386853891,465
103187,159598,185680,2.1762721547,-8.9682991048,-3.2207392196,466
103211,159634,185701,2.0745771942,-8.8869431364,-3.3523444626,467
103224,159613,185724,2.0327027987,-8.8486579748,-3.3810583338,468
103247,159663,185685,2.1008982428,-8.9455672901,-3.3427731722,469
103273,159672,185696,2.0482561456,-8.8031943454,-3.3595229304,470
103327,159643,185709,2.1391834043999998,-8.8929251929,-3.2219356309,471
103310,159667,185767,1.9405791285999998,-8.8881395477,-3.2877382523999996,472
103336,159674,185716,2.0243279196,-8.8749790234,-3.3188449462,473
103334,159700,185719,2.0865413072,-8.9587278144,-3.3559336964999997,474
103381,159711,185762,2.0961125976,-8.9539421692,-3.2769705507,475
103368,159765,185765,2.1439690496,-8.8618184991,-3.2626136151000003,476
103321,159717,185767,2.1990039694,-8.926424709299999,-3.3212377687999997,477
103201,159670,185699,2.1224336462,-8.7732840629,-3.3415767608999998,478
103099,159652,185726,2.1008982428,-8.7517486595,-3.2853454298,479
103071,159603,185721,2.1308085253,-8.9790668065,-3.2961131315000003,480
103033,159563,185701,2.1008982428,-8.926424709299999,-3.385843979,481
103043,159543,185688,2.2289142519,-8.944370878800001,-3.385843979,482
103052,159601,185738,2.2325034857999997,-8.9766739839,-3.2650064377,483
103075,159583,185632,2.1822542112,-8.8666041443,-3.4181470840999997,484
103098,159562,185638,2.2947168733999996,-8.8941216042,-3.3547372851999997,485
103103,159558,185661,2.1272192914,-8.9635134596,-3.3714870434,486
103065,159584,185677,2.1104695332,-8.9479601127,-3.1932217597,487
103144,159561,185685,2.03389921,-8.865407733,-3.2602207924999997,488
103145,159567,185693,2.045863323,-8.9204426528,-3.2865418411,489
103181,159610,185733,2.1834506225,-8.8977108381,-3.3284162366,490
103197,159612,185711,2.165504453,-8.8797646686,-3.2913274863,491
103263,159609,185675,2.03389921,-8.930013943199999,-3.3332018818,492
103307,159628,185711,1.9764714676,-8.913264185,-3.2817561959000003,493
103288,159684,185729,2.1391834043999998,-8.8522472087,-3.3786655112000004,494
103331,159655,185742,2.1798613886,-8.8749790234,-3.3236305914,495
103333,159692,185730,2.1762721547,-8.9635134596,-3.3164521235999995,496
103345,159691,185725,2.1284157027,-8.8211405149,-3.3523444626,497
103352,159706,185737,2.0566310246999997,-8.877371846,-3.3284162366,498
103292,159625,185727,2.1906290903,-8.9802632178,-3.2554351473,499
103174,159660,185701,2.0542382021,-8.9108713624,-3.3810583338,500
103092,159619,185699,2.0470597343,-8.9156570076,-3.3475588174,501
103056,159592,185676,2.0673987264,-8.8989072494,-3.3212377687999997,502
103022,159581,185700,2.0793628394,-8.9922273308,-3.2602207924999997,503
103063,159588,185709,2.0374884439,-8.7924266437,-3.361915753,504
103007,159551,185644,2.1762721547,-8.9635134596,-3.326023414,505
103094,159554,185665,2.0889341298,-8.9802632178,-3.3451659948,506
103085,159548,185664,2.081755662,-8.8139620471,-3.2350961552,507
103111,159618,185644,2.0051853388,-8.877371846,-3.2697920829,508
103158,159536,185638,2.0865413072,-8.818747692299999,-3.290131075,509
103145,159600,185714,2.1619152191,-8.944370878800001,-3.2949167202,510
103180,159559,185683,2.1451654609,-8.918049830200001,-3.3523444626,511
103185,159591,185644,2.1044874766999997,-8.7720876516,-3.3547372851999997,512
103203,159606,185654,2.2827527603999997,-8.8785682573,-3.2877382523999996,513
103230,159605,185658,2.0985054202,-8.8378902731,-3.2757741394,514
103251,159630,185682,2.1403798157,-8.7948194663,-3.3499516399999996,515
103284,159648,185687,1.9944176371,-9.000602209899998,-3.3320054705,516
103304,159568,185683,2.021935097,-8.8558364426,-3.290131075,517
103317,159644,185687,2.1152551784,-8.97308475,-3.3044880106,518
103320,159665,185713,2.1379869930999997,-8.818747692299999,-3.3427731722,519
103363,159671,185750,2.0410776778,-8.9108713624,-3.3547372851999997,520
103311,159702,185723,2.1332013479,-8.9072821285,-3.3116664784,521
103197,159610,185666,2.0207386857,-8.8498543861,-3.314059301,522
103115,159588,185659,2.1008982428,-8.8845503138,-3.3092736558,523
103059,159589,185684,2.1152551784,-8.8091764019,-3.3164521235999995,524
102933,159556,185687,2.0709879603,-8.9922273308,-3.3236305914,525
103042,159538,185667,2.0386848552,-8.8498543861,-3.3475588174,526
103082,159483,185670,2.009970984,-8.9036928946,-3.3200413575,527
103096,159531,185615,2.1643080417,-8.865407733,-3.3355947043999996,528
103138,159527,185628,2.0446669117,-8.8582292652,-3.4121650276000004,529
103125,159552,185647,2.0841484846,-8.8833539025,-3.4169506728,530
103130,159527,185624,2.0793628394,-9.0676012427,-3.2494530908,531
103150,159522,185687,2.0482561456,-8.944370878800001,-3.409772205,532
103164,159543,185630,2.1427726383,-8.8426759183,-3.2434710343,533
103185,159576,185646,2.0997018315,-8.8498543861,-3.4301111971,534
103214,159609,185696,2.2037896146,-8.8666041443,-3.3810583338,535
103217,159611,185671,2.2002003807,-8.7732840629,-3.3104700671000002,536
103269,159586,185663,2.1463618722,-8.8366938618,-3.3786655112000004,537
103288,159605,185668,2.009970984,-8.8941216042,-3.3212377687999997,538
103304,159619,185704,2.0243279196,-8.9551385805,-3.3906296242,539
103320,159651,185713,2.1343977592,-8.7517486595,-3.3499516399999996,540
103333,159638,185699,2.105683888,-8.8582292652,-3.3284162366,541
103342,159627,185697,2.0865413072,-8.8043907567,-3.2518459134,542
103288,159582,185714,2.0650059038,-8.9898345082,-3.2997023654,543
103181,159605,185661,2.1343977592,-8.8845503138,-3.3068808331999997,544
103102,159576,185674,2.0626130812,-8.8139620471,-3.4037901484999997,545
103060,159502,185659,2.2444675988,-8.9539421692,-3.2338997439000003,546
103070,159609,185656,2.2564317118,-9.3631148338,-3.2434710343,547
103162,159848,185851,2.2887348169,-8.8115692245,-3.46959277,548
103177,159874,185796,2.0135602179,-8.6249290617,-3.5569307949000004,549
103185,159769,185736,2.416750826,-8.4969130526,-3.9553357578,550
103200,159755,185712,2.3736800192,-8.4933238187,-3.912264951,551
103158,159665,185740,2.27318147,-8.8354974505,-3.5976087790999998,552
103104,159609,185704,2.2588245344,-8.818747692299999,-3.4971102299,553
103146,159593,185663,2.2480568327,-8.805587167999999,-3.4839497056,554
103172,159566,185685,2.1702900981999997,-8.8031943454,-3.5928231339,555
103180,159621,185689,2.1786649773,-8.7254276109,-3.6717862797,556
103201,159623,185680,2.2683958248,-8.7996051115,-3.6059836581999996,557
103159,159620,185704,2.1248264688,-8.769694829,-3.6634114006,558
103268,159660,185671,2.2923240508,-8.7194455544,-3.6251262389999996,559
103303,159673,185733,2.0685951377,-8.8247297488,-3.5473595045,560
103355,159683,185745,2.1834506225,-8.865407733,-3.5006994637999997,561
103367,159730,185747,2.0303099761,-8.806783579300001,-3.637090352,562
103392,159749,185770,2.165504453,-8.8678005556,-3.5796626096,563
103400,159776,185770,2.0482561456,-8.7792661194,-3.565305674,564
103370,159779,185782,2.0973090089,-8.8008015228,-3.5270205124,565
103290,159715,185745,2.117648001,-8.7469630143,-3.4277183745,566
103249,159689,185774,2.0662023151,-8.7122670866,-3.5557343836,567
103149,159699,185722,2.0853448959,-8.8749790234,-3.5820554322,568
103120,159663,185742,2.1559331626,-8.913264185,-3.5389846254,569
103160,159646,185725,2.1224336462,-8.8438723296,-3.5581272062,570
103138,159624,185692,2.0913269524,-8.7912302324,-3.5018958750999998,571
103170,159629,185702,2.1762721547,-8.806783579300001,-3.4803604716999996,572
103199,159657,185703,2.1499511061,-8.7110706753,-3.6155549486,573
103193,159633,185719,2.1750757434,-8.841479506999999,-3.684946804,574
103120,159674,185683,2.2025932033,-8.8151584584,-3.4887353508000003,575
103262,159691,185780,2.0769700168,-8.8869431364,-3.5078779316,576
103266,159701,185724,2.2648065909,-8.8558364426,-3.493520996,577
103217,159719,185720,2.0877377184999997,-8.8079799906,-3.4265219632000004,578
103309,159729,185749,2.0745771942,-8.8127656358,-3.541377448,579
103328,159726,185713,2.1930219129,-8.8833539025,-3.5234312785000004,580
103357,159746,185756,2.1954147355,-8.8271225714,-3.5365918028000003,581
103382,159755,185780,2.1224336462,-8.998209387300001,-3.5246276898,582
103403,159755,185763,2.1595223965,-9.000602209899998,-3.5341989802,583
103442,159767,185763,2.1451654609,-8.7852481759,-3.5090743428999995,584
103462,159812,185756,2.0913269524,-8.8390866844,-3.6119657146999997,585
103480,159831,185800,2.1870398563999998,-8.7792661194,-3.5724841418,586
103464,159827,185766,2.1104695332,-8.8271225714,-3.4504501892,587
103413,159827,185784,2.1367905818,-8.817551281,-3.4911281734,588
103330,159704,185752,2.1224336462,-8.806783579300001,-3.457628657,589
103265,159759,185750,2.0183458631,-8.85344362,-3.4301111971,590
103251,159693,185759,1.9872391693,-8.8235333375,-3.4971102299,591
103252,159705,185727,2.1439690496,-8.9659062822,-3.4325040196999996,592
103272,159720,185729,2.1128623558,-8.761319949899999,-3.4719855926,593
103291,159702,185725,1.9716858223999998,-8.9120677737,-3.4671999473999997,594
103310,159702,185734,2.1272192914,-8.8797646686,-3.5090743428999995,595
103338,159721,185769,2.0721843716,-8.761319949899999,-3.4779676491,596
103309,159753,185733,2.1140587671,-8.817551281,-3.4947174072999996,597
103340,159726,185729,2.1032910654,-8.653642932899999,-3.6263226502999997,598
103367,159699,185744,2.0602202586000002,-8.8115692245,-3.4911281734,599
103356,159691,185708,1.9393827173,-8.8510507974,-3.5330025689,600
103412,159696,185701,2.1248264688,-8.865407733,-3.5461630932,601
103410,159716,185743,2.1367905818,-8.8558364426,-3.541377448,602
103426,159734,185746,2.1798613886,-8.7852481759,-3.4325040196999996,603
103444,159756,185768,2.1631116304,-8.721838377,-3.5581272062,604
103485,159722,185745,2.1786649773,-8.7768732968,-3.565305674,605
103510,159777,185763,2.0039889275,-8.817551281,-3.5198420446,606
103525,159755,185723,2.0255243308999997,-8.8115692245,-3.5509487384000002,607
103542,159793,185795,2.0135602179,-8.8678005556,-3.553341561,608
103518,159788,185798,2.1547367513,-8.8223369262,-3.4636107135,609
103457,159809,185776,2.057827436,-8.7900338211,-3.5389846254,610
103425,159739,185795,2.0769700168,-8.7278204335,-3.5042886977,611
103319,159707,185771,2.1786649773,-8.8558364426,-3.5282169237,612
103290,159716,185708,2.0506489682,-8.8127656358,-3.5437702705999996,613
103276,159661,185725,2.2073788485,-8.8366938618,-3.5042886977,614
103288,159665,185694,2.1451654609,-8.8498543861,-3.4863425282,615
103305,159668,185725,2.177468566,-8.9551385805,-3.4863425282,616
103284,159556,185691,2.1918255016,-8.8390866844,-3.6323047068,617
103267,159435,185557,2.165504453,-8.748159425599999,-3.4516466004999997,618
103299,159412,185561,2.0446669117,-8.925228298,-3.5126635768,619
103262,159442,185577,2.0291135648000003,-9.09272588,-3.0329026454999997,620
103274,159428,185582,2.1643080417,-8.876175434699999,-3.2805597846,621
103286,159496,185571,2.1188444122999996,-8.7038922075,-3.5976087790999998,622
103329,159501,185594,2.1104695332,-8.9084785398,-3.4863425282,623
103368,159588,185639,2.1559331626,-8.9072821285,-3.46959277,624
103398,159620,185621,1.9752750562999999,-8.8689969669,-3.5234312785000004,625
103451,159591,185669,2.0051853388,-8.8103728132,-3.4612178908999995,626
103432,159605,185688,2.1762721547,-8.8953180155,-3.4109686163,627
103444,159633,185650,2.117648001,-8.8247297488,-3.3200413575,628
103475,159669,185676,2.1906290903,-8.8235333375,-3.3176485349,629
103477,159713,185687,2.177468566,-8.9001036607,-3.4839497056,630
103437,159631,185681,2.1786649773,-8.8845503138,-3.361915753,631
103369,159560,185619,2.0853448959,-8.8749790234,-3.4875389395,632
103260,159510,185634,2.141576227,-8.944370878800001,-3.4839497056,633
103218,159459,185581,2.1104695332,-8.7768732968,-3.4683963587,634
103166,159438,185599,2.2181465501999997,-8.8079799906,-3.4887353508000003,635
103149,159459,185569,2.1643080417,-8.8043907567,-3.4767712378,636
103154,159437,185567,2.2360927197000002,-8.8809610799,-3.4863425282,637
103163,159488,185541,2.141576227,-8.7637127725,-3.5545379723,638
103204,159465,185584,2.1188444122999996,-8.8223369262,-3.5006994637999997,639
103168,159486,185514,2.1583259852,-8.841479506999999,-3.4815568829999997,640
103243,159479,185571,2.1367905818,-8.6787675702,-3.4301111971,641
103256,159492,185596,2.1918255016,-8.8103728132,-3.421736318,642
103288,159502,185584,2.1463618722,-8.9072821285,-3.4863425282,643
103294,159553,185663,2.2205393728,-8.8917287816,-3.3822547451,644
103327,159575,185642,2.3796620756999998,-8.9467637014,-3.4911281734,645
103368,159601,185663,2.1308085253,-8.8366938618,-3.517449222,646
103421,159644,185655,2.1571295739000003,-8.8247297488,-3.4767712378,647
103418,159644,185652,2.1750757434,-8.8666041443,-3.409772205,648
103442,159670,185697,2.069791549,-8.8606220878,-3.3810583338,649
103423,159695,185703,2.2265214293,-8.9204426528,-3.397808092,650
103494,159719,185691,2.0949161863,-8.8689969669,-3.5521451497000003,651
103504,159769,185739,2.1750757434,-8.8965144268,-3.3750762773,652
103482,159746,185717,2.2121644937,-8.8917287816,-3.4504501892,653
103423,159745,185716,2.2456640101,-8.8031943454,-3.4624143022,654
103371,159719,185689,2.117648001,-8.7038922075,-3.4767712378,655
103307,159695,185683,1.9345970721,-8.85344362,-3.4851461168999998,656
103268,159687,185728,1.9776678789,-8.8749790234,-3.5198420446,657
103266,159677,185677,2.0506489682,-8.831908216599999,-3.4109686163,658
103309,159647,185695,2.0231315083,-8.8223369262,-3.433700431,659
103332,159687,185722,2.0542382021,-8.8211405149,-3.4899317621,660
103344,159681,185703,2.1487546948,-8.831908216599999,-3.4552358344000003,661
103371,159689,185682,2.1702900981999997,-8.708677852700001,-3.4552358344000003,662
103375,159671,185689,2.1403798157,-8.7541414821,-3.4444681327,663
103383,159727,185724,2.1224336462,-8.8821574912,-3.4289147858,664
103394,159745,185710,2.15354034,-8.7792661194,-3.4193434953999997,665
103350,159740,185720,2.0255243308999997,-8.7888374098,-3.4504501892,666
103459,159763,185721,2.1702900981999997,-8.8031943454,-3.337987527,667
103478,159804,185724,2.0889341298,-8.7673020064,-3.493520996,668
103502,159768,185736,2.0135602179,-8.8211405149,-3.4360932536,669
103502,159819,185785,2.2360927197000002,-8.8881395477,-3.4037901484999997,670
103542,159815,185728,2.2947168733999996,-8.9407816449,-3.5078779316,671
103557,159820,185750,2.1008982428,-8.8426759183,-3.4755748265,672
103493,159850,185756,2.1140587671,-8.8701933782,-3.4552358344000003,673
103582,159847,185773,2.1571295739000003,-8.918049830200001,-3.4839497056,674
103572,159863,185767,2.117648001,-8.7876409985,-3.4815568829999997,675
103531,159823,185748,2.1224336462,-8.7158563205,-3.4516466004999997,676
103422,159759,185766,2.0889341298,-8.8019979341,-3.5353953915,677
103357,159717,185733,2.2121644937,-8.781658942,-3.5150563993999997,678
103359,159739,185718,2.1343977592,-8.846265152199999,-3.4887353508000003,679
103387,159705,185718,2.1080767106,-8.913264185,-3.505485109,680
103368,159729,185731,2.117648001,-8.9024964833,-3.5210384559,681
103395,159724,185777,2.1164515897,-8.774480474199999,-3.4815568829999997,682
103343,159733,185701,2.1559331626,-8.8941216042,-3.4492537779,683
103469,159719,185708,2.1260228801,-8.9479601127,-3.4516466004999997,684
103432,159749,185743,2.0350956213,-8.8678005556,-3.4193434953999997,685
103436,159711,185701,2.1343977592,-8.876175434699999,-3.4803604716999996,686
103457,159750,185718,2.1439690496,-8.8366938618,-3.6071800695,687
103477,159762,185730,2.0685951377,-8.7637127725,-3.5521451497000003,688
103489,159779,185778,2.1750757434,-8.8438723296,-3.4815568829999997,689
103456,159746,185725,2.2588245344,-8.8474615635,-3.4205399067,690
103542,159808,185732,2.1080767106,-8.8008015228,-3.4947174072999996,691
103635,159811,185750,2.1152551784,-8.9347995884,-3.505485109,692
103596,159835,185724,2.1786649773,-8.926424709299999,-3.5916267225999996,693
103615,159812,185739,2.1236300575,-8.8941216042,-3.457628657,694
103639,159838,185761,2.1798613886,-8.817551281,-3.4396824875,695
103632,159842,185795,1.9274186043000001,-8.7828553533,-3.4624143022,696
103527,159876,185809,2.1152551784,-8.7684984177,-3.3870403903,697
103536,159845,185805,2.0279171535,-8.663214223299999,-3.4707891813,698
103453,159770,185778,2.1738793321000003,-8.6775711589,-3.5186456333,699
103409,159767,185758,2.141576227,-8.819944103600001,-3.5162528107,700
103378,159761,185748,2.1367905818,-8.8630149104,-3.5545379723,701
103383,159747,185753,2.0913269524,-8.7661055951,-3.5629128513999997,702
103402,159744,185731,2.117648001,-8.7852481759,-3.5437702705999996,703
103422,159755,185723,2.1092731219,-8.8797646686,-3.4983066412,704
103365,159776,185729,2.2109680824,-8.8749790234,-3.517449222,705
103434,159718,185740,2.2456640101,-8.749355836900001,-3.5796626096,706
103446,159755,185774,2.0231315083,-8.9228354754,-3.4947174072999996,707
103506,159760,185736,2.1092731219,-8.846265152199999,-3.4492537779,708
103488,159801,185754,2.0673987264,-8.8343010392,-3.5389846254,709
103498,159767,185762,2.0386848552,-8.720641965699999,-3.5724841418,710
103511,159789,185766,2.1702900981999997,-8.8618184991,-3.4983066412,711
103528,159825,185729,2.1858434451,-8.636893174699999,-3.601198013,712
103607,159806,185740,2.2002003807,-8.7984087002,-3.5341989802,713
103575,159853,185774,2.1667008643,-8.8091764019,-3.421736318,714
103622,159858,185805,2.189432679,-8.9144605963,-3.4839497056,715
103614,159835,185799,2.1104695332,-8.7541414821,-3.5365918028000003,716
103698,159891,185784,2.1188444122999996,-8.877371846,-3.5222348672,717
103639,159906,185769,2.1020946541,-8.8079799906,-3.4660035360999997,718
103574,159841,185802,2.1343977592,-8.8163548697,-3.4133614389,719
103514,159815,185789,2.057827436,-8.913264185,-3.5102707542,720
103457,159819,185796,2.0721843716,-8.8366938618,-3.5330025689,721
103406,159806,185745,2.1032910654,-8.8666041443,-3.5485559157999997,722
103354,159773,185778,2.0063817501,-8.8689969669,-3.4468609552999996,723
103395,159764,185752,2.0386848552,-8.7972122889,-3.5712877305000004,724
103413,159823,185719,2.1762721547,-8.8426759183,-3.46959277,725
103426,159765,185766,2.1475582835,-8.885746725099999,-3.5126635768,726
103447,159756,185710,2.1571295739000003,-8.7266240222,-3.5210384559,727
103442,159761,185712,2.1463618722,-8.8606220878,-3.613162126,728
103408,159776,185719,2.0410776778,-8.818747692299999,-3.5246276898,729
103475,159772,185743,2.2600209457,-8.9886380969,-3.517449222,730
103502,159850,185759,2.1308085253,-8.9587278144,-3.4743784152000003,731
103533,159807,185699,2.1619152191,-8.7421773691,-3.5676984966,732
103529,159807,185756,2.0793628394,-8.8438723296,-3.4839497056,733
103552,159801,185747,2.0386848552,-8.7637127725,-3.541377448,734
103555,159812,185737,2.2456640101,-8.8450687409,-3.4839497056,735
103604,159802,185769,2.1332013479,-8.8378902731,-3.46959277,736
103613,159860,185737,2.0865413072,-8.8845503138,-3.4325040196999996,737
103614,159885,185762,2.1667008643,-8.8247297488,-3.5006994637999997,738
103639,159904,185751,2.0745771942,-8.8558364426,-3.3834511564,739
103654,159916,185782,2.1619152191,-8.8390866844,-3.4384860762,740
103572,159873,185734,2.1463618722,-8.865407733,-3.4360932536,741
103478,159843,185763,2.1080767106,-8.752945070800001,-3.517449222,742
103448,159789,185745,2.1511475174,-8.8343010392,-3.4743784152000003,743
103436,159774,185718,2.177468566,-8.7732840629,-3.4564322457,744
103416,159756,185757,2.1714865095,-8.6763747476,-3.5665020853000002,745
103414,159794,185743,2.0757736055,-8.8079799906,-3.4839497056,746
103464,159774,185700,1.9250257817,-8.930013943199999,-3.5114671655,747
103456,159771,185693,2.1032910654,-8.7864445872,-3.493520996,748
103446,159775,185690,2.1942183242,-8.831908216599999,-3.4516466004999997,749
103476,159763,185721,2.1547367513,-8.8582292652,-3.4444681327,750
103472,159754,185735,2.1068802992999998,-8.8343010392,-3.4719855926,751
103472,159767,185686,2.0793628394,-8.983852451699999,-3.4636107135,752
103494,159769,185692,2.0434705004000002,-8.7302132561,-3.5270205124,753
103534,159756,185683,2.0793628394,-8.913264185,-3.4863425282,754
103579,159790,185730,2.1667008643,-8.8821574912,-3.5270205124,755
103580,159799,185728,2.0315063874,-8.8797646686,-3.4253255519,756
103580,159837,185750,2.2145573163,-8.8869431364,-3.5629128513999997,757
103599,159812,185759,2.1379869930999997,-8.818747692299999,-3.5389846254,758
103616,159846,185732,2.0841484846,-8.757730716,-3.5222348672,759
103613,159862,185733,2.2528424779,-8.6847496267,-3.5030922864000003,760
103702,159870,185746,2.0171494518,-8.8845503138,-3.4827532943,761
103616,159853,185802,2.0865413072,-8.9144605963,-3.4743784152000003,762
103539,159813,185746,2.1906290903,-8.7445701917,-3.4827532943,763
103462,159802,185722,2.1750757434,-8.6751783363,-3.4983066412,764
103420,159752,185726,2.141576227,-8.7517486595,-3.5294133349999997,765
103406,159763,185704,2.2660030021999997,-8.877371846,-3.5150563993999997,766
103406,159740,185709,2.2049860259000003,-8.8091764019,-3.5581272062,767
103426,159728,185706,2.0626130812,-8.7780697081,-3.5030922864000003,768
103448,159733,185694,2.069791549,-8.7900338211,-3.5341989802,769
103443,159715,185683,2.1643080417,-8.7984087002,-3.5006994637999997,770
103462,159739,185713,2.1726829208,-8.8821574912,-3.6933216830999998,771
103370,159744,185735,2.0602202586000002,-8.8390866844,-3.4851461168999998,772
103469,159750,185710,2.2265214293,-8.8307118053,-3.5341989802,773
103490,159770,185718,2.1032910654,-8.7804625307,-3.6275190616,774
103519,159765,185720,2.1032910654,-8.9036928946,-3.4624143022,775
103519,159778,185688,2.2277178406,-8.752945070800001,-3.5952159565,776
103541,159785,185774,2.1559331626,-8.8079799906,-3.5557343836,777
103565,159804,185750,2.0650059038,-8.8797646686,-3.4660035360999997,778
103612,159836,185724,2.1571295739000003,-8.8989072494,-3.4564322457,779
103590,159839,185746,2.0327027987,-8.6333039408,-3.4444681327,780
103639,159835,185748,2.3018953412000003,-8.8869431364,-3.5509487384000002,781
103697,159883,185763,2.0350956213,-8.8749790234,-3.4779676491,782
103626,159866,185769,2.0650059038,-8.9647098709,-3.4277183745,783
103561,159879,185769,2.1379869930999997,-8.8378902731,-3.517449222,784
103483,159821,185753,2.069791549,-8.7864445872,-3.4899317621,785
103422,159748,185753,2.1379869930999997,-8.9539421692,-3.6670006345,786
103371,159769,185695,2.0793628394,-8.8115692245,-3.553341561,787
103367,159758,185715,2.1451654609,-8.846265152199999,-3.5186456333,788
103375,159743,185674,2.1810577999,-8.8474615635,-3.5365918028000003,789
103374,159706,185687,2.0626130812,-8.8582292652,-3.5018958750999998,790
103391,159748,185668,2.0673987264,-8.7780697081,-3.4731820039,791
103400,159764,185691,2.1463618722,-8.7960158776,-3.5150563993999997,792
103405,159697,185665,2.1607188078,-8.8630149104,-3.5676984966,793
103412,159741,185713,2.3054845751,-8.889335959,-3.5856446661000003,794
103434,159750,185660,2.1092731219,-8.7708912403,-3.601198013,795
103443,159691,185744,2.0721843716,-8.8749790234,-3.4013973259,796
103449,159731,185670,2.1523439287,-8.774480474199999,-3.4743784152000003,797
103481,159755,185680,2.1164515897,-8.8546400313,-3.4995030524999997,798
103498,159762,185719,2.2097716711,-8.7445701917,-3.613162126,799
103534,159764,185718,2.1463618722,-8.7134634979,-3.5198420446,800
103537,159806,185703,2.0123638066000002,-8.7984087002,-3.4899317621,801
103570,159800,185695,2.2336998971,-8.7876409985,-3.5904303113,802
103605,159831,185705,2.1212372348999997,-8.829515394,-3.5473595045,803
103599,159807,185738,2.0147566292,-8.7888374098,-3.4791640604,804
103587,159870,185723,2.0542382021,-8.833104627900001,-3.4803604716999996,805
103507,159785,185741,2.0446669117,-8.8091764019,-3.5150563993999997,806
103439,159783,185685,2.1248264688,-8.7708912403,-3.5066815203,807
103364,159759,185682,2.1403798157,-8.8307118053,-3.4229327293,808
103341,159694,185673,2.1966111468,-8.8701933782,-3.5940195452,809
103329,159700,185650,2.1140587671,-8.774480474199999,-3.5222348672,810
103361,159730,185637,2.1511475174,-8.872586200799999,-3.5078779316,811
103366,159728,185699,1.9812571127999998,-8.9108713624,-3.5497523270999998,812
103378,159689,185640,2.177468566,-8.7804625307,-3.4983066412,813
103377,159707,185681,2.0027925162,-8.7158563205,-3.4013973259,814
103380,159702,185650,2.0554346134,-8.841479506999999,-3.4528430117999998,815
103409,159694,185643,2.0494525569,-8.8678005556,-3.3942188581,816
103424,159734,185666,2.1068802992999998,-8.8031943454,-3.5150563993999997,817
103481,159715,185655,2.0793628394,-8.8008015228,-3.5485559157999997,818
103446,159703,185653,2.1212372348999997,-8.7732840629,-3.5676984966,819
103487,159757,185665,2.1068802992999998,-8.694320917099999,-3.5126635768,820
103509,159758,185667,2.0841484846,-8.7996051115,-3.5090743428999995,821
103520,159689,185679,2.0913269524,-8.8821574912,-3.4851461168999998,822
103522,159779,185671,2.0566310246999997,-8.7158563205,-3.5688949079,823
103552,159817,185738,2.0626130812,-8.8163548697,-3.4827532943,824
103568,159800,185715,2.2456640101,-8.8881395477,-3.4983066412,825
103581,159823,185698,2.1224336462,-8.8833539025,-3.517449222,826
103556,159727,185678,2.2600209457,-8.8845503138,-3.5222348672,827
103447,159753,185692,2.1667008643,-8.681160392799999,-3.5126635768,828
103372,159715,185644,2.1559331626,-8.8127656358,-3.5868410774,829
103342,159690,185647,2.1391834043999998,-8.949156524,-3.5509487384000002,830
103264,159698,185658,2.0279171535,-8.8785682573,-3.5341989802,831
103329,159684,185682,2.0985054202,-8.85344362,-3.445664544,832
103335,159665,185665,2.0243279196,-8.8366938618,-3.5078779316,833
103356,159670,185624,2.0673987264,-8.757730716,-3.5294133349999997,834
103369,159672,185630,2.2265214293,-8.9108713624,-3.5102707542,835
103402,159687,185631,2.1367905818,-8.939585233599999,-3.5389846254,836
103373,159680,185622,2.0961125976,-8.7996051115,-3.5246276898,837
103390,159675,185638,2.0231315083,-8.793623055,-3.5485559157999997,838
103391,159699,185638,2.1248264688,-8.8354974505,-3.4444681327,839
103429,159699,185644,2.1786649773,-8.817551281,-3.5162528107,840
103447,159735,185649,2.057827436,-8.8486579748,-3.6000016017000003,841
103471,159751,185640,2.0733807828999997,-8.877371846,-3.5341989802,842
103497,159758,185668,2.0626130812,-8.8223369262,-3.505485109,843
103505,159757,185668,1.9812571127999998,-8.7780697081,-3.5712877305000004,844
103527,159795,185660,2.1355941704999997,-8.8965144268,-3.5772697869999996,845
103543,159796,185699,2.1343977592,-8.7445701917,-3.5724841418,846
103562,159822,185702,2.105683888,-8.8115692245,-3.5605200288,847
103556,159817,185722,2.2073788485,-8.8450687409,-3.4911281734,848
103479,159780,185701,2.129612114,-8.8965144268,-3.4157542615,849
103413,159732,185701,2.1128623558,-8.7984087002,-3.5916267225999996,850
103338,159711,185670,2.1547367513,-8.7553378934,-3.601198013,851
103309,159684,185648,2.0913269524,-8.761319949899999,-3.5330025689,852
103279,159689,185646,2.1559331626,-8.8606220878,-3.4959138186,853
103267,159664,185666,2.1367905818,-8.7266240222,-3.4528430117999998,854
103310,159666,185603,1.9573288867999998,-8.8546400313,-3.5605200288,855
103307,159649,185610,2.0051853388,-8.7732840629,-3.46959277,856
103323,159668,185641,2.0542382021,-8.8881395477,-3.5138599880999997,857
103338,159653,185626,2.1008982428,-8.8965144268,-3.5676984966,858
103344,159652,185641,2.1858434451,-8.6703926911,-3.5892339,859
103354,159675,185620,2.1092731219,-8.8570328539,-3.5078779316,860
103423,159699,185621,2.1272192914,-8.8211405149,-3.5377882141000003,861
103441,159679,185597,2.117648001,-8.9347995884,-3.5294133349999997,862
103417,159696,185614,2.2049860259000003,-8.817551281,-3.5294133349999997,863
103455,159701,185649,2.1320049366,-8.8343010392,-3.5617164401,864
103453,159740,185672,2.0554346134,-8.7972122889,-3.6215370051,865
103491,159752,185639,2.0614166699,-8.9551385805,-3.5748769644,866
103507,159758,185682,2.129612114,-8.7122670866,-3.4851461168999998,867
103536,159764,185672,2.1475582835,-8.8678005556,-3.5306097463,868
103554,159767,185698,2.0003996936,-8.7541414821,-3.5066815203,869
103542,159819,185690,2.1332013479,-8.8821574912,-3.4671999473999997,870
103465,159776,185688,2.1463618722,-8.819944103600001,-3.6059836581999996,871
103372,159715,185682,2.1930219129,-8.829515394,-3.4959138186,872
103304,159697,185603,2.0949161863,-8.8630149104,-3.3607193417,873
103277,159719,185618,2.0709879603,-8.9886380969,-3.5353953915,874
103298,159681,185609,2.117648001,-8.8438723296,-3.553341561,875
103292,159687,185591,2.1523439287,-8.8223369262,-3.5090743428999995,876
103317,159644,185605,2.045863323,-8.7996051115,-3.5581272062,877
103304,159679,185593,2.1008982428,-8.694320917099999,-3.4731820039,878
103234,159658,185623,2.0877377184999997,-8.829515394,-3.4827532943,879
103330,159647,185648,2.1511475174,-8.8606220878,-3.5676984966,880
103334,159672,185537,2.1882362677000002,-8.8223369262,-3.4181470840999997,881
103366,159679,185604,1.9824535241,-8.983852451699999,-3.4983066412,882
103378,159680,185622,1.9561324755,-8.7014993849,-3.4923245847,883
103403,159677,185623,2.1152551784,-8.841479506999999,-3.4528430117999998,884
103422,159690,185598,2.0147566292,-8.8929251929,-3.5150563993999997,885
103441,159675,185655,2.1188444122999996,-8.8031943454,-3.5748769644,886
103462,159728,185620,2.0997018315,-8.918049830200001,-3.5234312785000004,887
103500,159730,185619,2.0961125976,-8.8247297488,-3.4983066412,888
103498,159743,185668,2.1738793321000003,-8.7708912403,-3.5485559157999997,889
103550,159758,185619,2.1607188078,-8.8989072494,-3.4899317621,890
103549,159828,185639,2.0386848552,-8.8223369262,-3.3750762773,891
103525,159791,185632,2.0051853388,-8.9814596291,-3.4241291406,892
103466,159767,185670,2.0841484846,-8.9276211206,-3.5090743428999995,893
103375,159741,185621,2.021935097,-8.865407733,-3.5868410774,894
103320,159679,185627,2.0913269524,-8.829515394,-3.5222348672,895
103305,159675,185616,2.1523439287,-8.8989072494,-3.4648071248,896
103307,159649,185605,2.2289142519,-8.764909183799999,-3.5246276898,897
103317,159653,185601,2.1750757434,-8.7361953126,-3.517449222,898
103338,159642,185571,2.1439690496,-8.8965144268,-3.4636107135,899
103350,159640,185583,2.2037896146,-8.8606220878,-3.5820554322,900
103357,159648,185586,2.0183458631,-8.901300072,-3.5234312785000004,901
103373,159685,185546,2.1164515897,-8.846265152199999,-3.4755748265,902
103387,159621,185608,2.129612114,-8.8582292652,-3.457628657,903
103407,159661,185595,2.1284157027,-8.8151584584,-3.5485559157999997,904
103404,159648,185587,2.0362920326,-8.9742811613,-3.5078779316,905
103394,159681,185564,2.1020946541,-8.8079799906,-3.5545379723,906
103442,159699,185579,2.1810577999,-8.7302132561,-3.5820554322,907
103446,159695,185635,2.1188444122999996,-8.8343010392,-3.4037901484999997,908
103475,159677,185629,2.069791549,-8.8378902731,-3.5162528107,909
103477,159684,185583,2.081755662,-8.8247297488,-3.5772697869999996,910
103513,159723,185664,2.1403798157,-8.9503529353,-3.5772697869999996,911
103535,159732,185672,2.2540388892,-8.8103728132,-3.6263226502999997,912
103536,159748,185686,2.213360905,-8.8941216042,-3.5389846254,913
103496,159766,185682,2.0039889275,-8.944370878800001,-3.5222348672,914
103418,159629,185644,2.093719775,-8.9324067658,-3.5581272062,915
103345,159672,185633,2.0721843716,-8.8127656358,-3.6861432153,916
103206,159633,185615,2.0386848552,-8.913264185,-3.4444681327,917
103270,159655,185601,2.0434705004000002,-8.8689969669,-3.541377448,918
103278,159601,185619,2.0793628394,-8.828318982699999,-3.5676984966,919
103316,159637,185614,1.9740786449999999,-8.889335959,-3.4492537779,920
103320,159631,185609,2.1260228801,-8.7720876516,-3.5126635768,921
103329,159617,185601,2.0039889275,-8.925228298,-3.4995030524999997,922
103347,159675,185659,2.1248264688,-8.8115692245,-3.5150563993999997,923
103381,159649,185594,2.1224336462,-8.7134634979,-3.5820554322,924
103378,159636,185612,2.069791549,-8.8390866844,-3.5485559157999997,925
103364,159666,185580,2.0267207422,-8.7541414821,-3.4851461168999998,926
103413,159643,185621,2.093719775,-8.8019979341,-3.5868410774,927
103420,159633,185581,2.1499511061,-8.6967137397,-3.5318061576,928
103412,159719,185683,2.009970984,-8.8917287816,-3.6035908356,929
103448,159685,185599,2.1248264688,-8.774480474199999,-3.4803604716999996,930
103476,159699,185627,1.9992032822999999,-8.806783579300001,-3.637090352,931
103485,159740,185668,2.0398812665,-8.8163548697,-3.5748769644,932
103509,159770,185646,2.1786649773,-8.7038922075,-3.4767712378,933
103574,159718,185632,2.2552353005,-8.925228298,-3.6335011181000003,934
103551,159747,185653,2.0123638066000002,-8.8115692245,-3.4779676491,935
103388,159743,185635,2.0913269524,-8.8845503138,-3.5820554322,936
103385,159672,185653,1.9836499354,-8.6871424493,-3.5377882141000003,937
103313,159653,185625,2.1798613886,-8.8271225714,-3.5772697869999996,938
103277,159638,185583,2.0506489682,-8.8953180155,-3.4911281734,939
103250,159623,185573,2.1702900981999997,-8.8307118053,-3.5234312785000004,940
103260,159619,185578,2.2241286067,-8.841479506999999,-3.5150563993999997,941
103173,159584,185607,2.0973090089,-8.7912302324,-3.4468609552999996,942
103279,159580,185530,2.0003996936,-8.913264185,-3.4911281734,943
103291,159614,185534,2.1714865095,-8.7146599092,-3.5006994637999997,944
103311,159597,185548,2.1954147355,-8.8438723296,-3.5377882141000003,945
103324,159615,185553,2.021935097,-8.8438723296,-3.5485559157999997,946
103343,159636,185594,2.1738793321000003,-8.872586200799999,-3.6083764808,947
103358,159620,185625,2.1128623558,-8.85344362,-3.4516466004999997,948
103387,159645,185601,2.2241286067,-8.877371846,-3.5341989802,949
103406,159611,185592,2.2265214293,-8.8869431364,-3.5389846254,950
103419,159630,185594,1.9609181207,-8.8139620471,-3.505485109,951
103430,159675,185584,2.0865413072,-8.872586200799999,-3.4504501892,952
103474,159732,185593,1.9669001771999999,-8.8785682573,-3.5078779316,953
103498,159677,185653,2.069791549,-8.7661055951,-3.4815568829999997,954
103516,159691,185668,2.1822542112,-8.818747692299999,-3.5437702705999996,955
103540,159724,185636,2.0015961049,-8.8678005556,-3.4061829711000002,956
103524,159705,185637,2.0733807828999997,-8.8091764019,-3.4301111971,957
103438,159732,185627,2.2085752598,-8.872586200799999,-3.5341989802,958
103395,159699,185644,2.1104695332,-8.7326060787,-3.5353953915,959
103316,159670,185606,2.165504453,-8.9659062822,-3.4887353508000003,960
103294,159609,185570,2.1080767106,-8.873782612100001,-3.4911281734,961
103292,159612,185577,2.0913269524,-8.829515394,-3.4707891813,962
103292,159605,185591,2.2181465501999997,-8.841479506999999,-3.4612178908999995,963
103328,159631,185585,2.0745771942,-8.8797646686,-3.5198420446,964
103362,159599,185608,2.1164515897,-8.901300072,-3.4911281734,965
103334,159626,185574,2.0901305410999997,-8.8797646686,-3.4564322457,966
103351,159644,185591,2.2085752598,-8.8271225714,-3.4636107135,967
103364,159609,185597,2.1786649773,-8.8606220878,-3.5246276898,968
103370,159610,185552,2.0327027987,-8.8917287816,-3.6191441825000004,969
103377,159611,185563,2.1367905818,-8.8223369262,-3.6059836581999996,970
103388,159634,185590,2.1355941704999997,-8.8402830957,-3.5760733757,971
103426,159625,185613,2.0961125976,-8.663214223299999,-3.5461630932,972
103439,159615,185595,2.1571295739000003,-8.7828553533,-3.5102707542,973
103510,159642,185616,2.0386848552,-8.761319949899999,-3.5198420446,974
103538,159668,185622,2.0673987264,-8.8941216042,-3.5629128513999997,975
103503,159652,185610,2.0662023151,-8.7828553533,-3.5461630932,976
103551,159686,185583,2.1152551784,-8.7996051115,-3.5294133349999997,977
103529,159722,185658,2.105683888,-8.8630149104,-3.4408788988000003,978
103486,159688,185636,2.0913269524,-8.9623170483,-3.4887353508000003,979
103455,159667,185600,2.0291135648000003,-8.9144605963,-3.5437702705999996,980
103360,159644,185579,2.0985054202,-8.7768732968,-3.5952159565,981
103275,159649,185611,2.0159530405,-8.7984087002,-3.6203405937999995,982
103289,159587,185585,2.0494525569,-8.8917287816,-3.5796626096,983
103273,159588,185566,2.0985054202,-8.873782612100001,-3.5102707542,984
103327,159559,185571,2.1918255016,-8.781658942,-3.5246276898,985
103364,159570,185606,2.105683888,-8.7445701917,-3.4851461168999998,986
103331,159568,185591,2.1882362677000002,-8.85344362,-3.5449666819,987
103349,159586,185596,2.1978075581,-8.818747692299999,-3.5521451497000003,988
103354,159641,185568,2.1966111468,-8.7158563205,-3.4719855926,989
103365,159611,185591,2.0554346134,-8.8869431364,-3.46959277,990
103399,159608,185589,1.9824535241,-8.9455672901,-3.4851461168999998,991
103439,159624,185582,2.1439690496,-8.8749790234,-3.6155549486,992
103431,159662,185596,2.1427726383,-8.7003029736,-3.5557343836,993
103468,159659,185612,2.1858434451,-8.8366938618,-3.4325040196999996,994
103429,159655,185602,2.1248264688,-8.8019979341,-3.5222348672,995
103475,159696,185633,2.03389921,-8.8271225714,-3.5916267225999996,996
103494,159698,185611,1.8460626359,-8.9108713624,-3.4468609552999996,997
103537,159715,185655,2.2109680824,-8.7756768855,-3.5222348672,998
103536,159734,185667,1.9537396529,-8.7469630143,-3.4636107135,999
103549,159760,185729,2.1391834043999998,-8.7756768855,-3.5102707542,1000
103511,159730,185628,2.1080767106,-8.931210354500001,-3.4947174072999996,1001
103432,159707,185666,2.2097716711,-8.7876409985,-3.4707891813,1002
103362,159678,185628,2.1320049366,-8.8115692245,-3.5377882141000003,1003
103317,159622,185657,2.0147566292,-8.7409809578,-3.4851461168999998,1004
103292,159616,185597,2.0865413072,-8.6799639815,-3.5294133349999997,1005
103283,159589,185594,2.0913269524,-8.8666041443,-3.4803604716999996,1006
103291,159607,185609,2.1032910654,-8.8929251929,-3.5126635768,1007
103212,159574,185621,2.2408783649,-8.8821574912,-3.5318061576,1008
103327,159590,185580,1.9776678789,-8.7792661194,-3.5318061576,1009
103336,159585,185613,2.1499511061,-8.8091764019,-3.5700913192,1010
103346,159575,185558,2.0673987264,-8.8845503138,-3.46959277,1011
103361,159608,185570,1.9645073545999998,-8.6524465216,-3.553341561,1012
103405,159639,185566,2.1092731219,-8.8809610799,-3.5593236175,1013
103428,159594,185586,2.1451654609,-8.859425676499999,-3.4348968423,1014
103423,159632,185605,2.0673987264,-8.8618184991,-3.5102707542,1015
103440,159629,185591,2.1882362677000002,-8.8271225714,-3.4911281734,1016
103471,159633,185543,2.1523439287,-8.817551281,-3.5964123677999997,1017
103470,159645,185563,2.0985054202,-8.865407733,-3.5365918028000003,1018
103494,159662,185622,2.0841484846,-8.9120677737,-3.5509487384000002,1019
103509,159683,185614,2.1427726383,-8.73380249,-3.5150563993999997,1020
103535,159694,185624,2.0709879603,-8.819944103600001,-3.5772697869999996,1021
103545,159707,185666,2.0913269524,-8.9682991048,-3.4911281734,1022
103483,159670,185657,2.1738793321000003,-8.7780697081,-3.4983066412,1023
103372,159683,185632,2.141576227,-8.7553378934,-3.4420753101,1024
103341,159632,185596,2.1882362677000002,-8.9048893059,-3.5090743428999995,1025
103313,159667,185572,2.225325018,-8.865407733,-3.5102707542,1026
103287,159600,185608,2.0422740890999997,-8.8582292652,-3.4959138186,1027
103292,159589,185621,2.1236300575,-8.793623055,-3.4827532943,1028
103308,159643,185588,2.0207386857,-8.8678005556,-3.5198420446,1029
103342,159621,185597,2.1032910654,-8.8366938618,-3.5461630932,1030
103387,159590,185536,1.9848463467,-8.859425676499999,-3.4301111971,1031
103358,159607,185586,1.9788642901999998,-8.7661055951,-3.4743784152000003,1032
103380,159608,185550,2.0913269524,-8.7385881352,-3.4648071248,1033
103371,159611,185587,2.1846470338,-8.8223369262,-3.4743784152000003,1034
103398,159624,185585,2.0913269524,-8.8558364426,-3.4719855926,1035
103405,159655,185615,2.1559331626,-8.889335959,-3.613162126,1036
103430,159593,185648,2.0769700168,-8.8271225714,-3.6873396266,1037
103444,159649,185630,2.1128623558,-8.7972122889,-3.4719855926,1038
103466,159657,185604,2.2193429615,-8.818747692299999,-3.493520996,1039
103487,159648,185616,2.1726829208,-8.7684984177,-3.4648071248,1040
103507,159677,185649,2.0769700168,-8.9001036607,-3.493520996,1041
103548,159719,185607,2.1320049366,-8.7996051115,-3.5461630932,1042
103541,159691,185632,2.0721843716,-8.749355836900001,-3.5246276898,1043
103524,159699,185627,2.1930219129,-8.864211321700001,-3.5497523270999998,1044
103453,159598,185602,2.1008982428,-8.8749790234,-3.4923245847,1045
103359,159622,185627,2.117648001,-8.8606220878,-3.5964123677999997,1046
103336,159593,185573,2.1248264688,-8.8008015228,-3.5341989802,1047
103296,159637,185568,1.9848463467,-8.805587167999999,-3.5509487384000002,1048
103224,159600,185584,2.0757736055,-8.9467637014,-3.5629128513999997,1049
103306,159566,185582,2.1714865095,-8.85344362,-3.5186456333,1050
103330,159621,185599,2.1547367513,-8.8630149104,-3.6502508763,1051
103344,159593,185605,2.0602202586000002,-8.8043907567,-3.6215370051,1052
103372,159647,185613,2.0745771942,-8.7673020064,-3.5581272062,1053
103392,159594,185590,2.1834506225,-8.663214223299999,-3.5341989802,1054
103373,159622,185552,2.1032910654,-8.8558364426,-3.4791640604,1055
103397,159623,185627,2.1643080417,-8.930013943199999,-3.5353953915,1056
103315,159607,185589,2.1631116304,-8.7314096674,-3.5198420446,1057
103419,159646,185582,2.2695922361,-8.7134634979,-3.5030922864000003,1058
103442,159689,185604,2.177468566,-8.841479506999999,-3.5210384559,1059
103471,159640,185607,2.2013967919999997,-8.8606220878,-3.5425738593,1060
103483,159702,185632,2.117648001,-8.901300072,-3.541377448,1061
103554,159703,185653,2.1308085253,-8.9359959997,-3.5748769644,1062
103532,159726,185642,2.0973090089,-8.8833539025,-3.5976087790999998,1063
103536,159719,185709,2.1523439287,-8.8247297488,-3.565305674,1064
103569,159688,185619,2.03389921,-8.9156570076,-3.3990045032999996,1065
103523,159738,185650,2.2025932033,-8.8079799906,-3.5748769644,1066
103449,159747,185691,2.03389921,-8.7541414821,-3.4755748265,1067
103363,159653,185653,2.1463618722,-8.707481441399999,-3.4875389395,1068
103338,159612,185611,2.1044874766999997,-8.7996051115,-3.541377448,1069
103298,159606,185619,2.0398812665,-8.8091764019,-3.5353953915,1070
103284,159600,185612,2.1762721547,-8.7924266437,-3.5676984966,1071
103314,159518,185575,2.0315063874,-8.806783579300001,-3.4612178908999995,1072
103336,159580,185634,2.105683888,-8.865407733,-3.4588250683,1073
103359,159571,185577,2.0087745727,-8.85344362,-3.5569307949000004,1074
103353,159590,185580,2.1224336462,-8.872586200799999,-3.7399817238,1075
103358,159615,185593,2.1391834043999998,-8.7876409985,-3.4540394231000002,1076
103388,159607,185585,2.0997018315,-8.8701933782,-3.3607193417,1077
103409,159603,185645,2.2336998971,-8.828318982699999,-3.5186456333,1078
103441,159615,185620,2.1152551784,-8.8845503138,-3.4516466004999997,1079
103448,159624,185621,2.0626130812,-8.817551281,-3.5102707542,1080
103469,159663,185604,2.2313070745,-8.8079799906,-3.5198420446,1081
103504,159639,185626,2.2193429615,-8.846265152199999,-3.5437702705999996,1082
103496,159681,185647,2.1236300575,-8.781658942,-3.4636107135,1083
103539,159699,185627,2.0889341298,-8.8390866844,-3.4492537779,1084
103560,159696,185659,2.1248264688,-8.8438723296,-3.4624143022,1085
103548,159732,185642,2.165504453,-8.8139620471,-3.4432717214,1086
103555,159716,185618,2.057827436,-8.7948194663,-3.5126635768,1087
103492,159703,185653,2.0602202586000002,-8.8474615635,-3.5509487384000002,1088
103396,159627,185600,2.0602202586000002,-8.720641965699999,-3.5629128513999997,1089
103326,159560,185571,2.1080767106,-8.9383888223,-3.5724841418,1090
103279,159539,185595,2.2025932033,-8.930013943199999,-3.4887353508000003,1091
103298,159537,185571,2.093719775,-8.8785682573,-3.5545379723,1092
103284,159532,185631,2.1379869930999997,-8.8151584584,-3.565305674,1093
103337,159555,185552,2.1080767106,-8.8498543861,-3.4791640604,1094
103335,159609,185593,2.2241286067,-9.0041914438,-3.4648071248,1095
103369,159578,185571,2.15354034,-8.7278204335,-3.5856446661000003,1096
103376,159596,185582,2.0279171535,-8.8079799906,-3.5030922864000003,1097
103382,159617,185569,2.0566310246999997,-8.877371846,-3.5569307949000004,1098
103391,159612,185560,2.1619152191,-8.8797646686,-3.4707891813,1099
103396,159623,185601,2.0554346134,-8.7445701917,-3.4767712378,1100
103416,159613,185626,2.0410776778,-8.846265152199999,-3.4444681327,1101
103451,159613,185585,2.2815563491,-8.7912302324,-3.5270205124,1102
103468,159640,185608,1.9585252981,-8.9060857172,-3.5078779316,1103
103498,159665,185643,2.0889341298,-8.873782612100001,-3.3966116807,1104
103512,159661,185628,2.093719775,-8.8917287816,-3.4301111971,1105
103527,159666,185623,2.2289142519,-8.8570328539,-3.5102707542,1106
103599,159649,185600,2.1930219129,-8.8079799906,-3.517449222,1107
103558,159685,185627,2.1080767106,-8.930013943199999,-3.5509487384000002,1108
103543,159685,185626,2.03389921,-8.769694829,-3.5377882141000003,1109
103473,159671,185609,2.2121644937,-8.819944103600001,-3.6143585373000002,1110
103388,159625,185584,1.9752750562999999,-8.8618184991,-3.5365918028000003,1111
103270,159574,185606,2.0255243308999997,-8.8127656358,-3.4803604716999996,1112
103351,159526,185559,2.0171494518,-8.9072821285,-3.5114671655,1113
103289,159524,185586,2.069791549,-8.9671026935,-3.517449222,1114
103292,159489,185522,2.2576281231,-8.8618184991,-3.457628657,1115
103324,159508,185591,2.0171494518,-8.8486579748,-3.5892339,1116
103339,159530,185506,2.1068802992999998,-8.930013943199999,-3.4839497056,1117
103351,159515,185570,2.1463618722,-8.8797646686,-3.5162528107,1118
103351,159550,185569,2.081755662,-8.8426759183,-3.4959138186,1119
103377,159485,185529,2.1619152191,-8.7601235386,-3.505485109,1120
103383,159546,185559,2.0602202586000002,-8.8606220878,-3.6311082955,1121
103412,159565,185576,2.1631116304,-8.8151584584,-3.5401810367,1122
103425,159530,185579,2.0997018315,-8.7972122889,-3.5748769644,1123
103395,159569,185597,2.2241286067,-8.8713897895,-3.4133614389,1124
103469,159569,185583,2.0207386857,-8.7003029736,-3.5306097463,1125
103477,159592,185580,2.0745771942,-8.8630149104,-3.5389846254,1126
103502,159662,185600,2.0781664281,-8.7445701917,-3.5246276898,1127
103520,159663,185644,2.2480568327,-8.841479506999999,-3.5246276898,1128
103549,159627,185648,2.1930219129,-8.8869431364,-3.5916267225999996,1129
103576,159660,185606,2.1152551784,-8.9036928946,-3.5497523270999998,1130
103536,159671,185606,2.2097716711,-8.9096749511,-3.5114671655,1131
103505,159652,185586,2.0685951377,-8.7541414821,-3.5425738593,1132
103373,159606,185601,2.0841484846,-8.6321075295,-3.4947174072999996,1133
103326,159553,185630,2.0913269524,-8.8749790234,-3.5389846254,1134
103286,159531,185624,2.0039889275,-8.85344362,-3.5401810367,1135
103277,159516,185583,2.1308085253,-8.877371846,-3.5377882141000003,1136
103211,159526,185567,2.0482561456,-8.943174467499999,-3.4731820039,1137
103306,159507,185581,2.0518453795,-8.7924266437,-3.6335011181000003,1138
103326,159530,185580,2.0638094925,-8.8630149104,-3.5844482548,1139
103320,159542,185576,2.093719775,-8.8749790234,-3.5365918028000003,1140
103342,159559,185586,2.0673987264,-8.757730716,-3.5437702705999996,1141
103371,159557,185566,2.0913269524,-8.8713897895,-3.5318061576,1142
103381,159600,185588,2.0745771942,-8.805587167999999,-3.4839497056,1143
103396,159609,185582,2.0590238472999998,-8.6883388606,-3.4205399067,1144
103420,159590,185603,2.0769700168,-8.6919280945,-3.4480573666,1145
103381,159607,185647,2.1080767106,-8.7601235386,-3.5090743428999995,1146
103466,159636,185629,2.0315063874,-8.9359959997,-3.5198420446,1147
103505,159635,185612,2.0805592507,-8.9036928946,-3.5030922864000003,1148
103538,159721,185652,2.1930219129,-9.0161555568,-3.445664544,1149
103576,159831,185664,2.0733807828999997,-9.1513500337,-3.7770704741,1150
103740,160164,185832,2.0949161863,-9.3116691479,-3.5449666819,1151
103791,160274,185901,2.1619152191,-9.0532443071,-4.1527436223,1152
103642,159949,185754,2.0841484846,-7.7575308692,-4.5631126982,1153
103487,159840,185651,2.2205393728,-7.6474610296,-4.7042892316,1154
103387,159748,185610,2.4693929232,-8.3449688175,-4.941178669,1155
103351,159701,185594,2.5351955446999996,-8.2983087768,-4.5308095931,1156
103235,159724,185569,2.3581266723,-8.0123664761,-4.5966122146,1157
103208,159633,185500,2.2875384056,-8.3880396243,-4.749752861,1158
103190,159633,185475,2.3796620756999998,-8.3724862774,-4.6157547954,1159
103210,159563,185472,2.093719775,-8.3413795836,-4.54636294,1160
103209,159635,185395,2.0721843716,-8.5878403114,-4.3561335433,1161
103190,159604,185427,2.1451654609,-8.5734833758,-4.2185462438,1162
103213,159606,185447,2.0602202586000002,-8.506484343,-4.2699919297,1163
103226,159638,185439,2.03389921,-8.471788415299999,-4.3106699139,1164
103262,159657,185387,2.2049860259000003,-8.518448456,-4.30708068,1165
103271,159663,185416,2.0422740890999997,-8.4514494232,-4.2819560427,1166
103284,159669,185409,2.1451654609,-8.484948939599999,-4.140779509300001,1167
103306,159639,185412,2.045863323,-8.5005022865,-4.331008906,1168
103323,159651,185438,2.03389921,-8.5854474888,-4.2448672924,1169
103350,159720,185387,2.1487546948,-8.5734833758,-4.30708068,1170
103357,159673,185376,2.2301106632,-8.4813597057,-4.1790646709,1171
103390,159672,185386,2.1978075581,-8.5232341012,-4.2209390664,1172
103417,159645,185379,2.1092731219,-8.516055633399999,-4.2759739861999995,1173
103408,159711,185373,2.1152551784,-8.5914295453,-4.2999022122,1174
103344,159675,185334,2.0123638066000002,-8.5710905532,-4.2927237444,1175
103244,159629,185366,2.1332013479,-8.5758761984,-4.30708068,1176
103142,159597,185379,2.2336998971,-8.554340795,-4.3262232608,1177
103083,159552,185312,2.0709879603,-8.5076807543,-4.1946180178,1178
103049,159558,185337,2.1224336462,-8.5471623272,-4.2329031794,1179
103073,159552,185295,2.129612114,-8.3617185757,-4.2891345105,1180
103127,159581,185343,2.0530417908,-8.5627156741,-4.3262232608,1181
103131,159552,185320,2.0685951377,-8.4646099475,-4.2544385828,1182
103112,159460,185252,2.1379869930999997,-8.4203427294,-4.3896330597,1183
103077,159327,185170,2.1008982428,-8.3234334141,-4.2640098732,1184
103043,159334,185177,1.998006871,-8.4574314797,-4.151547211,1185
103049,159323,185180,2.0410776778,-8.7266240222,-4.0965122912,1186
103068,159344,185197,1.9130616687,-8.681160392799999,-3.9804603951,1187
103076,159314,185172,2.0446669117,-8.7601235386,-4.1180476945999995,1188
103069,159404,185232,1.8735800958,-8.7385881352,-3.9613178143,1189
103116,159417,185278,2.0135602179,-8.685946038,-3.9302111204999997,1190
103145,159421,185262,1.8592231602,-8.5926259566,-4.0223347905999995,1191
103177,159458,185242,1.9884355805999998,-8.7242311996,-3.9445680561,1192
103192,159445,185282,2.0183458631,-8.7361953126,-4.0354953148999995,1193
103206,159499,185281,1.9884355805999998,-8.6345003521,-4.0127635002,1194
103231,159500,185270,2.0889341298,-8.709874264,-4.0163527341,1195
103218,159507,185310,2.0123638066000002,-8.757730716,-4.0055850324,1196
103155,159546,185316,1.8867406201,-8.673981925,-3.9625142255999997,1197
103070,159517,185288,1.9310078382,-8.5878403114,-4.0295132584,1198
102981,159514,185296,1.9872391693,-8.6309111182,-3.9349967657,1199
102937,159520,185311,2.0805592507,-8.7637127725,-4.0606199522,1200
102902,159531,185296,2.0039889275,-8.720641965699999,-4.0211383793,1201
102931,159567,185312,1.9561324755,-8.6129649487,-4.0271204358,1202
102947,159513,185283,1.9920248145,-8.6919280945,-4.079762533,1203
102971,159492,185254,1.9357934834,-8.828318982699999,-4.0127635002,1204
102957,159517,185240,1.9286150156,-8.7050886188,-4.0175491454,1205
102981,159491,185260,1.9573288867999998,-8.707481441399999,-4.0821553556,1206
102975,159467,185282,1.9537396529,-8.5675013193,-4.0103706776,1207
102984,159499,185262,1.8544375149999999,-8.6931245058,-3.9888352742,1208
103001,159492,185232,2.1020946541,-8.7433737804,-3.9804603951,1209
103027,159540,185254,1.9740786449999999,-8.6871424493,-4.0127635002,1210
103080,159479,185250,1.9944176371,-8.6464644651,-4.0606199522,1211
103090,159492,185252,1.9405791285999998,-8.6237326504,-4.0845481781999995,1212
103099,159521,185257,1.8484554585000001,-8.5411802707,-3.9565321691,1213
103142,159530,185255,2.0231315083,-8.6165541826,-3.8991044267,1214
103142,159547,185243,1.8927226765999998,-8.8307118053,-3.996013742,1215
103162,159565,185281,2.0662023151,-8.7194455544,-4.0271204358,1216
103219,159551,185264,1.8209379986,-8.697910151,-3.9780675724999996,1217
103162,159563,185255,1.9692929998,-8.7038922075,-3.9254254753,1218
103059,159509,185287,2.1116659445,-8.721838377,-3.9589249917,1219
102955,159492,185291,1.9836499354,-8.662017812,-4.0055850324,1220
102875,159462,185209,1.8759729184,-8.7541414821,-3.9984065645999998,1221
102825,159441,185208,1.8352949342,-8.709874264,-3.9110685397,1222
102815,159445,185221,1.8400805794,-8.6069828922,-3.9254254753,1223
102837,159435,185205,1.8939190879,-8.7385881352,-4.0055850324,1224
102877,159447,185204,1.9286150156,-8.5627156741,-3.9170505962,1225
102903,159455,185198,2.0063817501,-8.6213398278,-3.960121403,1226
102898,159450,185199,1.9118652574,-8.6572321668,-4.0749768878,1227
102921,159456,185174,1.9549360641999998,-8.6763747476,-3.9649070482,1228
102949,159439,185179,1.9405791285999998,-8.764909183799999,-3.9326039431,1229
102940,159467,185203,2.0362920326,-8.6835532154,-3.9972101532999997,1230
102960,159456,185194,1.9310078382,-8.7361953126,-3.8967116041,1231
102981,159437,185185,1.8759729184,-8.6428752312,-3.9529429352,1232
103003,159427,185203,1.9549360641999998,-8.764909183799999,-3.9792639838,1233
103039,159370,185195,1.8975083218,-8.6440716425,-3.9493537012999997,1234
103060,159431,185210,2.0159530405,-8.7553378934,-3.9912280968,1235
103076,159534,185222,1.8352949342,-8.6691962798,-3.9553357578,1236
103097,159463,185197,1.9190437251999999,-8.806783579300001,-3.9936209194,1237
103118,159524,185231,1.9716858223999998,-8.7637127725,-3.9314075318,1238
103134,159474,185218,1.7874384822,-8.757730716,-3.8823546685,1239
103062,159489,185244,1.8747765071,-8.828318982699999,-3.9230326527000003,1240
102955,159471,185195,1.9334006607999998,-8.7720876516,-3.9158541848999997,1241
102869,159401,185185,2.1080767106,-8.7361953126,-3.888336725,1242
102809,159381,185203,1.8400805794,-8.638089586,-3.7866417645,1243
102776,159401,185162,2.0374884439,-8.6225362391,-3.9481572899999997,1244
102770,159372,185158,1.9633109433,-8.721838377,-3.8416766843000003,1245
102819,159339,185127,1.9704894111,-8.6560357555,-3.8679977328999997,1246
102849,159377,185152,1.998006871,-8.5651084967,-3.9194434188,1247
102839,159328,185156,1.9178473139,-8.6153577713,-3.9302111204999997,1248
102869,159384,185129,1.9597217094,-8.6512501103,-3.9302111204999997,1249
102872,159332,185150,1.8305092889999999,-8.717052731799999,-3.8584264425,1250
102877,159378,185136,2.057827436,-8.7840517646,-3.9158541848999997,1251
102970,159365,185175,1.9836499354,-8.793623055,-4.0701912426,1252
102914,159397,185137,1.8759729184,-8.7469630143,-3.9170505962,1253
102959,159364,185146,1.9214365478,-8.5890367227,-3.9816568063999997,1254
102980,159392,185203,2.0315063874,-8.5890367227,-3.9553357578,1255
103007,159398,185181,2.0171494518,-8.6608214007,-3.9864424516000003,1256
103024,159408,185188,1.79461695,-8.8271225714,-3.9529429352,1257
103055,159434,185159,2.081755662,-8.6476608764,-3.9577285803999995,1258
103088,159421,185165,1.998006871,-8.7242311996,-3.996013742,1259
103098,159423,185224,2.0901305410999997,-8.6069828922,-3.9804603951,1260
103052,159445,185187,1.806581063,-8.717052731799999,-3.9385859996,1261
102951,159405,185172,1.8412769907000002,-8.7146599092,-3.9744783386,1262
102833,159356,185181,1.9836499354,-8.4562350684,-3.9996029759000002,1263
102765,159330,185143,2.1308085253,-8.6763747476,-4.0295132584,1264
102693,159277,185156,1.9166509025999998,-8.6596249894,-3.9349967657,1265
102674,159314,185138,1.9525432416,-8.7900338211,-4.0295132584,1266
102727,159314,185140,1.9357934834,-8.6668034572,-3.9529429352,1267
102755,159302,185148,1.9716858223999998,-8.7026957962,-4.0295132584,1268
102788,159323,185179,1.9836499354,-8.7553378934,-4.0175491454,1269
102816,159340,185162,1.9369898947,-8.8163548697,-3.9984065645999998,1270
102806,159345,185143,1.9286150156,-8.6153577713,-4.0295132584,1271
102842,159339,185149,2.0853448959,-8.7314096674,-3.912264951,1272
102859,159290,185134,1.9070796122,-8.7050886188,-3.9529429352,1273
102881,159391,185169,2.0051853388,-8.654839344200001,-4.06779842,1274
102912,159300,185142,2.0362920326,-8.7768732968,-3.996013742,1275
102931,159377,185134,1.9872391693,-8.5938223679,-4.0366917262,1276
102955,159364,185160,2.0087745727,-8.5998044244,-3.9625142255999997,1277
102997,159400,185163,2.0147566292,-8.7421773691,-3.9445680561,1278
102980,159430,185237,1.9310078382,-8.6727855137,-4.0175491454,1279
103039,159464,185204,1.9597217094,-8.6668034572,-3.9936209194,1280
103080,159444,185179,1.9728822337,-8.7146599092,-3.9984065645999998,1281
103088,159476,185241,2.0075781614,-8.6967137397,-4.031906081,1282
103042,159431,185206,2.0111673952999998,-8.781658942,-4.0007993872,1283
102904,159414,185203,1.9417755399,-8.6010008357,-4.0630127748,1284
102781,159376,185205,1.91425808,-8.5866439001,-4.0869410008000004,1285
102737,159351,185163,2.0135602179,-8.6572321668,-4.0247276132000005,1286
102686,159258,185150,2.0147566292,-8.6488572877,-3.9254254753,1287
102678,159336,185166,1.8592231602,-8.708677852700001,-3.9254254753,1288
102704,159345,185158,1.9704894111,-8.769694829,-3.960121403,1289
102736,159345,185139,1.9992032822999999,-8.6584285781,-4.0450666053,1290
102779,159360,185123,1.9728822337,-8.6763747476,-4.0103706776,1291
102759,159330,185166,1.842473402,-8.7409809578,-4.0725840652,1292
102813,159348,185157,1.9525432416,-8.7385881352,-3.9541393465,1293
102831,159329,185163,1.962114532,-8.6608214007,-3.9876388629,1294
102848,159369,185177,2.105683888,-8.6225362391,-3.9505501125999998,1295
102861,159349,185154,1.9669001771999999,-8.628518295600001,-4.0055850324,1296
102899,159368,185156,1.8879370314,-8.709874264,-3.9218362414,1297
102915,159349,185134,2.0865413072,-8.6608214007,-3.9912280968,1298
102940,159359,185144,2.0518453795,-8.650053698999999,-3.9696926934,1299
102956,159385,185184,1.8927226765999998,-8.6763747476,-4.0103706776,1300
103003,159379,185171,1.9322042495,-8.7062850301,-3.9505501125999998,1301
103028,159353,185159,1.9932212258000002,-8.707481441399999,-3.9577285803999995,1302
103048,159353,185147,1.9704894111,-8.7158563205,-3.9984065645999998,1303
103042,159318,185124,1.8675980393,-8.7445701917,-4.031906081,1304
102971,159371,185191,2.0231315083,-8.7768732968,-3.9134613623,1305
102823,159333,185155,2.0183458631,-8.6189470052,-3.9720855159999995,1306
102750,159275,185139,2.0171494518,-8.6177505939,-3.9505501125999998,1307
102671,159292,185083,1.8987047331,-8.6596249894,-3.9720855159999995,1308
102646,159275,185122,1.9561324755,-8.7254276109,-3.9026936606000002,1309
102708,159267,185106,2.0051853388,-8.8151584584,-3.9780675724999996,1310
102695,159264,185067,1.8556339263000001,-8.6727855137,-3.8895331363000003,1311
102743,159224,185079,1.7670994901,-8.7050886188,-3.9613178143,1312
102768,159272,185103,1.8269200550999998,-8.5555372063,-3.9266218866,1313
102769,159291,185101,2.0542382021,-8.7290168448,-3.8560336199000003,1314
102789,159274,185104,1.8436698133,-8.7601235386,-3.8404802730000003,1315
102814,159279,185109,1.9357934834,-8.7062850301,-3.960121403,1316
102821,159282,185099,1.8711872732,-8.7026957962,-3.9194434188,1317
102842,159277,185101,1.9106688461,-8.6787675702,-3.8608192651000004,1318
102870,159298,185052,1.9238293703999998,-8.6931245058,-3.9864424516000003,1319
102914,159328,185100,1.9022939669999999,-8.7314096674,-3.8847474911,1320
102946,159311,185122,2.0865413072,-8.7182491431,-3.9146577735999997,1321
102966,159338,185169,1.8927226765999998,-8.6129649487,-3.9744783386,1322
103001,159291,185134,1.9178473139,-8.774480474199999,-3.9912280968,1323
103062,159375,185140,2.009970984,-8.641678819900001,-3.9876388629,1324
103047,159380,185183,1.8951154991999999,-8.694320917099999,-3.9134613623,1325
103032,159338,185162,1.9752750562999999,-8.6835532154,-3.9326039431,1326
102923,159394,185128,1.9034903783000001,-8.6967137397,-3.9409788222,1327
102791,159300,185114,1.9740786449999999,-8.7780697081,-3.9302111204999997,1328
102722,159292,185102,1.9489540077,-8.7361953126,-3.9672998708,1329
102677,159261,185079,1.9429719511999999,-8.6668034572,-4.0414773714,1330
102675,159272,185088,2.0063817501,-8.7110706753,-4.0295132584,1331
102713,159278,185142,1.9716858223999998,-8.6524465216,-3.9900316855,1332
102739,159292,185090,1.8759729184,-8.6584285781,-3.9206398301,1333
102776,159282,185096,1.938186306,-8.709874264,-3.9409788222,1334
102812,159308,185087,1.998006871,-8.6249290617,-4.0007993872,1335
102800,159299,185110,1.8508482811000002,-8.6644106346,-3.9649070482,1336
102808,159303,185112,1.9657037659,-8.720641965699999,-4.0342989036,1337
102825,159326,185120,1.8963119105000001,-8.543573093300001,-3.9625142255999997,1338
102864,159337,185141,1.8616159827999998,-8.6237326504,-4.091726646,1339
102908,159343,185117,2.0673987264,-8.6763747476,-3.9493537012999997,1340
102931,159342,185159,1.9166509025999998,-8.6213398278,-3.9170505962,1341
102950,159351,185175,2.0793628394,-8.7409809578,-3.9385859996,1342
102945,159364,185148,1.9238293703999998,-8.5950187792,-4.019941968,1343
102993,159363,185149,2.0267207422,-8.709874264,-3.9864424516000003,1344
103020,159388,185179,2.0087745727,-8.7732840629,-3.9445680561,1345
103044,159401,185212,1.8759729184,-8.6883388606,-3.960121403,1346
103089,159401,185185,1.8879370314,-8.5675013193,-3.8955151927999996,1347
103040,159422,185218,1.9920248145,-8.6715891024,-3.9577285803999995,1348
102923,159344,185194,1.9022939669999999,-8.7122670866,-3.9672998708,1349
102827,159350,185129,1.9872391693,-8.6584285781,-4.0271204358,1350
102752,159311,185101,2.0087745727,-8.6033936583,-3.9098721283999995,1351
102709,159312,185139,2.0231315083,-8.6644106346,-3.9936209194,1352
102678,159340,185120,1.938186306,-8.636893174699999,-3.8512479747,1353
102712,159280,185103,2.0183458631,-8.7601235386,-4.0390845488,1354
102738,159288,185109,1.9669001771999999,-8.7038922075,-4.0366917262,1355
102763,159285,185132,1.9274186043000001,-8.7242311996,-3.9553357578,1356
102799,159300,185098,1.9704894111,-8.641678819900001,-4.0378881375,1357
102805,159359,185134,1.9357934834,-8.7194455544,-3.9912280968,1358
102871,159342,185137,2.0889341298,-8.7122670866,-4.0737804765,1359
102843,159341,185153,2.0003996936,-8.7302132561,-3.9553357578,1360
102891,159332,185122,1.9405791285999998,-8.636893174699999,-3.9553357578,1361
102906,159308,185159,1.9537396529,-8.7541414821,-3.9529429352,1362
102922,159323,185154,2.0434705004000002,-8.745766603,-3.9565321691,1363
102942,159352,185135,1.8975083218,-8.720641965699999,-3.9984065645999998,1364
103027,159355,185117,1.8568303376,-8.6189470052,-3.996013742,1365
103036,159359,185158,1.9872391693,-8.6572321668,-3.9577285803999995,1366
103049,159397,185144,2.0027925162,-8.5986080131,-3.9206398301,1367
103088,159388,185154,2.0709879603,-8.7433737804,-4.0510486617999995,1368
103090,159405,185181,1.9824535241,-8.7361953126,-3.9266218866,1369
103050,159379,185194,1.9357934834,-8.636893174699999,-4.0055850324,1370
102944,159342,185145,1.9262221929999999,-8.7996051115,-3.9768711611999996,1371
102838,159324,185146,1.9860427579999997,-8.6093757148,-4.019941968,1372
102769,159291,185141,2.0195422744,-8.7960158776,-3.9637106368999997,1373
102743,159298,185113,1.8855442087999998,-8.7254276109,-3.9254254753,1374
102722,159298,185118,2.009970984,-8.7290168448,-3.9385859996,1375
102788,159280,185144,1.9118652574,-8.653642932899999,-3.996013742,1376
102807,159280,185097,2.0398812665,-8.833104627900001,-3.8560336199000003,1377
102830,159323,185098,1.9716858223999998,-8.6093757148,-4.0582271296000005,1378
102858,159306,185113,1.8005990065,-8.8091764019,-4.019941968,1379
102865,159323,185122,1.9106688461,-8.5316089803,-3.8727833781,1380
102880,159315,185107,1.9286150156,-8.8223369262,-3.9266218866,1381
102959,159334,185111,1.8711872732,-8.628518295600001,-3.9086757171,1382
102978,159338,185169,1.9549360641999998,-8.757730716,-3.8931223702,1383
102956,159330,185130,1.9692929998,-8.6440716425,-3.8823546685,1384
103000,159354,185102,1.9286150156,-8.6931245058,-3.9864424516000003,1385
103010,159344,185161,1.8759729184,-8.6321075295,-3.9146577735999997,1386
103013,159360,185108,1.8795621523000001,-8.806783579300001,-3.984049629,1387
103065,159418,185157,1.9680965885,-8.6763747476,-3.8835510798,1388
103071,159394,185141,2.0398812665,-8.7684984177,-3.912264951,1389
103115,159409,185130,2.0135602179,-8.697910151,-3.9768711611999996,1390
103125,159410,185140,2.0291135648000003,-8.6464644651,-3.9218362414,1391
103081,159420,185181,1.8735800958,-8.61416136,-3.8799618459,1392
102968,159363,185160,1.9669001771999999,-8.694320917099999,-3.9696926934,1393
102871,159365,185147,2.0147566292,-8.6775711589,-4.0127635002,1394
102835,159332,185190,1.9549360641999998,-8.61416136,-4.0414773714,1395
102795,159317,185165,1.9549360641999998,-8.5974116018,-3.9637106368999997,1396
102813,159359,185153,1.9836499354,-8.6309111182,-4.0510486617999995,1397
102863,159321,185157,1.9010975557,-8.7314096674,-4.0139599115,1398
102892,159337,185113,2.0147566292,-8.5926259566,-4.0127635002,1399
102886,159303,185144,1.8699908619,-8.6249290617,-3.9457644674,1400
102796,159325,185159,1.9549360641999998,-8.697910151,-3.9936209194,1401
102930,159328,185142,1.9022939669999999,-8.7050886188,-3.936193177,1402
102945,159361,185144,2.0207386857,-8.7361953126,-3.9888352742,1403
102952,159362,185133,1.9154544913,-8.640482408599999,-3.9696926934,1404
102979,159396,185163,2.045863323,-8.6656070459,-4.031906081,1405
103006,159379,185201,2.0207386857,-8.6787675702,-3.984049629,1406
103047,159393,185144,1.8532411037,-8.6392859973,-3.9134613623,1407
103068,159425,185184,1.8580267489000002,-8.6763747476,-3.996013742,1408
103136,159410,185195,2.0327027987,-8.7194455544,-3.9720855159999995,1409
103137,159446,185192,1.9310078382,-8.6668034572,-3.9206398301,1410
103159,159468,185226,1.91425808,-8.6883388606,-4.0139599115,1411
103163,159467,185209,1.9262221929999999,-8.8307118053,-4.0773697104,1412
103181,159424,185199,1.8460626359,-8.6572321668,-3.9529429352,1413
103166,159455,185209,1.890329854,-8.681160392799999,-3.8775690233,1414
103092,159391,185205,1.9226329591,-8.681160392799999,-3.9661034595,1415
102991,159417,185199,2.0494525569,-8.6428752312,-4.079762533,1416
102907,159368,185203,1.9549360641999998,-8.7194455544,-4.0091742663,1417
102864,159368,185126,2.0171494518,-8.653642932899999,-4.0295132584,1418
102865,159383,185197,1.9692929998,-8.6883388606,-3.9996029759000002,1419
102885,159302,185184,2.0542382021,-8.654839344200001,-3.9768711611999996,1420
102901,159404,185177,1.9920248145,-8.6428752312,-3.996013742,1421
102949,159367,185168,1.9513468303000001,-8.7828553533,-3.8679977328999997,1422
102958,159359,185160,1.79461695,-8.707481441399999,-4.0163527341,1423
102988,159375,185188,1.9298114269,-8.5411802707,-4.007977855,1424
102980,159386,185174,1.9489540077,-8.6069828922,-3.9505501125999998,1425
103010,159386,185191,1.7694923127,-8.774480474199999,-3.9948173307,1426
103035,159397,185190,2.1224336462,-8.6225362391,-4.0295132584,1427
103054,159305,185177,1.9776678789,-8.6392859973,-3.9577285803999995,1428
103081,159429,185177,2.0566310246999997,-8.7876409985,-3.9984065645999998,1429
103097,159409,185193,1.9788642901999998,-8.697910151,-4.0151563228,1430
103190,159445,185226,1.8831513862,-8.6656070459,-4.0725840652,1431
103160,159457,185205,2.0159530405,-8.5986080131,-3.9625142255999997,1432
103104,159463,185210,2.0003996936,-8.6321075295,-4.0486558392,1433
103214,159471,185216,1.9561324755,-8.5938223679,-3.9302111204999997,1434
103223,159472,185249,1.9573288867999998,-8.6177505939,-3.9720855159999995,1435
103225,159474,185219,1.91425808,-8.7290168448,-3.9349967657,1436
103135,159462,185204,1.866401628,-8.7038922075,-3.8656049103,1437
103040,159460,185186,1.9597217094,-8.6596249894,-4.0223347905999995,1438
102981,159440,185176,2.0518453795,-8.6907316832,-4.0486558392,1439
102940,159431,185204,1.9561324755,-8.7385881352,-3.9864424516000003,1440
102957,159392,185147,1.9166509025999998,-8.7541414821,-3.9314075318,1441
102986,159388,185123,2.0111673952999998,-8.7409809578,-3.912264951,1442
102975,159404,185171,1.9190437251999999,-8.7912302324,-3.9493537012999997,1443
103006,159398,185181,2.0386848552,-8.7684984177,-4.0426737827,1444
103012,159401,185169,2.0279171535,-8.584251077500001,-4.0175491454,1445
103030,159368,185168,1.91425808,-8.626125473,-3.8488551521,1446
103039,159343,185135,1.8053846516999998,-8.6656070459,-3.8979080154,1447
103059,159422,185176,2.0518453795,-8.876175434699999,-3.8632120877,1448
103084,159359,185176,1.9226329591,-8.641678819900001,-3.924229064,1449
103106,159393,185172,1.8352949342,-8.752945070800001,-3.8751762007000004,1450
103130,159410,185134,1.8364913454999998,-8.6033936583,-4.0007993872,1451
103134,159395,185238,1.8568303376,-8.653642932899999,-3.9888352742,1452
103169,159422,185184,2.0470597343,-8.7122670866,-3.9768711611999996,1453
103206,159449,185173,1.8233308212,-8.7421773691,-3.9074793058,1454
103234,159448,185187,1.9429719511999999,-8.6727855137,-3.9170505962,1455
103229,159432,185177,1.9549360641999998,-8.6787675702,-3.9684962821,1456
103258,159478,185210,2.0075781614,-8.761319949899999,-3.9014972492999997,1457
103247,159465,185200,1.9501504189999999,-8.752945070800001,-3.8416766843000003,1458
103188,159450,185223,1.91425808,-8.6691962798,-3.9373895883000003,1459
103060,159426,185200,1.9585252981,-8.7505522482,-4.0055850324,1460
103023,159377,185203,2.0051853388,-8.6129649487,-4.0043886211,1461
102977,159372,185152,1.9860427579999997,-8.7194455544,-3.9003008379999997,1462
102968,159373,185170,1.9058832009,-8.7038922075,-3.8919259589,1463
102996,159385,185149,2.0159530405,-8.6691962798,-3.9924245080999996,1464
103020,159380,185191,1.9262221929999999,-8.707481441399999,-3.8967116041,1465
103053,159407,185161,1.9094724347999998,-8.6476608764,-3.9493537012999997,1466
103120,159421,185150,1.9740786449999999,-8.6153577713,-3.9517465239000003,1467
103099,159408,185164,1.8771693297,-8.5914295453,-3.9182470075,1468
103091,159413,185187,1.9357934834,-8.7756768855,-3.8931223702,1469
103115,159434,185177,1.9812571127999998,-8.6967137397,-3.9433716447999996,1470
103090,159457,185197,2.0303099761,-8.749355836900001,-3.9170505962,1471
103170,159432,185193,1.9513468303000001,-8.694320917099999,-3.9134613623,1472
103165,159482,185202,2.0781664281,-8.7290168448,-3.9302111204999997,1473
103196,159468,185207,1.9262221929999999,-8.6189470052,-3.9792639838,1474
103236,159480,185196,1.8927226765999998,-8.6835532154,-3.9230326527000003,1475
103257,159495,185238,1.9070796122,-8.7828553533,-3.9397824109,1476
103267,159511,185226,1.8412769907000002,-8.7505522482,-3.8488551521,1477
103280,159506,185214,2.03389921,-8.6189470052,-3.9589249917,1478
103304,159528,185250,1.9262221929999999,-8.626125473,-3.9445680561,1479
103317,159509,185257,1.9118652574,-8.7840517646,-3.9266218866,1480
103239,159511,185232,1.9573288867999998,-8.6787675702,-3.8943187815,1481
103153,159470,185228,1.9106688461,-8.6560357555,-4.0654055974,1482
103107,159430,185228,2.0554346134,-8.6835532154,-3.9816568063999997,1483
103037,159442,185199,1.8999011444,-8.6297147069,-3.9481572899999997,1484
103016,159427,185172,2.0315063874,-8.7146599092,-3.9864424516000003,1485
103025,159430,185178,1.9573288867999998,-8.7266240222,-3.9888352742,1486
103008,159409,185184,2.0446669117,-8.7194455544,-3.9888352742,1487
103075,159406,185205,1.9585252981,-8.7146599092,-3.9014972492999997,1488
103090,159459,185215,1.9537396529,-8.6392859973,-4.0342989036,1489
103110,159427,185218,1.9920248145,-8.7409809578,-4.019941968,1490
103139,159421,185200,1.9860427579999997,-8.7541414821,-3.8811582571999996,1491
103133,159460,185165,2.0291135648000003,-8.584251077500001,-3.9984065645999998,1492
103166,159440,185181,1.9405791285999998,-8.707481441399999,-3.9397824109,1493
103163,159444,185208,1.9788642901999998,-8.7122670866,-3.9338003543999998,1494
103145,159462,185194,2.0721843716,-8.6512501103,-3.9984065645999998,1495
103208,159421,185199,2.0231315083,-8.596215190499999,-3.9984065645999998,1496
103238,159471,185224,2.03389921,-8.7852481759,-3.9493537012999997,1497
103259,159483,185228,1.79461695,-8.7122670866,-3.9290147091999996,1498
103322,159496,185238,1.9728822337,-8.5675013193,-3.9110685397,1499
103301,159495,185214,1.9477575963999998,-8.7505522482,-3.960121403,1500
103326,159479,185241,1.8951154991999999,-8.5459659159,-3.9912280968,1501
103317,159432,185198,1.9058832009,-8.7840517646,-3.9026936606000002,1502
103223,159466,185246,2.0039889275,-8.7708912403,-3.9302111204999997,1503
103123,159456,185225,1.9812571127999998,-8.6105721261,-3.9314075318,1504
103067,159422,185181,1.9920248145,-8.6452680538,-3.9852460403000003,1505
103032,159420,185205,1.8963119105000001,-8.6345003521,-3.8931223702,1506
103010,159405,185186,1.9716858223999998,-8.6321075295,-3.960121403,1507
103046,159391,185173,1.9740786449999999,-8.7661055951,-3.9565321691,1508
103072,159396,185175,1.9645073545999998,-8.6153577713,-3.9984065645999998,1509
103088,159388,185164,2.0243279196,-8.673981925,-3.9876388629,1510
103113,159455,185188,1.9932212258000002,-8.745766603,-3.9385859996,1511
103120,159391,185197,1.9597217094,-8.662017812,-3.8787654346,1512
103112,159381,185169,1.8544375149999999,-8.6105721261,-3.8368910391,1513
103053,159406,185199,1.9956140484,-8.752945070800001,-3.8333018051999996,1514
103147,159348,185163,1.9585252981,-8.6273218843,-4.055834307,1515
103149,159344,185190,2.1463618722,-8.61416136,-3.9278182979,1516
103170,159334,185110,1.8711872732,-8.5507515611,-4.0031922098,1517
103198,159361,185183,1.9226329591,-8.685946038,-3.8668013215999997,1518
