green,red,IR,acc_x,acc_y,acc_z,sample_index
88246,195489,221089,-1.0660024683,9.5246303593,-3.0209385325,1
88333,195498,221042,-1.2299108163999999,9.3487578982,-2.9479574432,2
88430,195422,221077,-1.1700902514,9.3702933016,-2.9132615155,3
88528,195421,221059,-1.2287144051,9.5018985446,-2.8594230069999997,4
88620,195442,221061,-1.2107682356,9.3655076564,-2.9551359109999997,5
88690,195428,221067,-1.1676974288,9.4576313265,-2.9001009912,6
88776,195445,221057,-1.2095718243,9.3750789468,-2.9048866364,7
88861,195406,221008,-1.1964113,9.3667040677,-2.8558337731,8
88934,195388,221020,-1.1940184774,9.6012006825,-2.9084758702999998,9
89044,195439,220999,-1.0695917021999999,9.4313102779,-2.9862426048,10
89108,195421,221033,-1.0959127508,9.5150590689,-2.8522445392,11
89170,195408,221037,-1.2239287599,9.367900479,-2.8953153460000003,12
89226,195415,220961,-1.0935199281999999,9.403792818,-2.9635107901000004,13
89041,195371,220931,-1.1557333158,9.320044027,-2.979064137,14
88376,195303,220956,-1.2239287599,9.3499543095,-2.9096722816000002,15
87730,195225,220867,-1.1509476706000001,9.385846648500001,-2.9527430884,16
87488,195239,220846,-1.1892328322,9.4767739073,-2.8414768375,17
87486,195180,220800,-1.0456634762,9.5198447141,-2.8677978860999995,18
87563,195186,220829,-1.1258230332999999,9.3355973739,-2.9479574432,19
87616,195237,220813,-1.1928220661,9.4983093107,-2.9084758702999998,20
87752,195211,220833,-1.0600204118,9.5018985446,-2.9048866364,21
87793,195208,220810,-1.2454641632999999,9.4612205604,-2.8390840148999996,22
87824,195196,220842,-1.0396814197,9.4013999954,-2.9742784918,23
87799,195210,220796,-1.0779665813,9.4229353988,-2.8390840148999996,24
87790,195168,220795,-1.2191431147,9.399007172800001,-2.9443682093000003,25
87831,195179,220848,-1.1772687192,9.5342016497,-2.8797619991,26
87899,195146,220826,-1.1916256548,9.3726861242,-2.9060830476999997,27
87997,195129,220779,-1.1940184774,9.4360959231,-2.8761727652,28
88082,195123,220762,-1.1784651305,9.5700939887,-2.8582265956999997,29
88183,195097,220823,-1.1521440819,9.4600241491,-2.7804598612,30
88272,195127,220813,-1.1676974288,9.3655076564,-2.9718856692,31
88377,195162,220853,-1.1772687192,9.3774717694,-2.9862426048,32
88472,195155,220845,-1.1964113,9.320044027,-2.9623143788,33
88618,195192,220838,-1.1641081949,9.4492564474,-2.99102825,34
88686,195165,220801,-1.1102696864,9.5342016497,-2.8965117573,35
88781,195208,220811,-1.208375413,9.4301138666,-2.9359933301999996,36
88871,195220,220815,-1.1808579531,9.518648302799999,-2.8965117573,37
88899,195197,220787,-1.1712866627,9.3655076564,-2.8331019584000003,38
88514,195192,220784,-1.244267752,9.3738825355,-2.9383861528,39
87753,195117,220741,-1.1461620254,9.290133744499999,-2.8941189347,40
87217,195033,220687,-1.2358928729,9.4133641084,-2.9599215562,41
87086,195081,220686,-1.2610175101999999,9.4061856406,-2.8941189347,42
87071,195044,220672,-1.1425727915,9.3870430598,-2.8522445392,43
87115,195034,220725,-1.1796615418,9.463613383,-2.9982067177999996,44
87092,195019,220684,-1.2598210989,9.3667040677,-2.9563323222999998,45
87175,195017,220686,-1.1138589203,9.4719882621,-2.8151557889,46
87270,195030,220680,-1.2634103328,9.4181497536,-2.8725835312999997,47
87282,195045,220641,-1.2370892842,9.5437729401,-2.8989045799,48
87291,195048,220667,-1.0325029519,9.4660062056,-2.8761727652,49
87335,195018,220677,-1.2179467034,9.4624169717,-2.8869404668999996,50
87370,195023,220655,-1.1653046062,9.3702933016,-2.9036902251,51
87473,195036,220683,-1.1892328322,9.3822574146,-2.8582265956999997,52
87584,195001,220712,-1.2538390423999999,9.4097748745,-2.9874390161,53
87683,194993,220636,-1.0995019847,9.4719882621,-2.8689942974,54
87814,194986,220658,-1.1988041226,9.5617191096,-2.9288148624,55
87908,195031,220653,-1.2119646469,9.3284189061,-2.9288148624,56
88018,195007,220674,-1.1557333158,9.3822574146,-2.9001009912,57
88124,195013,220694,-1.1509476706000001,9.308079914,-2.9431717980000003,58
88239,195045,220701,-1.1497512593,9.4337031005,-2.9766713144,59
88335,195091,220654,-1.1509476706000001,9.420542576199999,-2.7984060307000003,60
88484,195078,220641,-1.1090732750999999,9.4719882621,-2.9132615155,61
88541,195039,220688,-1.1676974288,9.487541608999999,-3.0364918793999998,62
88678,195101,220664,-1.0791629926,9.3355973739,-2.9300112737000004,63
88761,195062,220663,-1.1318050897999998,9.4672026169,-2.9288148624,64
88797,195091,220647,-1.2035897678,9.463613383,-2.9288148624,65
88907,195059,220640,-1.2179467034,9.5653083435,-2.9072794589999997,66
89006,195059,220698,-1.184447187,9.4325066892,-2.9048866364,67
89089,195026,220628,-1.148554848,9.522237536699999,-2.8462624827,68
89198,195050,220619,-1.1162517428999998,9.397810761499999,-2.9934210726,69
89302,195066,220649,-1.1138589203,9.384650237199999,-2.9324040963,70
89366,195019,220634,-1.1940184774,9.274580397600001,-2.8761727652,71
89462,195118,220607,-1.1006983959999999,9.3894358824,-2.9455646206,72
89541,195090,220668,-1.1784651305,9.4241318101,-2.9407789753999998,73
89533,195095,220634,-1.2191431147,9.3930251163,-2.8977081686,74
89389,195088,220628,-1.136590735,9.4408815683,-2.9718856692,75
88632,195036,220616,-1.3268201317000001,9.3894358824,-2.8845476443,76
87876,194935,220580,-1.232303639,9.4923272542,-2.8893332895,77
87622,194916,220519,-1.0719845248,9.495916488099999,-2.931207685,78
87546,194915,220496,-1.1676974288,9.497112899400001,-2.8151557889,79
87561,194884,220495,-1.2753744458,9.475577496,-2.9647072014,80
87611,194921,220511,-1.0899306943,9.290133744499999,-2.8151557889,81
87654,194954,220510,-1.1808579531,9.3690968903,-2.7888347403,82
87657,194909,220490,-1.1940184774,9.5509514079,-2.87138712,83
87741,194806,220441,-1.1784651305,9.6023970938,-2.8905297008,84
87716,194825,220516,-1.1952148887,9.3690968903,-2.9623143788,85
87720,194920,220435,-1.1629117836,9.455238503899999,-2.9228328059,86
87764,194870,220484,-1.1868400096,9.4791667299,-2.9252256285000002,87
87828,194936,220483,-1.1066804525,9.4325066892,-2.8701907087,88
87922,194856,220484,-1.1521440819,9.5042913672,-2.8630122409,89
88024,194837,220532,-1.1665010175000001,9.455238503899999,-2.9718856692,90
88121,194872,220446,-1.1162517428999998,9.5054877785,-2.919243572,91
88234,194864,220522,-1.1748758966000001,9.3260260835,-2.9587251449000003,92
88330,194864,220463,-1.2418749294,9.4456672135,-2.9551359109999997,93
88396,194906,220473,-1.0935199281999999,9.5342016497,-2.8558337731,94
88576,194891,220463,-1.1617153723,9.3427758417,-2.8845476443,95
88674,194914,220444,-1.2107682356,9.3487578982,-2.9395825641,96
88759,194902,220476,-1.1964113,9.4169533423,-2.8295127245,97
88808,194882,220483,-1.2107682356,9.4803631412,-2.9599215562,98
88907,194956,220480,-1.1306086785,9.3966143502,-2.8821548217,99
88908,194904,220475,-1.052841944,9.4241318101,-2.9168507494,100
89082,194884,220446,-1.0779665813,9.509077012399999,-2.87138712,101
89172,194928,220442,-1.2299108163999999,9.4061856406,-2.8594230069999997,102
89200,194910,220441,-1.0971091621,9.4253282214,-2.9168507494,103
89275,194921,220487,-1.148554848,9.4061856406,-2.8582265956999997,104
89386,194889,220425,-1.2275179938,9.367900479,-2.8761727652,105
89472,194946,220459,-1.160518961,9.379864592,-2.9084758702999998,106
89583,194952,220423,-1.2646067441000002,9.4815595525,-2.8881368781999996,107
89658,194939,220437,-1.1688938401,9.5078806011,-2.9024938138,108
89478,194955,220454,-1.1270194446,9.4468636248,-2.8271199019,109
88874,194893,220432,-1.136590735,9.4899344316,-2.8654050635,110
88177,194786,220337,-1.1557333158,9.3044906801,-2.8701907087,111
87917,194766,220285,-1.1006983959999999,9.4803631412,-2.8857440556,112
87853,194739,220282,-1.136590735,9.4133641084,-2.9551359109999997,113
87889,194730,220305,-1.1521440819,9.4576313265,-2.9886354273999998,114
87948,194717,220322,-1.1461620254,9.5294160045,-2.8654050635,115
88001,194704,220323,-1.1557333158,9.384650237199999,-2.8857440556,116
88074,194738,220251,-1.148554848,9.4540420926,-2.8151557889,117
88058,194744,220278,-1.1294122672,9.3284189061,-2.9575287336000002,118
88030,194711,220273,-1.2634103328,9.391828705,-2.9001009912,119
88026,194757,220338,-1.2275179938,9.3260260835,-2.967100024,120
88049,194704,220304,-1.1341979124,9.3726861242,-2.8857440556,121
88119,194715,220310,-1.0971091621,9.477970318599999,-2.8977081686,122
88200,194730,220281,-1.0971091621,9.477970318599999,-2.8977081686,123
88303,194717,220267,-1.0971091621,9.477970318599999,-2.8977081686,124
88394,194803,220286,-1.0971091621,9.477970318599999,-2.8977081686,125
88517,194738,220297,-1.0971091621,9.477970318599999,-2.8977081686,126
88635,194771,220320,-1.0971091621,9.477970318599999,-2.8977081686,127
88724,194772,220316,-1.0971091621,9.477970318599999,-2.8977081686,128
88803,194787,220308,-1.0971091621,9.477970318599999,-2.8977081686,129
88901,194787,220353,-1.0971091621,9.477970318599999,-2.8977081686,130
89002,194807,220289,-1.0971091621,9.477970318599999,-2.8977081686,131
89105,194802,220303,-1.0971091621,9.477970318599999,-2.8977081686,132
89178,194802,220316,-1.0971091621,9.477970318599999,-2.8977081686,133
89043,194765,220305,-1.0971091621,9.477970318599999,-2.8977081686,134
88426,194734,220254,-1.0971091621,9.477970318599999,-2.8977081686,135
87814,194684,220273,-1.0971091621,9.477970318599999,-2.8977081686,136
87491,194671,220207,-1.1868400096,9.391828705,-2.8941189347,137
87419,194659,220248,-1.2394821068,9.4707918508,-2.9718856692,138
87435,194680,220224,-1.1557333158,9.4600241491,-2.9503502657999996,139
87468,194629,220210,-1.1880364209,9.5030949559,-2.8821548217,140
87520,194685,220231,-1.1916256548,9.4767739073,-2.9647072014,141
87614,194653,220222,-1.184447187,9.4372923344,-2.9742784918,142
87673,194643,220191,-1.1389835576,9.4540420926,-2.8570301844,143
87696,194655,220174,-1.1258230332999999,9.3810610033,-2.9970103065,144
87726,194648,220261,-1.1258230332999999,9.3810610033,-2.9970103065,145
87776,194626,220196,-1.1258230332999999,9.3810610033,-2.9970103065,146
87842,194629,220235,-1.1258230332999999,9.3810610033,-2.9970103065,147
87924,194651,220189,-1.1258230332999999,9.3810610033,-2.9970103065,148
88031,194659,220216,-1.1258230332999999,9.3810610033,-2.9970103065,149
88164,194662,220217,-1.1258230332999999,9.3810610033,-2.9970103065,150
88270,194661,220222,-1.1258230332999999,9.3810610033,-2.9970103065,151
88376,194649,220257,-1.1258230332999999,9.3810610033,-2.9970103065,152
88488,194660,220240,-1.1258230332999999,9.3810610033,-2.9970103065,153
88598,194689,220255,-1.1258230332999999,9.3810610033,-2.9970103065,154
88712,194686,220291,-1.1258230332999999,9.3810610033,-2.9970103065,155
88812,194724,220267,-1.1258230332999999,9.3810610033,-2.9970103065,156
88920,194679,220232,-1.1258230332999999,9.3810610033,-2.9970103065,157
89005,194693,220261,-1.1258230332999999,9.3810610033,-2.9970103065,158
89088,194706,220207,-1.1258230332999999,9.3810610033,-2.9970103065,159
89173,194762,220196,-1.1258230332999999,9.3810610033,-2.9970103065,160
89270,194781,220225,-1.1258230332999999,9.3810610033,-2.9970103065,161
89374,194750,220242,-1.1258230332999999,9.3810610033,-2.9970103065,162
89468,194751,220166,-1.0815558152,9.4719882621,-2.9623143788,163
89556,194790,220256,-1.0815558152,9.4719882621,-2.9623143788,164
89656,194767,220288,-1.0815558152,9.4719882621,-2.9623143788,165
89751,194761,220279,-1.0815558152,9.4719882621,-2.9623143788,166
89827,194769,220225,-1.0815558152,9.4719882621,-2.9623143788,167
89918,194820,220266,-1.0815558152,9.4719882621,-2.9623143788,168
89992,194826,220276,-1.1198409768,9.4480600361,-2.9874390161,169
89766,194769,220245,-1.1198409768,9.4480600361,-2.9874390161,170
89064,194747,220204,-1.1198409768,9.4480600361,-2.9874390161,171
88418,194693,220194,-1.1198409768,9.4480600361,-2.9874390161,172
88128,194648,220149,-1.1198409768,9.4480600361,-2.9874390161,173
88029,194637,220113,-1.1198409768,9.4480600361,-2.9874390161,174
88024,194609,220160,-1.1198409768,9.4480600361,-2.9874390161,175
88007,194644,220126,-1.1198409768,9.4480600361,-2.9874390161,176
88054,194607,220140,-1.1198409768,9.4480600361,-2.9874390161,177
88110,194601,220161,-1.1198409768,9.4480600361,-2.9874390161,178
88120,194620,220138,-1.1198409768,9.4480600361,-2.9874390161,179
88124,194602,220166,-1.1198409768,9.4480600361,-2.9874390161,180
88125,194604,220121,-1.1198409768,9.4480600361,-2.9874390161,181
88152,194574,220118,-1.1198409768,9.4480600361,-2.9874390161,182
88201,194617,220138,-1.1198409768,9.4480600361,-2.9874390161,183
88291,194611,220102,-1.1198409768,9.4480600361,-2.9874390161,184
88374,194598,220109,-1.1198409768,9.4480600361,-2.9874390161,185
88475,194615,220134,-1.1198409768,9.4480600361,-2.9874390161,186
88574,194627,220106,-1.1198409768,9.4480600361,-2.9874390161,187
88664,194590,220091,-1.232303639,9.175278259699999,-2.8642086522,188
88944,194566,220085,-1.2095718243,9.3284189061,-2.9359933301999996,189
89023,194690,220115,-1.1270194446,9.5270231819,-2.9336005076,190
89128,194643,220112,-1.1760723079,9.4612205604,-2.8079773211,191
89210,194641,220084,-1.2299108163999999,9.5294160045,-2.8522445392,192
89241,194634,220119,-1.0803594039,9.4420779796,-2.9096722816000002,193
89387,194598,220136,-1.0348957745,9.583254513,-2.9096722816000002,194
89481,194650,220106,-1.1210373881,9.4624169717,-2.8594230069999997,195
89563,194707,220098,-1.1425727915,9.4827559638,-2.9096722816000002,196
89625,194700,220088,-1.1952148887,9.451649269999999,-2.9216363945999997,197
89712,194663,220115,-1.2191431147,9.3942215276,-2.9096722816000002,198
89804,194623,220134,-1.1330015010999999,9.5521478192,-2.9766713144,199
89802,194640,220091,-1.2514462198,9.367900479,-2.8570301844,200
89632,194633,220075,-1.1006983959999999,9.3415794304,-2.8953153460000003,201
89025,194607,220020,-1.1449656141,9.4013999954,-2.9359933301999996,202
88417,194519,219984,-1.1318050897999998,9.4145605197,-2.8785655878,203
88078,194472,219983,-1.1461620254,9.511469835,-2.9383861528,204
88165,194502,219944,-1.1270194446,9.4193461649,-2.8941189347,205
88206,194475,219928,-1.0504491214,9.4337031005,-2.8809584104000003,206
88179,194504,220013,-1.1174481541999999,9.475577496,-2.8917261120999997,207
88310,194390,219967,-1.136590735,9.3870430598,-2.7768706272999997,208
88345,194494,219950,-1.0923235169,9.3607220112,-2.9012974024999996,209
88355,194506,219961,-1.1916256548,9.410971285799999,-2.9383861528,210
88310,194508,219983,-1.4105689227,9.4672026169,-2.8450660714,211
88326,194465,219943,-1.1401799688999998,9.371489712899999,-2.8534409504999996,212
88358,194459,219989,-1.0947163395,9.379864592,-2.9455646206,213
88414,194464,219993,-1.0420742423,9.4229353988,-2.9072794589999997,214
88503,194471,219903,-1.1318050897999998,9.415756931,-2.9120651042,215
88614,194492,219970,-1.1916256548,9.3966143502,-2.9347969189,216
88705,194500,220023,-1.1892328322,9.5126662463,-2.9862426048,217
88797,194505,219959,-1.2155538808,9.443274390900001,-2.8642086522,218
88910,194551,219961,-1.1748758966000001,9.4229353988,-2.9216363945999997,219
88997,194565,220044,-1.2358928729,9.3750789468,-2.9491538545,220
89103,194562,220020,-1.220339526,9.399007172800001,-2.9024938138,221
89197,194559,220023,-1.220339526,9.399007172800001,-2.9024938138,222
89298,194560,219989,-1.220339526,9.399007172800001,-2.9024938138,223
89378,194550,220007,-1.220339526,9.399007172800001,-2.9024938138,224
89357,194550,220024,-1.220339526,9.399007172800001,-2.9024938138,225
88919,194526,219990,-1.220339526,9.399007172800001,-2.9024938138,226
88241,194505,219934,-1.220339526,9.399007172800001,-2.9024938138,227
87852,194456,219957,-1.220339526,9.399007172800001,-2.9024938138,228
87712,194427,219924,-1.220339526,9.399007172800001,-2.9024938138,229
87697,194452,219929,-1.220339526,9.399007172800001,-2.9024938138,230
87704,194411,219914,-1.220339526,9.399007172800001,-2.9024938138,231
87746,194423,219900,-1.220339526,9.399007172800001,-2.9024938138,232
87837,194421,219898,-1.220339526,9.399007172800001,-2.9024938138,233
87905,194420,219931,-1.220339526,9.399007172800001,-2.9024938138,234
87946,194446,219956,-1.220339526,9.399007172800001,-2.9024938138,235
87975,194440,219908,-1.220339526,9.399007172800001,-2.9024938138,236
88012,194420,219931,-1.1653046062,9.4456672135,-2.8127629663000002,237
88077,194429,219901,-1.1653046062,9.4456672135,-2.8127629663000002,238
88168,194440,219942,-1.1653046062,9.4456672135,-2.8127629663000002,239
88269,194447,219941,-1.1653046062,9.4456672135,-2.8127629663000002,240
88376,194457,219890,-1.1653046062,9.4456672135,-2.8127629663000002,241
88480,194425,219935,-1.1653046062,9.4456672135,-2.8127629663000002,242
88612,194494,219923,-1.1653046062,9.4456672135,-2.8127629663000002,243
88704,194457,219927,-1.1653046062,9.4456672135,-2.8127629663000002,244
88823,194490,219886,-1.1653046062,9.4456672135,-2.8127629663000002,245
88929,194521,219918,-1.1653046062,9.4456672135,-2.8127629663000002,246
89018,194486,219924,-1.1653046062,9.4456672135,-2.8127629663000002,247
89127,194506,219972,-1.1653046062,9.4456672135,-2.8127629663000002,248
89220,194537,219970,-1.1653046062,9.4456672135,-2.8127629663000002,249
89336,194530,219975,-1.1653046062,9.4456672135,-2.8127629663000002,250
89442,194532,219916,-1.1653046062,9.4456672135,-2.8127629663000002,251
89528,194547,219978,-1.1653046062,9.4456672135,-2.8127629663000002,252
89626,194517,220009,-1.1653046062,9.4456672135,-2.8127629663000002,253
89723,194565,219956,-1.1653046062,9.4456672135,-2.8127629663000002,254
89801,194513,219975,-1.1653046062,9.4456672135,-2.8127629663000002,255
89911,194565,220013,-1.1653046062,9.4456672135,-2.8127629663000002,256
89994,194566,219940,-1.1653046062,9.4456672135,-2.8127629663000002,257
90085,194594,219961,-1.1653046062,9.4456672135,-2.8127629663000002,258
90164,194553,219928,-1.1653046062,9.4456672135,-2.8127629663000002,259
90107,194609,219962,-1.1653046062,9.4456672135,-2.8127629663000002,260
89595,194580,219966,-1.1653046062,9.4456672135,-2.8127629663000002,261
88922,194479,219885,-1.1653046062,9.4456672135,-2.8127629663000002,262
88519,194478,219831,-1.1653046062,9.4456672135,-2.8127629663000002,263
88376,194415,219889,-1.1653046062,9.4456672135,-2.8127629663000002,264
88357,194443,219835,-1.1653046062,9.4456672135,-2.8127629663000002,265
88364,194434,219883,-1.1653046062,9.4456672135,-2.8127629663000002,266
88384,194442,219882,-1.1653046062,9.4456672135,-2.8127629663000002,267
88451,194433,219830,-1.1653046062,9.4456672135,-2.8127629663000002,268
88493,194417,219845,-1.1988041226,9.4420779796,-2.883351233,269
88479,194404,219821,-1.1988041226,9.4420779796,-2.883351233,270
88475,194402,219832,-1.1988041226,9.4420779796,-2.883351233,271
88492,194340,219851,-1.1306086785,9.343972252999999,-2.9455646206,272
88541,194364,219881,-1.1042876299,9.3355973739,-2.9024938138,273
88615,194388,219854,-1.1425727915,9.3284189061,-2.8917261120999997,274
88709,194434,219838,-1.2346964616,9.4013999954,-2.8558337731,275
88810,194417,219868,-1.1401799688999998,9.427721044,-2.8809584104000003,276
88938,194473,219818,-1.0959127508,9.3212404383,-2.9551359109999997,277
89023,194434,219858,-1.0683952909,9.4731846734,-2.8510481279,278
89082,194432,219789,-1.1796615418,9.5270231819,-2.9599215562,279
89201,194441,219862,-1.1629117836,9.5150590689,-2.8965117573,280
89283,194426,219865,-1.3328021881999998,9.3655076564,-2.8881368781999996,281
89376,194411,219911,-1.0875378717,9.3296153174,-2.9443682093000003,282
89474,194458,219842,-1.0492527101,9.3355973739,-2.9096722816000002,283
89550,194472,219842,-1.2993026717999998,9.4504528587,-2.8103701436999997,284
89646,194486,219852,-1.2705888006,9.415756931,-2.8666014748,285
89725,194451,219826,-1.1341979124,9.5030949559,-2.8977081686,286
89819,194455,219841,-1.1880364209,9.5533442305,-2.9288148624,287
89907,194465,219881,-1.1880364209,9.5533442305,-2.9288148624,288
89980,194498,219829,-1.1138589203,9.3774717694,-2.9012974024999996,289
89826,194464,219817,-1.2514462198,9.385846648500001,-2.8809584104000003,290
89260,194390,219775,-1.1282158559,9.468399028199999,-2.9503502657999996,291
88725,194250,219789,-1.1461620254,9.4719882621,-2.8570301844,292
88471,194277,219688,-1.0851450490999999,9.403792818,-2.919243572,293
88432,194292,219714,-1.244267752,9.4241318101,-2.9240292172,294
88453,194305,219742,-1.2287144051,9.5485585853,-2.9060830476999997,295
88497,194294,219713,-1.1653046062,9.3032942688,-2.8486553053,296
88549,194299,219694,-1.1796615418,9.420542576199999,-2.9455646206,297
88619,194335,219708,-1.0983055734,9.4061856406,-2.8965117573,298
88664,194313,219711,-1.1916256548,9.439685157,-2.9994031291,299
88640,194285,219666,-1.1389835576,9.3810610033,-2.8977081686,300
88564,194247,219732,-1.1330015010999999,9.4013999954,-2.8737799425999997,301
88557,194261,219692,-1.1138589203,9.4695954395,-2.9240292172,302
88594,194256,219677,-1.1521440819,9.5425765288,-2.8570301844,303
88670,194153,219716,-1.0468598875,9.3822574146,-2.8522445392,304
88752,194219,219710,-1.0468598875,9.284151688,-2.8462624827,305
88847,194232,219698,-1.0959127508,9.4289174553,-2.8342983697,306
88944,194284,219723,-1.1150553316,9.5246303593,-2.9383861528,307
89034,194317,219712,-1.0803594039,9.4145605197,-2.9419753867,308
89120,194300,219702,-1.1114660977,9.3164547931,-2.8989045799,309
89207,194312,219694,-1.1114660977,9.3164547931,-2.8989045799,310
89320,194327,219726,-1.1114660977,9.3164547931,-2.8989045799,311
89382,194350,219746,-1.1114660977,9.3164547931,-2.8989045799,312
89373,194332,219762,-1.1114660977,9.3164547931,-2.8989045799,313
88967,194361,219693,-1.1114660977,9.3164547931,-2.8989045799,314
88359,194280,219672,-1.1114660977,9.3164547931,-2.8989045799,315
87994,194270,219668,-1.1114660977,9.3164547931,-2.8989045799,316
87903,194213,219646,-1.1114660977,9.3164547931,-2.8989045799,317
87926,194245,219635,-1.1114660977,9.3164547931,-2.8989045799,318
87956,194249,219639,-1.1114660977,9.3164547931,-2.8989045799,319
88018,194222,219653,-1.1114660977,9.3164547931,-2.8989045799,320
88127,194233,219669,-1.0899306943,9.4815595525,-2.8438696600999998,321
88190,194276,219684,-1.2335000503,9.3834538259,-2.9204399833,322
88209,194254,219672,-1.1533404932,9.4002035841,-2.9168507494,323
88212,194269,219621,-1.2502498085,9.376275358100001,-2.8881368781999996,324
88283,194271,219724,-1.0779665813,9.4253282214,-2.9551359109999997,325
88372,194200,219693,-1.2586246876,9.475577496,-2.9503502657999996,326
88474,194267,219648,-1.1437692028,9.3822574146,-2.9012974024999996,327
88562,194226,219697,-1.1593225497000001,9.562915520899999,-2.8821548217,328
88659,194309,219683,-1.1940184774,9.3738825355,-2.9862426048,329
88774,194291,219686,-1.0372885971,9.451649269999999,-2.8857440556,330
88881,194306,219701,-1.1653046062,9.3774717694,-2.9012974024999996,331
88981,194339,219729,-1.1653046062,9.3774717694,-2.9012974024999996,332
89085,194348,219694,-1.1653046062,9.3774717694,-2.9012974024999996,333
89189,194335,219703,-1.1653046062,9.3774717694,-2.9012974024999996,334
89292,194360,219722,-1.1653046062,9.3774717694,-2.9012974024999996,335
89391,194339,219748,-1.1653046062,9.3774717694,-2.9012974024999996,336
89493,194366,219717,-1.1653046062,9.3774717694,-2.9012974024999996,337
89579,194403,219745,-1.1653046062,9.3774717694,-2.9012974024999996,338
89525,194388,219723,-1.1653046062,9.3774717694,-2.9012974024999996,339
88993,194328,219716,-1.1653046062,9.3774717694,-2.9012974024999996,340
88306,194274,219670,-1.1653046062,9.3774717694,-2.9012974024999996,341
87900,194246,219618,-1.1653046062,9.3774717694,-2.9012974024999996,342
87776,194225,219624,-1.1653046062,9.3774717694,-2.9012974024999996,343
87713,194225,219628,-1.1653046062,9.3774717694,-2.9012974024999996,344
87684,194245,219628,-1.1653046062,9.3774717694,-2.9012974024999996,345
87658,194198,219581,-1.1653046062,9.3774717694,-2.9012974024999996,346
87724,194226,219644,-1.1653046062,9.3774717694,-2.9012974024999996,347
87788,194230,219632,-1.1653046062,9.3774717694,-2.9012974024999996,348
87820,194239,219604,-1.1653046062,9.3774717694,-2.9012974024999996,349
87836,194237,219584,-1.1653046062,9.3774717694,-2.9012974024999996,350
87861,194258,219639,-1.1653046062,9.3774717694,-2.9012974024999996,351
87937,194213,219628,-1.1653046062,9.3774717694,-2.9012974024999996,352
88012,194196,219632,-1.1712866627,9.5772724565,-2.9371897415,353
88113,194191,219612,-1.1114660977,9.4217389875,-2.9742784918,354
88236,194226,219609,-1.0839486378,9.4707918508,-2.8773691765,355
88294,194247,219634,-1.1676974288,9.343972252999999,-2.9048866364,356
88455,194191,219666,-1.1234302107,9.4576313265,-2.9048866364,357
88558,194197,219632,-1.3674981159,9.4372923344,-2.9623143788,358
88670,194284,219632,-1.2466605746,9.415756931,-2.967100024,359
88773,194262,219651,-1.1258230332999999,9.562915520899999,-2.8737799425999997,360
88898,194330,219636,-1.1892328322,9.4002035841,-2.931207685,361
88984,194289,219658,-1.2610175101999999,9.4360959231,-2.8486553053,362
89080,194292,219701,-1.1772687192,9.4372923344,-2.8438696600999998,363
89182,194327,219673,-1.1712866627,9.274580397600001,-2.9144579268,364
89290,194391,219639,-1.232303639,9.4241318101,-2.8606194183,365
89366,194326,219654,-1.1820543644000001,9.3583291886,-2.8390840148999996,366
89446,194338,219668,-1.2646067441000002,9.4193461649,-2.9407789753999998,367
89236,194299,219659,-1.2717852119000002,9.403792818,-2.9216363945999997,368
88589,194288,219641,-1.2394821068,9.5007021333,-2.9240292172,369
88001,194226,219610,-1.2358928729,9.2757768089,-2.8247270792999997,370
87714,194232,219582,-1.2287144051,9.355936366,-2.9072794589999997,371
87644,194145,219574,-1.1832507757,9.3188476157,-2.9144579268,372
87658,194078,219621,-1.1916256548,9.3894358824,-2.9132615155,373
87643,194101,219623,-1.1892328322,9.3152583818,-2.9001009912,374
87685,194172,219570,-1.232303639,9.4085784632,-2.9706892578999997,375
87776,194189,219596,-1.2179467034,9.5246303593,-2.8390840148999996,376
87828,194228,219564,-1.1581261384000001,9.3726861242,-2.8450660714,377
87841,194181,219575,-1.208375413,9.3415794304,-2.9575287336000002,378
87850,194154,219550,-1.3746765837,9.3822574146,-2.9108686929000003,379
87921,194204,219536,-1.2478569859,9.4097748745,-2.9479574432,380
87998,194208,219632,-1.1772687192,9.4695954395,-2.8797619991,381
88091,194183,219557,-1.1210373881,9.410971285799999,-2.919243572,382
88188,194187,219593,-1.2394821068,9.477970318599999,-2.9419753867,383
88208,194187,219616,-1.0839486378,9.3044906801,-2.8965117573,384
88398,194159,219622,-1.3088739621999999,9.4935236655,-2.8773691765,385
88501,194192,219610,-1.2251251712,9.399007172800001,-2.9096722816000002,386
88620,194201,219553,-1.2155538808,9.5030949559,-2.8797619991,387
88719,194172,219582,-1.1138589203,9.415756931,-2.9407789753999998,388
88791,194264,219562,-1.1461620254,9.4372923344,-2.9072794589999997,389
88901,194259,219615,-1.3627124707,9.5007021333,-2.8689942974,390
88999,194219,219584,-1.1988041226,9.5437729401,-2.9120651042,391
89086,194247,219561,-1.220339526,9.410971285799999,-2.8582265956999997,392
89192,194227,219585,-1.1952148887,9.384650237199999,-2.9264220398,393
89275,194268,219580,-1.2059825904,9.5054877785,-2.9264220398,394
89371,194253,219539,-1.0301101293000001,9.3954179389,-2.9455646206,395
89441,194252,219640,-1.1772687192,9.4372923344,-2.9874390161,396
89554,194270,219597,-1.1796615418,9.4253282214,-2.8259234905999997,397
89621,194259,219616,-1.2035897678,9.3607220112,-2.9982067177999996,398
89544,194238,219562,-1.1521440819,9.4612205604,-2.8187450228000004,399
89051,194204,219580,-1.2011969452,9.495916488099999,-2.967100024,400
88445,194161,219535,-1.3112667848,9.3284189061,-2.8881368781999996,401
88124,194097,219519,-1.2000005339,9.427721044,-2.9766713144,402
88042,194137,219491,-1.1030912186,9.5150590689,-2.8630122409,403
88044,194097,219455,-1.0420742423,9.3631148338,-2.9407789753999998,404
88069,194108,219452,-1.0947163395,9.3906322937,-2.9024938138,405
88120,194097,219439,-1.1042876299,9.5677011661,-2.9072794589999997,406
88191,194094,219454,-1.148554848,9.353543543399999,-2.8462624827,407
88207,194073,219446,-1.0671988796,9.468399028199999,-2.8749763539,408
88192,194157,219471,-1.1018948073,9.5138626576,-2.9336005076,409
88182,194062,219419,-1.1389835576,9.3427758417,-2.9216363945999997,410
88207,194082,219468,-1.1138589203,9.5509514079,-2.9024938138,411
88251,194032,219411,-1.0348957745,9.3930251163,-2.9970103065,412
88323,194075,219416,-1.0911271056,9.355936366,-2.9551359109999997,413
88429,194070,219450,-1.2275179938,9.3966143502,-2.9216363945999997,414
88534,194092,219450,-1.1736794853,9.3296153174,-2.9024938138,415
88636,194080,219476,-1.1018948073,9.4085784632,-2.8438696600999998,416
88621,194146,219481,-1.2490533972,9.3391866078,-2.919243572,417
88828,194102,219460,-1.220339526,9.4612205604,-2.8642086522,418
88913,194137,219476,-1.1557333158,9.4719882621,-2.9766713144,419
89028,194169,219472,-1.1557333158,9.4719882621,-2.9766713144,420
89127,194141,219461,-1.1557333158,9.4719882621,-2.9766713144,421
89204,194173,219448,-1.1557333158,9.4719882621,-2.9766713144,422
89212,194160,219499,-1.1700902514,9.4253282214,-2.9060830476999997,423
88845,194138,219456,-1.1916256548,9.4085784632,-2.9515466771,424
88178,194090,219445,-1.1748758966000001,9.4289174553,-2.9539394997,425
87917,194067,219389,-1.1700902514,9.4588277378,-2.8522445392,426
87844,193961,219371,-1.0947163395,9.4480600361,-2.8414768375,427
87843,193946,219401,-1.136590735,9.451649269999999,-2.9766713144,428
87882,194054,219416,-1.1772687192,9.4983093107,-2.8797619991,429
87948,194054,219401,-1.0827522265,9.4492564474,-2.9072794589999997,430
88080,194082,219423,-1.1760723079,9.5437729401,-2.931207685,431
88113,194078,219416,-1.1653046062,9.3667040677,-2.9982067177999996,432
88135,194062,219415,-1.1820543644000001,9.3894358824,-2.9132615155,433
88149,194063,219400,-1.1150553316,9.4600241491,-2.8666014748,434
88183,194075,219398,-1.1018948073,9.5294160045,-2.9551359109999997,435
88260,194001,219450,-1.1353943237,9.531808827099999,-2.9336005076,436
88347,194052,219459,-1.1090732750999999,9.4181497536,-2.8953153460000003,437
88472,194093,219433,-1.0277173067,9.4815595525,-2.8785655878,438
88575,194077,219470,-1.1676974288,9.4791667299,-2.9001009912,439
88690,194075,219412,-1.2311072277,9.4325066892,-2.835494781,440
88801,194129,219406,-1.2646067441000002,9.3487578982,-2.8965117573,441
88923,194128,219402,-1.2646067441000002,9.3487578982,-2.8965117573,442
89036,194159,219482,-1.2646067441000002,9.3487578982,-2.8965117573,443
89144,194180,219464,-1.2646067441000002,9.3487578982,-2.8965117573,444
89245,194138,219455,-1.2646067441000002,9.3487578982,-2.8965117573,445
89355,194180,219452,-1.2646067441000002,9.3487578982,-2.8965117573,446
89447,194193,219455,-1.2646067441000002,9.3487578982,-2.8965117573,447
89568,194218,219500,-1.2646067441000002,9.3487578982,-2.8965117573,448
89667,194223,219461,-1.2646067441000002,9.3487578982,-2.8965117573,449
89746,194224,219472,-1.2646067441000002,9.3487578982,-2.8965117573,450
89841,194271,219454,-1.2646067441000002,9.3487578982,-2.8965117573,451
89948,194238,219467,-1.2646067441000002,9.3487578982,-2.8965117573,452
90042,194249,219497,-1.2646067441000002,9.3487578982,-2.8965117573,453
90137,194287,219519,-1.2646067441000002,9.3487578982,-2.8965117573,454
90208,194297,219484,-1.2059825904,9.3690968903,-2.8881368781999996,455
90077,194301,219512,-1.1186445655,9.4025964067,-2.8618158296000002,456
89514,194236,219456,-1.2035897678,9.3499543095,-2.8390840148999996,457
88894,194227,219427,-1.208375413,9.427721044,-2.8342983697,458
88586,194148,219422,-1.1461620254,9.4253282214,-3.0664021618999997,459
88432,194130,219412,-1.2143574695,9.3224368496,-2.8929225234,460
88367,194075,219383,-1.2011969452,9.3930251163,-2.8881368781999996,461
88337,194089,219370,-1.1533404932,9.4935236655,-2.8785655878,462
88324,194102,219409,-1.2107682356,9.5270231819,-2.931207685,463
88399,194097,219345,-1.1964113,9.4815595525,-2.9874390161,464
88432,194119,219347,-1.1066804525,9.4348995118,-2.9479574432,465
88491,194128,219376,-1.3196416639,9.3966143502,-2.8917261120999997,466
88485,194127,219381,-1.2945170266,9.5174518915,-2.9431717980000003,467
88488,194114,219349,-1.2179467034,9.3188476157,-2.9479574432,468
88586,194122,219403,-1.2239287599,9.4492564474,-2.9503502657999996,469
88616,194105,219381,-1.1569297271,9.439685157,-2.9407789753999998,470
88672,194113,219369,-1.172483074,9.3750789468,-2.8558337731,471
88723,194120,219363,-1.1377871463,9.3391866078,-3.0376882907,472
88944,194092,219384,-1.1258230332999999,9.3894358824,-2.9240292172,473
89019,194126,219356,-1.0636096457,9.3367937852,-2.979064137,474
89128,194166,219373,-1.208375413,9.4408815683,-2.9730820805000002,475
89234,194191,219394,-1.2227323486,9.4420779796,-2.8654050635,476
89323,194186,219369,-1.2538390423999999,9.4348995118,-2.9264220398,477
89427,194161,219398,-1.1629117836,9.340383019099999,-2.8869404668999996,478
89539,194144,219346,-1.1569297271,9.438488745699999,-2.8618158296000002,479
89633,194136,219399,-1.1497512593,9.415756931,-2.9276184511,480
89701,194272,219366,-1.2346964616,9.463613383,-2.8654050635,481
89807,194225,219428,-1.1868400096,9.4743810847,-2.8570301844,482
89890,194226,219405,-1.1533404932,9.5700939887,-2.9623143788,483
89994,194232,219408,-1.160518961,9.4097748745,-2.9048866364,484
90082,194243,219412,-1.208375413,9.384650237199999,-2.9814569596,485
90182,194262,219407,-1.208375413,9.384650237199999,-2.9814569596,486
90264,194267,219436,-1.208375413,9.384650237199999,-2.9814569596,487
90365,194212,219436,-1.208375413,9.384650237199999,-2.9814569596,488
90398,194263,219439,-1.208375413,9.384650237199999,-2.9814569596,489
90167,194240,219444,-1.208375413,9.384650237199999,-2.9814569596,490
89548,194201,219377,-1.208375413,9.384650237199999,-2.9814569596,491
88975,194169,219331,-1.208375413,9.384650237199999,-2.9814569596,492
88703,194171,219338,-1.1533404932,9.4468636248,-2.9886354273999998,493
88611,194100,219289,-1.1198409768,9.495916488099999,-2.9132615155,494
88624,194110,219303,-1.1964113,9.3822574146,-2.8390840148999996,495
88569,194089,219299,-1.1964113,9.5007021333,-2.8630122409,496
88591,194111,219298,-1.1964113,9.5007021333,-2.8630122409,497
88665,194107,219335,-1.1964113,9.5007021333,-2.8630122409,498
88688,194113,219335,-1.1964113,9.5007021333,-2.8630122409,499
88674,194112,219278,-1.1964113,9.5007021333,-2.8630122409,500
88669,194110,219316,-1.1964113,9.5007021333,-2.8630122409,501
88712,194117,219281,-1.1964113,9.5007021333,-2.8630122409,502
88758,194108,219265,-1.1964113,9.5007021333,-2.8630122409,503
88838,194103,219262,-1.1964113,9.5007021333,-2.8630122409,504
88929,194135,219278,-1.1964113,9.5007021333,-2.8630122409,505
89030,194107,219317,-1.1928220661,9.3595255999,-2.9431717980000003,506
89085,194078,219314,-1.0540383553,9.3834538259,-2.8977081686,507
89224,194067,219306,-1.1557333158,9.4181497536,-2.8331019584000003,508
89319,194092,219314,-1.256231865,9.2829552767,-2.9168507494,509
89419,194103,219329,-1.0851450490999999,9.3355973739,-3.0113672421,510
89503,194147,219359,-1.2717852119000002,9.3942215276,-2.8965117573,511
89609,194160,219316,-1.1090732750999999,9.4839523751,-2.8881368781999996,512
89674,194172,219324,-1.1868400096,9.4719882621,-2.9443682093000003,513
89752,194184,219324,-1.136590735,9.4707918508,-2.967100024,514
89839,194204,219308,-1.2550354537,9.5078806011,-2.9012974024999996,515
89913,194181,219332,-1.1234302107,9.330811728699999,-2.8785655878,516
89992,194154,219341,-1.2705888006,9.4887380203,-2.8773691765,517
90067,194220,219371,-1.1533404932,9.4815595525,-2.9527430884,518
90113,194205,219324,-1.1138589203,9.4133641084,-2.8211378454,519
89919,194180,219288,-1.1700902514,9.439685157,-2.9802605483,520
89323,194051,219306,-1.2131610582,9.4719882621,-2.9096722816000002,521
88751,194017,219251,-1.2131610582,9.3104727366,-2.8414768375,522
88445,193994,219262,-1.0707881135,9.403792818,-2.9168507494,523
88360,194027,219237,-1.2251251712,9.3655076564,-2.9240292172,524
88363,194030,219227,-1.1617153723,9.589236569499999,-2.8366911923,525
88379,194015,219187,-1.1401799688999998,9.4899344316,-2.8666014748,526
88472,194000,219258,-1.160518961,9.3367937852,-2.9252256285000002,527
88475,194015,219211,-1.1688938401,9.4013999954,-2.9623143788,528
88507,193934,219194,-1.1820543644000001,9.5294160045,-2.9216363945999997,529
88471,193988,219191,-1.1461620254,9.4528456813,-2.8606194183,530
88499,193934,219166,-1.1294122672,9.4887380203,-2.8785655878,531
88524,193958,219214,-1.1341979124,9.427721044,-2.8079773211,532
88586,193921,219149,-1.0971091621,9.4061856406,-2.9383861528,533
88655,193957,219215,-1.1796615418,9.4588277378,-2.8953153460000003,534
88733,194002,219183,-1.112662509,9.487541608999999,-2.9479574432,535
88819,193960,219189,-1.1353943237,9.410971285799999,-2.7565316351999996,536
88913,193915,219217,-1.0971091621,9.3571327773,-2.8630122409,537
89024,194000,219152,-1.2299108163999999,9.5748796339,-2.9599215562,538
89093,194026,219217,-1.1581261384000001,9.327222494799999,-2.9048866364,539
89191,194025,219196,-1.1653046062,9.4169533423,-2.9216363945999997,540
89295,194045,219209,-1.1653046062,9.4169533423,-2.9216363945999997,541
89382,194051,219170,-1.1653046062,9.4169533423,-2.9216363945999997,542
89466,194055,219218,-1.1653046062,9.4169533423,-2.9216363945999997,543
89442,194052,219217,-1.1653046062,9.4169533423,-2.9216363945999997,544
89044,194011,219218,-1.1653046062,9.4169533423,-2.9216363945999997,545
88412,194001,219191,-1.1653046062,9.4169533423,-2.9216363945999997,546
88052,193948,219149,-1.1653046062,9.4169533423,-2.9216363945999997,547
87944,193929,219147,-1.1653046062,9.4169533423,-2.9216363945999997,548
87969,193950,219142,-1.1653046062,9.4169533423,-2.9216363945999997,549
88019,193963,219165,-1.1653046062,9.4169533423,-2.9216363945999997,550
88088,193947,219140,-1.1653046062,9.4169533423,-2.9216363945999997,551
88168,193986,219149,-1.1653046062,9.4169533423,-2.9216363945999997,552
88214,193971,219171,-1.1653046062,9.4169533423,-2.9216363945999997,553
88207,194005,219134,-1.1653046062,9.4169533423,-2.9216363945999997,554
88201,193936,219173,-1.1653046062,9.4169533423,-2.9216363945999997,555
88252,193985,219156,-1.1653046062,9.4169533423,-2.9216363945999997,556
88316,194011,219165,-1.1964113,9.510273423700001,-2.9503502657999996,557
88409,193986,219153,-1.1964113,9.510273423700001,-2.9503502657999996,558
88502,194009,219149,-1.1964113,9.510273423700001,-2.9503502657999996,559
88615,194017,219170,-1.1964113,9.510273423700001,-2.9503502657999996,560
88708,194053,219210,-1.1964113,9.510273423700001,-2.9503502657999996,561
88820,194034,219162,-1.1964113,9.510273423700001,-2.9503502657999996,562
88905,194041,219224,-1.1964113,9.510273423700001,-2.9503502657999996,563
89026,194061,219239,-1.1964113,9.510273423700001,-2.9503502657999996,564
89120,194069,219237,-1.1964113,9.510273423700001,-2.9503502657999996,565
89213,194064,219197,-1.1964113,9.510273423700001,-2.9503502657999996,566
89316,194090,219246,-1.1964113,9.510273423700001,-2.9503502657999996,567
89400,194086,219236,-1.1964113,9.510273423700001,-2.9503502657999996,568
89317,194089,219262,-1.1964113,9.510273423700001,-2.9503502657999996,569
88771,194100,219227,-1.1964113,9.510273423700001,-2.9503502657999996,570
88066,193998,219168,-1.1964113,9.510273423700001,-2.9503502657999996,571
87664,193947,219162,-1.1964113,9.510273423700001,-2.9503502657999996,572
87537,193970,219142,-1.1964113,9.510273423700001,-2.9503502657999996,573
87474,193965,219115,-1.1964113,9.510273423700001,-2.9503502657999996,574
87451,193923,219107,-1.1964113,9.510273423700001,-2.9503502657999996,575
87474,193907,219155,-1.1964113,9.510273423700001,-2.9503502657999996,576
87539,193939,219136,-1.1964113,9.510273423700001,-2.9503502657999996,577
87617,193917,219081,-1.1964113,9.510273423700001,-2.9503502657999996,578
87639,193929,219126,-1.1964113,9.510273423700001,-2.9503502657999996,579
87675,193937,219135,-1.1964113,9.510273423700001,-2.9503502657999996,580
87699,193947,219125,-1.1964113,9.510273423700001,-2.9503502657999996,581
87758,193937,219107,-1.1964113,9.510273423700001,-2.9503502657999996,582
87841,193953,219118,-1.2035897678,9.4325066892,-2.8558337731,583
87942,193948,219200,-1.2035897678,9.4325066892,-2.8558337731,584
88072,193981,219151,-1.2035897678,9.4325066892,-2.8558337731,585
88195,193987,219175,-1.2035897678,9.4325066892,-2.8558337731,586
88301,193974,219170,-1.2035897678,9.4325066892,-2.8558337731,587
88414,193980,219160,-1.2035897678,9.4325066892,-2.8558337731,588
88517,194003,219190,-1.2035897678,9.4325066892,-2.8558337731,589
88645,194056,219201,-1.2035897678,9.4325066892,-2.8558337731,590
88768,193997,219182,-1.2035897678,9.4325066892,-2.8558337731,591
88866,194030,219184,-1.2035897678,9.4325066892,-2.8558337731,592
88978,194051,219189,-1.2035897678,9.4325066892,-2.8558337731,593
89091,194084,219237,-1.2035897678,9.4325066892,-2.8558337731,594
89198,194076,219200,-1.2035897678,9.4325066892,-2.8558337731,595
89288,194056,219211,-1.2035897678,9.4325066892,-2.8558337731,596
89378,194079,219224,-1.2035897678,9.4325066892,-2.8558337731,597
89490,194104,219223,-1.2035897678,9.4325066892,-2.8558337731,598
89580,194088,219235,-1.2035897678,9.4325066892,-2.8558337731,599
89678,194131,219189,-1.2035897678,9.4325066892,-2.8558337731,600
89785,194147,219244,-1.2035897678,9.4325066892,-2.8558337731,601
89886,194139,219256,-1.2035897678,9.4325066892,-2.8558337731,602
89967,194170,219271,-1.2035897678,9.4325066892,-2.8558337731,603
89960,194145,219216,-1.2035897678,9.4325066892,-2.8558337731,604
89581,194119,219192,-1.2035897678,9.4325066892,-2.8558337731,605
88859,194088,219184,-1.2035897678,9.4325066892,-2.8558337731,606
88358,194031,219169,-1.2035897678,9.4325066892,-2.8558337731,607
88167,194027,219108,-1.2035897678,9.4325066892,-2.8558337731,608
88129,193973,219118,-1.2311072277,9.420542576199999,-2.9024938138,609
88106,194010,219132,-1.2311072277,9.420542576199999,-2.9024938138,610
88088,193989,219096,-1.2311072277,9.420542576199999,-2.9024938138,611
88140,194021,219127,-1.2311072277,9.420542576199999,-2.9024938138,612
88186,193975,219128,-1.2311072277,9.420542576199999,-2.9024938138,613
88203,193986,219114,-1.2311072277,9.420542576199999,-2.9024938138,614
88227,193978,219153,-1.2311072277,9.420542576199999,-2.9024938138,615
88258,193981,219146,-1.2311072277,9.420542576199999,-2.9024938138,616
88314,193986,219139,-1.2311072277,9.420542576199999,-2.9024938138,617
88382,194017,219106,-1.2311072277,9.420542576199999,-2.9024938138,618
88467,193980,219129,-1.2311072277,9.420542576199999,-2.9024938138,619
88569,194035,219123,-1.2311072277,9.420542576199999,-2.9024938138,620
88681,193993,219100,-1.2311072277,9.420542576199999,-2.9024938138,621
88789,194023,219139,-1.2311072277,9.420542576199999,-2.9024938138,622
88902,194052,219133,-1.2311072277,9.420542576199999,-2.9024938138,623
89002,194037,219140,-1.2311072277,9.420542576199999,-2.9024938138,624
89090,194073,219123,-1.2311072277,9.420542576199999,-2.9024938138,625
89188,194074,219149,-1.2311072277,9.420542576199999,-2.9024938138,626
89296,194065,219147,-1.2311072277,9.420542576199999,-2.9024938138,627
89408,194078,219190,-1.2311072277,9.420542576199999,-2.9024938138,628
89499,194080,219173,-1.2311072277,9.420542576199999,-2.9024938138,629
89601,194082,219137,-1.2311072277,9.420542576199999,-2.9024938138,630
89600,194092,219157,-1.2311072277,9.420542576199999,-2.9024938138,631
89237,194089,219199,-1.2311072277,9.420542576199999,-2.9024938138,632
88646,194040,219146,-1.2311072277,9.420542576199999,-2.9024938138,633
88227,193993,219093,-1.2311072277,9.420542576199999,-2.9024938138,634
88063,193977,219071,-1.2311072277,9.420542576199999,-2.9024938138,635
88041,193956,219052,-1.2311072277,9.420542576199999,-2.9024938138,636
88047,193956,219051,-1.2311072277,9.420542576199999,-2.9024938138,637
88068,193982,219066,-1.2311072277,9.420542576199999,-2.9024938138,638
88125,193951,219076,-1.2311072277,9.420542576199999,-2.9024938138,639
88219,193968,219047,-1.2311072277,9.420542576199999,-2.9024938138,640
88249,193952,219011,-1.1389835576,9.3367937852,-2.835494781,641
88276,193951,219029,-1.1389835576,9.3367937852,-2.835494781,642
88306,193957,219081,-1.1389835576,9.3367937852,-2.835494781,643
88362,193947,219055,-1.1389835576,9.3367937852,-2.835494781,644
88456,193991,219037,-1.1389835576,9.3367937852,-2.835494781,645
88537,193950,219097,-1.1389835576,9.3367937852,-2.835494781,646
88635,193951,219057,-1.1389835576,9.3367937852,-2.835494781,647
88745,193924,219046,-1.1389835576,9.3367937852,-2.835494781,648
88853,193982,219081,-1.1389835576,9.3367937852,-2.835494781,649
88943,193983,219059,-1.1389835576,9.3367937852,-2.835494781,650
89042,193977,219058,-1.1389835576,9.3367937852,-2.835494781,651
89147,193970,219084,-1.1389835576,9.3367937852,-2.835494781,652
89244,193995,219098,-1.1389835576,9.3367937852,-2.835494781,653
89321,193978,219069,-1.1389835576,9.3367937852,-2.835494781,654
89419,194026,219050,-1.1389835576,9.3367937852,-2.835494781,655
89521,194006,219092,-1.1389835576,9.3367937852,-2.835494781,656
89577,194015,219138,-1.1389835576,9.3367937852,-2.835494781,657
89674,193996,219094,-1.1389835576,9.3367937852,-2.835494781,658
89740,194032,219105,-1.1389835576,9.3367937852,-2.835494781,659
89678,194042,219049,-1.1916256548,9.3224368496,-2.8953153460000003,660
89216,193992,219068,-1.1916256548,9.3224368496,-2.8953153460000003,661
88688,193932,219011,-1.1916256548,9.3224368496,-2.8953153460000003,662
88408,193905,218997,-1.1916256548,9.3224368496,-2.8953153460000003,663
88326,193888,218971,-1.1916256548,9.3224368496,-2.8953153460000003,664
88314,193898,219001,-1.1916256548,9.3224368496,-2.8953153460000003,665
88356,193867,218966,-1.1916256548,9.3224368496,-2.8953153460000003,666
88405,193872,218978,-1.1916256548,9.3224368496,-2.8953153460000003,667
88448,193854,218928,-1.1916256548,9.3224368496,-2.8953153460000003,668
88462,193884,218976,-1.1916256548,9.3224368496,-2.8953153460000003,669
88469,193898,218974,-1.1916256548,9.3224368496,-2.8953153460000003,670
88474,193878,218928,-1.1916256548,9.3224368496,-2.8953153460000003,671
88476,193886,218986,-1.1916256548,9.3224368496,-2.8953153460000003,672
88547,193876,218966,-1.1916256548,9.3224368496,-2.8953153460000003,673
88624,193904,218970,-1.1916256548,9.3224368496,-2.8953153460000003,674
88718,193888,218989,-1.1916256548,9.3224368496,-2.8953153460000003,675
88817,193897,218981,-1.1916256548,9.3224368496,-2.8953153460000003,676
88906,193924,218989,-1.1916256548,9.3224368496,-2.8953153460000003,677
89018,193908,219000,-1.1916256548,9.3224368496,-2.8953153460000003,678
89117,193967,218982,-1.1916256548,9.3224368496,-2.8953153460000003,679
89216,193975,218996,-1.1916256548,9.3224368496,-2.8953153460000003,680
89308,194007,218960,-1.1916256548,9.3224368496,-2.8953153460000003,681
89387,194000,218983,-1.1916256548,9.3224368496,-2.8953153460000003,682
89381,193998,219023,-1.1916256548,9.3224368496,-2.8953153460000003,683
89009,193959,219006,-1.1916256548,9.3224368496,-2.8953153460000003,684
88389,193916,218995,-1.1916256548,9.3224368496,-2.8953153460000003,685
88024,193870,218958,-1.1916256548,9.3224368496,-2.8953153460000003,686
87910,193899,218926,-1.1916256548,9.3224368496,-2.8953153460000003,687
87877,193867,218910,-1.1916256548,9.3224368496,-2.8953153460000003,688
87890,193841,218927,-1.1916256548,9.3224368496,-2.8953153460000003,689
87923,193843,218947,-1.1916256548,9.3224368496,-2.8953153460000003,690
88005,193855,218959,-1.1916256548,9.3224368496,-2.8953153460000003,691
88065,193865,218952,-1.1820543644000001,9.3164547931,-2.9096722816000002,692
88101,193916,218982,-1.1820543644000001,9.3164547931,-2.9096722816000002,693
88137,193875,218931,-1.1820543644000001,9.3164547931,-2.9096722816000002,694
88196,193921,218994,-1.1820543644000001,9.3164547931,-2.9096722816000002,695
88256,193903,218969,-1.1820543644000001,9.3164547931,-2.9096722816000002,696
88351,193938,218968,-1.1820543644000001,9.3164547931,-2.9096722816000002,697
88468,193909,218940,-1.1820543644000001,9.3164547931,-2.9096722816000002,698
88578,193911,218977,-1.1820543644000001,9.3164547931,-2.9096722816000002,699
88687,193922,218999,-1.1820543644000001,9.3164547931,-2.9096722816000002,700
88803,193913,219023,-1.1820543644000001,9.3164547931,-2.9096722816000002,701
88909,193941,219016,-1.1820543644000001,9.3164547931,-2.9096722816000002,702
89022,193966,218989,-1.1820543644000001,9.3164547931,-2.9096722816000002,703
89115,193957,219031,-1.1820543644000001,9.3164547931,-2.9096722816000002,704
89221,193998,219006,-1.1820543644000001,9.3164547931,-2.9096722816000002,705
89336,193995,218997,-1.1820543644000001,9.3164547931,-2.9096722816000002,706
89427,194026,218981,-1.1820543644000001,9.3164547931,-2.9096722816000002,707
89515,194009,219068,-1.1820543644000001,9.3164547931,-2.9096722816000002,708
89611,194010,219076,-1.1820543644000001,9.3164547931,-2.9096722816000002,709
89706,194038,219006,-1.1820543644000001,9.3164547931,-2.9096722816000002,710
89809,194029,219026,-1.1820543644000001,9.3164547931,-2.9096722816000002,711
89895,194073,218988,-1.1820543644000001,9.3164547931,-2.9096722816000002,712
89996,194060,219025,-1.1820543644000001,9.3164547931,-2.9096722816000002,713
90072,194066,219047,-1.1820543644000001,9.3164547931,-2.9096722816000002,714
90169,194081,219027,-1.1820543644000001,9.3164547931,-2.9096722816000002,715
90257,194059,219070,-1.1820543644000001,9.3164547931,-2.9096722816000002,716
90343,194094,219055,-1.1820543644000001,9.3164547931,-2.9096722816000002,717
90440,194099,219036,-1.1820543644000001,9.3164547931,-2.9096722816000002,718
90434,194098,219095,-1.1820543644000001,9.3164547931,-2.9096722816000002,719
90073,194096,219016,-1.1820543644000001,9.3164547931,-2.9096722816000002,720
89381,194064,219039,-1.1820543644000001,9.3164547931,-2.9096722816000002,721
88859,194012,218960,-1.1820543644000001,9.3164547931,-2.9096722816000002,722
88638,193986,218975,-1.1820543644000001,9.3164547931,-2.9096722816000002,723
88528,193978,218965,-1.1820543644000001,9.3164547931,-2.9096722816000002,724
88470,193968,218924,-1.1820543644000001,9.3164547931,-2.9096722816000002,725
88412,193967,218963,-1.1820543644000001,9.3164547931,-2.9096722816000002,726
88413,193923,218946,-1.1820543644000001,9.3164547931,-2.9096722816000002,727
88469,193960,218962,-1.1820543644000001,9.3164547931,-2.9096722816000002,728
88498,193950,218953,-1.1820543644000001,9.3164547931,-2.9096722816000002,729
88481,193943,218925,-1.1820543644000001,9.3164547931,-2.9096722816000002,730
88481,193914,218936,-1.1820543644000001,9.3164547931,-2.9096722816000002,731
88521,193932,218921,-1.1820543644000001,9.3164547931,-2.9096722816000002,732
88565,193943,218919,-1.1820543644000001,9.3164547931,-2.9096722816000002,733
88727,193874,218838,-1.1353943237,9.3882394711,-2.919243572,734
88807,193879,218830,-1.1353943237,9.3882394711,-2.919243572,735
88930,193890,218852,-1.1353943237,9.3882394711,-2.919243572,736
89013,193881,218814,-1.1353943237,9.3882394711,-2.919243572,737
89122,193885,218897,-1.1353943237,9.3882394711,-2.919243572,738
89199,193908,218879,-1.1353943237,9.3882394711,-2.919243572,739
89294,193954,218838,-1.1353943237,9.3882394711,-2.919243572,740
89396,193934,218877,-1.1353943237,9.3882394711,-2.919243572,741
89487,193969,218875,-1.1353943237,9.3882394711,-2.919243572,742
89412,193957,218920,-1.1353943237,9.3882394711,-2.919243572,743
88957,193899,218837,-1.1353943237,9.3882394711,-2.919243572,744
88386,193887,218829,-1.1353943237,9.3882394711,-2.919243572,745
88074,193851,218835,-1.1353943237,9.3882394711,-2.919243572,746
88018,193815,218781,-1.1353943237,9.3882394711,-2.919243572,747
88023,193847,218847,-1.1353943237,9.3882394711,-2.919243572,748
88068,193802,218785,-1.1353943237,9.3882394711,-2.919243572,749
88137,193844,218815,-1.1353943237,9.3882394711,-2.919243572,750
88223,193850,218807,-1.1353943237,9.3882394711,-2.919243572,751
88275,193874,218836,-1.1353943237,9.3882394711,-2.919243572,752
88300,193863,218796,-1.1353943237,9.3882394711,-2.919243572,753
88316,193863,218859,-1.1353943237,9.3882394711,-2.919243572,754
88369,193882,218783,-1.1353943237,9.3882394711,-2.919243572,755
88432,193853,218835,-1.1353943237,9.3882394711,-2.919243572,756
88524,193842,218822,-1.1353943237,9.3882394711,-2.919243572,757
88637,193892,218840,-1.1353943237,9.3882394711,-2.919243572,758
88722,193897,218859,-1.1353943237,9.3882394711,-2.919243572,759
88828,193927,218864,-1.1353943237,9.3882394711,-2.919243572,760
88906,193920,218863,-1.1353943237,9.3882394711,-2.919243572,761
89005,193933,218859,-1.1353943237,9.3882394711,-2.919243572,762
89124,193924,218872,-1.1353943237,9.3882394711,-2.919243572,763
89207,193967,218890,-1.1353943237,9.3882394711,-2.919243572,764
89299,193936,218887,-1.1353943237,9.3882394711,-2.919243572,765
89382,193932,218878,-1.1353943237,9.3882394711,-2.919243572,766
89478,193990,218902,-1.1353943237,9.3882394711,-2.919243572,767
89562,193992,218883,-1.1353943237,9.3882394711,-2.919243572,768
89661,193982,218871,-1.1353943237,9.3882394711,-2.919243572,769
89735,194022,218875,-1.1353943237,9.3882394711,-2.919243572,770
89602,193968,218870,-1.1353943237,9.3882394711,-2.919243572,771
89041,193989,218862,-1.1353943237,9.3882394711,-2.919243572,772
88436,193921,218815,-1.1353943237,9.3882394711,-2.919243572,773
88131,193901,218780,-1.1353943237,9.3882394711,-2.919243572,774
88031,193825,218787,-1.1353943237,9.3882394711,-2.919243572,775
88991,193897,218797,-1.1700902514,9.3894358824,-2.8259234905999997,776
89033,193901,218787,-1.1700902514,9.3894358824,-2.8259234905999997,777
89089,193964,218775,-1.1700902514,9.3894358824,-2.8259234905999997,778
89150,193897,218772,-1.1700902514,9.3894358824,-2.8259234905999997,779
89243,193955,218766,-1.1700902514,9.3894358824,-2.8259234905999997,780
89333,193926,218810,-1.1700902514,9.3894358824,-2.8259234905999997,781
89423,193918,218793,-1.1700902514,9.3894358824,-2.8259234905999997,782
89526,193941,218759,-1.1700902514,9.3894358824,-2.8259234905999997,783
89623,193987,218783,-1.1700902514,9.3894358824,-2.8259234905999997,784
89701,193987,218773,-1.1700902514,9.3894358824,-2.8259234905999997,785
89804,193952,218758,-1.1700902514,9.3894358824,-2.8259234905999997,786
89897,193968,218830,-1.1700902514,9.3894358824,-2.8259234905999997,787
89998,193972,218828,-1.1700902514,9.3894358824,-2.8259234905999997,788
90070,193994,218801,-1.1700902514,9.3894358824,-2.8259234905999997,789
90149,194010,218800,-1.1700902514,9.3894358824,-2.8259234905999997,790
90231,194000,218802,-1.1700902514,9.3894358824,-2.8259234905999997,791
90326,194021,218812,-1.1700902514,9.3894358824,-2.8259234905999997,792
90396,194013,218757,-1.1700902514,9.3894358824,-2.8259234905999997,793
90453,194007,218777,-1.1700902514,9.3894358824,-2.8259234905999997,794
90276,193986,218784,-1.1700902514,9.3894358824,-2.8259234905999997,795
89744,193945,218837,-1.1700902514,9.3894358824,-2.8259234905999997,796
89259,193921,218743,-1.1700902514,9.3894358824,-2.8259234905999997,797
89050,193866,218737,-1.1700902514,9.3894358824,-2.8259234905999997,798
88980,193898,218700,-1.1700902514,9.3894358824,-2.8259234905999997,799
89017,193911,218714,-1.1700902514,9.3894358824,-2.8259234905999997,800
89052,193897,218722,-1.1700902514,9.3894358824,-2.8259234905999997,801
89083,193872,218696,-1.1700902514,9.3894358824,-2.8259234905999997,802
89142,193920,218712,-1.1700902514,9.3894358824,-2.8259234905999997,803
89158,193910,218722,-1.1700902514,9.3894358824,-2.8259234905999997,804
89142,193894,218716,-1.1700902514,9.3894358824,-2.8259234905999997,805
89134,193922,218703,-1.1700902514,9.3894358824,-2.8259234905999997,806
89178,193888,218702,-1.1700902514,9.3894358824,-2.8259234905999997,807
89223,193934,218718,-1.1700902514,9.3894358824,-2.8259234905999997,808
89309,193929,218697,-1.1700902514,9.3894358824,-2.8259234905999997,809
89410,193939,218787,-1.1700902514,9.3894358824,-2.8259234905999997,810
89501,193959,218715,-1.1700902514,9.3894358824,-2.8259234905999997,811
89598,193941,218702,-1.1700902514,9.3894358824,-2.8259234905999997,812
89701,193984,218759,-1.1700902514,9.3894358824,-2.8259234905999997,813
89785,194004,218747,-1.1700902514,9.3894358824,-2.8259234905999997,814
89897,193977,218770,-1.1700902514,9.3894358824,-2.8259234905999997,815
89985,194021,218761,-1.1700902514,9.3894358824,-2.8259234905999997,816
90073,194043,218758,-1.1700902514,9.3894358824,-2.8259234905999997,817
90146,194019,218739,-1.1796615418,9.477970318599999,-2.9072794589999997,818
90234,194029,218728,-1.1796615418,9.477970318599999,-2.9072794589999997,819
90186,194001,218701,-1.1796615418,9.477970318599999,-2.9072794589999997,820
89704,193978,218696,-1.1796615418,9.477970318599999,-2.9072794589999997,821
89108,193935,218704,-1.1796615418,9.477970318599999,-2.9072794589999997,822
88716,193894,218663,-1.1796615418,9.477970318599999,-2.9072794589999997,823
88637,193878,218643,-1.1796615418,9.477970318599999,-2.9072794589999997,824
88609,193855,218614,-1.1796615418,9.477970318599999,-2.9072794589999997,825
88634,193882,218652,-1.1796615418,9.477970318599999,-2.9072794589999997,826
88695,193875,218658,-1.1796615418,9.477970318599999,-2.9072794589999997,827
88761,193917,218660,-1.1796615418,9.477970318599999,-2.9072794589999997,828
88801,193863,218627,-1.1796615418,9.477970318599999,-2.9072794589999997,829
88802,193882,218618,-1.1796615418,9.477970318599999,-2.9072794589999997,830
88789,193871,218582,-1.1796615418,9.477970318599999,-2.9072794589999997,831
88812,193862,218651,-1.1796615418,9.477970318599999,-2.9072794589999997,832
88850,193891,218602,-1.1796615418,9.477970318599999,-2.9072794589999997,833
88928,193871,218608,-1.1796615418,9.477970318599999,-2.9072794589999997,834
89007,193865,218590,-1.1796615418,9.477970318599999,-2.9072794589999997,835
89100,193901,218643,-1.1796615418,9.477970318599999,-2.9072794589999997,836
89197,193908,218670,-1.1796615418,9.477970318599999,-2.9072794589999997,837
89282,193932,218626,-1.1796615418,9.477970318599999,-2.9072794589999997,838
89397,193971,218671,-1.1796615418,9.477970318599999,-2.9072794589999997,839
89508,193926,218685,-1.1796615418,9.477970318599999,-2.9072794589999997,840
89604,193957,218675,-1.1796615418,9.477970318599999,-2.9072794589999997,841
89702,193959,218652,-1.1796615418,9.477970318599999,-2.9072794589999997,842
89800,193939,218717,-1.1796615418,9.477970318599999,-2.9072794589999997,843
89774,193988,218683,-1.1796615418,9.477970318599999,-2.9072794589999997,844
89370,193913,218699,-1.1796615418,9.477970318599999,-2.9072794589999997,845
88761,193904,218694,-1.1796615418,9.477970318599999,-2.9072794589999997,846
88418,193865,218642,-1.1796615418,9.477970318599999,-2.9072794589999997,847
88304,193861,218659,-1.1796615418,9.477970318599999,-2.9072794589999997,848
88290,193867,218632,-1.1796615418,9.477970318599999,-2.9072794589999997,849
88325,193856,218627,-1.2239287599,9.510273423700001,-2.9407789753999998,850
88396,193863,218627,-1.2239287599,9.510273423700001,-2.9407789753999998,851
88489,193896,218637,-1.2239287599,9.510273423700001,-2.9407789753999998,852
88564,193869,218630,-1.2239287599,9.510273423700001,-2.9407789753999998,853
88609,193914,218615,-1.2239287599,9.510273423700001,-2.9407789753999998,854
88643,193906,218618,-1.2239287599,9.510273423700001,-2.9407789753999998,855
88674,193888,218633,-1.2239287599,9.510273423700001,-2.9407789753999998,856
88733,193885,218661,-1.2239287599,9.510273423700001,-2.9407789753999998,857
88811,193875,218651,-1.2239287599,9.510273423700001,-2.9407789753999998,858
88900,193893,218634,-1.2239287599,9.510273423700001,-2.9407789753999998,859
89015,193917,218654,-1.2239287599,9.510273423700001,-2.9407789753999998,860
89118,193961,218663,-1.2239287599,9.510273423700001,-2.9407789753999998,861
89223,193949,218651,-1.2239287599,9.510273423700001,-2.9407789753999998,862
89320,193943,218702,-1.2239287599,9.510273423700001,-2.9407789753999998,863
89446,193962,218709,-1.2239287599,9.510273423700001,-2.9407789753999998,864
89529,194009,218667,-1.2239287599,9.510273423700001,-2.9407789753999998,865
89620,193938,218681,-1.2239287599,9.510273423700001,-2.9407789753999998,866
89737,193979,218702,-1.2239287599,9.510273423700001,-2.9407789753999998,867
89833,193982,218723,-1.2239287599,9.510273423700001,-2.9407789753999998,868
89900,194012,218701,-1.1676974288,9.3415794304,-2.8474588940000003,869
89806,194015,218704,-1.1676974288,9.3415794304,-2.8474588940000003,870
89273,193957,218706,-1.1676974288,9.3415794304,-2.8474588940000003,871
88673,193911,218592,-1.1676974288,9.3415794304,-2.8474588940000003,872
88361,193908,218615,-1.1676974288,9.3415794304,-2.8474588940000003,873
88290,193910,218621,-1.1676974288,9.3415794304,-2.8474588940000003,874
88273,193853,218667,-1.1676974288,9.3415794304,-2.8474588940000003,875
88296,193887,218595,-1.1676974288,9.3415794304,-2.8474588940000003,876
88355,193869,218590,-1.1676974288,9.3415794304,-2.8474588940000003,877
88440,193869,218627,-1.1676974288,9.3415794304,-2.8474588940000003,878
88527,193898,218634,-1.1676974288,9.3415794304,-2.8474588940000003,879
88565,193871,218625,-1.1676974288,9.3415794304,-2.8474588940000003,880
88602,193869,218609,-1.1676974288,9.3415794304,-2.8474588940000003,881
88632,193919,218642,-1.1676974288,9.3415794304,-2.8474588940000003,882
88707,193906,218623,-1.1676974288,9.3415794304,-2.8474588940000003,883
88805,193890,218657,-1.1676974288,9.3415794304,-2.8474588940000003,884
88906,193878,218631,-1.1676974288,9.3415794304,-2.8474588940000003,885
89003,193924,218693,-1.1676974288,9.3415794304,-2.8474588940000003,886
89120,193923,218630,-1.1676974288,9.3415794304,-2.8474588940000003,887
89222,193940,218679,-1.1676974288,9.3415794304,-2.8474588940000003,888
89358,193967,218678,-1.1676974288,9.3415794304,-2.8474588940000003,889
89468,193959,218689,-1.1676974288,9.3415794304,-2.8474588940000003,890
89556,193988,218719,-1.1676974288,9.3415794304,-2.8474588940000003,891
89666,193970,218690,-1.1676974288,9.3415794304,-2.8474588940000003,892
89770,193973,218709,-1.1676974288,9.3415794304,-2.8474588940000003,893
89860,194007,218678,-1.1676974288,9.3415794304,-2.8474588940000003,894
89968,194013,218723,-1.3004990831,9.3296153174,-2.8929225234,895
90059,194024,218677,-1.3004990831,9.3296153174,-2.8929225234,896
90178,193999,218706,-1.3004990831,9.3296153174,-2.8929225234,897
90263,194035,218677,-1.3004990831,9.3296153174,-2.8929225234,898
90359,194032,218688,-1.3004990831,9.3296153174,-2.8929225234,899
90444,194059,218731,-1.3004990831,9.3296153174,-2.8929225234,900
90530,194058,218696,-1.3004990831,9.3296153174,-2.8929225234,901
90618,194065,218745,-1.3004990831,9.3296153174,-2.8929225234,902
90671,194075,218722,-1.3004990831,9.3296153174,-2.8929225234,903
90423,194064,218749,-1.3004990831,9.3296153174,-2.8929225234,904
89825,194005,218702,-1.3004990831,9.3296153174,-2.8929225234,905
89339,193984,218643,-1.3004990831,9.3296153174,-2.8929225234,906
89107,194022,218642,-1.3004990831,9.3296153174,-2.8929225234,907
89062,193968,218628,-1.3004990831,9.3296153174,-2.8929225234,908
89047,193952,218619,-1.3004990831,9.3296153174,-2.8929225234,909
89065,193939,218630,-1.3004990831,9.3296153174,-2.8929225234,910
89128,193938,218643,-1.3004990831,9.3296153174,-2.8929225234,911
89164,193956,218604,-1.3004990831,9.3296153174,-2.8929225234,912
89201,193919,218614,-1.3004990831,9.3296153174,-2.8929225234,913
89198,193918,218599,-1.3004990831,9.3296153174,-2.8929225234,914
89193,193943,218588,-1.3004990831,9.3296153174,-2.8929225234,915
89217,193929,218579,-1.3004990831,9.3296153174,-2.8929225234,916
89247,193913,218590,-1.3004990831,9.3296153174,-2.8929225234,917
89323,193936,218597,-1.3004990831,9.3296153174,-2.8929225234,918
89390,193925,218624,-1.3004990831,9.3296153174,-2.8929225234,919
89477,193910,218610,-1.1688938401,9.4420779796,-2.9371897415,920
89543,193928,218616,-1.1688938401,9.4420779796,-2.9371897415,921
89647,193934,218619,-1.1688938401,9.4420779796,-2.9371897415,922
89718,193950,218601,-1.1688938401,9.4420779796,-2.9371897415,923
89826,193952,218625,-1.1688938401,9.4420779796,-2.9371897415,924
89925,193934,218645,-1.1688938401,9.4420779796,-2.9371897415,925
90015,193977,218595,-1.1688938401,9.4420779796,-2.9371897415,926
90084,193984,218625,-1.1688938401,9.4420779796,-2.9371897415,927
90171,194014,218628,-1.1688938401,9.4420779796,-2.9371897415,928
90238,193967,218608,-1.1688938401,9.4420779796,-2.9371897415,929
90331,193969,218638,-1.1688938401,9.4420779796,-2.9371897415,930
90246,193979,218610,-1.1688938401,9.4420779796,-2.9371897415,931
89854,193931,218619,-1.1688938401,9.4420779796,-2.9371897415,932
89327,193920,218554,-1.1688938401,9.4420779796,-2.9371897415,933
89027,193891,218554,-1.1688938401,9.4420779796,-2.9371897415,934
88953,193889,218606,-1.1688938401,9.4420779796,-2.9371897415,935
88989,193891,218580,-1.1688938401,9.4420779796,-2.9371897415,936
89029,193865,218547,-1.1688938401,9.4420779796,-2.9371897415,937
89114,193907,218540,-1.1688938401,9.4420779796,-2.9371897415,938
89195,193920,218650,-1.1688938401,9.4420779796,-2.9371897415,939
89247,193914,218574,-1.1688938401,9.4420779796,-2.9371897415,940
89255,193924,218608,-1.1688938401,9.4420779796,-2.9371897415,941
89266,193903,218552,-1.1688938401,9.4420779796,-2.9371897415,942
89280,193934,218596,-1.1688938401,9.4420779796,-2.9371897415,943
89333,193940,218549,-1.1688938401,9.4420779796,-2.9371897415,944
89412,193948,218642,-1.1688938401,9.4420779796,-2.9371897415,945
89488,193922,218633,-1.1688938401,9.4420779796,-2.9371897415,946
89582,193956,218614,-1.1688938401,9.4420779796,-2.9371897415,947
89685,193954,218574,-1.1688938401,9.4420779796,-2.9371897415,948
89780,193974,218601,-1.1688938401,9.4420779796,-2.9371897415,949
89881,193986,218604,-1.1688938401,9.4420779796,-2.9371897415,950
89972,194021,218580,-1.1688938401,9.4420779796,-2.9371897415,951
90070,194019,218634,-1.1688938401,9.4420779796,-2.9371897415,952
90164,194018,218622,-1.1688938401,9.4420779796,-2.9371897415,953
90264,194025,218639,-1.1688938401,9.4420779796,-2.9371897415,954
90305,194060,218642,-1.1688938401,9.4420779796,-2.9371897415,955
90117,194025,218629,-1.1688938401,9.4420779796,-2.9371897415,956
89519,193991,218637,-1.1688938401,9.4420779796,-2.9371897415,957
88974,193959,218565,-1.1688938401,9.4420779796,-2.9371897415,958
88673,193949,218623,-1.1688938401,9.4420779796,-2.9371897415,959
88590,193933,218573,-1.1688938401,9.4420779796,-2.9371897415,960
88548,193934,218546,-1.1688938401,9.4420779796,-2.9371897415,961
89152,193931,218614,-1.2466605746,9.3607220112,-2.9479574432,962
89271,193967,218607,-1.2466605746,9.3607220112,-2.9479574432,963
89365,193971,218621,-1.2466605746,9.3607220112,-2.9479574432,964
89487,193990,218608,-1.2466605746,9.3607220112,-2.9479574432,965
89584,193979,218646,-1.2466605746,9.3607220112,-2.9479574432,966
89691,194005,218635,-1.2466605746,9.3607220112,-2.9479574432,967
89786,194045,218617,-1.2466605746,9.3607220112,-2.9479574432,968
89882,194002,218628,-1.2466605746,9.3607220112,-2.9479574432,969
89958,194039,218621,-1.2466605746,9.3607220112,-2.9479574432,970
90066,194061,218659,-1.2466605746,9.3607220112,-2.9479574432,971
90149,194042,218594,-1.2466605746,9.3607220112,-2.9479574432,972
90249,194039,218655,-1.2466605746,9.3607220112,-2.9479574432,973
90337,194034,218636,-1.2466605746,9.3607220112,-2.9479574432,974
90426,194047,218672,-1.2466605746,9.3607220112,-2.9479574432,975
90523,194070,218648,-1.2466605746,9.3607220112,-2.9479574432,976
90606,194075,218636,-1.2466605746,9.3607220112,-2.9479574432,977
90620,194086,218657,-1.2466605746,9.3607220112,-2.9479574432,978
90249,194080,218647,-1.2466605746,9.3607220112,-2.9479574432,979
89585,194048,218602,-1.2466605746,9.3607220112,-2.9479574432,980
89084,193970,218595,-1.2466605746,9.3607220112,-2.9479574432,981
88875,193981,218553,-1.2466605746,9.3607220112,-2.9479574432,982
88811,193946,218594,-1.2466605746,9.3607220112,-2.9479574432,983
88828,193963,218598,-1.2466605746,9.3607220112,-2.9479574432,984
88839,193983,218605,-1.2466605746,9.3607220112,-2.9479574432,985
88895,193968,218600,-1.2466605746,9.3607220112,-2.9479574432,986
88949,193948,218546,-1.2466605746,9.3607220112,-2.9479574432,987
88994,193968,218573,-1.2466605746,9.3607220112,-2.9479574432,988
89000,193955,218518,-1.2466605746,9.3607220112,-2.9479574432,989
89016,193949,218626,-1.2466605746,9.3607220112,-2.9479574432,990
89047,193958,218602,-1.2466605746,9.3607220112,-2.9479574432,991
89123,193958,218546,-1.2466605746,9.3607220112,-2.9479574432,992
89178,194000,218570,-1.2466605746,9.3607220112,-2.9479574432,993
89271,193928,218560,-1.1401799688999998,9.3284189061,-2.883351233,994
89365,194012,218538,-1.1401799688999998,9.3284189061,-2.883351233,995
89479,193996,218555,-1.2263215825,9.4133641084,-2.9096722816000002,996
89580,193974,218566,-1.088734283,9.3882394711,-2.9228328059,997
89688,194028,218580,-1.2454641632999999,9.5449693514,-2.8618158296000002,998
89775,194035,218570,-1.3555340029,9.4348995118,-2.9431717980000003,999
89872,194010,218593,-1.2717852119000002,9.5437729401,-2.967100024,1000
89986,193914,218569,-1.1676974288,9.487541608999999,-2.9718856692,1001
90074,193999,218578,-1.1952148887,9.531808827099999,-2.9587251449000003,1002
90160,194014,218639,-1.1952148887,9.531808827099999,-2.9587251449000003,1003
90257,194010,218606,-1.1952148887,9.531808827099999,-2.9587251449000003,1004
90325,194042,218592,-1.1952148887,9.531808827099999,-2.9587251449000003,1005
90405,194029,218629,-1.1952148887,9.531808827099999,-2.9587251449000003,1006
90501,194068,218607,-1.1952148887,9.531808827099999,-2.9587251449000003,1007
90557,194052,218629,-1.1952148887,9.531808827099999,-2.9587251449000003,1008
90498,194054,218603,-1.1952148887,9.531808827099999,-2.9587251449000003,1009
90010,194008,218582,-1.1952148887,9.531808827099999,-2.9587251449000003,1010
89404,193991,218578,-1.1952148887,9.531808827099999,-2.9587251449000003,1011
89032,193965,218517,-1.1952148887,9.531808827099999,-2.9587251449000003,1012
88943,193919,218488,-1.1988041226,9.4121676971,-2.919243572,1013
88904,193906,218542,-1.1736794853,9.4624169717,-2.9288148624,1014
89030,193904,218501,-1.1054840412,9.4265246327,-2.8139593776000003,1015
89084,193844,218522,-1.1294122672,9.4013999954,-2.9264220398,1016
89159,193862,218559,-1.2275179938,9.475577496,-2.8689942974,1017
89220,193943,218561,-1.2059825904,9.3140619705,-2.9862426048,1018
89231,193984,218522,-1.172483074,9.4444708022,-2.8498517166,1019
89213,193981,218586,-1.1282158559,9.415756931,-2.9036902251,1020
89239,193985,218572,-1.2346964616,9.2662055185,-2.8307091358,1021
89281,194000,218551,-1.1210373881,9.438488745699999,-2.9694928465999997,1022
89382,193946,218539,-1.220339526,9.3690968903,-2.9359933301999996,1023
89432,193970,218590,-1.1497512593,9.4935236655,-2.9742784918,1024
89513,193977,218566,-1.1497512593,9.4935236655,-2.9742784918,1025
89624,194011,218511,-1.1282158559,9.353543543399999,-2.9587251449000003,1026
89709,194003,218499,-1.2478569859,9.3463650756,-2.8929225234,1027
89822,194005,218598,-1.1653046062,9.4743810847,-2.8725835312999997,1028
89915,194057,218587,-1.0444670649,9.5282195932,-2.8510481279,1029
90020,194049,218542,-1.3124631961,9.3296153174,-2.9742784918,1030
90109,194099,218566,-1.2741780345,9.4815595525,-2.9455646206,1031
90215,194051,218567,-1.1736794853,9.379864592,-2.9048866364,1032
90312,194101,218567,-1.2705888006,9.5210411254,-2.9766713144,1033
90401,194083,218628,-1.244267752,9.499505722,-2.9168507494,1034
90486,194084,218603,-1.3124631961,9.415756931,-2.9336005076,1035
90458,194072,218615,-1.3124631961,9.415756931,-2.9336005076,1036
90009,194081,218569,-1.3124631961,9.415756931,-2.9336005076,1037
89357,194014,218550,-1.3124631961,9.415756931,-2.9336005076,1038
88929,193994,218553,-1.3124631961,9.415756931,-2.9336005076,1039
88784,193980,218490,-1.3124631961,9.415756931,-2.9336005076,1040
88745,193938,218533,-1.3124631961,9.415756931,-2.9336005076,1041
88763,193976,218488,-1.3124631961,9.415756931,-2.9336005076,1042
88828,193978,218529,-1.3124631961,9.415756931,-2.9336005076,1043
88904,193936,218565,-1.3124631961,9.415756931,-2.9336005076,1044
88976,193971,218510,-1.1401799688999998,9.4612205604,-2.8881368781999996,1045
89033,193970,218517,-1.1533404932,9.3379901965,-2.9682964353,1046
89042,193949,218550,-1.1533404932,9.3379901965,-2.9682964353,1047
89079,194003,218538,-1.1533404932,9.3379901965,-2.9682964353,1048
89116,193972,218540,-1.1533404932,9.3379901965,-2.9682964353,1049
89196,193963,218557,-1.1533404932,9.3379901965,-2.9682964353,1050
89283,194014,218495,-1.1533404932,9.3379901965,-2.9682964353,1051
89372,194006,218571,-1.1533404932,9.3379901965,-2.9682964353,1052
89484,193992,218553,-1.1533404932,9.3379901965,-2.9682964353,1053
89594,193996,218591,-1.1533404932,9.3379901965,-2.9682964353,1054
89704,194026,218573,-1.1533404932,9.3379901965,-2.9682964353,1055
89816,194043,218547,-1.1533404932,9.3379901965,-2.9682964353,1056
89928,194023,218596,-1.1533404932,9.3379901965,-2.9682964353,1057
90038,194047,218541,-1.1533404932,9.3379901965,-2.9682964353,1058
90125,194037,218567,-1.1533404932,9.3379901965,-2.9682964353,1059
90225,194019,218538,-1.1533404932,9.3379901965,-2.9682964353,1060
90338,194078,218612,-1.1533404932,9.3379901965,-2.9682964353,1061
90430,194052,218523,-1.1533404932,9.3379901965,-2.9682964353,1062
90494,194052,218583,-1.1533404932,9.3379901965,-2.9682964353,1063
90587,194092,218567,-1.1533404932,9.3379901965,-2.9682964353,1064
90657,194053,218585,-1.1533404932,9.3379901965,-2.9682964353,1065
90560,194068,218558,-1.1533404932,9.3379901965,-2.9682964353,1066
90045,194085,218557,-1.1533404932,9.3379901965,-2.9682964353,1067
89456,194012,218501,-1.1533404932,9.3379901965,-2.9682964353,1068
89114,193968,218504,-1.1533404932,9.3379901965,-2.9682964353,1069
89012,193934,218491,-1.2430713407,9.3511507208,-2.8462624827,1070
89008,193926,218505,-1.2430713407,9.3511507208,-2.8462624827,1071
89031,193985,218461,-1.2430713407,9.3511507208,-2.8462624827,1072
89082,193975,218467,-1.2430713407,9.3511507208,-2.8462624827,1073
89176,194006,218519,-1.2430713407,9.3511507208,-2.8462624827,1074
89216,193960,218517,-1.2430713407,9.3511507208,-2.8462624827,1075
89220,193916,218469,-1.2430713407,9.3511507208,-2.8462624827,1076
89253,193977,218529,-1.208375413,9.384650237199999,-2.979064137,1077
89258,193946,218446,-1.2370892842,9.4791667299,-2.9120651042,1078
89301,193922,218486,-1.1138589203,9.468399028199999,-2.8582265956999997,1079
89349,193920,218528,-1.1138589203,9.468399028199999,-2.8582265956999997,1080
89437,193960,218489,-1.1138589203,9.468399028199999,-2.8582265956999997,1081
89527,193958,218504,-1.1138589203,9.468399028199999,-2.8582265956999997,1082
89618,193971,218528,-1.1138589203,9.468399028199999,-2.8582265956999997,1083
89709,193977,218540,-1.1138589203,9.468399028199999,-2.8582265956999997,1084
89804,193952,218496,-1.1138589203,9.468399028199999,-2.8582265956999997,1085
89899,193944,218558,-1.1138589203,9.468399028199999,-2.8582265956999997,1086
89996,193962,218517,-1.1138589203,9.468399028199999,-2.8582265956999997,1087
90084,194023,218491,-1.1138589203,9.468399028199999,-2.8582265956999997,1088
90182,194001,218532,-1.1138589203,9.468399028199999,-2.8582265956999997,1089
90272,194012,218513,-1.1138589203,9.468399028199999,-2.8582265956999997,1090
90372,194016,218499,-1.1138589203,9.468399028199999,-2.8582265956999997,1091
90396,194017,218556,-1.1138589203,9.468399028199999,-2.8582265956999997,1092
90101,194053,218528,-1.1138589203,9.468399028199999,-2.8582265956999997,1093
89512,193982,218503,-1.1138589203,9.468399028199999,-2.8582265956999997,1094
89076,193985,218488,-1.1138589203,9.468399028199999,-2.8582265956999997,1095
88893,193966,218477,-1.1138589203,9.547362174,-2.931207685,1096
88897,193949,218483,-1.1138589203,9.547362174,-2.931207685,1097
88969,193935,218467,-1.1138589203,9.547362174,-2.931207685,1098
89055,194011,218504,-1.1138589203,9.547362174,-2.931207685,1099
89165,193990,218494,-1.1138589203,9.547362174,-2.931207685,1100
89255,194015,218512,-1.1138589203,9.547362174,-2.931207685,1101
89310,194013,218456,-1.1138589203,9.547362174,-2.931207685,1102
89325,194010,218527,-1.1138589203,9.547362174,-2.931207685,1103
89359,194008,218519,-1.1138589203,9.547362174,-2.931207685,1104
89412,194020,218589,-1.1138589203,9.547362174,-2.931207685,1105
89487,194025,218514,-1.1138589203,9.547362174,-2.931207685,1106
89594,193993,218538,-1.1138589203,9.547362174,-2.931207685,1107
89680,194008,218508,-1.1138589203,9.547362174,-2.931207685,1108
89782,194021,218541,-1.1138589203,9.547362174,-2.931207685,1109
89887,194055,218541,-1.1138589203,9.547362174,-2.931207685,1110
89997,194054,218568,-1.1138589203,9.547362174,-2.931207685,1111
90085,194063,218529,-1.1138589203,9.547362174,-2.931207685,1112
90182,194061,218544,-1.1138589203,9.547362174,-2.931207685,1113
90278,194060,218567,-1.1138589203,9.547362174,-2.931207685,1114
90366,194077,218515,-1.1629117836,9.4767739073,-2.8031916759,1115
90474,194090,218564,-1.1629117836,9.4767739073,-2.8031916759,1116
90569,194099,218550,-1.1629117836,9.4767739073,-2.8031916759,1117
90607,194063,218533,-1.1629117836,9.4767739073,-2.8031916759,1118
90304,194104,218536,-1.1629117836,9.4767739073,-2.8031916759,1119
89645,194072,218505,-1.1629117836,9.4767739073,-2.8031916759,1120
89087,194048,218525,-1.1629117836,9.4767739073,-2.8031916759,1121
88837,193976,218529,-1.1629117836,9.4767739073,-2.8031916759,1122
88749,193977,218537,-1.1629117836,9.4767739073,-2.8031916759,1123
88750,194028,218498,-1.1629117836,9.4767739073,-2.8031916759,1124
88787,193962,218517,-1.1629117836,9.4767739073,-2.8031916759,1125
88851,193980,218527,-1.1629117836,9.4767739073,-2.8031916759,1126
88931,193993,218539,-1.1629117836,9.4767739073,-2.8031916759,1127
89010,194010,218503,-1.1629117836,9.4767739073,-2.8031916759,1128
89044,194038,218485,-1.1629117836,9.4767739073,-2.8031916759,1129
89065,194007,218500,-1.1629117836,9.4767739073,-2.8031916759,1130
89099,193983,218493,-1.1629117836,9.4767739073,-2.8031916759,1131
89141,193993,218515,-1.1629117836,9.4767739073,-2.8031916759,1132
89228,194024,218501,-1.1629117836,9.4767739073,-2.8031916759,1133
89328,194040,218522,-1.1629117836,9.4767739073,-2.8031916759,1134
89434,194059,218477,-1.1629117836,9.4767739073,-2.8031916759,1135
89524,194043,218517,-1.1629117836,9.4767739073,-2.8031916759,1136
89651,194057,218553,-1.1629117836,9.4767739073,-2.8031916759,1137
89745,194039,218560,-1.1629117836,9.4767739073,-2.8031916759,1138
89870,194071,218572,-1.1629117836,9.4767739073,-2.8031916759,1139
89963,194055,218577,-1.1629117836,9.4767739073,-2.8031916759,1140
90060,194088,218534,-1.1629117836,9.4767739073,-2.8031916759,1141
90169,194056,218538,-1.1629117836,9.4767739073,-2.8031916759,1142
90267,194100,218572,-1.1629117836,9.4767739073,-2.8031916759,1143
90371,194091,218553,-1.1629117836,9.4767739073,-2.8031916759,1144
90458,194087,218537,-1.1629117836,9.4767739073,-2.8031916759,1145
90544,194089,218572,-1.1629117836,9.4767739073,-2.8031916759,1146
90642,194106,218538,-1.1629117836,9.4767739073,-2.8031916759,1147
90722,194156,218556,-1.1629117836,9.4767739073,-2.8031916759,1148
90803,194148,218581,-1.1629117836,9.4767739073,-2.8031916759,1149
90883,194162,218574,-1.1629117836,9.4767739073,-2.8031916759,1150
90832,194140,218570,-1.1629117836,9.4767739073,-2.8031916759,1151
90374,194112,218623,-1.1629117836,9.4767739073,-2.8031916759,1152
89691,194094,218560,-1.1629117836,9.4767739073,-2.8031916759,1153
89243,194075,218490,-1.1629117836,9.4767739073,-2.8031916759,1154
89064,194059,218514,-1.1629117836,9.4767739073,-2.8031916759,1155
89051,194021,218531,-1.1629117836,9.4767739073,-2.8031916759,1156
90459,194043,218476,-1.1198409768,9.367900479,-2.9383861528,1157
90057,194018,218485,-1.1198409768,9.367900479,-2.9383861528,1158
89462,194017,218479,-1.1198409768,9.367900479,-2.9383861528,1159
89082,193944,218475,-1.1198409768,9.367900479,-2.9383861528,1160
88940,193955,218410,-1.1198409768,9.367900479,-2.9383861528,1161
88939,193959,218423,-1.1198409768,9.367900479,-2.9383861528,1162
88997,193962,218398,-1.1198409768,9.367900479,-2.9383861528,1163
89087,193959,218431,-1.1198409768,9.367900479,-2.9383861528,1164
89180,194000,218421,-1.1198409768,9.367900479,-2.9383861528,1165
89232,193990,218445,-1.1198409768,9.367900479,-2.9383861528,1166
89262,193960,218493,-1.1198409768,9.367900479,-2.9383861528,1167
89263,193996,218430,-1.1198409768,9.367900479,-2.9383861528,1168
89279,194002,218442,-1.1198409768,9.367900479,-2.9383861528,1169
89313,193982,218417,-1.1198409768,9.367900479,-2.9383861528,1170
89386,193988,218454,-1.1198409768,9.367900479,-2.9383861528,1171
89469,194015,218462,-1.1198409768,9.367900479,-2.9383861528,1172
89562,194025,218454,-1.1198409768,9.367900479,-2.9383861528,1173
89644,194032,218450,-1.1198409768,9.367900479,-2.9383861528,1174
89751,194041,218507,-1.1198409768,9.367900479,-2.9383861528,1175
89849,194048,218461,-1.1533404932,9.4444708022,-2.9108686929000003,1176
89936,194067,218496,-1.1533404932,9.4444708022,-2.9108686929000003,1177
90049,194078,218495,-1.1533404932,9.4444708022,-2.9108686929000003,1178
90148,194075,218504,-1.1533404932,9.4444708022,-2.9108686929000003,1179
90220,194091,218507,-1.1533404932,9.4444708022,-2.9108686929000003,1180
90149,194089,218479,-1.1533404932,9.4444708022,-2.9108686929000003,1181
89619,194072,218486,-1.1533404932,9.4444708022,-2.9108686929000003,1182
88937,194049,218437,-1.1533404932,9.4444708022,-2.9108686929000003,1183
88532,193999,218414,-1.1533404932,9.4444708022,-2.9108686929000003,1184
88387,193991,218411,-1.1533404932,9.4444708022,-2.9108686929000003,1185
88364,193983,218419,-1.1533404932,9.4444708022,-2.9108686929000003,1186
88398,193970,218422,-1.1533404932,9.4444708022,-2.9108686929000003,1187
88461,193967,218381,-1.1533404932,9.4444708022,-2.9108686929000003,1188
88555,193959,218406,-1.1509476706000001,9.391828705,-2.8737799425999997,1189
88644,194006,218429,-1.1509476706000001,9.391828705,-2.8737799425999997,1190
88686,194008,218442,-1.1509476706000001,9.391828705,-2.8737799425999997,1191
88735,193966,218421,-1.1509476706000001,9.391828705,-2.8737799425999997,1192
88772,193985,218429,-1.1509476706000001,9.391828705,-2.8737799425999997,1193
88818,193984,218444,-1.1509476706000001,9.391828705,-2.8737799425999997,1194
88907,193993,218398,-1.1509476706000001,9.391828705,-2.8737799425999997,1195
89001,193983,218436,-1.1509476706000001,9.391828705,-2.8737799425999997,1196
89117,194005,218441,-1.1509476706000001,9.391828705,-2.8737799425999997,1197
89235,194012,218493,-1.1509476706000001,9.391828705,-2.8737799425999997,1198
89361,194047,218508,-1.1509476706000001,9.391828705,-2.8737799425999997,1199
89480,194024,218506,-1.1509476706000001,9.391828705,-2.8737799425999997,1200
89566,194013,218501,-1.1509476706000001,9.391828705,-2.8737799425999997,1201
89692,194067,218498,-1.1509476706000001,9.391828705,-2.8737799425999997,1202
89795,194050,218503,-1.1509476706000001,9.391828705,-2.8737799425999997,1203
89912,194056,218484,-1.1509476706000001,9.391828705,-2.8737799425999997,1204
89995,194052,218502,-1.1509476706000001,9.391828705,-2.8737799425999997,1205
90093,194054,218469,-1.1509476706000001,9.391828705,-2.8737799425999997,1206
90202,194073,218505,-1.1509476706000001,9.391828705,-2.8737799425999997,1207
90287,194097,218469,-1.1509476706000001,9.391828705,-2.8737799425999997,1208
90333,194124,218506,-1.1509476706000001,9.391828705,-2.8737799425999997,1209
90066,194101,218539,-1.1509476706000001,9.391828705,-2.8737799425999997,1210
89374,194072,218487,-1.1509476706000001,9.391828705,-2.8737799425999997,1211
88772,193980,218472,-1.1509476706000001,9.391828705,-2.8737799425999997,1212
88502,193982,218422,-1.1509476706000001,9.391828705,-2.8737799425999997,1213
88429,193967,218435,-1.1509476706000001,9.391828705,-2.8737799425999997,1214
88462,193949,218413,-1.1509476706000001,9.391828705,-2.8737799425999997,1215
88515,193968,218418,-1.1509476706000001,9.391828705,-2.8737799425999997,1216
88598,193977,218456,-1.1509476706000001,9.391828705,-2.8737799425999997,1217
88683,193964,218461,-1.1509476706000001,9.391828705,-2.8737799425999997,1218
88755,193960,218476,-1.1509476706000001,9.391828705,-2.8737799425999997,1219
88791,193945,218380,-1.1509476706000001,9.391828705,-2.8737799425999997,1220
88816,193967,218481,-1.1509476706000001,9.391828705,-2.8737799425999997,1221
88861,194005,218432,-1.1509476706000001,9.391828705,-2.8737799425999997,1222
88918,194032,218416,-1.1509476706000001,9.391828705,-2.8737799425999997,1223
89006,193964,218474,-1.1509476706000001,9.391828705,-2.8737799425999997,1224
89094,194004,218390,-1.1509476706000001,9.391828705,-2.8737799425999997,1225
89194,193987,218431,-1.1509476706000001,9.391828705,-2.8737799425999997,1226
89310,193987,218479,-1.1509476706000001,9.391828705,-2.8737799425999997,1227
89417,194007,218445,-1.1832507757,9.403792818,-2.919243572,1228
89531,194010,218461,-1.1832507757,9.403792818,-2.919243572,1229
89622,194024,218451,-1.1832507757,9.403792818,-2.919243572,1230
89733,194000,218432,-1.1832507757,9.403792818,-2.919243572,1231
89852,194003,218483,-1.1832507757,9.403792818,-2.919243572,1232
89927,194072,218478,-1.1832507757,9.403792818,-2.919243572,1233
90023,194044,218427,-1.1832507757,9.403792818,-2.919243572,1234
90112,194001,218485,-1.1832507757,9.403792818,-2.919243572,1235
90178,194027,218472,-1.1832507757,9.403792818,-2.919243572,1236
90236,194007,218432,-1.1832507757,9.403792818,-2.919243572,1237
90094,194042,218468,-1.1832507757,9.403792818,-2.919243572,1238
89550,194022,218386,-1.1832507757,9.403792818,-2.919243572,1239
88964,193957,218370,-1.1832507757,9.403792818,-2.919243572,1240
88679,193920,218410,-1.1832507757,9.403792818,-2.919243572,1241
88618,193890,218366,-1.1832507757,9.403792818,-2.919243572,1242
88632,193876,218355,-1.1832507757,9.403792818,-2.919243572,1243
88711,193886,218351,-1.1832507757,9.403792818,-2.919243572,1244
88818,193862,218377,-1.1832507757,9.403792818,-2.919243572,1245
88907,193899,218353,-1.1832507757,9.403792818,-2.919243572,1246
88964,193882,218361,-1.1832507757,9.403792818,-2.919243572,1247
88979,193862,218311,-1.1832507757,9.403792818,-2.919243572,1248
88983,193899,218364,-1.1832507757,9.403792818,-2.919243572,1249
88990,193888,218342,-1.1832507757,9.403792818,-2.919243572,1250
89057,193888,218356,-1.1832507757,9.403792818,-2.919243572,1251
89144,193859,218329,-1.1832507757,9.403792818,-2.919243572,1252
89225,193879,218359,-1.1832507757,9.403792818,-2.919243572,1253
89321,193892,218323,-1.1832507757,9.403792818,-2.919243572,1254
89419,193908,218378,-1.1832507757,9.403792818,-2.919243572,1255
89520,193908,218390,-1.1832507757,9.403792818,-2.919243572,1256
89616,193939,218403,-1.1832507757,9.403792818,-2.919243572,1257
89719,193927,218347,-1.1832507757,9.403792818,-2.919243572,1258
89799,193976,218411,-1.1832507757,9.403792818,-2.919243572,1259
89883,193952,218373,-1.1988041226,9.4731846734,-2.8510481279,1260
89819,193999,218385,-1.1988041226,9.4731846734,-2.8510481279,1261
89342,193929,218388,-1.1988041226,9.4731846734,-2.8510481279,1262
88763,193910,218396,-1.1988041226,9.4731846734,-2.8510481279,1263
88463,193885,218342,-1.1988041226,9.4731846734,-2.8510481279,1264
88391,193857,218295,-1.1988041226,9.4731846734,-2.8510481279,1265
88430,193891,218356,-1.1988041226,9.4731846734,-2.8510481279,1266
88516,193890,218345,-1.1988041226,9.4731846734,-2.8510481279,1267
88601,193914,218362,-1.1988041226,9.4731846734,-2.8510481279,1268
88718,193897,218355,-1.1988041226,9.4731846734,-2.8510481279,1269
88788,193876,218312,-1.1988041226,9.4731846734,-2.8510481279,1270
88852,193914,218354,-1.1988041226,9.4731846734,-2.8510481279,1271
88872,193920,218372,-1.1988041226,9.4731846734,-2.8510481279,1272
88906,193900,218385,-1.1988041226,9.4731846734,-2.8510481279,1273
88966,193930,218387,-1.1988041226,9.4731846734,-2.8510481279,1274
89047,193927,218350,-1.1988041226,9.4731846734,-2.8510481279,1275
89145,193914,218378,-1.1988041226,9.4731846734,-2.8510481279,1276
89247,193917,218362,-1.1988041226,9.4731846734,-2.8510481279,1277
89359,193952,218404,-1.1988041226,9.4731846734,-2.8510481279,1278
89458,193965,218389,-1.1988041226,9.4731846734,-2.8510481279,1279
89594,193964,218374,-1.1988041226,9.4731846734,-2.8510481279,1280
89675,193997,218438,-1.1988041226,9.4731846734,-2.8510481279,1281
89778,193972,218396,-1.1988041226,9.4731846734,-2.8510481279,1282
89882,193962,218379,-1.1988041226,9.4731846734,-2.8510481279,1283
89863,193988,218359,-1.1988041226,9.4731846734,-2.8510481279,1284
89446,193976,218408,-1.1988041226,9.4731846734,-2.8510481279,1285
88791,193934,218414,-1.1988041226,9.4731846734,-2.8510481279,1286
88328,193883,218325,-1.1988041226,9.4731846734,-2.8510481279,1287
88182,193867,218325,-1.1988041226,9.4731846734,-2.8510481279,1288
88149,193869,218332,-1.1988041226,9.4731846734,-2.8510481279,1289
88158,193875,218267,-1.1988041226,9.4731846734,-2.8510481279,1290
88195,193851,218343,-1.1988041226,9.4731846734,-2.8510481279,1291
88288,193876,218357,-1.1988041226,9.4731846734,-2.8510481279,1292
88400,193856,218319,-1.1988041226,9.4731846734,-2.8510481279,1293
88449,193853,218366,-1.1988041226,9.4731846734,-2.8510481279,1294
88498,193840,218382,-1.1988041226,9.4731846734,-2.8510481279,1295
88537,193882,218337,-1.1988041226,9.4731846734,-2.8510481279,1296
88601,193877,218334,-1.1988041226,9.4731846734,-2.8510481279,1297
88689,193893,218368,-1.1988041226,9.4731846734,-2.8510481279,1298
88776,193905,218366,-1.1988041226,9.4731846734,-2.8510481279,1299
88892,193918,218339,-1.1988041226,9.4731846734,-2.8510481279,1300
88999,193867,218364,-1.1988041226,9.4731846734,-2.8510481279,1301
90031,193996,218428,-1.1593225497000001,9.3631148338,-2.8929225234,1302
90003,193991,218401,-1.1593225497000001,9.3631148338,-2.8929225234,1303
89531,193929,218369,-1.1593225497000001,9.3631148338,-2.8929225234,1304
88842,193895,218314,-1.1593225497000001,9.3631148338,-2.8929225234,1305
88403,193834,218263,-1.1593225497000001,9.3631148338,-2.8929225234,1306
88242,193823,218256,-1.1593225497000001,9.3631148338,-2.8929225234,1307
88251,193803,218312,-1.1593225497000001,9.3631148338,-2.8929225234,1308
88288,193780,218240,-1.1593225497000001,9.3631148338,-2.8929225234,1309
88327,193815,218302,-1.1593225497000001,9.3631148338,-2.8929225234,1310
88437,193817,218315,-1.1593225497000001,9.3631148338,-2.8929225234,1311
88508,193828,218327,-1.1593225497000001,9.3631148338,-2.8929225234,1312
88555,193841,218302,-1.1593225497000001,9.3631148338,-2.8929225234,1313
88597,193818,218313,-1.1593225497000001,9.3631148338,-2.8929225234,1314
88625,193837,218336,-1.1593225497000001,9.3631148338,-2.8929225234,1315
88664,193837,218316,-1.1593225497000001,9.3631148338,-2.8929225234,1316
88732,193838,218325,-1.1593225497000001,9.3631148338,-2.8929225234,1317
88835,193832,218324,-1.1593225497000001,9.3631148338,-2.8929225234,1318
88942,193851,218294,-1.1593225497000001,9.3631148338,-2.8929225234,1319
89030,193858,218324,-1.1593225497000001,9.3631148338,-2.8929225234,1320
89152,193879,218330,-1.1593225497000001,9.3631148338,-2.8929225234,1321
89230,193849,218361,-1.1593225497000001,9.3631148338,-2.8929225234,1322
89334,193880,218313,-1.1593225497000001,9.3631148338,-2.8929225234,1323
89442,193910,218300,-1.1593225497000001,9.3631148338,-2.8929225234,1324
89548,193905,218342,-1.1593225497000001,9.3631148338,-2.8929225234,1325
89641,193895,218353,-1.1593225497000001,9.3631148338,-2.8929225234,1326
89732,193905,218339,-1.1593225497000001,9.3631148338,-2.8929225234,1327
89823,193887,218357,-1.1593225497000001,9.3631148338,-2.8929225234,1328
89873,193889,218345,-1.1593225497000001,9.3631148338,-2.8929225234,1329
89735,193917,218327,-1.1593225497000001,9.3631148338,-2.8929225234,1330
89227,193850,218312,-1.1593225497000001,9.3631148338,-2.8929225234,1331
88681,193813,218274,-1.1593225497000001,9.3631148338,-2.8929225234,1332
88412,193789,218243,-1.1593225497000001,9.3631148338,-2.8929225234,1333
88341,193789,218250,-1.1593225497000001,9.3631148338,-2.8929225234,1334
88376,193753,218296,-1.1593225497000001,9.3631148338,-2.8929225234,1335
88434,193733,218214,-1.1593225497000001,9.3631148338,-2.8929225234,1336
88517,193743,218217,-1.1593225497000001,9.3631148338,-2.8929225234,1337
88581,193788,218259,-1.1593225497000001,9.3631148338,-2.8929225234,1338
88658,193733,218217,-1.1593225497000001,9.3631148338,-2.8929225234,1339
88662,193749,218238,-1.1593225497000001,9.3631148338,-2.8929225234,1340
88639,193752,218222,-1.1593225497000001,9.3631148338,-2.8929225234,1341
88664,193709,218234,-1.1593225497000001,9.3631148338,-2.8929225234,1342
88686,193743,218263,-1.1593225497000001,9.3631148338,-2.8929225234,1343
89240,193808,218292,-1.1569297271,9.5198447141,-2.8570301844,1344
88688,193782,218239,-1.1569297271,9.5198447141,-2.8570301844,1345
88261,193743,218174,-1.1569297271,9.5198447141,-2.8570301844,1346
88107,193716,218225,-1.1569297271,9.5198447141,-2.8570301844,1347
88128,193748,218257,-1.1569297271,9.5198447141,-2.8570301844,1348
88188,193743,218215,-1.1569297271,9.5198447141,-2.8570301844,1349
88264,193745,218276,-1.1569297271,9.5198447141,-2.8570301844,1350
88379,193735,218221,-1.1569297271,9.5198447141,-2.8570301844,1351
88448,193793,218224,-1.1569297271,9.5198447141,-2.8570301844,1352
88510,193798,218243,-1.1569297271,9.5198447141,-2.8570301844,1353
88511,193752,218270,-1.1569297271,9.5198447141,-2.8570301844,1354
88554,193770,218319,-1.1569297271,9.5198447141,-2.8570301844,1355
88623,193750,218283,-1.1569297271,9.5198447141,-2.8570301844,1356
88713,193764,218244,-1.1569297271,9.5198447141,-2.8570301844,1357
88805,193798,218296,-1.1569297271,9.5198447141,-2.8570301844,1358
88906,193789,218264,-1.1569297271,9.5198447141,-2.8570301844,1359
89035,193819,218259,-1.1569297271,9.5198447141,-2.8570301844,1360
89150,193816,218275,-1.1569297271,9.5198447141,-2.8570301844,1361
89248,193839,218278,-1.1569297271,9.5198447141,-2.8570301844,1362
89350,193834,218320,-1.1569297271,9.5198447141,-2.8570301844,1363
89456,193880,218313,-1.1569297271,9.5198447141,-2.8570301844,1364
89575,193858,218305,-1.1569297271,9.5198447141,-2.8570301844,1365
89627,193872,218366,-1.1569297271,9.5198447141,-2.8570301844,1366
89393,193869,218318,-1.1569297271,9.5198447141,-2.8570301844,1367
88751,193832,218308,-1.1569297271,9.5198447141,-2.8570301844,1368
88216,193771,218295,-1.1569297271,9.5198447141,-2.8570301844,1369
87984,193750,218227,-1.1569297271,9.5198447141,-2.8570301844,1370
87933,193737,218233,-1.1569297271,9.5198447141,-2.8570301844,1371
87918,193761,218217,-1.1569297271,9.5198447141,-2.8570301844,1372
87933,193707,218236,-1.1569297271,9.5198447141,-2.8570301844,1373
88009,193741,218258,-1.1569297271,9.5198447141,-2.8570301844,1374
88103,193707,218199,-1.1569297271,9.5198447141,-2.8570301844,1375
88186,193752,218237,-1.1569297271,9.5198447141,-2.8570301844,1376
88232,193737,218280,-1.1569297271,9.5198447141,-2.8570301844,1377
88260,193776,218251,-1.1569297271,9.5198447141,-2.8570301844,1378
88307,193764,218258,-1.1569297271,9.5198447141,-2.8570301844,1379
88388,193770,218258,-1.1569297271,9.5198447141,-2.8570301844,1380
88485,193787,218289,-1.1569297271,9.5198447141,-2.8570301844,1381
88585,193778,218311,-1.1569297271,9.5198447141,-2.8570301844,1382
88730,193773,218305,-1.1569297271,9.5198447141,-2.8570301844,1383
88820,193806,218282,-1.1569297271,9.5198447141,-2.8570301844,1384
88952,193820,218303,-1.1569297271,9.5198447141,-2.8570301844,1385
88473,193664,218134,-1.1210373881,9.367900479,-2.8953153460000003,1386
88544,193669,218158,-1.1210373881,9.367900479,-2.8953153460000003,1387
88543,193697,218208,-1.1210373881,9.367900479,-2.8953153460000003,1388
88595,193695,218173,-1.1210373881,9.367900479,-2.8953153460000003,1389
88644,193682,218173,-1.1210373881,9.367900479,-2.8953153460000003,1390
88735,193700,218179,-1.1210373881,9.367900479,-2.8953153460000003,1391
88829,193691,218245,-1.1210373881,9.367900479,-2.8953153460000003,1392
88940,193700,218215,-1.1210373881,9.367900479,-2.8953153460000003,1393
89027,193711,218182,-1.1210373881,9.367900479,-2.8953153460000003,1394
89140,193768,218220,-1.1210373881,9.367900479,-2.8953153460000003,1395
89241,193744,218226,-1.1210373881,9.367900479,-2.8953153460000003,1396
89330,193752,218203,-1.1210373881,9.367900479,-2.8953153460000003,1397
89443,193783,218234,-1.1210373881,9.367900479,-2.8953153460000003,1398
89545,193783,218244,-1.1210373881,9.367900479,-2.8953153460000003,1399
89646,193805,218255,-1.1210373881,9.367900479,-2.8953153460000003,1400
89728,193795,218283,-1.1210373881,9.367900479,-2.8953153460000003,1401
89828,193787,218257,-1.1210373881,9.367900479,-2.8953153460000003,1402
89926,193807,218253,-1.1210373881,9.367900479,-2.8953153460000003,1403
90008,193844,218287,-1.1210373881,9.367900479,-2.8953153460000003,1404
90002,193841,218232,-1.1892328322,9.3224368496,-2.919243572,1405
89609,193815,218239,-1.1892328322,9.3224368496,-2.919243572,1406
88958,193788,218204,-1.1892328322,9.3224368496,-2.919243572,1407
88511,193761,218155,-1.1892328322,9.3224368496,-2.919243572,1408
88347,193721,218102,-1.1892328322,9.3224368496,-2.919243572,1409
88322,193724,218165,-1.1892328322,9.3224368496,-2.919243572,1410
88351,193711,218145,-1.1892328322,9.3224368496,-2.919243572,1411
88404,193672,218127,-1.1892328322,9.3224368496,-2.919243572,1412
88477,193713,218172,-1.1892328322,9.3224368496,-2.919243572,1413
88564,193716,218174,-1.1892328322,9.3224368496,-2.919243572,1414
88612,193729,218154,-1.1892328322,9.3224368496,-2.919243572,1415
88641,193711,218179,-1.1892328322,9.3224368496,-2.919243572,1416
88688,193726,218203,-1.1892328322,9.3224368496,-2.919243572,1417
88729,193738,218202,-1.1892328322,9.3224368496,-2.919243572,1418
88805,193706,218195,-1.1892328322,9.3224368496,-2.919243572,1419
88901,193754,218184,-1.1892328322,9.3224368496,-2.919243572,1420
88994,193748,218202,-1.1892328322,9.3224368496,-2.919243572,1421
89091,193788,218219,-1.1892328322,9.3224368496,-2.919243572,1422
89198,193815,218179,-1.1892328322,9.3224368496,-2.919243572,1423
89321,193750,218215,-1.0683952909,9.4085784632,-2.883351233,1424
89402,193779,218206,-1.0683952909,9.4085784632,-2.883351233,1425
89509,193769,218195,-1.0683952909,9.4085784632,-2.883351233,1426
89619,193801,218210,-1.0683952909,9.4085784632,-2.883351233,1427
89708,193812,218202,-1.0683952909,9.4085784632,-2.883351233,1428
89792,193784,218239,-1.0683952909,9.4085784632,-2.883351233,1429
89881,193810,218231,-1.0683952909,9.4085784632,-2.883351233,1430
89967,193816,218240,-1.0683952909,9.4085784632,-2.883351233,1431
90046,193808,218231,-1.0683952909,9.4085784632,-2.883351233,1432
90137,193799,218251,-1.0683952909,9.4085784632,-2.883351233,1433
90148,193841,218215,-1.0683952909,9.4085784632,-2.883351233,1434
89841,193807,218273,-1.0683952909,9.4085784632,-2.883351233,1435
89218,193779,218198,-1.0683952909,9.4085784632,-2.883351233,1436
88743,193710,218126,-1.1174481541999999,9.3894358824,-2.9383861528,1437
88540,193714,218100,-1.2011969452,9.3511507208,-2.9288148624,1438
88513,193693,218160,-1.0468598875,9.3655076564,-2.8199414341,1439
88538,193673,218122,-1.1246266219999999,9.4444708022,-2.7744778047,1440
88583,193671,218155,-1.1916256548,9.3427758417,-2.8761727652,1441
88682,193711,218164,-1.0851450490999999,9.4540420926,-3.0101708308,1442
88739,193689,218126,-1.0851450490999999,9.4540420926,-3.0101708308,1443
88781,193689,218109,-1.0851450490999999,9.4540420926,-3.0101708308,1444
88801,193699,218153,-1.0851450490999999,9.4540420926,-3.0101708308,1445
88807,193700,218129,-1.0851450490999999,9.4540420926,-3.0101708308,1446
88832,193685,218119,-1.0851450490999999,9.4540420926,-3.0101708308,1447
88890,193697,218105,-1.0851450490999999,9.4540420926,-3.0101708308,1448
88965,193671,218139,-1.0851450490999999,9.4540420926,-3.0101708308,1449
89048,193660,218132,-1.0851450490999999,9.4540420926,-3.0101708308,1450
89150,193666,218144,-1.0851450490999999,9.4540420926,-3.0101708308,1451
89252,193668,218128,-1.0851450490999999,9.4540420926,-3.0101708308,1452
89331,193720,218115,-1.0851450490999999,9.4540420926,-3.0101708308,1453
89424,193660,218092,-1.0851450490999999,9.4540420926,-3.0101708308,1454
89504,193730,218121,-1.0851450490999999,9.4540420926,-3.0101708308,1455
89593,193742,218166,-1.0851450490999999,9.4540420926,-3.0101708308,1456
89688,193739,218182,-1.0851450490999999,9.4540420926,-3.0101708308,1457
89787,193720,218145,-1.0851450490999999,9.4540420926,-3.0101708308,1458
89856,193732,218108,-1.0851450490999999,9.4540420926,-3.0101708308,1459
89750,193730,218148,-1.0851450490999999,9.4540420926,-3.0101708308,1460
89288,193710,218143,-1.0851450490999999,9.4540420926,-3.0101708308,1461
88733,193651,218127,-1.0851450490999999,9.4540420926,-3.0101708308,1462
88432,193649,218097,-1.0851450490999999,9.4540420926,-3.0101708308,1463
88381,193645,218064,-1.0851450490999999,9.4540420926,-3.0101708308,1464
88426,193646,218059,-1.0851450490999999,9.4540420926,-3.0101708308,1465
88510,193669,218077,-1.0851450490999999,9.4540420926,-3.0101708308,1466
88615,193655,218122,-1.0851450490999999,9.4540420926,-3.0101708308,1467
88710,193670,218146,-1.0851450490999999,9.4540420926,-3.0101708308,1468
88801,193702,218105,-1.0851450490999999,9.4540420926,-3.0101708308,1469
88808,193650,218112,-1.0851450490999999,9.4540420926,-3.0101708308,1470
88839,193666,218141,-1.0851450490999999,9.4540420926,-3.0101708308,1471
88877,193682,218119,-1.0851450490999999,9.4540420926,-3.0101708308,1472
88939,193738,218135,-1.0851450490999999,9.4540420926,-3.0101708308,1473
89005,193706,218147,-1.0851450490999999,9.4540420926,-3.0101708308,1474
89096,193756,218151,-1.0851450490999999,9.4540420926,-3.0101708308,1475
89185,193742,218164,-1.0851450490999999,9.4540420926,-3.0101708308,1476
89281,193726,218122,-1.0851450490999999,9.4540420926,-3.0101708308,1477
89325,193738,218116,-1.0851450490999999,9.4540420926,-3.0101708308,1478
89373,193732,218085,-1.0851450490999999,9.4540420926,-3.0101708308,1479
89453,193748,218126,-1.0851450490999999,9.4540420926,-3.0101708308,1480
89542,193723,218141,-1.0851450490999999,9.4540420926,-3.0101708308,1481
89667,193764,218152,-1.0851450490999999,9.4540420926,-3.0101708308,1482
89759,193777,218204,-1.0851450490999999,9.4540420926,-3.0101708308,1483
88042,193669,218069,-1.0911271056,9.4301138666,-2.8151557889,1484
88052,193702,218070,-1.0911271056,9.4301138666,-2.8151557889,1485
88080,193676,218093,-1.0911271056,9.4301138666,-2.8151557889,1486
88176,193684,218137,-1.1665010175000001,9.4731846734,-2.9072794589999997,1487
88237,193723,218103,-1.1820543644000001,9.443274390900001,-2.9096722816000002,1488
88321,193697,218094,-1.1916256548,9.475577496,-2.8749763539,1489
88291,193709,218144,-1.2514462198,9.391828705,-2.931207685,1490
88393,193637,218115,-1.148554848,9.391828705,-2.9324040963,1491
88438,193635,218150,-1.1162517428999998,9.443274390900001,-2.8414768375,1492
88500,193639,218147,-1.2418749294,9.3894358824,-2.9539394997,1493
88572,193687,218148,-1.1413763801999999,9.5174518915,-2.9156543381000004,1494
88679,193740,218141,-1.2346964616,9.5700939887,-2.8558337731,1495
88765,193721,218175,-1.2035897678,9.3774717694,-2.8570301844,1496
88874,193744,218133,-1.1964113,9.510273423700001,-2.9431717980000003,1497
88975,193763,218205,-1.1964113,9.510273423700001,-2.9431717980000003,1498
89083,193755,218154,-1.1964113,9.510273423700001,-2.9431717980000003,1499
89196,193745,218136,-1.1964113,9.510273423700001,-2.9431717980000003,1500
89271,193759,218173,-1.1964113,9.510273423700001,-2.9431717980000003,1501
89368,193799,218180,-1.1964113,9.510273423700001,-2.9431717980000003,1502
89469,193815,218171,-1.1964113,9.510273423700001,-2.9431717980000003,1503
89509,193799,218183,-1.1964113,9.510273423700001,-2.9431717980000003,1504
89259,193749,218188,-1.1964113,9.510273423700001,-2.9431717980000003,1505
88613,193710,218138,-1.1964113,9.510273423700001,-2.9431717980000003,1506
88069,193681,218113,-1.1964113,9.510273423700001,-2.9431717980000003,1507
87840,193681,218087,-1.1964113,9.510273423700001,-2.9431717980000003,1508
87803,193633,218031,-1.1964113,9.510273423700001,-2.9431717980000003,1509
87813,193626,218119,-1.1964113,9.510273423700001,-2.9431717980000003,1510
87880,193623,218098,-1.1964113,9.510273423700001,-2.9431717980000003,1511
87970,193647,218096,-1.1964113,9.510273423700001,-2.9431717980000003,1512
88087,193650,218140,-1.1964113,9.510273423700001,-2.9431717980000003,1513
88173,193660,218121,-1.1964113,9.510273423700001,-2.9431717980000003,1514
88200,193655,218111,-1.1964113,9.510273423700001,-2.9431717980000003,1515
88120,193649,218057,-1.112662509,9.5210411254,-2.9024938138,1516
88029,193630,218017,-1.1054840412,9.629914553699999,-2.919243572,1517
88061,193683,218012,-1.1748758966000001,9.384650237199999,-2.8809584104000003,1518
88131,193669,218035,-1.1557333158,9.3631148338,-2.9407789753999998,1519
88301,193696,218019,-1.1557333158,9.3631148338,-2.9407789753999998,1520
88471,193725,218113,-1.1557333158,9.3631148338,-2.9407789753999998,1521
88644,193765,218154,-1.1557333158,9.3631148338,-2.9407789753999998,1522
88797,193781,218177,-1.1557333158,9.3631148338,-2.9407789753999998,1523
88935,193794,218190,-1.1557333158,9.3631148338,-2.9407789753999998,1524
89027,193741,218137,-1.1557333158,9.3631148338,-2.9407789753999998,1525
89038,193765,218070,-1.1557333158,9.3631148338,-2.9407789753999998,1526
89065,193754,218097,-1.1557333158,9.3631148338,-2.9407789753999998,1527
89076,193741,218040,-1.1557333158,9.3631148338,-2.9407789753999998,1528
89100,193778,218052,-1.1557333158,9.3631148338,-2.9407789753999998,1529
