green,red,IR,acc_x,acc_y,acc_z,sample_index
38394,127303,143868,1.0731809361,9.4743810847,-1.6462619487999999,1
38391,127311,143856,1.2430713407,9.3463650756,-1.6079767872,2
38406,127294,143868,0.9822536772999999,9.4169533423,-1.6331014245,3
38423,127345,143840,1.0947163395,9.332008140000001,-1.6797614652,4
38363,127333,143822,1.1712866627,9.3882394711,-1.579262916,5
38443,127342,143834,0.9583254512999999,9.327222494799999,-1.5134602944999997,6
38448,127346,143861,1.0432706536,9.5078806011,-1.7072789251,7
38405,127356,143860,1.0336993632,9.2697947524,-1.6271193679999998,8
38324,127434,143937,1.0480562988,9.399007172800001,-1.6558332392,9
38268,127476,143980,1.1102696864,9.4217389875,-1.6749758199999998,10
38240,127474,144016,1.052841944,9.3894358824,-1.6091731985,11
38219,127481,144001,1.0241280728,9.4325066892,-1.5661023917,12
38209,127518,144008,1.1473584366999998,9.487541608999999,-1.6749758199999998,13
38196,127514,143996,1.0492527101,9.3415794304,-1.6749758199999998,14
38207,127524,143985,1.052841944,9.4372923344,-1.7563317884,15
38212,127517,143970,0.9954142015999999,9.427721044,-1.6749758199999998,16
38253,127500,143969,1.0109675485,9.4133641084,-1.6510475939999998,17
38192,127513,143942,1.0719845248,9.2877409219,-1.5517454561000001,18
38225,127530,143977,1.028913718,9.340383019099999,-1.6701901747999999,19
38225,127522,143959,1.148554848,9.379864592,-1.7623138449,20
38231,127540,143962,1.2047861791,9.4947200768,-1.6893327556000002,21
38243,127490,143960,1.1246266219999999,9.5174518915,-1.6809578765,22
38256,127525,143916,1.0145567824000001,9.4085784632,-1.6414763036,23
38281,127552,143917,1.0815558152,9.4372923344,-1.6893327556000002,24
38298,127534,143940,1.2418749294,9.3894358824,-1.6893327556000002,25
38315,127547,143938,1.0001998468,9.3140619705,-1.6127624323999998,26
38313,127542,143936,1.0109675485,9.4360959231,-1.7276179172000001,27
38351,127547,143918,1.1234302107,9.3834538259,-1.6462619487999999,28
38374,127554,143941,1.1006983959999999,9.3260260835,-1.6941184008,29
38389,127568,143931,1.0468598875,9.4169533423,-1.6426727149,30
38411,127597,143908,1.0480562988,9.3942215276,-1.6797614652,31
38438,127563,143942,1.172483074,9.3619184225,-1.6462619487999999,32
38451,127597,143901,1.0719845248,9.4229353988,-1.6558332392,33
38471,127540,143903,1.0301101293000001,9.165706969299999,-1.6893327556000002,34
38481,127573,143908,0.9296115801,9.379864592,-1.6522440053,35
38418,127628,143945,1.1904292435000001,9.4360959231,-1.698904046,36
38404,127665,144032,1.0851450490999999,9.3284189061,-1.7180466268,37
38375,127698,144053,1.1006983959999999,9.2889373332,-1.6666009409,38
38367,127720,144051,1.0480562988,9.397810761499999,-1.7563317884,39
38369,127744,144043,0.9966106129000001,9.399007172800001,-1.5996019081000001,40
38369,127783,144053,1.1629117836,9.4025964067,-1.6701901747999999,41
38386,127736,144023,1.0097711372,9.3894358824,-1.6606188843999998,42
38396,127726,143992,0.9954142015999999,9.4660062056,-1.6426727149,43
38422,127727,143973,0.981057266,9.2949193897,-1.6366906583999998,44
38427,127709,143954,1.2095718243,9.4372923344,-1.7132609816000002,45
38425,127698,143951,1.1988041226,9.355936366,-1.6187444889,46
38450,127752,143924,1.1246266219999999,9.4313102779,-1.7084753364,47
38467,127716,143929,1.1569297271,9.384650237199999,-1.6845471104,48
38486,127735,143904,1.0707881135,9.4169533423,-1.6558332392,49
38502,127767,143885,0.9906285563999999,9.4468636248,-1.7359927963,50
38527,127746,143850,1.0468598875,9.4660062056,-1.5756736821000001,51
38571,127766,143818,1.0396814197,9.3786681807,-1.6809578765,52
38564,127751,143805,1.0253244841,9.5413801175,-1.6414763036,53
38581,127772,143801,1.1712866627,9.2709911637,-1.7838492483,54
38609,127760,143777,1.0947163395,9.355936366,-1.6881363443,55
38618,127773,143756,1.0444670649,9.2614198733,-1.7850456596,56
38642,127696,143747,1.1856435983,9.2518485829,-1.6654045296,57
38680,127802,143725,1.0671988796,9.384650237199999,-1.6713865861,58
38673,127754,143749,1.0935199281999999,9.3702933016,-1.5852449725,59
38665,127802,143723,1.1186445655,9.332008140000001,-1.5744772707999999,60
38618,127828,143791,1.1377871463,9.4695954395,-1.746760498,61
38585,127921,143819,1.0719845248,9.4456672135,-1.6366906583999998,62
38588,127907,143808,0.9248259349,9.3942215276,-1.7419748528,63
38624,127911,143821,1.1521440819,9.4181497536,-1.6474583601,64
38565,127887,143818,1.1425727915,9.3379901965,-1.6701901747999999,65
38609,127898,143794,0.981057266,9.4839523751,-1.6366906583999998,66
38632,127865,143750,1.1054840412,9.3332045513,-1.722832272,67
38634,127863,143728,1.0480562988,9.379864592,-1.7180466268,68
38644,127858,143711,1.0001998468,9.327222494799999,-1.579262916,69
38647,127846,143682,0.9475577495999999,9.3140619705,-1.6426727149,70
38657,127846,143668,1.0815558152,9.4660062056,-1.6701901747999999,71
38690,127839,143599,1.1138589203,9.397810761499999,-1.6187444889,72
38675,127862,143560,1.1581261384000001,9.384650237199999,-1.7419748528,73
38687,127832,143539,1.1521440819,9.345168664300001,-1.5984054967999999,74
38707,127841,143487,1.07677017,9.4169533423,-1.7312071511,75
38719,127831,143430,1.0576275892,9.4372923344,-1.6845471104,76
38750,127843,143435,1.1198409768,9.4085784632,-1.5852449725,77
38750,127845,143400,0.9487541609,9.299705034899999,-1.722832272,78
38759,127857,143399,0.9762716208,9.4025964067,-1.6654045296,79
38781,127863,143364,1.0468598875,9.3690968903,-1.5708880369,80
38746,127887,143345,1.0241280728,9.4600241491,-1.6414763036,81
38809,127865,143347,1.1090732750999999,9.5030949559,-1.7276179172000001,82
38814,127917,143347,1.028913718,9.4265246327,-1.6175480776,83
38794,127933,143370,0.9762716208,9.4372923344,-1.7084753364,84
38751,128000,143436,1.1186445655,9.3367937852,-1.579262916,85
38689,128068,143485,1.0444670649,9.399007172800001,-1.722832272,86
38659,128066,143487,1.2047861791,9.2566342281,-1.5840485612,87
38636,128067,143476,1.1090732750999999,9.165706969299999,-1.7084753364,88
38629,128065,143503,1.0480562988,9.308079914,-1.6079767872,89
38619,128039,143508,1.172483074,9.3176512044,-1.5469598109,90
38625,128023,143489,0.9822536772999999,9.4372923344,-1.5373885205000002,91
38629,128073,143463,1.2107682356,9.3511507208,-1.6235301341000001,92
38631,128001,143471,1.0145567824000001,9.487541608999999,-1.5768700934,93
38664,127990,143419,1.0480562988,9.3463650756,-1.746760498,94
38621,128004,143386,1.1473584366999998,9.4695954395,-1.6618152957,95
38623,127987,143375,1.1856435983,9.2853480993,-1.6797614652,96
38626,127998,143327,1.0492527101,9.3236332609,-1.5756736821000001,97
38633,127986,143299,1.2335000503,9.4935236655,-1.6331014245,98
38650,127991,143294,1.1377871463,9.3942215276,-1.6043875533,99
38650,127999,143296,1.0911271056,9.4121676971,-1.6797614652,100
38661,127990,143313,1.1389835576,9.3511507208,-1.7036896912000001,101
38667,128007,143255,0.9870393224999999,9.3188476157,-1.5960126741999998,102
38682,128038,143277,1.2335000503,9.3176512044,-1.6761722313,103
38689,128023,143244,0.9774680320999999,9.397810761499999,-1.6366906583999998,104
38691,128037,143220,1.0336993632,9.3834538259,-1.6905291669,105
38646,128048,143204,1.1150553316,9.3894358824,-1.5888342063999998,106
38727,128052,143177,1.1294122672,9.299705034899999,-1.6713865861,107
38712,128055,143193,1.0241280728,9.3547399547,-1.5948162629,108
38733,128045,143206,1.0396814197,9.3547399547,-1.6510475939999998,109
38749,128044,143193,1.1665010175000001,9.2231347117,-1.6510475939999998,110
38707,128076,143228,1.1198409768,9.4002035841,-1.6570296505,111
38642,128100,143305,1.0277173067,9.4743810847,-1.4189438018,112
38555,128116,143338,1.2095718243,9.2315095908,-1.6618152957,113
38507,128119,143371,0.8961120637,9.379864592,-1.5708880369,114
38483,128119,143365,1.1473584366999998,9.4181497536,-1.6606188843999998,115
38464,128122,143337,1.0815558152,9.5066841898,-1.6271193679999998,116
38444,128105,143333,1.0229316615,9.4325066892,-1.7084753364,117
38413,128104,143289,1.172483074,9.3463650756,-1.6510475939999998,118
38447,128085,143292,1.0576275892,9.403792818,-1.6079767872,119
38437,128107,143277,1.2239287599,9.4133641084,-1.7180466268,120
38424,128086,143244,1.1473584366999998,9.355936366,-1.6737794087,121
38420,128070,143248,1.1629117836,9.3942215276,-1.6845471104,122
38358,128111,143262,1.280160091,9.4025964067,-1.6414763036,123
38424,128077,143223,1.1473584366999998,9.4313102779,-1.722832272,124
38427,128067,143200,1.2478569859,9.284151688,-1.6606188843999998,125
38434,128097,143219,1.2047861791,9.3750789468,-1.6235301341000001,126
38440,128102,143180,0.981057266,9.284151688,-1.5804593273,127
38452,128103,143229,1.2047861791,9.2410808812,-1.6223337227999999,128
38455,128090,143178,1.0959127508,9.399007172800001,-1.5900306177,129
38467,128127,143193,0.981057266,9.4169533423,-1.6378870697,130
38470,128119,143170,1.2622139215000001,9.355936366,-1.6510475939999998,131
38480,128099,143199,1.1473584366999998,9.407382051899999,-1.6941184008,132
38489,128095,143178,1.1617153723,9.4360959231,-1.6510475939999998,133
38517,128110,143176,0.9391828704999999,9.4660062056,-1.6845471104,134
38508,128138,143184,1.1294122672,9.4085784632,-1.6654045296,135
38523,128107,143152,1.1676974288,9.4372923344,-1.6474583601,136
38539,128112,143189,1.0719845248,9.2614198733,-1.6749758199999998,137
38540,128105,143194,1.1138589203,9.4372923344,-1.6833506991,138
38549,128113,143214,1.0492527101,9.3367937852,-1.5326028753,139
38586,128081,143227,1.1425727915,9.260223461999999,-1.7096717476999999,140
38531,128131,143296,0.9774680320999999,9.4695954395,-1.5996019081000001,141
38455,128159,143364,1.0755737587,9.531808827099999,-1.5708880369,142
38387,128181,143395,1.0755737587,9.3355973739,-1.579262916,143
38348,128171,143427,1.1054840412,9.3224368496,-1.4991033588999998,144
38328,128162,143406,1.1617153723,9.5365944723,-1.6845471104,145
38317,128151,143405,1.0576275892,9.2171526552,-1.5804593273,146
38317,128160,143403,1.0193424276,9.3463650756,-1.603191142,147
38319,128145,143399,1.1102696864,9.464809794299999,-1.6522440053,148
38325,128180,143390,1.0959127508,9.2793660428,-1.6797614652,149
38320,128122,143401,1.0540383553,9.2853480993,-1.6139588437,150
38335,128134,143374,1.0755737587,9.3942215276,-1.6701901747999999,151
38299,128156,143392,1.1198409768,9.3511507208,-1.6091731985,152
38296,128142,143398,1.1856435983,9.4229353988,-1.6462619487999999,153
38306,128132,143394,1.0241280728,9.4612205604,-1.7084753364,154
38316,128164,143401,1.0241280728,9.3463650756,-1.6426727149,155
38338,128129,143387,1.1437692028,9.4851487864,-1.7754743692000001,156
38333,128118,143403,1.0803594039,9.3427758417,-1.6319050132,157
38339,128155,143430,0.9918249677,9.3738825355,-1.6713865861,158
38353,128123,143414,1.2478569859,9.4923272542,-1.7324035624,159
38361,128085,143400,1.0863414604,9.5653083435,-1.6606188843999998,160
38372,128115,143410,0.9774680320999999,9.3499543095,-1.6223337227999999,161
38378,128121,143402,1.1700902514,9.2709911637,-1.6187444889,162
38391,128120,143410,1.148554848,9.4695954395,-1.7599210223,163
38401,128088,143426,1.1437692028,9.403792818,-1.6510475939999998,164
38412,128109,143396,1.1964113,9.2985086236,-1.6749758199999998,165
38429,128080,143394,1.1820543644000001,9.2937229784,-1.7084753364,166
38437,128107,143400,0.9667003303999999,9.332008140000001,-1.7132609816000002,167
38420,128122,143456,1.2143574695,9.3690968903,-1.6642081183,168
38359,128167,143517,1.0492527101,9.4121676971,-1.6654045296,169
38290,128169,143584,1.0492527101,9.4504528587,-1.6570296505,170
38271,128172,143607,1.0241280728,9.284151688,-1.6749758199999998,171
38258,128173,143625,1.2514462198,9.2566342281,-1.6366906583999998,172
38253,128178,143616,1.0911271056,9.4456672135,-1.5469598109,173
38247,128108,143604,1.1557333158,9.5174518915,-1.5613167465000002,174
38301,128101,143605,1.1294122672,9.497112899400001,-1.6749758199999998,175
38266,128100,143617,0.9619146851999999,9.4803631412,-1.6510475939999998,176
38262,128083,143624,1.0995019847,9.5030949559,-1.7264215058999999,177
38260,128096,143636,1.0863414604,9.3475614869,-1.6953148121,178
38273,128086,143633,0.9427721043999999,9.464809794299999,-1.6043875533,179
38259,128087,143650,1.1449656141,9.3595255999,-1.7084753364,180
38270,128055,143659,1.0995019847,9.3367937852,-1.6701901747999999,181
38285,128069,143643,1.1246266219999999,9.3738825355,-1.7132609816000002,182
38279,128093,143652,1.1198409768,9.384650237199999,-1.6091731985,183
38289,128053,143683,1.0624132344,9.4229353988,-1.6941184008,184
38304,128060,143672,1.0660024683,9.3463650756,-1.6426727149,185
38355,128059,143691,1.172483074,9.340383019099999,-1.6223337227999999,186
38324,128047,143698,1.0432706536,9.379864592,-1.6127624323999998,187
38331,128045,143723,1.184447187,9.4121676971,-1.5326028753,188
38346,128090,143699,1.0205388389,9.4408815683,-1.7276179172000001,189
38355,128048,143740,1.1377871463,9.4313102779,-1.6929219895,190
38384,128056,143708,1.0480562988,9.4504528587,-1.6558332392,191
38427,128049,143714,1.004985492,9.2135634213,-1.698904046,192
38357,128034,143764,1.052841944,9.3224368496,-1.6654045296,193
38296,128085,143822,1.2143574695,9.4002035841,-1.6606188843999998,194
38239,128111,143914,1.07677017,9.4695954395,-1.5888342063999998,195
38211,128125,143945,1.1437692028,9.327222494799999,-1.4799607781,196
38198,128102,143940,1.0336993632,9.3164547931,-1.6235301341000001,197
38195,128092,143958,1.1234302107,9.376275358100001,-1.6558332392,198
38174,128112,144002,1.0624132344,9.3750789468,-1.7312071511,199
38187,128080,143997,1.0336993632,9.4504528587,-1.6462619487999999,200
38196,128073,144001,1.1377871463,9.3128655592,-1.7371892076000002,201
38203,128057,143997,1.1294122672,9.3128655592,-1.6941184008,202
38204,128034,144004,1.1916256548,9.399007172800001,-1.6749758199999998,203
38206,128066,144036,1.0863414604,9.309276325299999,-1.5565311013,204
38213,128076,144001,1.0396814197,9.3786681807,-1.6127624323999998,205
38227,128076,144012,1.0624132344,9.384650237199999,-1.6666009409,206
38251,128078,144043,0.95712904,9.3619184225,-1.7515461432000001,207
38262,128075,144057,1.0671988796,9.3690968903,-1.6331014245,208
38209,128064,144082,1.1330015010999999,9.4695954395,-1.6223337227999999,209
38296,128067,144097,1.1090732750999999,9.355936366,-1.5852449725,210
38309,128069,144049,1.1054840412,9.2889373332,-1.5996019081000001,211
38333,128056,144095,1.2526426310999998,9.4456672135,-1.5996019081000001,212
38340,128061,144117,1.0779665813,9.3655076564,-1.5373885205000002,213
38356,128024,144133,1.0719845248,9.332008140000001,-1.6618152957,214
38369,128052,144165,1.0384850084,9.290133744499999,-1.5996019081000001,215
38390,128042,144167,1.2035897678,9.290133744499999,-1.7024932798999999,216
38304,128056,144187,1.0719845248,9.3379901965,-1.6654045296,217
38439,128072,144210,1.0145567824000001,9.2709911637,-1.6319050132,218
38448,128053,144219,0.9583254512999999,9.4504528587,-1.7790636031,219
38466,128081,144226,1.0348957745,9.4672026169,-1.6606188843999998,220
38475,128052,144267,1.2095718243,9.4313102779,-1.6701901747999999,221
38456,128105,144324,1.1389835576,9.3379901965,-1.6857435217,222
38382,128142,144359,1.1294122672,9.397810761499999,-1.6079767872,223
38330,128132,144437,1.1150553316,9.2889373332,-1.6319050132,224
38299,128137,144488,1.0851450490999999,9.531808827099999,-1.7096717476999999,225
38297,128124,144484,1.2191431147,9.4504528587,-1.5900306177,226
38291,128129,144498,1.1389835576,9.2985086236,-1.6235301341000001,227
38292,128086,144508,0.9667003303999999,9.327222494799999,-1.5996019081000001,228
38303,128089,144515,1.1904292435000001,9.3415794304,-1.7084753364,229
38314,128091,144498,0.9762716208,9.332008140000001,-1.7120645703,230
38314,128059,144485,1.028913718,9.3044906801,-1.6606188843999998,231
38322,128067,144478,1.1473584366999998,9.3140619705,-1.6271193679999998,232
38321,128082,144533,1.1473584366999998,9.3140619705,-1.6271193679999998,233
38335,128066,144528,1.1473584366999998,9.3140619705,-1.6271193679999998,234
38350,128098,144567,1.1473584366999998,9.3140619705,-1.6271193679999998,235
38365,128093,144547,1.1473584366999998,9.3140619705,-1.6271193679999998,236
38385,128081,144563,1.1473584366999998,9.3140619705,-1.6271193679999998,237
38399,128056,144576,1.1473584366999998,9.3140619705,-1.6271193679999998,238
38405,128071,144587,1.1473584366999998,9.3140619705,-1.6271193679999998,239
38426,128068,144576,1.1473584366999998,9.3140619705,-1.6271193679999998,240
38442,128072,144599,1.1473584366999998,9.3140619705,-1.6271193679999998,241
38452,128035,144636,1.1473584366999998,9.3140619705,-1.6271193679999998,242
38470,128060,144636,1.1473584366999998,9.3140619705,-1.6271193679999998,243
38488,128050,144659,1.1473584366999998,9.3140619705,-1.6271193679999998,244
38502,128058,144663,1.1473584366999998,9.3140619705,-1.6271193679999998,245
38515,128083,144677,1.1473584366999998,9.3140619705,-1.6271193679999998,246
38522,128073,144710,1.1473584366999998,9.3140619705,-1.6271193679999998,247
38542,128067,144714,1.1473584366999998,9.3140619705,-1.6271193679999998,248
38566,128073,144730,1.1473584366999998,9.3140619705,-1.6271193679999998,249
38571,128096,144740,1.1473584366999998,9.3140619705,-1.6271193679999998,250
38592,128069,144771,1.1473584366999998,9.3140619705,-1.6271193679999998,251
38602,128078,144777,1.1473584366999998,9.3140619705,-1.6271193679999998,252
38608,128092,144789,1.1473584366999998,9.3140619705,-1.6271193679999998,253
38580,128101,144832,1.1473584366999998,9.3140619705,-1.6271193679999998,254
38516,128176,144932,1.1473584366999998,9.3140619705,-1.6271193679999998,255
38454,128191,144948,1.1473584366999998,9.3140619705,-1.6271193679999998,256
38429,128167,144954,1.1473584366999998,9.3140619705,-1.6271193679999998,257
38407,128162,144929,1.0241280728,9.4983093107,-1.6558332392,258
38397,128120,144942,1.0241280728,9.4983093107,-1.6558332392,259
38396,128140,144966,1.0241280728,9.4983093107,-1.6558332392,260
38397,128117,144962,1.0241280728,9.4983093107,-1.6558332392,261
38390,128101,144952,1.0241280728,9.4983093107,-1.6558332392,262
38386,128098,144965,1.0241280728,9.4983093107,-1.6558332392,263
38385,128106,144969,1.0241280728,9.4983093107,-1.6558332392,264
38378,128106,144964,1.0241280728,9.4983093107,-1.6558332392,265
38387,128115,144970,1.0241280728,9.4983093107,-1.6558332392,266
38385,128071,144981,1.0241280728,9.4983093107,-1.6558332392,267
38391,128077,144993,1.0241280728,9.4983093107,-1.6558332392,268
38408,128057,144994,1.0241280728,9.4983093107,-1.6558332392,269
38414,128063,144998,1.0241280728,9.4983093107,-1.6558332392,270
38421,128053,144996,1.0241280728,9.4983093107,-1.6558332392,271
38424,128049,145017,1.0241280728,9.4983093107,-1.6558332392,272
38433,128046,145008,1.0241280728,9.4983093107,-1.6558332392,273
38443,128031,145035,1.0241280728,9.4983093107,-1.6558332392,274
38453,128064,145068,1.0241280728,9.4983093107,-1.6558332392,275
38464,128077,145021,1.0241280728,9.4983093107,-1.6558332392,276
38479,128076,145060,1.0241280728,9.4983093107,-1.6558332392,277
38484,128040,145029,1.0241280728,9.4983093107,-1.6558332392,278
38496,128058,145067,1.0241280728,9.4983093107,-1.6558332392,279
38498,128032,145039,1.0241280728,9.4983093107,-1.6558332392,280
38518,128063,145063,1.0241280728,9.4983093107,-1.6558332392,281
38534,128046,145095,1.0241280728,9.4983093107,-1.6558332392,282
38506,128085,145102,1.0241280728,9.4983093107,-1.6558332392,283
38453,128104,145150,1.0241280728,9.4983093107,-1.6558332392,284
38377,128137,145210,1.0241280728,9.4983093107,-1.6558332392,285
38344,128136,145211,1.0241280728,9.4983093107,-1.6558332392,286
38329,128125,145240,1.0241280728,9.4983093107,-1.6558332392,287
38312,128090,145211,1.0241280728,9.4983093107,-1.6558332392,288
38313,128092,145181,1.0241280728,9.4983093107,-1.6558332392,289
38312,128071,145200,1.0241280728,9.4983093107,-1.6558332392,290
38306,128056,145216,1.0241280728,9.4983093107,-1.6558332392,291
38313,128048,145195,1.0241280728,9.4983093107,-1.6558332392,292
38302,128056,145240,1.0241280728,9.4983093107,-1.6558332392,293
38294,128051,145250,1.0241280728,9.4983093107,-1.6558332392,294
38299,128072,145279,1.0241280728,9.4983093107,-1.6558332392,295
38303,128080,145280,1.0241280728,9.4983093107,-1.6558332392,296
38309,128063,145266,1.0241280728,9.4983093107,-1.6558332392,297
38327,128052,145320,1.0241280728,9.4983093107,-1.6558332392,298
38337,128061,145314,1.0241280728,9.4983093107,-1.6558332392,299
38433,128092,145566,1.0145567824000001,9.455238503899999,-1.5278172301,300
38453,128092,145606,1.0145567824000001,9.455238503899999,-1.5278172301,301
38475,128112,145612,1.0145567824000001,9.455238503899999,-1.5278172301,302
38493,128130,145640,1.0145567824000001,9.455238503899999,-1.5278172301,303
38496,128117,145633,1.0145567824000001,9.455238503899999,-1.5278172301,304
38511,128151,145654,1.0145567824000001,9.455238503899999,-1.5278172301,305
38516,128177,145690,1.0145567824000001,9.455238503899999,-1.5278172301,306
38454,128157,145734,1.0145567824000001,9.455238503899999,-1.5278172301,307
38391,128215,145738,1.0145567824000001,9.455238503899999,-1.5278172301,308
38345,128222,145739,1.0145567824000001,9.455238503899999,-1.5278172301,309
38331,128202,145743,1.0145567824000001,9.455238503899999,-1.5278172301,310
38313,128176,145732,1.0145567824000001,9.455238503899999,-1.5278172301,311
38311,128199,145779,1.0145567824000001,9.455238503899999,-1.5278172301,312
38304,128177,145765,1.0145567824000001,9.455238503899999,-1.5278172301,313
38335,128140,145749,1.0145567824000001,9.455238503899999,-1.5278172301,314
38329,128136,145767,1.0145567824000001,9.455238503899999,-1.5278172301,315
38331,128149,145748,1.0145567824000001,9.455238503899999,-1.5278172301,316
38329,128142,145750,1.0145567824000001,9.455238503899999,-1.5278172301,317
38331,128141,145777,1.0145567824000001,9.455238503899999,-1.5278172301,318
38339,128127,145765,1.0145567824000001,9.455238503899999,-1.5278172301,319
38353,128128,145781,1.0145567824000001,9.455238503899999,-1.5278172301,320
38373,128131,145774,1.0145567824000001,9.455238503899999,-1.5278172301,321
38383,128123,145768,1.0145567824000001,9.455238503899999,-1.5278172301,322
38399,128141,145776,1.0145567824000001,9.455238503899999,-1.5278172301,323
38414,128149,145786,1.0145567824000001,9.455238503899999,-1.5278172301,324
38428,128128,145772,1.1808579531,9.4695954395,-1.6941184008,325
38442,128162,145790,1.1808579531,9.4695954395,-1.6941184008,326
38451,128139,145787,1.1808579531,9.4695954395,-1.6941184008,327
38466,128154,145777,1.1808579531,9.4695954395,-1.6941184008,328
38481,128134,145763,1.1808579531,9.4695954395,-1.6941184008,329
38489,128148,145790,1.1808579531,9.4695954395,-1.6941184008,330
38509,128135,145772,1.1808579531,9.4695954395,-1.6941184008,331
38528,128150,145793,1.1808579531,9.4695954395,-1.6941184008,332
38539,128129,145795,1.1808579531,9.4695954395,-1.6941184008,333
38551,128152,145811,1.1808579531,9.4695954395,-1.6941184008,334
38563,128176,145790,1.1808579531,9.4695954395,-1.6941184008,335
38582,128160,145823,1.1808579531,9.4695954395,-1.6941184008,336
38599,128198,145811,1.1808579531,9.4695954395,-1.6941184008,337
38607,128178,145803,1.1808579531,9.4695954395,-1.6941184008,338
38619,128190,145801,1.1808579531,9.4695954395,-1.6941184008,339
38638,128148,145805,1.1808579531,9.4695954395,-1.6941184008,340
38633,128204,145869,1.1808579531,9.4695954395,-1.6941184008,341
38574,128233,145897,1.1808579531,9.4695954395,-1.6941184008,342
38508,128250,145956,1.1808579531,9.4695954395,-1.6941184008,343
38458,128267,145974,1.1808579531,9.4695954395,-1.6941184008,344
38434,128261,145996,1.1808579531,9.4695954395,-1.6941184008,345
38412,128236,145967,1.1808579531,9.4695954395,-1.6941184008,346
38412,128204,145978,1.1808579531,9.4695954395,-1.6941184008,347
38406,128213,145993,1.1808579531,9.4695954395,-1.6941184008,348
38414,128203,145956,1.1808579531,9.4695954395,-1.6941184008,349
38410,128195,145955,1.1808579531,9.4695954395,-1.6941184008,350
38398,128191,145942,1.1808579531,9.4695954395,-1.6941184008,351
38393,128235,145949,1.1808579531,9.4695954395,-1.6941184008,352
38392,128180,145951,1.1808579531,9.4695954395,-1.6941184008,353
38395,128183,145942,1.1808579531,9.4695954395,-1.6941184008,354
38398,128212,145959,1.1808579531,9.4695954395,-1.6941184008,355
38405,128200,145939,1.1808579531,9.4695954395,-1.6941184008,356
38414,128190,145942,1.1808579531,9.4695954395,-1.6941184008,357
38429,128194,145917,1.1808579531,9.4695954395,-1.6941184008,358
38434,128190,145912,1.1808579531,9.4695954395,-1.6941184008,359
38446,128183,145924,1.1808579531,9.4695954395,-1.6941184008,360
38448,128193,145940,1.1808579531,9.4695954395,-1.6941184008,361
38456,128172,145930,1.1808579531,9.4695954395,-1.6941184008,362
38467,128182,145948,1.1808579531,9.4695954395,-1.6941184008,363
38482,128165,145909,1.1808579531,9.4695954395,-1.6941184008,364
38489,128188,145916,1.1808579531,9.4695954395,-1.6941184008,365
38495,128177,145901,1.1808579531,9.4695954395,-1.6941184008,366
38341,128193,146061,1.1102696864,9.4313102779,-1.6414763036,367
38342,128213,146067,1.1102696864,9.4313102779,-1.6414763036,368
38336,128186,146054,1.1102696864,9.4313102779,-1.6414763036,369
38338,128207,146068,1.1102696864,9.4313102779,-1.6414763036,370
38340,128196,146064,1.1102696864,9.4313102779,-1.6414763036,371
38351,128203,146063,1.1102696864,9.4313102779,-1.6414763036,372
38361,128212,146087,1.1102696864,9.4313102779,-1.6414763036,373
38374,128226,146086,1.1102696864,9.4313102779,-1.6414763036,374
38385,128220,146088,1.1102696864,9.4313102779,-1.6414763036,375
38398,128192,146075,1.1102696864,9.4313102779,-1.6414763036,376
38403,128190,146061,1.1102696864,9.4313102779,-1.6414763036,377
38422,128216,146062,1.1102696864,9.4313102779,-1.6414763036,378
38428,128227,146084,1.1102696864,9.4313102779,-1.6414763036,379
38441,128211,146044,1.1102696864,9.4313102779,-1.6414763036,380
38455,128211,146038,1.1102696864,9.4313102779,-1.6414763036,381
38468,128224,146028,1.1102696864,9.4313102779,-1.6414763036,382
38485,128212,146034,1.1102696864,9.4313102779,-1.6414763036,383
38486,128206,146048,1.1102696864,9.4313102779,-1.6414763036,384
38505,128219,146042,1.1102696864,9.4313102779,-1.6414763036,385
38524,128221,146054,1.1102696864,9.4313102779,-1.6414763036,386
38536,128249,146068,1.1102696864,9.4313102779,-1.6414763036,387
38543,128257,146100,1.1102696864,9.4313102779,-1.6414763036,388
38569,128233,146096,1.1102696864,9.4313102779,-1.6414763036,389
38581,128261,146068,1.1102696864,9.4313102779,-1.6414763036,390
38588,128241,146091,1.1102696864,9.4313102779,-1.6414763036,391
38606,128259,146087,1.1102696864,9.4313102779,-1.6414763036,392
38589,128273,146134,1.1102696864,9.4313102779,-1.6414763036,393
38537,128299,146171,1.1102696864,9.4313102779,-1.6414763036,394
38462,128344,146212,1.1102696864,9.4313102779,-1.6414763036,395
38412,128335,146241,1.1102696864,9.4313102779,-1.6414763036,396
38394,128314,146237,1.1102696864,9.4313102779,-1.6414763036,397
38375,128285,146222,1.1102696864,9.4313102779,-1.6414763036,398
38361,128305,146221,1.1102696864,9.4313102779,-1.6414763036,399
38356,128280,146245,1.1102696864,9.4313102779,-1.6414763036,400
38351,128276,146234,1.1102696864,9.4313102779,-1.6414763036,401
38363,128271,146218,1.1102696864,9.4313102779,-1.6414763036,402
38354,128233,146206,1.1102696864,9.4313102779,-1.6414763036,403
38360,128253,146216,1.1102696864,9.4313102779,-1.6414763036,404
38350,128259,146202,1.1102696864,9.4313102779,-1.6414763036,405
38354,128262,146186,1.1102696864,9.4313102779,-1.6414763036,406
38365,128264,146178,1.1102696864,9.4313102779,-1.6414763036,407
38370,128244,146181,1.1102696864,9.4313102779,-1.6414763036,408
38689,128306,146185,0.9427721043999999,9.4313102779,-1.6606188843999998,409
38697,128341,146204,0.9427721043999999,9.4313102779,-1.6606188843999998,410
38644,128395,146279,0.9427721043999999,9.4313102779,-1.6606188843999998,411
38581,128424,146299,0.9427721043999999,9.4313102779,-1.6606188843999998,412
38533,128432,146331,0.9427721043999999,9.4313102779,-1.6606188843999998,413
38504,128402,146337,0.9427721043999999,9.4313102779,-1.6606188843999998,414
38488,128411,146310,0.9427721043999999,9.4313102779,-1.6606188843999998,415
38479,128353,146309,0.9427721043999999,9.4313102779,-1.6606188843999998,416
38474,128376,146310,0.9427721043999999,9.4313102779,-1.6606188843999998,417
38485,128359,146289,0.9427721043999999,9.4313102779,-1.6606188843999998,418
38491,128339,146263,0.9427721043999999,9.4313102779,-1.6606188843999998,419
38481,128320,146255,0.9427721043999999,9.4313102779,-1.6606188843999998,420
38468,128331,146263,0.9427721043999999,9.4313102779,-1.6606188843999998,421
38478,128340,146255,0.9427721043999999,9.4313102779,-1.6606188843999998,422
38481,128324,146232,0.9427721043999999,9.4313102779,-1.6606188843999998,423
38487,128325,146213,0.9427721043999999,9.4313102779,-1.6606188843999998,424
38496,128322,146202,0.9427721043999999,9.4313102779,-1.6606188843999998,425
38508,128308,146203,0.9990034355,9.399007172800001,-1.6606188843999998,426
38513,128330,146194,0.9990034355,9.399007172800001,-1.6606188843999998,427
38528,128331,146191,0.9990034355,9.399007172800001,-1.6606188843999998,428
38543,128298,146180,0.9990034355,9.399007172800001,-1.6606188843999998,429
38553,128307,146199,0.9990034355,9.399007172800001,-1.6606188843999998,430
38557,128315,146175,0.9990034355,9.399007172800001,-1.6606188843999998,431
38569,128275,146166,0.9990034355,9.399007172800001,-1.6606188843999998,432
38582,128289,146150,0.9990034355,9.399007172800001,-1.6606188843999998,433
38601,128284,146140,0.9990034355,9.399007172800001,-1.6606188843999998,434
38610,128291,146138,0.9990034355,9.399007172800001,-1.6606188843999998,435
38627,128283,146171,0.9990034355,9.399007172800001,-1.6606188843999998,436
38638,128268,146112,0.9990034355,9.399007172800001,-1.6606188843999998,437
38647,128288,146109,0.9990034355,9.399007172800001,-1.6606188843999998,438
38671,128303,146113,0.9990034355,9.399007172800001,-1.6606188843999998,439
38684,128294,146120,0.9990034355,9.399007172800001,-1.6606188843999998,440
38696,128317,146129,0.9427721043999999,9.4420779796,-1.5900306177,441
38709,128324,146118,0.9427721043999999,9.4420779796,-1.5900306177,442
38705,128342,146128,0.9427721043999999,9.4420779796,-1.5900306177,443
38654,128368,146195,0.9427721043999999,9.4420779796,-1.5900306177,444
38582,128427,146238,0.9427721043999999,9.4420779796,-1.5900306177,445
38537,128408,146276,0.9427721043999999,9.4420779796,-1.5900306177,446
38521,128428,146250,0.9427721043999999,9.4420779796,-1.5900306177,447
38509,128381,146241,0.9427721043999999,9.4420779796,-1.5900306177,448
38503,128385,146221,0.9427721043999999,9.4420779796,-1.5900306177,449
38503,128383,146188,0.9427721043999999,9.4420779796,-1.5900306177,450
38499,128335,146194,0.9427721043999999,9.4420779796,-1.5900306177,451
38500,128367,146192,0.9427721043999999,9.4420779796,-1.5900306177,452
38492,128352,146187,0.9427721043999999,9.4420779796,-1.5900306177,453
38489,128325,146172,0.9427721043999999,9.4420779796,-1.5900306177,454
38484,128314,146148,0.9427721043999999,9.4420779796,-1.5900306177,455
38479,128334,146142,0.9427721043999999,9.4420779796,-1.5900306177,456
38491,128338,146121,0.9427721043999999,9.4420779796,-1.5900306177,457
38497,128310,146109,0.9427721043999999,9.4420779796,-1.5900306177,458
38509,128325,146104,0.9427721043999999,9.4420779796,-1.5900306177,459
38521,128317,146052,0.9427721043999999,9.4420779796,-1.5900306177,460
38528,128296,146061,0.9427721043999999,9.4420779796,-1.5900306177,461
38538,128294,146073,0.9427721043999999,9.4420779796,-1.5900306177,462
38551,128291,146032,0.9427721043999999,9.4420779796,-1.5900306177,463
38567,128289,146028,0.9427721043999999,9.4420779796,-1.5900306177,464
38575,128296,146059,0.9427721043999999,9.4420779796,-1.5900306177,465
38585,128282,146007,0.9427721043999999,9.4420779796,-1.5900306177,466
38586,128288,146016,0.9427721043999999,9.4420779796,-1.5900306177,467
38611,128282,145981,0.9427721043999999,9.4420779796,-1.5900306177,468
38619,128260,145978,0.9427721043999999,9.4420779796,-1.5900306177,469
38624,128265,145963,0.9427721043999999,9.4420779796,-1.5900306177,470
38643,128270,145953,0.9427721043999999,9.4420779796,-1.5900306177,471
38653,128281,145974,0.9427721043999999,9.4420779796,-1.5900306177,472
38636,128301,146018,0.9427721043999999,9.4420779796,-1.5900306177,473
38562,128365,146074,0.9427721043999999,9.4420779796,-1.5900306177,474
38483,128354,146124,0.9427721043999999,9.4420779796,-1.5900306177,475
38435,128427,146129,0.9427721043999999,9.4420779796,-1.5900306177,476
38414,128414,146130,0.9427721043999999,9.4420779796,-1.5900306177,477
38379,128386,146119,0.9427721043999999,9.4420779796,-1.5900306177,478
38359,128372,146104,0.9427721043999999,9.4420779796,-1.5900306177,479
38358,128345,146100,0.9427721043999999,9.4420779796,-1.5900306177,480
38355,128351,146086,0.9427721043999999,9.4420779796,-1.5900306177,481
38359,128340,146086,0.9427721043999999,9.4420779796,-1.5900306177,482
38344,128328,145813,1.1389835576,9.3607220112,-1.5565311013,483
38354,128341,145784,1.1389835576,9.3607220112,-1.5565311013,484
38325,128365,145824,1.1389835576,9.3607220112,-1.5565311013,485
38263,128371,145875,1.1389835576,9.3607220112,-1.5565311013,486
38190,128435,145900,1.1389835576,9.3607220112,-1.5565311013,487
38169,128434,145923,1.1389835576,9.3607220112,-1.5565311013,488
38156,128434,145903,1.1389835576,9.3607220112,-1.5565311013,489
38140,128400,145909,1.1389835576,9.3607220112,-1.5565311013,490
38148,128377,145869,1.1389835576,9.3607220112,-1.5565311013,491
38157,128355,145902,1.1389835576,9.3607220112,-1.5565311013,492
38161,128372,145866,1.1389835576,9.3607220112,-1.5565311013,493
38172,128321,145840,1.1389835576,9.3607220112,-1.5565311013,494
38168,128319,145843,1.1389835576,9.3607220112,-1.5565311013,495
38170,128340,145816,1.1389835576,9.3607220112,-1.5565311013,496
38178,128350,145805,1.1389835576,9.3607220112,-1.5565311013,497
38192,128347,145802,1.1389835576,9.579665279099999,-1.6941184008,498
38206,128371,145815,1.1389835576,9.579665279099999,-1.6941184008,499
38221,128361,145826,1.1389835576,9.579665279099999,-1.6941184008,500
38239,128384,145808,1.0755737587,9.4456672135,-1.6139588437,501
38264,128345,145789,1.2574282763000002,9.4420779796,-1.7694923127,502
38266,128360,145786,1.1521440819,9.464809794299999,-1.5900306177,503
38291,128362,145794,1.028913718,9.3044906801,-1.603191142,504
38322,128367,145808,1.0899306943,9.327222494799999,-1.6271193679999998,505
38317,128368,145793,1.0923235169,9.3032942688,-1.7180466268,506
38339,128374,145798,1.07677017,9.3607220112,-1.6271193679999998,507
38345,128362,145759,1.172483074,9.4313102779,-1.5996019081000001,508
38359,128343,145761,1.1533404932,9.4169533423,-1.7264215058999999,509
38379,128399,145763,1.1150553316,9.3786681807,-1.6701901747999999,510
38392,128382,145732,1.0348957745,9.3511507208,-1.698904046,511
38446,128353,145752,1.0576275892,9.4803631412,-1.6797614652,512
38427,128417,145736,1.184447187,9.332008140000001,-1.7180466268,513
38430,128413,145754,1.1102696864,9.451649269999999,-1.6187444889,514
38394,128426,145818,1.0157531937,9.3894358824,-1.698904046,515
38325,128478,145834,1.1581261384000001,9.5365944723,-1.6845471104,516
38274,128498,145878,1.1066804525,9.4025964067,-1.6271193679999998,517
38247,128471,145889,1.1377871463,9.4313102779,-1.5936198516,518
38226,128443,145871,1.1377871463,9.4313102779,-1.5936198516,519
38211,128428,145833,1.1377871463,9.4313102779,-1.5936198516,520
38211,128436,145846,1.0336993632,9.2937229784,-1.6283157793,521
38222,128419,145826,1.1198409768,9.464809794299999,-1.6223337227999999,522
38126,128385,145791,1.1389835576,9.3032942688,-1.6701901747999999,523
38243,128413,145792,1.1330015010999999,9.4265246327,-1.6235301341000001,524
38240,128434,145773,1.1090732750999999,9.2889373332,-1.6654045296,525
38228,128423,145790,1.3100703735,9.4923272542,-1.5936198516,526
38235,128414,145744,1.148554848,9.522237536699999,-1.5900306177,527
38255,128417,145747,1.2287144051,9.3188476157,-1.6701901747999999,528
38267,128426,145779,1.2011969452,9.3942215276,-1.6187444889,529
38277,128432,145730,1.1676974288,9.3128655592,-1.6139588437,530
38285,128427,145723,0.8781658942,9.2662055185,-1.6319050132,531
38310,128397,145703,1.0731809361,9.3511507208,-1.6510475939999998,532
38323,128394,145705,1.0576275892,9.384650237199999,-1.6223337227999999,533
38346,128379,145716,1.2047861791,9.3894358824,-1.6845471104,534
38355,128411,145710,1.1952148887,9.4229353988,-1.7084753364,535
38373,128408,145718,1.1808579531,9.3702933016,-1.603191142,536
38384,128404,145709,1.0851450490999999,9.427721044,-1.6462619487999999,537
38402,128405,145710,0.9583254512999999,9.384650237199999,-1.6654045296,538
38416,128429,145724,1.2227323486,9.4540420926,-1.6618152957,539
38442,128425,145713,1.2287144051,9.3415794304,-1.6893327556000002,540
38465,128435,145699,1.052841944,9.3750789468,-1.5469598109,541
38387,128426,145718,1.1665010175000001,9.4360959231,-1.6043875533,542
38488,128438,145713,1.1186445655,9.332008140000001,-1.6510475939999998,543
38510,128431,145681,1.1760723079,9.3750789468,-1.7455640867,544
38531,128456,145705,1.0911271056,9.403792818,-1.6127624323999998,545
38542,128423,145721,1.0205388389,9.284151688,-1.6654045296,546
38536,128427,145712,1.0947163395,9.3176512044,-1.6139588437,547
38461,128441,145762,1.0576275892,9.4887380203,-1.5804593273,548
38409,128512,145792,1.2000005339,9.4313102779,-1.722832272,549
38369,128524,145815,1.0624132344,9.3463650756,-1.5661023917,550
38345,128488,145774,1.07677017,9.3547399547,-1.6654045296,551
38334,128485,145776,1.1198409768,9.355936366,-1.7036896912000001,552
38360,128454,145760,1.2478569859,9.4504528587,-1.6558332392,553
38301,128448,145775,1.1102696864,9.355936366,-1.8173487647,554
38339,128433,145754,1.028913718,9.4229353988,-1.7611174336,555
38336,128419,145696,1.1294122672,9.549754996599999,-1.5182459396999999,556
38330,128429,145714,1.0588240005,9.4528456813,-1.6223337227999999,557
38331,128454,145702,1.1425727915,9.309276325299999,-1.5852449725,558
38329,128452,145723,1.0911271056,9.4325066892,-1.6271193679999998,559
38340,128448,145724,1.0851450490999999,9.4360959231,-1.6223337227999999,560
38350,128413,145764,0.9583254512999999,9.3750789468,-1.6666009409,561
38368,128414,145711,1.0707881135,9.308079914,-1.6319050132,562
38381,128423,145703,1.1952148887,9.464809794299999,-1.7611174336,563
38394,128406,145684,1.0336993632,9.3619184225,-1.6043875533,564
38406,128399,145698,1.1054840412,9.308079914,-1.6079767872,565
38421,128392,145681,1.2430713407,9.4133641084,-1.6139588437,566
38498,128408,145665,1.0671988796,9.3511507208,-1.579262916,567
38445,128410,145664,1.1198409768,9.427721044,-1.6510475939999998,568
38460,128427,145638,1.1676974288,9.2853480993,-1.6654045296,569
38472,128431,145636,1.0348957745,9.4229353988,-1.6271193679999998,570
38477,128445,145621,1.1006983959999999,9.3224368496,-1.6474583601,571
38508,128461,145632,1.0336993632,9.3894358824,-1.5661023917,572
38513,128462,145636,0.9535398061,9.3702933016,-1.6606188843999998,573
38529,128461,145645,1.1054840412,9.332008140000001,-1.6331014245,574
38550,128429,145657,1.0755737587,9.2506521716,-1.6462619487999999,575
38553,128427,145651,1.1102696864,9.468399028199999,-1.6462619487999999,576
38576,128388,145629,1.1964113,9.407382051899999,-1.6905291669,577
38551,128463,145666,1.0277173067,9.327222494799999,-1.5230315848999998,578
38492,128503,145725,0.9427721043999999,9.384650237199999,-1.6462619487999999,579
38408,128508,145755,1.0396814197,9.407382051899999,-1.6414763036,580
38379,128487,145771,1.1090732750999999,9.3128655592,-1.7001004573,581
38322,128480,145719,1.0683952909,9.3511507208,-1.7180466268,582
38283,128460,145753,1.1006983959999999,9.379864592,-1.6007983194,583
38261,128428,145764,1.0815558152,9.5030949559,-1.5852449725,584
38256,128443,145743,1.1246266219999999,9.399007172800001,-1.7264215058999999,585
38256,128424,145740,1.2418749294,9.2614198733,-1.698904046,586
38251,128429,145727,1.0241280728,9.5736832226,-1.6558332392,587
38245,128458,145750,1.0719845248,9.3702933016,-1.6510475939999998,588
38241,128476,145731,1.0660024683,9.4707918508,-1.722832272,589
38255,128477,145756,1.0348957745,9.3607220112,-1.6558332392,590
38265,128486,145778,1.0432706536,9.260223461999999,-1.6223337227999999,591
38240,128476,145761,1.1389835576,9.4217389875,-1.6235301341000001,592
38244,128491,145752,0.9439685157,9.327222494799999,-1.6271193679999998,593
38266,128476,145750,1.0396814197,9.3499543095,-1.698904046,594
38262,128454,145726,1.1868400096,9.3942215276,-1.5840485612,595
38264,128468,145741,1.1330015010999999,9.3224368496,-1.6271193679999998,596
38274,128417,145710,1.1581261384000001,9.4408815683,-1.6785650538999999,597
38266,128439,145704,1.2574282763000002,9.3463650756,-1.7276179172000001,598
38291,128443,145692,1.1102696864,9.2697947524,-1.7659030788,599
38286,128437,145683,1.0336993632,9.3128655592,-1.5230315848999998,600
38307,128463,145685,1.0576275892,9.499505722,-1.5756736821000001,601
38273,128472,145724,1.1868400096,9.3834538259,-1.6749758199999998,602
38323,128469,145727,0.9104689993,9.4313102779,-1.5601203352,603
38344,128480,145717,1.1712866627,9.407382051899999,-1.5840485612,604
38348,128485,145720,1.1820543644000001,9.384650237199999,-1.7036896912000001,605
38355,128476,145727,0.9906285563999999,9.3511507208,-1.6331014245,606
38369,128491,145704,1.1246266219999999,9.3236332609,-1.6462619487999999,607
38380,128447,145698,1.0061819033000001,9.407382051899999,-1.7312071511,608
38392,128458,145736,1.1545369045,9.3224368496,-1.6654045296,609
38387,128488,145732,1.0719845248,9.4935236655,-1.6474583601,610
38323,128466,145755,1.0851450490999999,9.3607220112,-1.7886348934999998,611
38233,128497,145812,1.1377871463,9.379864592,-1.6570296505,612
38164,128495,145835,0.9523433948,9.4217389875,-1.6474583601,613
38132,128470,145833,1.052841944,9.4217389875,-1.6893327556000002,614
38096,128488,145838,1.0899306943,9.4983093107,-1.6235301341000001,615
38073,128440,145834,1.1294122672,9.3786681807,-1.7659030788,616
38107,128438,145847,0.9738787981999999,9.4935236655,-1.5517454561000001,617
38064,128445,145816,1.0001998468,9.2458665264,-1.698904046,618
38060,128425,145816,1.0851450490999999,9.3607220112,-1.6689937635,619
38043,128464,145798,1.1425727915,9.355936366,-1.6749758199999998,620
38038,128452,145835,1.1904292435000001,9.3702933016,-1.6510475939999998,621
38032,128499,145839,1.1760723079,9.3571327773,-1.6797614652,622
38002,128458,145820,1.2059825904,9.2279203569,-1.746760498,623
38039,128441,145822,1.1198409768,9.456434915200001,-1.6654045296,624
38041,128457,145826,1.0683952909,9.427721044,-1.7036896912000001,625
38057,128409,145811,0.9619146851999999,9.327222494799999,-1.7419748528,626
38065,128424,145790,0.9966106129000001,9.2709911637,-1.5661023917,627
38077,128421,145777,1.148554848,9.3176512044,-1.698904046,628
38093,128415,145778,1.1425727915,9.455238503899999,-1.5708880369,629
38099,128388,145807,1.1246266219999999,9.345168664300001,-1.7084753364,630
38101,128398,145766,0.9523433948,9.499505722,-1.5661023917,631
38121,128381,145782,1.0683952909,9.327222494799999,-1.6558332392,632
38134,128374,145755,1.0396814197,9.5030949559,-1.6175480776,633
38147,128375,145755,1.2526426310999998,9.3367937852,-1.6127624323999998,634
38089,128381,145758,1.160518961,9.522237536699999,-1.7599210223,635
38168,128372,145784,0.9954142015999999,9.3607220112,-1.6845471104,636
38185,128380,145790,1.004985492,9.355936366,-1.6893327556000002,637
38197,128374,145806,1.148554848,9.379864592,-1.7084753364,638
38203,128371,145783,1.1054840412,9.3607220112,-1.6941184008,639
38142,128392,145838,1.1952148887,9.5700939887,-1.7276179172000001,640
38128,128435,145864,1.0624132344,9.4743810847,-1.6426727149,641
38048,128437,145903,1.1377871463,9.4504528587,-1.7084753364,642
37999,128425,145931,1.148554848,9.5461657627,-1.6175480776,643
37978,128405,145911,1.1246266219999999,9.355936366,-1.6845471104,644
37979,128373,145934,1.2382856955,9.4360959231,-1.6606188843999998,645
37988,128375,145937,1.0480562988,9.549754996599999,-1.6462619487999999,646
37962,128379,145912,1.0719845248,9.3415794304,-1.6127624323999998,647
37994,128369,145882,1.0660024683,9.403792818,-1.6845471104,648
38002,128363,145888,1.0372885971,9.5078806011,-1.6606188843999998,649
38003,128353,145901,1.004985492,9.4839523751,-1.7312071511,650
37998,128388,145904,1.1198409768,9.4325066892,-1.6654045296,651
37961,128333,145886,1.0815558152,9.4695954395,-1.6378870697,652
38038,128348,145920,1.0001998468,9.5078806011,-1.7120645703,653
38050,128323,145921,1.1904292435000001,9.3427758417,-1.6833506991,654
38071,128346,145876,1.1581261384000001,9.327222494799999,-1.603191142,655
37997,128327,145922,1.0384850084,9.4504528587,-1.6654045296,656
38124,128364,145913,0.9343972253,9.3188476157,-1.6127624323999998,657
38127,128322,145905,1.1533404932,9.345168664300001,-1.7670994901,658
38139,128343,145908,1.1198409768,9.4827559638,-1.6414763036,659
38163,128360,145891,1.1617153723,9.4947200768,-1.7036896912000001,660
38172,128306,145887,1.0815558152,9.2662055185,-1.7036896912000001,661
38207,128318,145892,1.1665010175000001,9.2614198733,-1.5661023917,662
38220,128335,145897,1.1246266219999999,9.407382051899999,-1.6510475939999998,663
38239,128355,145903,0.9248259349,9.464809794299999,-1.6654045296,664
38263,128381,145947,1.0719845248,9.4025964067,-1.6654045296,665
38277,128377,145925,0.9774680320999999,9.4887380203,-1.6833506991,666
38297,128443,145947,1.0576275892,9.2973122123,-1.698904046,667
38213,128398,145935,1.1198409768,9.3128655592,-1.6654045296,668
38350,128369,145940,1.3375878334,9.3655076564,-1.6893327556000002,669
38352,128347,145959,1.0480562988,9.242277292499999,-1.6414763036,670
38324,128397,145972,1.0193424276,9.3643112451,-1.5134602944999997,671
38243,128424,146031,1.0516455327,9.4229353988,-1.7036896912000001,672
38217,128438,146052,1.0241280728,9.4899344316,-1.6558332392,673
38149,128411,146086,1.2191431147,9.3176512044,-1.6271193679999998,674
38174,128441,146065,1.0683952909,9.3032942688,-1.5517454561000001,675
38131,128406,146083,1.0444670649,9.3667040677,-1.698904046,676
38116,128370,146084,1.0253244841,9.3595255999,-1.6749758199999998,677
38139,128378,146056,1.1569297271,9.397810761499999,-1.6319050132,678
38158,128384,146014,1.0480562988,9.384650237199999,-1.7599210223,679
38169,128361,146023,1.1198409768,9.4660062056,-1.6510475939999998,680
38171,128378,146021,1.1904292435000001,9.3894358824,-1.7036896912000001,681
38180,128406,146035,1.0719845248,9.3188476157,-1.6474583601,682
38179,128396,146016,1.0109675485,9.4325066892,-1.603191142,683
38211,128410,146006,1.0612168231,9.232706002099999,-1.5852449725,684
38221,128358,146025,1.052841944,9.3128655592,-1.7084753364,685
38238,128379,146006,1.1006983959999999,9.3834538259,-1.6366906583999998,686
38249,128374,145967,1.0911271056,9.397810761499999,-1.7455640867,687
38278,128358,145991,1.1581261384000001,9.3942215276,-1.7120645703,688
38283,128366,145949,1.0576275892,9.3176512044,-1.6510475939999998,689
38308,128359,145956,1.004985492,9.308079914,-1.6331014245,690
38316,128331,145970,1.1054840412,9.3463650756,-1.6749758199999998,691
38339,128369,145946,1.2107682356,9.4049892293,-1.6570296505,692
38258,128346,145972,1.1473584366999998,9.397810761499999,-1.5134602944999997,693
38371,128367,145983,0.897308475,9.427721044,-1.6845471104,694
38390,128364,145985,1.07677017,9.3942215276,-1.5278172301,695
38406,128374,145980,1.0671988796,9.4181497536,-1.6701901747999999,696
38435,128363,145980,1.1437692028,9.327222494799999,-1.6941184008,697
38442,128372,145979,1.1234302107,9.3750789468,-1.6797614652,698
38470,128345,145971,1.1629117836,9.5365944723,-1.6319050132,699
38526,128349,145993,1.2610175101999999,9.3367937852,-1.6749758199999998,700
38497,128361,145980,1.028913718,9.4707918508,-1.6235301341000001,701
38516,128372,145999,1.0336993632,9.397810761499999,-1.6522440053,702
38463,128394,146040,1.0061819033000001,9.3894358824,-1.5984054967999999,703
38399,128407,146062,1.1006983959999999,9.3655076564,-1.6797614652,704
38344,128427,146119,1.0719845248,9.327222494799999,-1.6749758199999998,705
38319,128405,146078,1.1389835576,9.2889373332,-1.5948162629,706
38315,128386,146084,1.0899306943,9.3571327773,-1.6175480776,707
38308,128380,146084,0.9631110964999999,9.327222494799999,-1.8173487647,708
38312,128365,146047,1.1569297271,9.3284189061,-1.6127624323999998,709
38363,128356,146016,1.1569297271,9.379864592,-1.5852449725,710
38332,128351,146014,1.0755737587,9.451649269999999,-1.6271193679999998,711
38328,128345,146006,1.028913718,9.403792818,-1.722832272,712
38324,128347,145965,1.1282158559,9.4504528587,-1.6594224731,713
38328,128354,145973,1.2239287599,9.3607220112,-1.6139588437,714
38326,128369,146016,1.1437692028,9.407382051899999,-1.7084753364,715
38350,128273,146006,1.0911271056,9.4408815683,-1.6654045296,716
38364,128373,145997,1.1186445655,9.3643112451,-1.6510475939999998,717
38368,128322,146003,1.0456634762,9.2985086236,-1.5756736821000001,718
38373,128306,145982,1.0624132344,9.3332045513,-1.6319050132,719
38381,128325,145961,1.1006983959999999,9.332008140000001,-1.7216358607,720
38391,128299,145982,1.0313065406,9.399007172800001,-1.5613167465000002,721
38357,128293,145977,1.0911271056,9.2985086236,-1.6319050132,722
38410,128318,145983,1.1042876299,9.3894358824,-1.7180466268,723
38420,128286,145974,1.0336993632,9.3415794304,-1.5756736821000001,724
38424,128284,145959,1.0911271056,9.327222494799999,-1.55533469,725
38451,128282,145967,1.2239287599,9.2662055185,-1.6606188843999998,726
38454,128295,145992,1.004985492,9.379864592,-1.5852449725,727
38479,128326,146020,1.004985492,9.379864592,-1.5852449725,728
38480,128340,146016,1.004985492,9.379864592,-1.5852449725,729
38472,128335,146026,1.004985492,9.379864592,-1.5852449725,730
38416,128337,146076,1.1904292435000001,9.3643112451,-1.6558332392,731
38331,128325,146058,1.1294122672,9.3511507208,-1.6271193679999998,732
38268,128385,146102,1.1102696864,9.379864592,-1.5696916256,733
38218,128321,146098,1.0540383553,9.4265246327,-1.6893327556000002,734
38216,128304,146085,1.1150553316,9.5258267706,-1.6127624323999998,735
38202,128313,146078,1.1102696864,9.3511507208,-1.603191142,736
38195,128293,146074,1.0911271056,9.5557370531,-1.6187444889,737
38211,128170,146049,1.0863414604,9.3655076564,-1.6654045296,738
38236,128280,146028,1.2059825904,9.3367937852,-1.5326028753,739
38204,128301,146034,1.0037890807,9.384650237199999,-1.5852449725,740
38199,128268,145996,1.1712866627,9.4935236655,-1.6618152957,741
38198,128253,145996,1.0576275892,9.455238503899999,-1.6283157793,742
38202,128292,146009,1.0097711372,9.3702933016,-1.7180466268,743
38212,128274,146021,1.0755737587,9.3032942688,-1.6043875533,744
38234,128301,146026,1.2047861791,9.3702933016,-1.6654045296,745
38180,128304,146034,1.0241280728,9.6179504407,-1.5517454561000001,746
38262,128302,146031,0.9762716208,9.522237536699999,-1.7419748528,747
38259,128292,146015,1.1042876299,9.3882394711,-1.6175480776,748
38261,128275,145988,1.1473584366999998,9.2566342281,-1.5170495284,749
38284,128284,146013,1.1473584366999998,9.2566342281,-1.5170495284,750
38296,128286,146028,1.1473584366999998,9.2566342281,-1.5170495284,751
38306,128288,146017,1.1473584366999998,9.2566342281,-1.5170495284,752
38317,128282,146051,1.1473584366999998,9.2566342281,-1.5170495284,753
38326,128302,146035,1.1473584366999998,9.2566342281,-1.5170495284,754
38348,128283,146026,1.1473584366999998,9.2566342281,-1.5170495284,755
38361,128321,146047,1.1473584366999998,9.2566342281,-1.5170495284,756
38375,128292,146028,1.1006983959999999,9.5365944723,-1.6378870697,757
38383,128280,146061,1.1006983959999999,9.5365944723,-1.6378870697,758
38378,128301,146049,1.1294122672,9.3415794304,-1.698904046,759
38288,128344,146106,1.1820543644000001,9.4265246327,-1.6271193679999998,760
38185,128374,146140,1.0911271056,9.371489712899999,-1.6618152957,761
38125,128355,146157,1.0827522265,9.345168664300001,-1.6558332392,762
38097,128322,146148,1.0815558152,9.4169533423,-1.6079767872,763
38055,128323,146171,1.0480562988,9.4121676971,-1.6307086019,764
38018,128299,146134,1.1150553316,9.2518485829,-1.6462619487999999,765
37923,128326,146126,0.9714859755999999,9.327222494799999,-1.6701901747999999,766
38029,128279,146084,1.0671988796,9.4025964067,-1.7359927963,767
38020,128287,146104,1.088734283,9.464809794299999,-1.7168502155,768
38017,128290,146075,1.1198409768,9.427721044,-1.6893327556000002,769
38017,128301,146080,1.1198409768,9.1561356789,-1.6689937635,770
38016,128272,146081,1.1006983959999999,9.3128655592,-1.6414763036,771
38026,128292,146077,0.9870393224999999,9.403792818,-1.5996019081000001,772
38036,128266,146062,1.2765708571,9.4133641084,-1.6462619487999999,773
38051,128259,146070,1.2095718243,9.2889373332,-1.5469598109,774
38055,128258,146040,1.1162517428999998,9.3260260835,-1.6941184008,775
38081,128241,146033,1.1150553316,9.4169533423,-1.5864413838,776
38094,128262,146042,1.1282158559,9.464809794299999,-1.6271193679999998,777
38141,128226,146048,1.148554848,9.403792818,-1.6510475939999998,778
38116,128262,146025,0.9714859755999999,9.399007172800001,-1.6462619487999999,779
38140,128228,146083,1.0947163395,9.3128655592,-1.6474583601,780
38145,128226,146065,1.1054840412,9.3236332609,-1.6558332392,781
38162,128160,146067,1.1234302107,9.3176512044,-1.6558332392,782
38191,128286,146060,1.0432706536,9.456434915200001,-1.579262916,783
38202,128241,146065,1.1665010175000001,9.399007172800001,-1.6235301341000001,784
38213,128266,146078,1.1090732750999999,9.2374916473,-1.6761722313,785
38229,128258,146071,1.148554848,9.355936366,-1.7276179172000001,786
38240,128255,146070,1.1916256548,9.4468636248,-1.6043875533,787
38202,128257,146085,1.2191431147,9.3547399547,-1.6929219895,788
38102,128280,146143,1.0540383553,9.427721044,-1.6941184008,789
38023,128292,146151,1.1665010175000001,9.2757768089,-1.6139588437,790
37997,128291,146139,1.0336993632,9.2889373332,-1.6139588437,791
37985,128247,146142,1.0863414604,9.4803631412,-1.6223337227999999,792
37978,128233,146137,1.0636096457,9.3702933016,-1.6857435217,793
37976,128242,146111,1.1042876299,9.3894358824,-1.6606188843999998,794
37983,128205,146081,1.1916256548,9.3128655592,-1.6654045296,795
37986,128202,146085,1.2622139215000001,9.427721044,-1.6749758199999998,796
37990,128205,146059,0.9714859755999999,9.4408815683,-1.5421741657,797
37978,128189,146048,1.0815558152,9.451649269999999,-1.7180466268,798
37977,128195,146038,1.0612168231,9.468399028199999,-1.6749758199999998,799
38042,128192,146060,1.1282158559,9.4468636248,-1.6331014245,800
38011,128205,146060,1.0384850084,9.4025964067,-1.6893327556000002,801
37996,128212,146056,0.9248259349,9.4600241491,-1.6510475939999998,802
38060,128206,146049,1.0205388389,9.464809794299999,-1.6319050132,803
38060,128191,146035,1.2430713407,9.3607220112,-1.8125631194999998,804
38081,128167,146052,1.1389835576,9.4935236655,-1.6510475939999998,805
38092,128200,146083,1.0671988796,9.3128655592,-1.7216358607,806
38119,128166,146060,1.1006983959999999,9.4408815683,-1.746760498,807
38127,128162,146057,1.1988041226,9.3367937852,-1.6893327556000002,808
38153,128179,146071,1.0336993632,9.4241318101,-1.6175480776,809
38183,128184,146090,1.004985492,9.3128655592,-1.6462619487999999,810
38196,128185,146080,1.1234302107,9.4372923344,-1.6414763036,811
38219,128196,146071,1.0097711372,9.456434915200001,-1.6139588437,812
38220,128189,146089,1.1138589203,9.3655076564,-1.6618152957,813
38146,128250,146129,0.9990034355,9.487541608999999,-1.5888342063999998,814
38075,128243,146182,1.1617153723,9.3655076564,-1.6175480776,815
38022,128255,146171,1.0133603711,9.3894358824,-1.7132609816000002,816
38010,128202,146193,1.1820543644000001,9.4265246327,-1.5517454561000001,817
37991,128202,146178,1.1509476706000001,9.2781696315,-1.7515461432000001,818
37982,128200,146146,1.0731809361,9.4408815683,-1.6558332392,819
37984,128182,146174,1.1569297271,9.3702933016,-1.5613167465000002,820
38016,128191,146155,1.1904292435000001,9.3954179389,-1.7132609816000002,821
37961,128193,146118,1.0576275892,9.397810761499999,-1.5852449725,822
38042,128169,146143,1.0492527101,9.4217389875,-1.6522440053,823
38042,128196,146118,1.1186445655,9.242277292499999,-1.5948162629,824
38042,128177,146129,1.0863414604,9.308079914,-1.5984054967999999,825
38068,128203,146140,1.1090732750999999,9.4420779796,-1.6462619487999999,826
38078,128188,146146,1.1090732750999999,9.4420779796,-1.6462619487999999,827
38105,128170,146136,1.1090732750999999,9.4420779796,-1.6462619487999999,828
38124,128216,146143,1.1090732750999999,9.4420779796,-1.6462619487999999,829
38147,128188,146163,1.1090732750999999,9.4420779796,-1.6462619487999999,830
38157,128193,146113,1.1090732750999999,9.4420779796,-1.6462619487999999,831
38172,128187,146142,1.1090732750999999,9.4420779796,-1.6462619487999999,832
38217,128198,146140,1.1102696864,9.4468636248,-1.6606188843999998,833
38175,128093,146162,1.1629117836,9.3655076564,-1.6606188843999998,834
38282,128187,146147,1.0384850084,9.3128655592,-1.5565311013,835
38283,128200,146153,1.0815558152,9.4360959231,-1.6127624323999998,836
38300,128171,146139,1.0707881135,9.4313102779,-1.6977076347,837
38317,128214,146133,1.1748758966000001,9.3224368496,-1.6797614652,838
38359,128190,146129,1.0384850084,9.3379901965,-1.6809578765,839
38357,128216,146146,1.0325029519,9.4408815683,-1.6809578765,840
38329,128211,146189,1.2047861791,9.3140619705,-1.531406464,841
38243,128235,146231,1.052841944,9.4504528587,-1.6845471104,842
38186,128271,146273,1.0899306943,9.464809794299999,-1.6366906583999998,843
38072,128214,146235,1.0432706536,9.5126662463,-1.5852449725,844
38165,128214,146247,1.1006983959999999,9.4217389875,-1.6223337227999999,845
38159,128212,146250,1.1473584366999998,9.4420779796,-1.6043875533,846
38156,128237,146234,0.9284151688,9.497112899400001,-1.5469598109,847
38177,128265,146199,1.1760723079,9.327222494799999,-1.7036896912000001,848
38190,128192,146204,1.0480562988,9.4229353988,-1.6701901747999999,849
38216,128193,146193,1.1533404932,9.4085784632,-1.6749758199999998,850
38185,128212,146179,1.148554848,9.379864592,-1.6749758199999998,851
38184,128186,146165,0.9750752094999999,9.4133641084,-1.6606188843999998,852
38199,128181,146171,1.1569297271,9.3236332609,-1.4811571894,853
38220,128173,146170,1.07677017,9.379864592,-1.6977076347,854
38249,128141,146126,1.2430713407,9.236295236,-1.6893327556000002,855
38228,127941,145988,0.9523433948,9.4695954395,-1.6271193679999998,856
38244,127911,145964,1.0815558152,9.5413801175,-1.5852449725,857
38276,128107,146151,1.1389835576,9.3224368496,-1.5948162629,858
38309,128259,146294,0.95712904,9.5270231819,-1.6558332392,859
38337,128280,146293,0.95712904,9.5270231819,-1.6558332392,860
38353,128223,146245,0.95712904,9.5270231819,-1.6558332392,861
38387,128227,146245,0.95712904,9.5270231819,-1.6558332392,862
38425,128282,146355,0.95712904,9.5270231819,-1.6558332392,863
38475,128368,146394,0.95712904,9.5270231819,-1.6558332392,864
38498,128268,146286,0.95712904,9.5270231819,-1.6558332392,865
38545,128319,146363,0.95712904,9.5270231819,-1.6558332392,866
38555,128542,146573,0.95712904,9.5270231819,-1.6558332392,867
38495,128593,146607,0.95712904,9.5270231819,-1.6558332392,868
38447,128732,146783,0.95712904,9.5270231819,-1.6558332392,869
38435,128738,146779,0.95712904,9.5270231819,-1.6558332392,870
38434,128724,146714,0.95712904,9.5270231819,-1.6558332392,871
38424,128679,146684,0.95712904,9.5270231819,-1.6558332392,872
38410,128624,146610,0.95712904,9.5270231819,-1.6558332392,873
38427,128578,146624,0.95712904,9.5270231819,-1.6558332392,874
38429,128573,146588,0.95712904,9.5270231819,-1.6558332392,875
38434,128538,146585,0.95712904,9.5270231819,-1.6558332392,876
38437,128571,146554,0.95712904,9.5270231819,-1.6558332392,877
38438,128560,146541,0.95712904,9.5270231819,-1.6558332392,878
38445,128572,146503,0.95712904,9.5270231819,-1.6558332392,879
38467,128579,146499,0.95712904,9.5270231819,-1.6558332392,880
38482,128536,146492,0.95712904,9.5270231819,-1.6558332392,881
38496,128519,146476,0.95712904,9.5270231819,-1.6558332392,882
38510,128504,146449,0.95712904,9.5270231819,-1.6558332392,883
38519,128473,146441,0.95712904,9.5270231819,-1.6558332392,884
38532,128471,146440,0.95712904,9.5270231819,-1.6558332392,885
38548,128442,146453,0.95712904,9.5270231819,-1.6558332392,886
38559,128422,146431,0.95712904,9.5270231819,-1.6558332392,887
38581,128424,146433,0.95712904,9.5270231819,-1.6558332392,888
38575,128433,146439,0.95712904,9.5270231819,-1.6558332392,889
38519,128442,146478,1.0612168231,9.3176512044,-1.6797614652,890
38453,128439,146482,1.0612168231,9.3176512044,-1.6797614652,891
38412,128419,146457,1.0612168231,9.3176512044,-1.6797614652,892
38391,128409,146457,1.0612168231,9.3176512044,-1.6797614652,893
38373,128408,146457,1.0612168231,9.3176512044,-1.6797614652,894
38369,128412,146465,1.0612168231,9.3176512044,-1.6797614652,895
38371,128379,146479,1.0612168231,9.3176512044,-1.6797614652,896
38395,128392,146458,1.0612168231,9.3176512044,-1.6797614652,897
38402,128372,146450,1.0612168231,9.3176512044,-1.6797614652,898
38414,128370,146438,1.0612168231,9.3176512044,-1.6797614652,899
38413,128362,146469,1.0612168231,9.3176512044,-1.6797614652,900
38428,128362,146455,1.0612168231,9.3176512044,-1.6797614652,901
38444,128369,146459,1.0612168231,9.3176512044,-1.6797614652,902
38460,128377,146491,1.0612168231,9.3176512044,-1.6797614652,903
38481,128356,146475,1.0612168231,9.3176512044,-1.6797614652,904
38493,128380,146480,1.0612168231,9.3176512044,-1.6797614652,905
38516,128369,146471,1.0612168231,9.3176512044,-1.6797614652,906
38536,128392,146482,1.0612168231,9.3176512044,-1.6797614652,907
38550,128388,146485,1.0612168231,9.3176512044,-1.6797614652,908
38568,128380,146502,1.0612168231,9.3176512044,-1.6797614652,909
38584,128407,146518,1.0612168231,9.3176512044,-1.6797614652,910
38607,128388,146504,1.0612168231,9.3176512044,-1.6797614652,911
38594,128378,146500,1.0612168231,9.3176512044,-1.6797614652,912
38531,128402,146540,1.0612168231,9.3176512044,-1.6797614652,913
38454,128424,146544,1.0612168231,9.3176512044,-1.6797614652,914
38425,128395,146549,1.0612168231,9.3176512044,-1.6797614652,915
38394,128367,146565,1.0612168231,9.3176512044,-1.6797614652,916
38377,128378,146581,1.0612168231,9.3176512044,-1.6797614652,917
38360,128373,146551,1.0612168231,9.3176512044,-1.6797614652,918
38370,128361,146530,1.0612168231,9.3176512044,-1.6797614652,919
38382,128344,146513,1.0612168231,9.3176512044,-1.6797614652,920
38388,128321,146529,1.0612168231,9.3176512044,-1.6797614652,921
38391,128332,146513,1.0612168231,9.3176512044,-1.6797614652,922
38398,128329,146522,1.0612168231,9.3176512044,-1.6797614652,923
38408,128335,146515,1.0612168231,9.3176512044,-1.6797614652,924
38419,128340,146523,1.0612168231,9.3176512044,-1.6797614652,925
38430,128322,146507,1.0612168231,9.3176512044,-1.6797614652,926
38453,128317,146505,1.0612168231,9.3176512044,-1.6797614652,927
38466,128321,146484,1.0612168231,9.3176512044,-1.6797614652,928
38477,128302,146475,1.0612168231,9.3176512044,-1.6797614652,929
38488,128305,146510,1.0612168231,9.3176512044,-1.6797614652,930
38499,128288,146488,1.0612168231,9.3176512044,-1.6797614652,931
38301,128244,146484,1.0612168231,9.327222494799999,-1.7264215058999999,932
38300,128255,146480,1.0612168231,9.327222494799999,-1.7264215058999999,933
38305,128256,146461,1.0612168231,9.327222494799999,-1.7264215058999999,934
38310,128252,146449,1.0612168231,9.327222494799999,-1.7264215058999999,935
38328,128228,146451,1.0612168231,9.327222494799999,-1.7264215058999999,936
38341,128214,146454,1.0612168231,9.327222494799999,-1.7264215058999999,937
38346,128236,146460,1.0612168231,9.327222494799999,-1.7264215058999999,938
38368,128206,146463,1.0612168231,9.327222494799999,-1.7264215058999999,939
38377,128219,146456,1.0612168231,9.327222494799999,-1.7264215058999999,940
38395,128198,146436,1.0612168231,9.327222494799999,-1.7264215058999999,941
38396,128128,146339,1.0612168231,9.327222494799999,-1.7264215058999999,942
38411,128111,146341,1.0612168231,9.327222494799999,-1.7264215058999999,943
38421,128134,146408,1.0612168231,9.327222494799999,-1.7264215058999999,944
38441,128215,146443,1.0612168231,9.327222494799999,-1.7264215058999999,945
38465,128249,146484,1.0612168231,9.327222494799999,-1.7264215058999999,946
38463,128263,146485,1.0612168231,9.327222494799999,-1.7264215058999999,947
38400,128237,146511,1.0612168231,9.327222494799999,-1.7264215058999999,948
38320,128253,146532,1.0612168231,9.327222494799999,-1.7264215058999999,949
38276,128267,146510,1.0612168231,9.327222494799999,-1.7264215058999999,950
38257,128178,146451,1.0612168231,9.327222494799999,-1.7264215058999999,951
38237,128077,146370,1.0612168231,9.327222494799999,-1.7264215058999999,952
38216,128050,146303,1.0612168231,9.327222494799999,-1.7264215058999999,953
38233,128087,146419,1.0612168231,9.327222494799999,-1.7264215058999999,954
38238,128108,146427,1.0612168231,9.327222494799999,-1.7264215058999999,955
38238,128121,146423,1.0612168231,9.327222494799999,-1.7264215058999999,956
38244,128131,146419,1.0612168231,9.327222494799999,-1.7264215058999999,957
38237,128051,146361,1.0612168231,9.327222494799999,-1.7264215058999999,958
38236,127918,146201,1.0612168231,9.327222494799999,-1.7264215058999999,959
38240,127916,146206,1.0612168231,9.327222494799999,-1.7264215058999999,960
38263,128079,146360,1.0612168231,9.327222494799999,-1.7264215058999999,961
38289,128154,146436,1.0612168231,9.327222494799999,-1.7264215058999999,962
38314,128183,146424,1.0612168231,9.327222494799999,-1.7264215058999999,963
38330,128185,146421,1.0612168231,9.327222494799999,-1.7264215058999999,964
38354,128152,146403,1.0612168231,9.327222494799999,-1.7264215058999999,965
38373,128149,146395,1.0612168231,9.327222494799999,-1.7264215058999999,966
38385,128152,146412,1.0612168231,9.327222494799999,-1.7264215058999999,967
38408,128194,146416,1.0612168231,9.327222494799999,-1.7264215058999999,968
38427,128186,146423,1.0612168231,9.327222494799999,-1.7264215058999999,969
38444,128174,146416,1.0612168231,9.327222494799999,-1.7264215058999999,970
38469,128161,146388,1.0612168231,9.327222494799999,-1.7264215058999999,971
38484,128177,146415,1.0612168231,9.327222494799999,-1.7264215058999999,972
38481,128196,146410,1.0612168231,9.327222494799999,-1.7264215058999999,973
38291,128027,145988,1.1377871463,9.384650237199999,-1.6941184008,974
38286,128053,145999,1.1377871463,9.384650237199999,-1.6941184008,975
38299,128013,145972,1.1377871463,9.384650237199999,-1.6941184008,976
38306,128023,145939,1.1377871463,9.384650237199999,-1.6941184008,977
38322,127996,145917,1.1377871463,9.384650237199999,-1.6941184008,978
38328,128003,145915,1.1377871463,9.384650237199999,-1.6941184008,979
38337,128008,145915,1.1377871463,9.384650237199999,-1.6941184008,980
38356,127974,145881,1.1377871463,9.384650237199999,-1.6941184008,981
38363,127979,145880,1.1377871463,9.384650237199999,-1.6941184008,982
38384,127988,145888,1.1377871463,9.384650237199999,-1.6941184008,983
38389,127971,145850,1.1377871463,9.384650237199999,-1.6941184008,984
38405,127955,145878,1.1377871463,9.384650237199999,-1.6941184008,985
38429,127989,145852,1.1377871463,9.384650237199999,-1.6941184008,986
38435,127982,145847,1.1377871463,9.384650237199999,-1.6941184008,987
38459,127998,145846,1.1377871463,9.384650237199999,-1.6941184008,988
38441,128008,145859,1.1377871463,9.384650237199999,-1.6941184008,989
38360,128079,145921,1.1377871463,9.384650237199999,-1.6941184008,990
38287,128103,145945,1.1377871463,9.384650237199999,-1.6941184008,991
38249,128134,145964,1.1377871463,9.384650237199999,-1.6941184008,992
38222,128085,145973,1.1377871463,9.384650237199999,-1.6941184008,993
38196,128124,145925,1.1377871463,9.384650237199999,-1.6941184008,994
38173,128085,145936,1.1377871463,9.384650237199999,-1.6941184008,995
38184,128100,145894,1.1377871463,9.384650237199999,-1.6941184008,996
38192,128087,145878,1.1377871463,9.384650237199999,-1.6941184008,997
38195,128101,145892,1.1377871463,9.384650237199999,-1.6941184008,998
38193,128104,145868,1.1377871463,9.384650237199999,-1.6941184008,999
38190,128105,145868,1.1377871463,9.384650237199999,-1.6941184008,1000
38198,128098,145871,1.1377871463,9.384650237199999,-1.6941184008,1001
38215,128093,145831,1.1377871463,9.384650237199999,-1.6941184008,1002
38231,128076,145838,1.1377871463,9.384650237199999,-1.6941184008,1003
38247,128063,145845,1.1377871463,9.384650237199999,-1.6941184008,1004
38267,128096,145863,1.1377871463,9.384650237199999,-1.6941184008,1005
38277,128097,145828,1.1377871463,9.384650237199999,-1.6941184008,1006
38288,128087,145845,1.1377871463,9.384650237199999,-1.6941184008,1007
38301,128063,145818,1.1377871463,9.384650237199999,-1.6941184008,1008
38322,128071,145840,1.1377871463,9.384650237199999,-1.6941184008,1009
38334,128059,145822,1.1377871463,9.384650237199999,-1.6941184008,1010
38348,128079,145796,1.1377871463,9.384650237199999,-1.6941184008,1011
38358,128100,145799,1.1377871463,9.384650237199999,-1.6941184008,1012
38383,128088,145802,1.1377871463,9.384650237199999,-1.6941184008,1013
38393,128081,145782,1.1377871463,9.384650237199999,-1.6941184008,1014
38408,128105,145761,1.1377871463,9.384650237199999,-1.6941184008,1015
38150,128209,145826,1.0097711372,9.3930251163,-1.6797614652,1016
38153,128206,145800,1.0097711372,9.3930251163,-1.6797614652,1017
38151,128227,145795,1.0097711372,9.3930251163,-1.6797614652,1018
38153,128229,145766,1.0097711372,9.3930251163,-1.6797614652,1019
38152,128211,145767,1.0097711372,9.3930251163,-1.6797614652,1020
38155,128223,145749,1.0097711372,9.3930251163,-1.6797614652,1021
38165,128189,145725,1.0097711372,9.3930251163,-1.6797614652,1022
38184,128237,145718,1.0097711372,9.3930251163,-1.6797614652,1023
38192,128216,145717,1.0097711372,9.3930251163,-1.6797614652,1024
38220,128216,145706,1.0097711372,9.3930251163,-1.6797614652,1025
38226,128225,145703,1.0097711372,9.3930251163,-1.6797614652,1026
38249,128248,145722,1.0097711372,9.3930251163,-1.6797614652,1027
38259,128240,145712,1.0097711372,9.3930251163,-1.6797614652,1028
38268,128250,145704,1.0097711372,9.3930251163,-1.6797614652,1029
38289,128218,145681,1.0097711372,9.3930251163,-1.6797614652,1030
38301,128212,145674,1.0097711372,9.3930251163,-1.6797614652,1031
38310,128220,145661,1.0097711372,9.3930251163,-1.6797614652,1032
38342,128219,145647,1.0097711372,9.3930251163,-1.6797614652,1033
38356,128237,145623,1.0097711372,9.3930251163,-1.6797614652,1034
38365,128198,145622,1.0097711372,9.3930251163,-1.6797614652,1035
38388,128217,145634,1.0097711372,9.3930251163,-1.6797614652,1036
38405,128208,145624,1.0097711372,9.3930251163,-1.6797614652,1037
38424,128194,145588,1.0097711372,9.3930251163,-1.6797614652,1038
38420,128235,145602,1.0097711372,9.3930251163,-1.6797614652,1039
38363,128288,145648,1.0097711372,9.3930251163,-1.6797614652,1040
38275,128327,145712,1.0097711372,9.3930251163,-1.6797614652,1041
38221,128359,145743,1.0097711372,9.3930251163,-1.6797614652,1042
38210,128350,145733,1.0097711372,9.3930251163,-1.6797614652,1043
38199,128317,145710,1.0097711372,9.3930251163,-1.6797614652,1044
38190,128302,145675,1.0097711372,9.3930251163,-1.6797614652,1045
38202,128340,145679,1.0097711372,9.3930251163,-1.6797614652,1046
38217,128274,145671,1.0097711372,9.3930251163,-1.6797614652,1047
38214,128283,145645,1.0097711372,9.3930251163,-1.6797614652,1048
38213,128263,145633,1.0097711372,9.3930251163,-1.6797614652,1049
38212,128247,145613,1.0097711372,9.3930251163,-1.6797614652,1050
38216,128279,145603,1.0097711372,9.3930251163,-1.6797614652,1051
38226,128261,145592,1.0097711372,9.3930251163,-1.6797614652,1052
38240,128256,145616,1.0097711372,9.3930251163,-1.6797614652,1053
38254,128247,145583,1.0097711372,9.3930251163,-1.6797614652,1054
38277,128271,145576,1.0097711372,9.3930251163,-1.6797614652,1055
38286,128262,145574,1.0097711372,9.3930251163,-1.6797614652,1056
38305,128245,145545,1.0097711372,9.3930251163,-1.6797614652,1057
38468,128389,145603,0.9858429111999999,9.4839523751,-1.6139588437,1058
38469,128358,145624,0.9858429111999999,9.4839523751,-1.6139588437,1059
38472,128379,145581,0.9858429111999999,9.4839523751,-1.6139588437,1060
38481,128363,145595,0.9858429111999999,9.4839523751,-1.6139588437,1061
38500,128386,145624,0.9858429111999999,9.4839523751,-1.6139588437,1062
38510,128366,145604,0.9858429111999999,9.4839523751,-1.6139588437,1063
38523,128364,145595,0.9858429111999999,9.4839523751,-1.6139588437,1064
38537,128357,145560,0.9858429111999999,9.4839523751,-1.6139588437,1065
38551,128374,145609,0.9858429111999999,9.4839523751,-1.6139588437,1066
38568,128349,145561,0.9858429111999999,9.4839523751,-1.6139588437,1067
38578,128352,145568,0.9858429111999999,9.4839523751,-1.6139588437,1068
38586,128333,145541,0.9858429111999999,9.4839523751,-1.6139588437,1069
38604,128298,145554,0.9858429111999999,9.4839523751,-1.6139588437,1070
38614,128277,145515,0.9858429111999999,9.4839523751,-1.6139588437,1071
38623,128241,145498,0.9858429111999999,9.4839523751,-1.6139588437,1072
38632,128286,145508,0.9858429111999999,9.4839523751,-1.6139588437,1073
38639,128288,145529,0.9858429111999999,9.4839523751,-1.6139588437,1074
38666,128336,145573,0.9858429111999999,9.4839523751,-1.6139588437,1075
38680,128330,145563,0.9858429111999999,9.4839523751,-1.6139588437,1076
38693,128309,145568,0.9858429111999999,9.4839523751,-1.6139588437,1077
38706,128341,145557,0.9858429111999999,9.4839523751,-1.6139588437,1078
38729,128356,145544,0.9858429111999999,9.4839523751,-1.6139588437,1079
38702,128377,145624,0.9858429111999999,9.4839523751,-1.6139588437,1080
38620,128441,145708,0.9858429111999999,9.4839523751,-1.6139588437,1081
38549,128484,145754,0.9858429111999999,9.4839523751,-1.6139588437,1082
38488,128483,145769,0.9858429111999999,9.4839523751,-1.6139588437,1083
38455,128442,145770,0.9858429111999999,9.4839523751,-1.6139588437,1084
38443,128437,145722,0.9858429111999999,9.4839523751,-1.6139588437,1085
38431,128403,145751,0.9858429111999999,9.4839523751,-1.6139588437,1086
38438,128403,145704,0.9858429111999999,9.4839523751,-1.6139588437,1087
38439,128371,145695,0.9858429111999999,9.4839523751,-1.6139588437,1088
38441,128373,145703,0.9858429111999999,9.4839523751,-1.6139588437,1089
38433,128365,145715,1.1090732750999999,9.3367937852,-1.5888342063999998,1090
38423,128360,145682,1.1090732750999999,9.3367937852,-1.5888342063999998,1091
38420,128370,145675,1.1090732750999999,9.3367937852,-1.5888342063999998,1092
38436,128373,145684,1.1090732750999999,9.3367937852,-1.5888342063999998,1093
38440,128391,145696,1.1090732750999999,9.3367937852,-1.5888342063999998,1094
38444,128375,145698,1.1090732750999999,9.3367937852,-1.5888342063999998,1095
38465,128373,145664,1.1090732750999999,9.3367937852,-1.5888342063999998,1096
38474,128374,145667,1.1090732750999999,9.3367937852,-1.5888342063999998,1097
38491,128380,145683,1.1090732750999999,9.3367937852,-1.5888342063999998,1098
38502,128334,145671,1.1090732750999999,9.3367937852,-1.5888342063999998,1099
38521,128333,145643,1.1090732750999999,9.3367937852,-1.5888342063999998,1100
38535,128372,145646,1.1090732750999999,9.3367937852,-1.5888342063999998,1101
38551,128368,145648,1.1090732750999999,9.3367937852,-1.5888342063999998,1102
38557,128327,145634,1.1090732750999999,9.3367937852,-1.5888342063999998,1103
38582,128337,145646,1.1090732750999999,9.3367937852,-1.5888342063999998,1104
38599,128309,145630,1.1090732750999999,9.3367937852,-1.5888342063999998,1105
38619,128293,145599,1.1090732750999999,9.3367937852,-1.5888342063999998,1106
38639,128303,145596,1.1090732750999999,9.3367937852,-1.5888342063999998,1107
38661,128316,145589,1.1090732750999999,9.3367937852,-1.5888342063999998,1108
38681,128295,145579,1.1090732750999999,9.3367937852,-1.5888342063999998,1109
38698,128332,145597,1.1090732750999999,9.3367937852,-1.5888342063999998,1110
38712,128331,145603,1.1090732750999999,9.3367937852,-1.5888342063999998,1111
38684,128380,145648,1.1090732750999999,9.3367937852,-1.5888342063999998,1112
38611,128402,145732,1.1090732750999999,9.3367937852,-1.5888342063999998,1113
38548,128458,145790,1.1090732750999999,9.3367937852,-1.5888342063999998,1114
38524,128486,145797,1.1090732750999999,9.3367937852,-1.5888342063999998,1115
38517,128460,145767,1.1090732750999999,9.3367937852,-1.5888342063999998,1116
38508,128476,145772,1.1090732750999999,9.3367937852,-1.5888342063999998,1117
38505,128427,145750,1.1090732750999999,9.3367937852,-1.5888342063999998,1118
38530,128411,145738,1.1090732750999999,9.3367937852,-1.5888342063999998,1119
38555,128367,145734,1.1090732750999999,9.3367937852,-1.5888342063999998,1120
38562,128368,145711,1.1090732750999999,9.3367937852,-1.5888342063999998,1121
38572,128361,145699,1.1090732750999999,9.3367937852,-1.5888342063999998,1122
38579,128387,145705,1.1090732750999999,9.3367937852,-1.5888342063999998,1123
38587,128362,145692,1.1090732750999999,9.3367937852,-1.5888342063999998,1124
38611,128350,145664,1.1090732750999999,9.3367937852,-1.5888342063999998,1125
38620,128325,145654,1.1090732750999999,9.3367937852,-1.5888342063999998,1126
38644,128313,145642,1.1090732750999999,9.3367937852,-1.5888342063999998,1127
38667,128303,145593,1.1090732750999999,9.3367937852,-1.5888342063999998,1128
38684,128279,145604,1.1090732750999999,9.3367937852,-1.5888342063999998,1129
38703,128290,145614,1.1090732750999999,9.3367937852,-1.5888342063999998,1130
38728,128253,145575,1.1090732750999999,9.3367937852,-1.5888342063999998,1131
38936,128195,145484,1.0564311779,9.397810761499999,-1.7036896912000001,1132
38951,128210,145468,1.0564311779,9.397810761499999,-1.7036896912000001,1133
38961,128217,145481,1.0564311779,9.397810761499999,-1.7036896912000001,1134
38937,128283,145577,1.0564311779,9.397810761499999,-1.7036896912000001,1135
38890,128350,145645,1.0564311779,9.397810761499999,-1.7036896912000001,1136
38870,128379,145693,1.0564311779,9.397810761499999,-1.7036896912000001,1137
38864,128374,145636,1.0564311779,9.397810761499999,-1.7036896912000001,1138
38870,128366,145631,1.0564311779,9.397810761499999,-1.7036896912000001,1139
38878,128339,145604,1.0564311779,9.397810761499999,-1.7036896912000001,1140
38902,128308,145572,1.0564311779,9.397810761499999,-1.7036896912000001,1141
38917,128283,145559,1.0564311779,9.397810761499999,-1.7036896912000001,1142
38937,128277,145505,1.0564311779,9.397810761499999,-1.7036896912000001,1143
38949,128250,145516,1.0564311779,9.397810761499999,-1.7036896912000001,1144
38958,128251,145498,1.0564311779,9.397810761499999,-1.7036896912000001,1145
38965,128247,145472,1.0564311779,9.397810761499999,-1.7036896912000001,1146
38982,128207,145479,1.0564311779,9.397810761499999,-1.7036896912000001,1147
38995,128222,145448,1.0564311779,9.397810761499999,-1.7036896912000001,1148
39015,128219,145428,1.0564311779,9.397810761499999,-1.7036896912000001,1149
39033,128174,145398,1.0564311779,9.397810761499999,-1.7036896912000001,1150
39056,128174,145424,1.0564311779,9.397810761499999,-1.7036896912000001,1151
39070,128164,145409,1.0564311779,9.397810761499999,-1.7036896912000001,1152
39090,128164,145395,1.0564311779,9.397810761499999,-1.7036896912000001,1153
39109,128140,145381,1.0564311779,9.397810761499999,-1.7036896912000001,1154
39139,128142,145348,1.0564311779,9.397810761499999,-1.7036896912000001,1155
39141,128125,145341,1.0564311779,9.397810761499999,-1.7036896912000001,1156
39164,128112,145334,1.0564311779,9.397810761499999,-1.7036896912000001,1157
39172,128101,145286,1.0564311779,9.397810761499999,-1.7036896912000001,1158
39195,128085,145296,1.0564311779,9.397810761499999,-1.7036896912000001,1159
39210,128078,145288,1.0564311779,9.397810761499999,-1.7036896912000001,1160
39224,128069,145263,1.0564311779,9.397810761499999,-1.7036896912000001,1161
39238,128066,145230,1.0564311779,9.397810761499999,-1.7036896912000001,1162
39251,128068,145199,1.0564311779,9.397810761499999,-1.7036896912000001,1163
39274,128046,145199,1.0564311779,9.397810761499999,-1.7036896912000001,1164
39279,128111,145228,1.0564311779,9.397810761499999,-1.7036896912000001,1165
39240,128172,145340,1.0564311779,9.397810761499999,-1.7036896912000001,1166
39186,128238,145446,1.0564311779,9.397810761499999,-1.7036896912000001,1167
39155,128252,145427,1.0564311779,9.397810761499999,-1.7036896912000001,1168
39135,128225,145414,1.0564311779,9.397810761499999,-1.7036896912000001,1169
39135,128202,145363,1.0564311779,9.397810761499999,-1.7036896912000001,1170
39131,128174,145352,1.0564311779,9.397810761499999,-1.7036896912000001,1171
39136,128173,145334,1.0564311779,9.397810761499999,-1.7036896912000001,1172
39143,128125,145274,1.0564311779,9.397810761499999,-1.7036896912000001,1173
38939,127664,144743,1.0145567824000001,9.332008140000001,-1.6235301341000001,1174
38950,127663,144726,1.0145567824000001,9.332008140000001,-1.6235301341000001,1175
38958,127647,144719,1.0145567824000001,9.332008140000001,-1.6235301341000001,1176
38975,127626,144695,1.0145567824000001,9.332008140000001,-1.6235301341000001,1177
38966,127635,144692,1.0145567824000001,9.332008140000001,-1.6235301341000001,1178
38979,127605,144663,1.0145567824000001,9.332008140000001,-1.6235301341000001,1179
38978,127612,144663,1.0145567824000001,9.332008140000001,-1.6235301341000001,1180
38929,127693,144740,1.0145567824000001,9.332008140000001,-1.6235301341000001,1181
38852,127734,144865,1.0145567824000001,9.332008140000001,-1.6235301341000001,1182
38792,127774,144896,1.0145567824000001,9.332008140000001,-1.6235301341000001,1183
38759,127788,144912,1.0145567824000001,9.332008140000001,-1.6235301341000001,1184
38735,127779,144886,1.0145567824000001,9.332008140000001,-1.6235301341000001,1185
38734,127772,144870,1.0145567824000001,9.332008140000001,-1.6235301341000001,1186
38733,127740,144833,1.0145567824000001,9.332008140000001,-1.6235301341000001,1187
38734,127712,144793,1.0145567824000001,9.332008140000001,-1.6235301341000001,1188
38741,127667,144765,1.0145567824000001,9.332008140000001,-1.6235301341000001,1189
38729,127680,144762,1.0145567824000001,9.332008140000001,-1.6235301341000001,1190
38724,127682,144759,1.0145567824000001,9.332008140000001,-1.6235301341000001,1191
38723,127636,144771,1.0145567824000001,9.332008140000001,-1.6235301341000001,1192
38719,127629,144722,1.0145567824000001,9.332008140000001,-1.6235301341000001,1193
38729,127605,144724,1.0145567824000001,9.332008140000001,-1.6235301341000001,1194
38737,127617,144693,1.0145567824000001,9.332008140000001,-1.6235301341000001,1195
38743,127582,144687,1.0145567824000001,9.332008140000001,-1.6235301341000001,1196
38749,127608,144677,1.0145567824000001,9.332008140000001,-1.6235301341000001,1197
38760,127565,144635,1.0145567824000001,9.332008140000001,-1.6235301341000001,1198
38774,127555,144628,1.0145567824000001,9.332008140000001,-1.6235301341000001,1199
38780,127525,144586,1.0145567824000001,9.332008140000001,-1.6235301341000001,1200
38781,127509,144577,1.0145567824000001,9.332008140000001,-1.6235301341000001,1201
38797,127473,144548,1.0145567824000001,9.332008140000001,-1.6235301341000001,1202
38806,127479,144518,1.0145567824000001,9.332008140000001,-1.6235301341000001,1203
38819,127451,144533,1.0145567824000001,9.332008140000001,-1.6235301341000001,1204
38825,127443,144499,1.0145567824000001,9.332008140000001,-1.6235301341000001,1205
38845,127429,144483,1.0145567824000001,9.332008140000001,-1.6235301341000001,1206
38851,127456,144451,1.0145567824000001,9.332008140000001,-1.6235301341000001,1207
38825,127450,144510,1.0145567824000001,9.332008140000001,-1.6235301341000001,1208
38763,127529,144621,1.0145567824000001,9.332008140000001,-1.6235301341000001,1209
38708,127611,144717,1.0145567824000001,9.332008140000001,-1.6235301341000001,1210
38683,127610,144709,1.0145567824000001,9.332008140000001,-1.6235301341000001,1211
38675,127619,144721,1.0145567824000001,9.332008140000001,-1.6235301341000001,1212
38674,127634,144696,1.0145567824000001,9.332008140000001,-1.6235301341000001,1213
38670,127622,144685,1.0145567824000001,9.332008140000001,-1.6235301341000001,1214
38685,127604,144664,1.0145567824000001,9.332008140000001,-1.6235301341000001,1215
38643,127809,144617,1.0145567824000001,9.384650237199999,-1.7371892076000002,1216
38652,127803,144586,1.0145567824000001,9.384650237199999,-1.7371892076000002,1217
38664,127790,144588,1.0145567824000001,9.384650237199999,-1.7371892076000002,1218
38680,127818,144575,1.0145567824000001,9.384650237199999,-1.7371892076000002,1219
38703,127775,144577,1.0145567824000001,9.384650237199999,-1.7371892076000002,1220
38709,127783,144557,1.0145567824000001,9.384650237199999,-1.7371892076000002,1221
38721,127785,144559,1.0145567824000001,9.384650237199999,-1.7371892076000002,1222
38675,127826,144594,1.0145567824000001,9.384650237199999,-1.7371892076000002,1223
38592,127894,144681,1.0145567824000001,9.384650237199999,-1.7371892076000002,1224
38515,127965,144773,1.0145567824000001,9.384650237199999,-1.7371892076000002,1225
38480,127998,144741,1.0145567824000001,9.384650237199999,-1.7371892076000002,1226
38462,127978,144748,1.0145567824000001,9.384650237199999,-1.7371892076000002,1227
38445,128011,144763,1.0145567824000001,9.384650237199999,-1.7371892076000002,1228
38446,128018,144737,1.0145567824000001,9.384650237199999,-1.7371892076000002,1229
38450,127975,144713,1.0145567824000001,9.384650237199999,-1.7371892076000002,1230
38453,127982,144706,1.0145567824000001,9.384650237199999,-1.7371892076000002,1231
38441,127978,144695,1.0145567824000001,9.384650237199999,-1.7371892076000002,1232
38446,127978,144705,1.0145567824000001,9.384650237199999,-1.7371892076000002,1233
38442,127996,144691,1.0145567824000001,9.384650237199999,-1.7371892076000002,1234
38436,127976,144705,1.0145567824000001,9.384650237199999,-1.7371892076000002,1235
38448,127988,144691,1.0145567824000001,9.384650237199999,-1.7371892076000002,1236
38461,128002,144690,1.0145567824000001,9.384650237199999,-1.7371892076000002,1237
38467,127985,144666,1.0145567824000001,9.384650237199999,-1.7371892076000002,1238
38490,127999,144653,1.0145567824000001,9.384650237199999,-1.7371892076000002,1239
38497,128014,144637,1.0145567824000001,9.384650237199999,-1.7371892076000002,1240
38498,127986,144632,1.0145567824000001,9.384650237199999,-1.7371892076000002,1241
38511,128003,144620,1.0145567824000001,9.384650237199999,-1.7371892076000002,1242
38526,127990,144624,1.0145567824000001,9.384650237199999,-1.7371892076000002,1243
38535,128014,144641,1.0145567824000001,9.384650237199999,-1.7371892076000002,1244
38548,127982,144592,1.0145567824000001,9.384650237199999,-1.7371892076000002,1245
38558,127996,144574,1.0145567824000001,9.384650237199999,-1.7371892076000002,1246
38574,128002,144554,1.0145567824000001,9.384650237199999,-1.7371892076000002,1247
38581,127986,144575,1.0145567824000001,9.384650237199999,-1.7371892076000002,1248
38591,127969,144537,1.0145567824000001,9.384650237199999,-1.7371892076000002,1249
38610,127972,144545,1.0145567824000001,9.384650237199999,-1.7371892076000002,1250
38617,127962,144506,1.0145567824000001,9.384650237199999,-1.7371892076000002,1251
38618,128008,144510,1.0145567824000001,9.384650237199999,-1.7371892076000002,1252
38573,127986,144537,1.0145567824000001,9.384650237199999,-1.7371892076000002,1253
38479,128087,144605,1.0145567824000001,9.384650237199999,-1.7371892076000002,1254
38396,128116,144665,1.0145567824000001,9.384650237199999,-1.7371892076000002,1255
38359,128101,144650,1.0145567824000001,9.384650237199999,-1.7371892076000002,1256
38346,128140,144696,1.0145567824000001,9.384650237199999,-1.7371892076000002,1257
38182,128269,144746,0.9391828704999999,9.4456672135,-1.6713865861,1258
38195,128282,144742,0.9391828704999999,9.4456672135,-1.6713865861,1259
38207,128258,144745,0.9391828704999999,9.4456672135,-1.6713865861,1260
38222,128285,144747,0.9391828704999999,9.4456672135,-1.6713865861,1261
38240,128265,144747,0.9391828704999999,9.4456672135,-1.6713865861,1262
38258,128286,144724,0.9391828704999999,9.4456672135,-1.6713865861,1263
38268,128284,144731,0.9391828704999999,9.4456672135,-1.6713865861,1264
38275,128282,144711,0.9391828704999999,9.4456672135,-1.6713865861,1265
38295,128280,144716,0.9391828704999999,9.4456672135,-1.6713865861,1266
38309,128264,144693,0.9391828704999999,9.4456672135,-1.6713865861,1267
38327,128266,144722,0.9391828704999999,9.4456672135,-1.6713865861,1268
38343,128253,144718,0.9391828704999999,9.4456672135,-1.6713865861,1269
38361,128267,144711,0.9391828704999999,9.4456672135,-1.6713865861,1270
38376,128263,144689,0.9391828704999999,9.4456672135,-1.6713865861,1271
38400,128260,144681,0.9391828704999999,9.4456672135,-1.6713865861,1272
38404,128250,144667,0.9391828704999999,9.4456672135,-1.6713865861,1273
38424,128242,144656,0.9391828704999999,9.4456672135,-1.6713865861,1274
38432,128219,144640,0.9391828704999999,9.4456672135,-1.6713865861,1275
38416,128250,144656,0.9391828704999999,9.4456672135,-1.6713865861,1276
38329,128308,144743,0.9391828704999999,9.4456672135,-1.6713865861,1277
38243,128383,144795,0.9391828704999999,9.4456672135,-1.6713865861,1278
38210,128395,144825,0.9391828704999999,9.4456672135,-1.6713865861,1279
38197,128406,144812,0.9391828704999999,9.4456672135,-1.6713865861,1280
38193,128426,144761,0.9391828704999999,9.4456672135,-1.6713865861,1281
38187,128401,144756,0.9391828704999999,9.4456672135,-1.6713865861,1282
38210,128447,144786,0.9391828704999999,9.4456672135,-1.6713865861,1283
38205,128444,144766,0.9391828704999999,9.4456672135,-1.6713865861,1284
38216,128418,144752,0.9391828704999999,9.4456672135,-1.6713865861,1285
38221,128437,144749,0.9391828704999999,9.4456672135,-1.6713865861,1286
38214,128433,144741,0.9391828704999999,9.4456672135,-1.6713865861,1287
38234,128451,144705,0.9391828704999999,9.4456672135,-1.6713865861,1288
38245,128427,144716,0.9391828704999999,9.4456672135,-1.6713865861,1289
38268,128464,144695,0.9391828704999999,9.4456672135,-1.6713865861,1290
38276,128461,144683,0.9391828704999999,9.4456672135,-1.6713865861,1291
38299,128450,144681,0.9391828704999999,9.4456672135,-1.6713865861,1292
38323,128462,144679,0.9391828704999999,9.4456672135,-1.6713865861,1293
38336,128446,144679,0.9391828704999999,9.4456672135,-1.6713865861,1294
38353,128458,144666,0.9391828704999999,9.4456672135,-1.6713865861,1295
38374,128468,144665,0.9391828704999999,9.4456672135,-1.6713865861,1296
38384,128443,144643,0.9391828704999999,9.4456672135,-1.6713865861,1297
38400,128416,144663,0.9391828704999999,9.4456672135,-1.6713865861,1298
38418,128419,144610,0.9391828704999999,9.4456672135,-1.6713865861,1299
38206,128328,144608,0.8386843212999999,9.379864592,-1.7276179172000001,1300
38207,128329,144604,0.8386843212999999,9.379864592,-1.7276179172000001,1301
38199,128339,144618,0.8386843212999999,9.379864592,-1.7276179172000001,1302
38194,128338,144624,0.8386843212999999,9.379864592,-1.7276179172000001,1303
38204,128326,144628,0.8386843212999999,9.379864592,-1.7276179172000001,1304
38214,128326,144615,0.8386843212999999,9.379864592,-1.7276179172000001,1305
38232,128290,144628,0.8386843212999999,9.379864592,-1.7276179172000001,1306
38252,128296,144633,0.8386843212999999,9.379864592,-1.7276179172000001,1307
38260,128275,144617,0.8386843212999999,9.379864592,-1.7276179172000001,1308
38280,128294,144651,0.8386843212999999,9.379864592,-1.7276179172000001,1309
38296,128325,144648,0.8386843212999999,9.379864592,-1.7276179172000001,1310
38306,128294,144637,0.8386843212999999,9.379864592,-1.7276179172000001,1311
38331,128294,144660,0.8386843212999999,9.379864592,-1.7276179172000001,1312
38341,128276,144642,0.8386843212999999,9.379864592,-1.7276179172000001,1313
38355,128266,144632,0.8386843212999999,9.379864592,-1.7276179172000001,1314
38370,128263,144656,0.8386843212999999,9.379864592,-1.7276179172000001,1315
38386,128263,144633,0.8386843212999999,9.379864592,-1.7276179172000001,1316
38406,128261,144654,0.8386843212999999,9.379864592,-1.7276179172000001,1317
38417,128285,144644,0.8386843212999999,9.379864592,-1.7276179172000001,1318
38353,128268,144670,0.8386843212999999,9.379864592,-1.7276179172000001,1319
38245,128340,144775,0.8386843212999999,9.379864592,-1.7276179172000001,1320
38180,128367,144811,0.8386843212999999,9.379864592,-1.7276179172000001,1321
38144,128393,144781,0.8386843212999999,9.379864592,-1.7276179172000001,1322
38124,128381,144840,0.8386843212999999,9.379864592,-1.7276179172000001,1323
38110,128362,144836,0.8386843212999999,9.379864592,-1.7276179172000001,1324
38099,128373,144855,0.8386843212999999,9.379864592,-1.7276179172000001,1325
38115,128346,144836,0.8386843212999999,9.379864592,-1.7276179172000001,1326
38124,128310,144820,0.8386843212999999,9.379864592,-1.7276179172000001,1327
38131,128288,144819,0.8386843212999999,9.379864592,-1.7276179172000001,1328
38130,128305,144842,0.8386843212999999,9.379864592,-1.7276179172000001,1329
38124,128278,144836,0.8386843212999999,9.379864592,-1.7276179172000001,1330
38143,128290,144850,0.8386843212999999,9.379864592,-1.7276179172000001,1331
38147,128308,144847,0.8386843212999999,9.379864592,-1.7276179172000001,1332
38166,128292,144869,0.8386843212999999,9.379864592,-1.7276179172000001,1333
38179,128308,144866,0.8386843212999999,9.379864592,-1.7276179172000001,1334
38204,128322,144879,0.8386843212999999,9.379864592,-1.7276179172000001,1335
38213,128268,144865,0.8386843212999999,9.379864592,-1.7276179172000001,1336
38235,128287,144897,0.8386843212999999,9.379864592,-1.7276179172000001,1337
38256,128279,144918,0.8386843212999999,9.379864592,-1.7276179172000001,1338
38275,128271,144887,0.8386843212999999,9.379864592,-1.7276179172000001,1339
38292,128292,144859,0.8386843212999999,9.379864592,-1.7276179172000001,1340
38304,128248,144878,0.8386843212999999,9.379864592,-1.7276179172000001,1341
38276,128326,145080,1.0911271056,9.3571327773,-1.6809578765,1342
38287,128331,145087,1.0911271056,9.3571327773,-1.6809578765,1343
38309,128293,145119,1.0911271056,9.3571327773,-1.6809578765,1344
38318,128310,145101,1.0911271056,9.3571327773,-1.6809578765,1345
38335,128301,145135,1.0911271056,9.3571327773,-1.6809578765,1346
38355,128303,145118,1.0911271056,9.3571327773,-1.6809578765,1347
38369,128256,145115,1.0911271056,9.3571327773,-1.6809578765,1348
38379,128280,145104,1.0911271056,9.3571327773,-1.6809578765,1349
38399,128288,145118,1.0911271056,9.3571327773,-1.6809578765,1350
38419,128283,145133,1.0911271056,9.3571327773,-1.6809578765,1351
38441,128278,145107,1.0911271056,9.3571327773,-1.6809578765,1352
38449,128266,145132,1.0911271056,9.3571327773,-1.6809578765,1353
38470,128296,145127,1.0911271056,9.3571327773,-1.6809578765,1354
38498,128258,145136,1.0911271056,9.3571327773,-1.6809578765,1355
38505,128279,145147,1.0911271056,9.3571327773,-1.6809578765,1356
38458,128312,145165,1.0911271056,9.3571327773,-1.6809578765,1357
38382,128363,145235,1.0911271056,9.3571327773,-1.6809578765,1358
38321,128359,145270,1.0911271056,9.3571327773,-1.6809578765,1359
38307,128360,145267,1.0911271056,9.3571327773,-1.6809578765,1360
38304,128334,145265,1.0911271056,9.3571327773,-1.6809578765,1361
38305,128306,145280,1.0911271056,9.3571327773,-1.6809578765,1362
38312,128281,145274,1.0911271056,9.3571327773,-1.6809578765,1363
38329,128293,145268,1.0911271056,9.3571327773,-1.6809578765,1364
38338,128275,145233,1.0911271056,9.3571327773,-1.6809578765,1365
38341,128253,145235,1.0911271056,9.3571327773,-1.6809578765,1366
38344,128278,145260,1.0911271056,9.3571327773,-1.6809578765,1367
38352,128261,145252,1.0911271056,9.3571327773,-1.6809578765,1368
38364,128252,145283,1.0911271056,9.3571327773,-1.6809578765,1369
38383,128254,145285,1.0911271056,9.3571327773,-1.6809578765,1370
38397,128252,145303,1.0911271056,9.3571327773,-1.6809578765,1371
38422,128270,145307,1.0911271056,9.3571327773,-1.6809578765,1372
38435,128263,145323,1.0911271056,9.3571327773,-1.6809578765,1373
38447,128265,145344,1.0911271056,9.3571327773,-1.6809578765,1374
38465,128280,145327,1.0911271056,9.3571327773,-1.6809578765,1375
38484,128247,145342,1.0911271056,9.3571327773,-1.6809578765,1376
38488,128275,145344,1.0911271056,9.3571327773,-1.6809578765,1377
38511,128245,145345,1.0911271056,9.3571327773,-1.6809578765,1378
38527,128253,145323,1.0911271056,9.3571327773,-1.6809578765,1379
38547,128241,145353,1.0516455327,9.3655076564,-1.7180466268,1380
38560,128205,145352,1.0516455327,9.3655076564,-1.7180466268,1381
38575,128226,145361,1.0516455327,9.3655076564,-1.7180466268,1382
38598,128240,145355,1.0516455327,9.3655076564,-1.7180466268,1383
38608,128249,145350,1.0516455327,9.3655076564,-1.7180466268,1384
38569,128257,145393,1.0516455327,9.3655076564,-1.7180466268,1385
38465,128319,145451,1.0516455327,9.3655076564,-1.7180466268,1386
38409,128315,145474,1.0516455327,9.3655076564,-1.7180466268,1387
38374,128305,145490,1.0516455327,9.3655076564,-1.7180466268,1388
38355,128291,145472,1.0516455327,9.3655076564,-1.7180466268,1389
38342,128244,145466,1.0516455327,9.3655076564,-1.7180466268,1390
38335,128236,145498,1.0516455327,9.3655076564,-1.7180466268,1391
38340,128221,145459,1.0516455327,9.3655076564,-1.7180466268,1392
38355,128224,145445,1.0516455327,9.3655076564,-1.7180466268,1393
38349,128200,145467,1.0516455327,9.3655076564,-1.7180466268,1394
38358,128223,145437,1.0516455327,9.3655076564,-1.7180466268,1395
38355,128248,145493,1.0516455327,9.3655076564,-1.7180466268,1396
38363,128209,145490,1.0516455327,9.3655076564,-1.7180466268,1397
38383,128237,145518,1.0516455327,9.3655076564,-1.7180466268,1398
38400,128249,145509,1.0516455327,9.3655076564,-1.7180466268,1399
38416,128246,145558,1.0516455327,9.3655076564,-1.7180466268,1400
38441,128256,145545,1.0516455327,9.3655076564,-1.7180466268,1401
38450,128223,145554,1.0516455327,9.3655076564,-1.7180466268,1402
38471,128233,145524,1.0516455327,9.3655076564,-1.7180466268,1403
38476,128214,145546,1.0516455327,9.3655076564,-1.7180466268,1404
38487,128223,145549,1.0516455327,9.3655076564,-1.7180466268,1405
38502,128186,145594,1.0516455327,9.3655076564,-1.7180466268,1406
38523,128189,145565,1.0516455327,9.3655076564,-1.7180466268,1407
38539,128203,145572,1.0516455327,9.3655076564,-1.7180466268,1408
38552,128206,145571,1.0516455327,9.3655076564,-1.7180466268,1409
38570,128192,145572,1.0516455327,9.3655076564,-1.7180466268,1410
38585,128194,145584,1.0516455327,9.3655076564,-1.7180466268,1411
38596,128199,145612,1.0516455327,9.3655076564,-1.7180466268,1412
38553,128212,145622,1.0516455327,9.3655076564,-1.7180466268,1413
38468,128270,145671,1.0516455327,9.3655076564,-1.7180466268,1414
38393,128288,145721,1.0516455327,9.3655076564,-1.7180466268,1415
38349,128276,145740,1.0516455327,9.3655076564,-1.7180466268,1416
38344,128286,145730,1.0516455327,9.3655076564,-1.7180466268,1417
38325,128260,145735,1.0516455327,9.3655076564,-1.7180466268,1418
38318,128239,145717,1.0516455327,9.3655076564,-1.7180466268,1419
38329,128225,145721,1.0516455327,9.3655076564,-1.7180466268,1420
38335,128186,145690,1.0516455327,9.3655076564,-1.7180466268,1421
38419,128180,145752,0.9140582332,9.5162554802,-1.6522440053,1422
38422,128190,145770,0.9140582332,9.5162554802,-1.6522440053,1423
38439,128170,145761,0.9140582332,9.5162554802,-1.6522440053,1424
38453,128160,145747,0.9140582332,9.5162554802,-1.6522440053,1425
38462,128170,145768,0.9140582332,9.5162554802,-1.6522440053,1426
38475,128166,145762,0.9140582332,9.5162554802,-1.6522440053,1427
38494,128182,145793,0.9140582332,9.5162554802,-1.6522440053,1428
38512,128158,145783,0.9140582332,9.5162554802,-1.6522440053,1429
38495,128174,145763,0.9140582332,9.5162554802,-1.6522440053,1430
38432,128155,145825,0.9140582332,9.5162554802,-1.6522440053,1431
38351,128222,145871,0.9140582332,9.5162554802,-1.6522440053,1432
38298,128243,145896,0.9140582332,9.5162554802,-1.6522440053,1433
38289,128229,145885,0.9140582332,9.5162554802,-1.6522440053,1434
38285,128197,145879,0.9140582332,9.5162554802,-1.6522440053,1435
38266,128210,145888,0.9140582332,9.5162554802,-1.6522440053,1436
38271,128210,145864,0.9140582332,9.5162554802,-1.6522440053,1437
38291,128179,145867,0.9140582332,9.5162554802,-1.6522440053,1438
38284,128146,145814,0.9140582332,9.5162554802,-1.6522440053,1439
38277,128133,145842,0.9140582332,9.5162554802,-1.6522440053,1440
38271,128146,145823,0.9140582332,9.5162554802,-1.6522440053,1441
38274,128136,145849,0.9140582332,9.5162554802,-1.6522440053,1442
38287,128112,145867,0.9140582332,9.5162554802,-1.6522440053,1443
38301,128108,145857,0.9140582332,9.5162554802,-1.6522440053,1444
38322,128138,145879,0.9140582332,9.5162554802,-1.6522440053,1445
38336,128158,145892,0.9140582332,9.5162554802,-1.6522440053,1446
38352,128143,145881,0.9140582332,9.5162554802,-1.6522440053,1447
38355,128144,145868,0.9140582332,9.5162554802,-1.6522440053,1448
38377,128141,145884,0.9140582332,9.5162554802,-1.6522440053,1449
38403,128127,145897,0.9140582332,9.5162554802,-1.6522440053,1450
38407,128125,145903,0.9140582332,9.5162554802,-1.6522440053,1451
38420,128139,145917,0.9140582332,9.5162554802,-1.6522440053,1452
38441,128115,145896,0.9140582332,9.5162554802,-1.6522440053,1453
38453,128139,145896,0.9140582332,9.5162554802,-1.6522440053,1454
38431,128160,145932,0.9140582332,9.5162554802,-1.6522440053,1455
38343,128187,145985,0.9140582332,9.5162554802,-1.6522440053,1456
38258,128206,146034,0.9140582332,9.5162554802,-1.6522440053,1457
38209,128225,146055,0.9140582332,9.5162554802,-1.6522440053,1458
38193,128220,146055,0.9140582332,9.5162554802,-1.6522440053,1459
38175,128193,146062,0.9140582332,9.5162554802,-1.6522440053,1460
38156,128208,146071,0.9140582332,9.5162554802,-1.6522440053,1461
38160,128213,146064,0.9140582332,9.5162554802,-1.6522440053,1462
38174,128198,146026,0.9140582332,9.5162554802,-1.6522440053,1463
38126,128077,146302,1.0851450490999999,9.4695954395,-1.770688724,1464
38157,128066,146301,1.0851450490999999,9.4695954395,-1.770688724,1465
38169,128067,146293,1.0851450490999999,9.4695954395,-1.770688724,1466
38192,128068,146296,1.0851450490999999,9.4695954395,-1.770688724,1467
38209,128090,146302,1.0851450490999999,9.4695954395,-1.770688724,1468
38231,128073,146302,1.0851450490999999,9.4695954395,-1.770688724,1469
38248,128068,146317,1.0851450490999999,9.4695954395,-1.770688724,1470
38269,128086,146305,1.0851450490999999,9.4695954395,-1.770688724,1471
38286,128124,146315,1.0851450490999999,9.4695954395,-1.770688724,1472
38309,128111,146316,1.0851450490999999,9.4695954395,-1.770688724,1473
38297,128104,146320,1.0851450490999999,9.4695954395,-1.770688724,1474
38231,128097,146366,1.0851450490999999,9.4695954395,-1.770688724,1475
38151,128120,146426,1.0851450490999999,9.4695954395,-1.770688724,1476
38118,128128,146405,1.0851450490999999,9.4695954395,-1.770688724,1477
38115,128102,146390,1.0851450490999999,9.4695954395,-1.770688724,1478
38100,128087,146409,1.0851450490999999,9.4695954395,-1.770688724,1479
38094,128053,146401,1.0851450490999999,9.4695954395,-1.770688724,1480
38109,128062,146384,1.0851450490999999,9.4695954395,-1.770688724,1481
38119,128052,146377,1.0851450490999999,9.4695954395,-1.770688724,1482
38124,128058,146347,1.0851450490999999,9.4695954395,-1.770688724,1483
38127,128085,146360,1.0851450490999999,9.4695954395,-1.770688724,1484
38128,128073,146378,0.9248259349,9.4181497536,-1.6091731985,1485
38129,128078,146387,0.9248259349,9.4181497536,-1.6091731985,1486
38151,128067,146381,0.9248259349,9.4181497536,-1.6091731985,1487
38168,128063,146384,1.0899306943,9.4313102779,-1.7371892076000002,1488
38183,128046,146359,1.0899306943,9.4313102779,-1.7371892076000002,1489
38200,128044,146377,1.0899306943,9.4313102779,-1.7371892076000002,1490
38217,128037,146339,1.0899306943,9.4313102779,-1.7371892076000002,1491
38241,128054,146349,1.0899306943,9.4313102779,-1.7371892076000002,1492
38248,128035,146348,1.0899306943,9.4313102779,-1.7371892076000002,1493
38275,128049,146335,1.0899306943,9.4313102779,-1.7371892076000002,1494
38288,128035,146337,1.0899306943,9.4313102779,-1.7371892076000002,1495
38316,128036,146340,1.0540383553,9.456434915200001,-1.698904046,1496
38332,128049,146358,1.1808579531,9.3284189061,-1.6941184008,1497
38334,128075,146359,1.0241280728,9.3236332609,-1.6462619487999999,1498
38288,128080,146404,1.0803594039,9.308079914,-1.7850456596,1499
38211,128104,146446,0.9619146851999999,9.2757768089,-1.5744772707999999,1500
38189,128074,146408,1.0683952909,9.3236332609,-1.7802600144,1501
38190,127998,146354,0.9379864592,9.2614198733,-1.6761722313,1502
38170,127988,146367,0.9284151688,9.2805624541,-1.7479569093,1503
38167,127949,146361,1.0660024683,9.2937229784,-1.7324035624,1504
38194,127981,146350,1.2514462198,9.399007172800001,-1.6606188843999998,1505
38197,127983,146358,1.0624132344,9.3523471321,-1.7659030788,1506
38213,127996,146386,0.981057266,9.5210411254,-1.7048861025,1507
38223,128019,146381,0.9475577495999999,9.4265246327,-1.6522440053,1508
38239,127979,146374,1.0193424276,9.4325066892,-1.7371892076000002,1509
38267,128008,146389,1.028913718,9.2566342281,-1.7814564256999998,1510
38282,127992,146369,1.0145567824000001,9.379864592,-1.6606188843999998,1511
38297,127970,146362,1.052841944,9.3332045513,-1.7515461432000001,1512
38324,128008,146364,1.004985492,9.3463650756,-1.722832272,1513
38341,128037,146377,0.9427721043999999,9.3224368496,-1.6570296505,1514
38363,128001,146362,0.8781658942,9.3463650756,-1.6570296505,1515
38390,128005,146367,1.0325029519,9.443274390900001,-1.7611174336,1516
38408,128012,146375,1.1006983959999999,9.3128655592,-1.7132609816000002,1517
38425,127995,146359,1.0516455327,9.3619184225,-1.7419748528,1518
