green,red,IR,acc_x,acc_y,acc_z,sample_index
68091,177337,221243,-8.9682991048,-3.6406795858999996,-1.2658031554,1
68108,177334,221223,-8.9874416856,-3.4564322457,-1.256231865,2
68115,177377,221143,-8.9336031771,-3.6107693033999997,-1.1760723079,3
68126,177353,221166,-8.8378902731,-3.6323047068,-1.2921242039999998,4
68125,177373,221170,-8.7780697081,-3.541377448,-1.2873385588,5
68110,177352,221159,-8.9671026935,-3.5629128513999997,-1.2681959779999998,6
68097,177367,221125,-9.0149591455,-3.5868410774,-1.2897313814,7
68094,177366,221097,-8.9108713624,-3.5700913192,-1.2921242039999998,8
68095,177368,221082,-8.828318982699999,-3.5772697869999996,-1.3423734786,9
68084,177363,221081,-8.8582292652,-3.46959277,-1.2370892842,10
68070,177338,221024,-8.944370878800001,-3.5186456333,-1.2969098492,11
68074,177378,221046,-8.8079799906,-3.5042886977,-1.2777672683999999,12
68075,177348,221039,-8.9419780562,-3.5210384559,-1.3016954943999999,13
68109,177391,220991,-8.9096749511,-3.5018958750999998,-1.2394821068,14
68110,177356,220992,-8.8606220878,-3.6658042232,-1.1593225497000001,15
68044,177310,220986,-8.8378902731,-3.6059836581999996,-1.3112667848,16
67742,177137,220866,-8.925228298,-3.5078779316,-1.3160524299999998,17
67284,177130,220802,-8.8941216042,-3.5485559157999997,-1.2921242039999998,18
66982,177170,220789,-8.709874264,-3.6442688197999997,-1.1976077113,19
66936,177223,220866,-8.9276211206,-3.5078779316,-1.2107682356,20
66960,177241,220893,-8.937192411,-3.6299118841999998,-1.304088317,21
66987,177288,220875,-8.97308475,-3.601198013,-1.3686945272,22
66938,177301,220894,-9.019744790699999,-3.6622149893000002,-1.2514462198,23
67037,177313,220902,-8.9826560404,-3.5796626096,-1.2957134379000002,24
67034,177318,220894,-8.8749790234,-3.4325040196999996,-1.2969098492,25
67004,177329,220846,-8.9671026935,-3.7160534978000004,-1.2622139215000001,26
66892,177297,220845,-8.9036928946,-3.5988051904000002,-1.3172488413,27
66822,177290,220834,-8.913264185,-3.6346975294,-1.256231865,28
66785,177303,220868,-8.8749790234,-3.5270205124,-1.3351950108,29
66804,177319,220838,-9.1154576947,-3.5916267225999996,-1.2239287599,30
66837,177322,220844,-8.865407733,-3.6777683362,-1.256231865,31
66916,177359,220855,-8.8749790234,-3.5521451497000003,-1.2119646469,32
66958,177394,220849,-8.8977108381,-3.6825539814000003,-1.1976077113,33
66995,177404,220875,-8.9455672901,-3.5976087790999998,-1.2777672683999999,34
67062,177417,220864,-8.952745757899999,-3.7136606752,-1.2418749294,35
67097,177413,220880,-8.7924266437,-3.5724841418,-1.256231865,36
67121,177403,220882,-8.8977108381,-3.7052857961,-1.256231865,37
67155,177433,220858,-8.8498543861,-3.6681970457999995,-1.2921242039999998,38
67207,177421,220860,-8.9934237421,-3.5461630932,-1.2179467034,39
67235,177445,220914,-9.0029950325,-3.7160534978000004,-1.3304093655999998,40
67282,177439,220835,-8.952745757899999,-3.6981073283,-1.375872995,41
67329,177427,220837,-8.7924266437,-3.6693934571,-1.2287144051,42
67361,177461,220850,-8.961120637,-3.5880374887,-1.3603196481,43
67413,177468,220852,-8.876175434699999,-3.5964123677999997,-1.1808579531,44
67471,177468,220810,-8.8498543861,-3.7280176108,-1.1892328322,45
67315,177399,220713,-8.913264185,-3.684946804,-1.2622139215000001,46
66911,177294,220626,-8.949156524,-3.6801611588,-1.304088317,47
66518,177251,220637,-8.828318982699999,-3.6155549486,-1.3064811396,48
66402,177321,220686,-8.8869431364,-3.5724841418,-1.2418749294,49
66431,177349,220740,-8.9479601127,-3.649054465,-1.2681959779999998,50
66523,177396,220748,-8.9635134596,-3.7088750299999997,-1.1617153723,51
66594,177410,220745,-8.949156524,-3.5844482548,-1.2514462198,52
66625,177457,220767,-8.819944103600001,-3.5090743428999995,-1.2646067441000002,53
66698,177451,220759,-8.9515493466,-3.5940195452,-1.3064811396,54
66749,177479,220746,-8.7828553533,-3.6825539814000003,-1.351944769,55
66771,177429,220738,-8.8510507974,-3.565305674,-1.2394821068,56
66694,177439,220745,-8.9347995884,-3.6107693033999997,-1.1856435983,57
66648,177411,220713,-8.7780697081,-3.6203405937999995,-1.1892328322,58
66678,177440,220767,-8.97308475,-3.5449666819,-1.1712866627,59
66735,177479,220761,-8.9623170483,-3.5042886977,-1.1736794853,60
66814,177498,220806,-8.8666041443,-3.7663027724,-1.280160091,61
66895,177490,220785,-8.859425676499999,-3.6047872469,-1.2119646469,62
66956,177502,220763,-8.9946201534,-3.6227334164,-1.160518961,63
67026,177528,220737,-9.038887371500001,-3.6442688197999997,-1.2921242039999998,64
67079,177571,220762,-8.8019979341,-3.6957145057000003,-1.2382856955,65
67150,177557,220774,-8.7732840629,-3.7232319655999997,-1.3088739621999999,66
67190,177582,220808,-8.985048863000001,-3.6993037396,-1.256231865,67
67250,177556,220764,-8.7565343047,-3.5353953915,-1.2299108163999999,68
67282,177559,220788,-8.8115692245,-3.7220355542999997,-1.2263215825,69
67340,177590,220790,-8.9156570076,-3.6933216830999998,-1.2921242039999998,70
67384,177556,220744,-8.8845503138,-3.5641092626999997,-1.2574282763000002,71
67413,177573,220759,-8.9563349918,-3.5569307949000004,-1.2394821068,72
67486,177593,220786,-8.8163548697,-3.6610185779999997,-1.2945170266,73
67530,177575,220796,-8.9587278144,-3.5904303113,-1.3076775509,74
67592,177613,220780,-8.961120637,-3.6047872469,-1.1772687192,75
67634,177580,220792,-8.7960158776,-3.6634114006,-1.1712866627,76
67578,177553,220722,-8.8869431364,-3.613162126,-1.2502498085,77
67252,177451,220603,-8.9910309195,-3.5617164401,-1.2586246876,78
66817,177359,220599,-8.9324067658,-3.6753755136,-1.1940184774,79
66642,177406,220624,-8.9766739839,-3.637090352,-1.256231865,80
66650,177457,220725,-8.930013943199999,-3.637090352,-1.2023933565,81
66735,177486,220728,-8.9778703952,-3.6957145057000003,-1.2143574695,82
66808,177533,220731,-8.8163548697,-3.5964123677999997,-1.2059825904,83
66864,177507,220757,-8.7804625307,-3.6071800695,-1.1784651305,84
66900,177523,220770,-9.0460658393,-3.5976087790999998,-1.2634103328,85
66949,177527,220825,-8.8570328539,-3.6466616424,-1.3375878334,86
66936,177519,220753,-8.8689969669,-3.5282169237,-1.2370892842,87
66783,177485,220767,-8.8235333375,-3.5820554322,-1.2418749294,88
66824,177484,220713,-8.7864445872,-3.4923245847,-1.2729816232,89
66808,177500,220768,-8.85344362,-3.5318061576,-1.1940184774,90
66854,177440,220804,-8.9108713624,-3.6299118841999998,-1.2849457361999999,91
66906,177520,220820,-8.7912302324,-3.5952159565,-1.1688938401,92
66967,177542,220832,-8.975477572600001,-3.6681970457999995,-1.1928220661,93
67047,177555,220861,-8.949156524,-3.7363924898999996,-1.4141581566,94
67088,177520,220818,-8.7972122889,-3.5353953915,-1.208375413,95
67147,177534,220809,-8.872586200799999,-3.6873396266,-1.2658031554,96
67175,177557,220804,-8.865407733,-3.6753755136,-1.2418749294,97
67212,177539,220809,-8.8606220878,-3.637090352,-1.2346964616,98
67275,177562,220828,-8.918049830200001,-3.6203405937999995,-1.2119646469,99
67313,177552,220861,-8.8546400313,-3.5880374887,-1.2131610582,100
67348,177564,220859,-8.8354974505,-3.6287154729,-1.2502498085,101
67368,177571,220872,-8.876175434699999,-3.6119657146999997,-1.2873385588,102
67403,177532,220884,-8.9216390641,-3.637090352,-1.1497512593,103
67436,177571,220852,-9.0364945489,-3.5724841418,-1.1186445655,104
67484,177558,220846,-8.7349989013,-3.7316068447,-1.2466605746,105
67509,177543,220833,-8.7469630143,-3.5473595045,-1.1545369045,106
67330,177381,220766,-8.9276211206,-3.6610185779999997,-1.2526426310999998,107
66880,177338,220710,-8.925228298,-3.7220355542999997,-1.2729816232,108
66511,177276,220763,-9.0053878551,-3.613162126,-1.1964113,109
66418,177357,220809,-8.8115692245,-3.6167513599,-1.2933206153,110
66453,177370,220841,-8.8438723296,-3.637090352,-1.2490533972,111
66546,177404,220933,-8.7912302324,-3.6538401101999995,-1.2825529136,112
66584,177410,220919,-8.7840517646,-3.7627135385,-1.2299108163999999,113
66633,177445,220969,-8.7637127725,-3.6239298277,-1.2538390423999999,114
66686,177448,220945,-8.8618184991,-3.6323047068,-1.2418749294,115
66720,177450,220950,-8.901300072,-3.6729826909999996,-1.244267752,116
66653,177393,220941,-8.8666041443,-3.6801611588,-1.1952148887,117
66555,177398,220939,-8.8390866844,-3.5258241011,-1.2574282763000002,118
66498,177379,220982,-8.7780697081,-3.6681970457999995,-1.2179467034,119
66505,177392,221004,-8.833104627900001,-3.5808590209,-1.3304093655999998,120
66532,177422,221023,-8.873782612100001,-3.6681970457999995,-1.2035897678,121
66608,177414,221010,-8.9324067658,-3.6466616424,-1.2155538808,122
66655,177459,221078,-8.8378902731,-3.4468609552999996,-1.1988041226,123
66719,177436,221067,-8.9228354754,-3.5748769644,-1.2155538808,124
66776,177447,221063,-8.8905323703,-3.7220355542999997,-1.2993026717999998,125
66812,177429,221084,-8.8259261601,-3.6538401101999995,-1.2945170266,126
66876,177443,221115,-8.8474615635,-3.5569307949000004,-1.2335000503,127
66906,177426,221077,-8.8235333375,-3.6107693033999997,-1.1617153723,128
66955,177448,221100,-8.975477572600001,-3.5916267225999996,-1.184447187,129
66977,177449,221146,-8.9742811613,-3.6681970457999995,-1.2418749294,130
67012,177454,221106,-8.8989072494,-3.6634114006,-1.2777672683999999,131
67045,177440,221123,-8.865407733,-3.4707891813,-1.2275179938,132
67084,177472,221135,-8.9156570076,-3.6885360378999996,-1.3292129543,133
67109,177462,221153,-9.020941202,-3.6143585373000002,-1.2035897678,134
67148,177435,221162,-8.8450687409,-3.6047872469,-1.2658031554,135
67072,177378,221115,-8.8845503138,-3.6275190616,-1.1976077113,136
66672,177269,221007,-8.9539421692,-3.541377448,-1.2969098492,137
66219,177188,221026,-8.876175434699999,-3.6179477712,-1.2681959779999998,138
65991,177197,221049,-8.9216390641,-3.6514472876,-1.2634103328,139
66023,177264,221127,-8.9036928946,-3.7184463204,-1.2777672683999999,140
66090,177318,221174,-8.872586200799999,-3.5641092626999997,-1.3136596074,141
66162,177317,221182,-8.9036928946,-3.7854453531999996,-1.2119646469,142
66232,177320,221182,-8.913264185,-3.6239298277,-1.2741780345,143
66284,177337,221217,-8.9778703952,-3.4995030524999997,-1.220339526,144
66308,177324,221216,-8.8845503138,-3.5485559157999997,-1.2969098492,145
66258,177302,221204,-8.9623170483,-3.4911281734,-1.328016543,146
66155,177228,221197,-8.9467637014,-3.5114671655,-1.2765708571,147
66054,177241,221196,-8.8211405149,-3.5940195452,-1.1904292435000001,148
66042,177254,221222,-8.876175434699999,-3.6658042232,-1.2634103328,149
66074,177274,221233,-8.9359959997,-3.5425738593,-1.2394821068,150
66133,177287,221241,-8.9467637014,-3.4755748265,-1.2646067441000002,151
66216,177295,221272,-8.998209387300001,-3.7184463204,-1.2705888006,152
66289,177307,221295,-8.9347995884,-3.5880374887,-1.3256237203999999,153
66337,177308,221307,-8.918049830200001,-3.5330025689,-1.2825529136,154
66371,177319,221314,-8.9276211206,-3.5952159565,-1.1952148887,155
66419,177335,221304,-8.8343010392,-3.5126635768,-1.1736794853,156
66448,177337,221347,-8.8689969669,-3.6442688197999997,-1.2717852119000002,157
66496,177321,221331,-8.8498543861,-3.5772697869999996,-1.2394821068,158
66530,177324,221342,-8.8139620471,-3.6323047068,-1.2143574695,159
66578,177347,221400,-9.0017986212,-3.553341561,-1.244267752,160
66626,177370,221397,-8.939585233599999,-3.6299118841999998,-1.2538390423999999,161
66628,177348,221400,-8.8977108381,-3.7172499091,-1.2490533972,162
66391,177255,221284,-8.9922273308,-3.6442688197999997,-1.3471591237999998,163
65928,177140,221241,-8.8905323703,-3.5306097463,-1.2693923893,164
65604,177116,221255,-8.885746725099999,-3.6287154729,-1.3435698899,165
65556,177162,221345,-8.761319949899999,-3.5820554322,-1.2717852119000002,166
65631,177221,221383,-8.833104627900001,-3.7016965622000004,-1.304088317,167
65704,177250,221413,-8.793623055,-3.6083764808,-1.2394821068,168
65764,177265,221424,-9.0161555568,-3.6287154729,-1.220339526,169
65838,177288,221506,-8.9635134596,-3.5820554322,-1.2681959779999998,170
65891,177218,221484,-9.038887371500001,-3.7232319655999997,-1.1665010175000001,171
65908,177297,221458,-8.8881395477,-3.6203405937999995,-1.2753744458,172
65880,177283,221497,-8.9635134596,-3.6311082955,-1.2849457361999999,173
65825,177271,221494,-8.9539421692,-3.5617164401,-1.2239287599,174
65798,177284,221491,-9.019744790699999,-3.6251262389999996,-1.2107682356,175
65837,177295,221551,-8.9276211206,-3.5736805531,-1.2370892842,176
65902,177304,221557,-8.7637127725,-3.649054465,-1.3435698899,177
65982,177322,221607,-8.8965144268,-3.4348968423,-1.3088739621999999,178
66056,177260,221612,-8.8881395477,-3.6514472876,-1.2490533972,179
66119,177372,221624,-8.8307118053,-3.4947174072999996,-1.2753744458,180
66183,177389,221671,-8.8582292652,-3.4959138186,-1.2059825904,181
66258,177400,221681,-8.7864445872,-3.6550365215,-1.2346964616,182
66304,177375,221686,-8.926424709299999,-3.6107693033999997,-1.2837493249,183
66352,177413,221668,-8.937192411,-3.7232319655999997,-1.2658031554,184
66402,177424,221683,-8.7421773691,-3.6610185779999997,-1.2753744458,185
66440,177403,221700,-8.9407816449,-3.6047872469,-1.2107682356,186
66491,177456,221733,-8.8163548697,-3.5964123677999997,-1.2945170266,187
66543,177456,221735,-8.9204426528,-3.7292140221,-1.3651052933,188
66582,177437,221744,-8.831908216599999,-3.6538401101999995,-1.2777672683999999,189
66393,177347,221657,-8.8797646686,-3.637090352,-1.2921242039999998,190
65915,177196,221620,-8.9383888223,-3.5916267225999996,-1.1880364209,191
65564,177172,221624,-8.8211405149,-3.6107693033999997,-1.2825529136,192
65474,177202,221671,-8.8079799906,-3.6418759972,-1.2155538808,193
65554,177239,221725,-8.9084785398,-3.7064822074,-1.1904292435000001,194
65652,177276,221757,-8.901300072,-3.7447673690000003,-1.208375413,195
65705,177277,221754,-8.8115692245,-3.5676984966,-1.208375413,196
65765,177312,221779,-8.8151584584,-3.6873396266,-1.2466605746,197
65841,177343,221809,-8.8630149104,-3.505485109,-1.3459627125,198
65862,177330,221825,-8.8678005556,-3.7016965622000004,-1.2897313814,199
65851,177281,221802,-8.944370878800001,-3.6346975294,-1.2131610582,200
65796,177307,221844,-8.8354974505,-3.6861432153,-1.2921242039999998,201
65760,177275,221879,-8.9874416856,-3.6179477712,-1.304088317,202
65787,177283,221915,-8.9623170483,-3.6681970457999995,-1.2275179938,203
65836,177317,221896,-8.8905323703,-3.6813575701,-1.232303639,204
65911,177351,221948,-8.8965144268,-3.5377882141000003,-1.2227323486,205
66011,177358,221973,-8.9156570076,-3.613162126,-1.2311072277,206
66092,177367,221992,-8.8905323703,-3.6634114006,-1.2251251712,207
66172,177383,222009,-8.9694955161,-3.6466616424,-1.2789636797000001,208
66231,177373,222030,-8.952745757899999,-3.553341561,-1.208375413,209
66292,177403,222069,-8.8989072494,-3.5437702705999996,-1.1688938401,210
66339,177408,222075,-8.8366938618,-3.6729826909999996,-1.2897313814,211
66395,177407,222064,-8.8977108381,-3.6095728921,-1.1808579531,212
66453,177407,222123,-8.819944103600001,-3.5617164401,-1.1784651305,213
66493,177435,222102,-8.8307118053,-3.5617164401,-1.2945170266,214
66546,177419,222109,-8.985048863000001,-3.5497523270999998,-1.1186445655,215
66604,177431,222146,-8.9084785398,-3.5521451497000003,-1.1473584366999998,216
66642,177437,222143,-8.8929251929,-3.5736805531,-1.2921242039999998,217
66398,177284,222085,-8.8079799906,-3.6119657146999997,-1.3124631961,218
65933,177182,221982,-8.7876409985,-3.5748769644,-1.2251251712,219
65614,177135,221990,-8.8259261601,-3.5712877305000004,-1.2514462198,220
65601,177235,222088,-8.9467637014,-3.5796626096,-1.1353943237,221
65693,177206,222105,-8.833104627900001,-3.5856446661000003,-1.2346964616,222
65784,177244,222114,-8.8606220878,-3.6777683362,-1.2825529136,223
65870,177287,222152,-8.9419780562,-3.6658042232,-1.244267752,224
65958,177266,222221,-8.8929251929,-3.6263226502999997,-1.2777672683999999,225
66022,177221,222197,-8.8103728132,-3.7471601916,-1.2215359373,226
66061,177281,222200,-8.9036928946,-3.4719855926,-1.2143574695,227
66019,177249,222218,-9.0771725331,-3.5282169237,-1.244267752,228
65940,177234,222251,-8.846265152199999,-3.5473595045,-1.2299108163999999,229
65905,177181,222278,-8.829515394,-3.6574293441,-1.1784651305,230
65939,177230,222250,-8.9336031771,-3.5700913192,-1.2586246876,231
66000,177272,222321,-8.9539421692,-3.5377882141000003,-1.1988041226,232
66093,177286,222367,-8.8618184991,-3.649054465,-1.1736794853,233
66171,177285,222381,-8.8474615635,-3.5712877305000004,-1.244267752,234
66242,177313,222393,-8.9659062822,-3.6394831745999996,-1.2346964616,235
66293,177335,222407,-8.8941216042,-3.6000016017000003,-1.3531411803,236
66350,177304,222378,-8.9778703952,-3.4085757937,-1.2825529136,237
66397,177318,222382,-8.8785682573,-3.6155549486,-1.2490533972,238
66448,177321,222368,-8.8438723296,-3.6837503927,-1.3184452526,239
66469,177325,222432,-8.7948194663,-3.5042886977,-1.2227323486,240
66519,177288,222412,-9.032905315,-3.6538401101999995,-1.2059825904,241
66565,177300,222453,-8.7900338211,-3.6394831745999996,-1.3088739621999999,242
66574,177283,222422,-8.889335959,-3.6442688197999997,-1.3112667848,243
66426,177191,222403,-9.0233340246,-3.6466616424,-1.3100703735,244
66038,177020,222292,-8.9084785398,-3.5916267225999996,-1.2873385588,245
65725,177019,222287,-8.8163548697,-3.6035908356,-1.2837493249,246
65647,177051,222371,-8.9276211206,-3.5844482548,-1.2000005339,247
65718,177074,222439,-8.8582292652,-3.6083764808,-1.2335000503,248
65832,177083,222444,-8.876175434699999,-3.5641092626999997,-1.2514462198,249
65911,177030,222460,-8.9324067658,-3.5497523270999998,-1.2514462198,250
65999,177158,222465,-8.9742811613,-3.4683963587,-1.1282158559,251
66037,177121,222460,-8.9276211206,-3.4947174072999996,-1.2382856955,252
66019,177094,222480,-8.9563349918,-3.397808092,-1.3016954943999999,253
65946,177046,222436,-8.9539421692,-3.5365918028000003,-1.2765708571,254
65864,177043,222459,-8.9742811613,-3.7184463204,-1.3064811396,255
65914,177048,222460,-8.9336031771,-3.5497523270999998,-1.2538390423999999,256
65899,177040,222519,-8.833104627900001,-3.5162528107,-1.2777672683999999,257
65967,177095,222542,-8.961120637,-3.5138599880999997,-1.3064811396,258
66026,177083,222562,-8.8390866844,-3.5090743428999995,-1.220339526,259
66103,177096,222560,-8.970691927399999,-3.6251262389999996,-1.2394821068,260
66146,177093,222599,-8.9024964833,-3.4995030524999997,-1.1449656141,261
66212,177107,222627,-8.8019979341,-3.5222348672,-1.2059825904,262
66277,177148,222637,-8.8426759183,-3.7339996673,-1.3591232368,263
66324,177139,222614,-8.877371846,-3.5425738593,-1.3328021881999998,264
66385,177158,222664,-8.949156524,-3.5294133349999997,-1.2095718243,265
66409,177128,222624,-8.889335959,-3.6346975294,-1.2167502921,266
66310,177046,222573,-9.038887371500001,-3.5461630932,-1.1928220661,267
65922,176884,222501,-8.8797646686,-3.6933216830999998,-1.3663017045999999,268
65513,176821,222479,-8.828318982699999,-3.5353953915,-1.2394821068,269
65343,176852,222481,-8.6763747476,-3.6227334164,-1.351944769,270
65351,176865,222588,-8.9108713624,-3.5724841418,-1.2107682356,271
65397,176911,222591,-8.9455672901,-3.6442688197999997,-1.220339526,272
65442,176917,222627,-8.8211405149,-3.5988051904000002,-1.232303639,273
65488,176920,222618,-8.9276211206,-3.5114671655,-1.2275179938,274
65506,176924,222654,-9.5868437469,-4.713860522,0.9822536772999999,275
65353,176756,222531,-10.7090775463,-3.1142586138999997,0.3672982691,276
65336,176819,222584,-8.5208412786,-3.4468609552999996,-1.8257236438,277
65415,176909,222729,-8.6177505939,-3.8871403137,-2.2085752598,278
65438,176865,222758,-8.8103728132,-3.7627135385,-1.5290136414,279
65396,176841,222722,-9.1860459614,-3.9996029759000002,0.3924229064,280
65404,176855,222766,-9.037690960199999,-3.6358939407,0.23928226,281
65537,176982,222806,-8.6572321668,-3.541377448,-0.6185446421,282
65680,176979,222837,-8.8378902731,-3.7543386594,-0.6640082715,283
65804,177067,222894,-8.5890367227,-2.7565316351999996,-0.7226324252,284
65948,177117,223059,-8.8905323703,-5.2127640341,-1.0444670649,285
66310,177374,223354,-9.2279203569,-3.6155549486,-0.3804587934,286
66739,177575,223558,-9.7184489899,-2.9204399833,0.0071784678,287
67121,177755,223747,-9.857232700700001,-3.0568308715,0.1962114532,288
67268,177606,223678,-9.4241318101,-2.8606194183,-0.3278166962,289
67257,177541,223585,-9.128618219,-2.4382862294,-1.0013962581,290
67193,177453,223469,-9.2111705987,-2.9383861528,-0.7980063370999999,291
66922,177267,223332,-9.1836531388,-2.7649065143000002,-0.8207381518,292
66376,177072,223247,-9.050851484499999,-3.0580272828,-0.7405785947,293
65918,176935,223136,-9.2279203569,-3.1070801461,-0.7238288365000001,294
65679,176913,223046,-9.1070828156,-2.6225335696,-0.7501498851,295
65654,176915,223052,-9.081958178299999,-3.0472595810999996,-0.6508477471999999,296
65655,176909,223027,-8.9934237421,-3.1310083721,-0.6975077879,297
65658,176926,223072,-9.1190469286,-3.0592236941,-0.6975077879,298
65712,176995,223050,-9.0879402348,-3.1908289370999996,-0.6257231099,299
65774,176987,223068,-9.2051885422,-3.194418171,-0.6867400861999999,300
65786,176985,223083,-9.1956172518,-3.1178478478000002,-0.7154539574000001,301
65754,177068,223061,-8.9551385805,-3.194418171,-0.7202396026000001,302
65712,176996,223085,-9.0616191862,-3.290131075,-0.7716852885,303
65691,176993,223118,-9.108279226899999,-3.0999016782999997,-0.7824529901999999,304
65690,177009,223135,-9.104689993,-3.2470602682000003,-0.6616154488999999,305
65758,177003,223120,-9.1022971704,-3.3415767608999998,-0.7250252478,306
65851,177042,223190,-9.1716890258,-3.4169506728,-0.7489534738,307
65919,177072,223214,-9.1812603162,-3.278166962,-0.7214360139,308
66008,177077,223253,-9.1692962032,-3.2446674455999998,-0.7082754896000001,309
66080,177112,223252,-9.0759761218,-3.3595229304,-0.7633104094,310
66153,177106,223313,-8.9742811613,-3.2494530908,-0.8554340795,311
66205,177130,223273,-9.095118702599999,-3.0759734523,-0.7405785947,312
66249,177183,223305,-9.0759761218,-3.1477581302999997,-0.6819544409999999,313
66316,177153,223318,-9.0173519681,-3.0161528873,-0.861416136,314
66374,177161,223353,-9.010173500299999,-3.2518459134,-0.5455635528,315
66438,177138,223333,-9.1549392676,-3.2051858726999995,-0.5036891573,316
66475,177154,223353,-9.2267239456,-3.206382284,-0.6843472636,317
66527,177133,223397,-9.1058864043,-3.0484559924,-0.5670989562,318
66541,177050,223361,-9.0831545896,-3.2494530908,-0.6053841178,319
66301,176993,223202,-9.1334038642,-3.146561719,-0.6628118601999999,320
65856,176827,223093,-9.1154576947,-3.0879375653000003,-0.5371886737,321
65597,176818,223098,-9.0317089037,-3.0711878071,-0.6580262149999999,322
65566,176835,223161,-9.081958178299999,-3.0664021618999997,-0.6197410534,323
65627,176889,223239,-9.1130648721,-3.1226334930000004,-0.5635097223,324
65711,176930,223281,-9.164510558,-3.0317062341999996,-0.5563312545,325
65775,176954,223266,-9.200402897,-3.1752755902,-0.6843472636,326
65863,177005,223325,-8.997012975999999,-3.1680971224,-0.6448656907,327
65958,176994,223352,-9.176474671,-3.206382284,-0.6628118601999999,328
65991,176994,223376,-9.1944208405,-3.3248270027,-0.6508477471999999,329
66017,176949,223361,-9.0975115252,-3.1848468806000003,-0.6197410534,330
65935,176966,223346,-9.1226361625,-3.1202406704,-0.5132604477,331
65913,176937,223372,-9.1334038642,-3.1022945009000003,-0.6723831506,332
65951,176940,223378,-9.1704926145,-3.0999016782999997,-0.6987041992,333
66014,176986,223397,-9.247062937699999,-3.0568308715,-0.6831508522999999,334
66099,176996,223397,-9.1812603162,-3.062812928,-0.6532405698,335
66178,177023,223429,-9.0317089037,-3.1178478478000002,-0.6819544409999999,336
66242,177035,223449,-9.1154576947,-3.1441688964,-0.6903293201,337
66286,177046,223452,-9.0939222913,-3.0939196218,-0.6532405698,338
66333,176986,223456,-9.1154576947,-2.9383861528,-0.6173482308,339
66381,177020,223474,-9.1357966868,-3.0364918793999998,-0.6388836341999999,340
66417,177051,223494,-9.1872423727,-3.0412775246,-0.6197410534,341
66472,177082,223501,-9.3547399547,-3.0903303879,-0.5563312545,342
66506,177067,223536,-9.2171526552,-3.0221349438,-0.6364908116,343
66559,177071,223510,-9.0460658393,-3.0245277664,-0.6436692794,344
66618,177114,223575,-9.1202433399,-3.0053851856000002,-0.6867400861999999,345
66670,177121,223542,-9.233902413400001,-2.9347969189,-0.5335994398,346
66714,177059,223532,-9.080761767,-3.0891339766000003,-0.6089733517,347
66671,177042,223452,-9.2087777761,-3.0041887742999998,-0.6293123438,348
66352,176851,223366,-9.200402897,-3.0364918793999998,-0.5659025448999999,349
65935,176764,223261,-9.0604227749,-2.9754749031,-0.6867400861999999,350
65717,176740,223259,-9.2434737038,-3.0233313551,-0.6855436748999999,351
65715,176825,223310,-9.219545477799999,-2.9754749031,-0.46540399569999996,352
65781,176855,223310,-9.2350988247,-3.0269205889999995,-0.4701896409,353
65871,176890,223351,-9.2530449942,-3.0484559924,-0.6472585133,354
65952,176890,223344,-9.2315095908,-3.0532416376,-0.5395814963,355
66040,176887,223401,-9.176474671,-2.9060830476999997,-0.5455635528,356
66068,176937,223370,-9.236295236,-3.1034909122000003,-0.7381857721,357
66054,176881,223370,-9.0293160811,-3.1178478478000002,-0.4821537539,358
65995,176886,223367,-9.153742856300001,-3.1274191382,-0.6089733517,359
65956,176860,223365,-9.0592263636,-3.0424739359,-0.5754738353000001,360
65966,176885,223386,-9.1501536224,-3.11066938,-0.5910271822000001,361
66009,176882,223424,-9.200402897,-3.1477581302999997,-0.6556333924,362
66091,176903,223386,-9.2494557603,-3.0687949845,-0.6843472636,363
66161,176918,223461,-9.0652084201,-3.1513473642000003,-0.6687939167,364
66239,176966,223457,-9.233902413400001,-3.0556344602,-0.693918554,365
66289,176946,223456,-9.0915294687,-3.0903303879,-0.5802594805,366
66381,176979,223462,-9.0867438235,-3.2865418411,-0.7130611348,367
66427,176998,223494,-9.0855474122,-3.1920253483999996,-0.6987041992,368
66494,177003,223512,-9.121439751199999,-3.0879375653000003,-0.7010970218,369
66544,177029,223485,-9.2386880586,-3.1298119607999997,-0.5395814963,370
66590,177023,223459,-9.260223461999999,-3.1513473642000003,-0.6293123438,371
66606,176995,223450,-8.9886380969,-3.1022945009000003,-0.6747759731999999,372
66399,176882,223349,-9.0831545896,-3.1872397032,-0.5922235935,373
65985,176637,223264,-9.1465643885,-3.1298119607999997,-0.5886343596,374
65665,176698,223251,-9.096315113900001,-3.158525832,-0.6376872229,375
65578,176754,223271,-9.1058864043,-3.1860432919,-0.6891329087999999,376
65629,176773,223324,-9.1573320902,-3.1489545415999998,-0.7106683122,377
65691,176821,223344,-9.0831545896,-3.0281170003,-0.7226324252,378
65741,176833,223311,-9.1202433399,-3.1334011947,-0.6771687957999999,379
65795,176844,223382,-9.0281196698,-3.2733813167999997,-0.6077769404,380
65910,176875,223414,-8.9563349918,-3.2769705507,-0.7621139981,381
65973,176854,223421,-9.152546445,-3.170489945,-0.705882667,382
65973,176873,223382,-9.109475638200001,-3.098705267,-0.6029912952,383
65936,176863,223382,-9.273383986299999,-3.0999016782999997,-0.6652046827999999,384
65896,176815,223369,-9.128618219,-3.1286155494999996,-0.6580262149999999,385
65922,176855,223415,-9.1381895094,-3.0687949845,-0.5898307709,386
65983,176888,223439,-9.104689993,-3.1800612354,-0.6867400861999999,387
66091,176917,223403,-9.1250289851,-3.146561719,-0.6652046827999999,388
66168,176879,223434,-9.0723868879,-3.1489545415999998,-0.6604190376,389
66253,176966,223467,-9.0891366461,-3.1728827676,-0.6137589969,390
66313,176981,223481,-9.3332045513,-3.170489945,-0.5802594805,391
66400,176993,223474,-9.1393859207,-3.1848468806000003,-0.7322037156,392
66475,177020,223462,-9.1669033806,-3.1310083721,-0.6089733517,393
66537,177012,223457,-9.0053878551,-3.2111679291999997,-0.5276173833,394
66592,177056,223511,-9.1692962032,-3.1429724850999996,-0.6675975054,395
66653,177044,223466,-9.1956172518,-3.098705267,-0.7202396026000001,396
66659,177083,223518,-9.0293160811,-3.1082765574000004,-0.5563312545,397
66784,177098,223523,-9.0400837828,-3.2004002275,-0.6245266986,398
66697,177029,223427,-9.1106720495,-3.0424739359,-0.741775006,399
66331,176838,223354,-9.1022971704,-3.1226334930000004,-0.5395814963,400
65973,176664,223280,-9.272187575,-3.1142586138999997,-0.4402793584,401
65850,176791,223312,-9.0795653557,-3.2099715178999997,-0.5575276658,402
65899,176813,223346,-9.153742856300001,-3.1633114771999997,-0.5527420206,403
65991,176899,223385,-9.1609213241,-3.1764720014999996,-0.5168496816,404
66074,176889,223374,-9.0604227749,-3.1621150658999997,-0.6568298037,405
66152,176950,223413,-9.0879402348,-3.1082765574000004,-0.5371886737,406
66259,176953,223422,-9.0053878551,-3.1489545415999998,-0.6125625856,407
66310,176953,223462,-8.7326060787,-3.0819555088,-0.9284151688,408
66326,176947,223400,-8.7326060787,-3.0819555088,-0.9284151688,409
66293,176925,223402,-8.7326060787,-3.0819555088,-0.9284151688,410
66239,176925,223424,-8.7326060787,-3.0819555088,-0.9284151688,411
66244,176909,223426,-8.7326060787,-3.0819555088,-0.9284151688,412
66273,176921,223449,-8.7326060787,-3.0819555088,-0.9284151688,413
66332,176961,223450,-8.7326060787,-3.0819555088,-0.9284151688,414
66462,176994,223441,-8.7326060787,-3.0819555088,-0.9284151688,415
66552,177011,223479,-8.7326060787,-3.0819555088,-0.9284151688,416
66634,177051,223477,-8.7326060787,-3.0819555088,-0.9284151688,417
66720,177073,223506,-8.7326060787,-3.0819555088,-0.9284151688,418
66788,177063,223519,-8.7326060787,-3.0819555088,-0.9284151688,419
66865,177091,223545,-8.7326060787,-3.0819555088,-0.9284151688,420
66908,177094,223535,-8.7326060787,-3.0819555088,-0.9284151688,421
66978,177099,223544,-8.7326060787,-3.0819555088,-0.9284151688,422
67024,177121,223528,-8.7326060787,-3.0819555088,-0.9284151688,423
67084,177133,223534,-8.7326060787,-3.0819555088,-0.9284151688,424
67111,177143,223556,-8.7326060787,-3.0819555088,-0.9284151688,425
66947,176996,223432,-8.7326060787,-3.0819555088,-0.9284151688,426
66558,176861,223304,-8.7326060787,-3.0819555088,-0.9284151688,427
66180,176768,223248,-9.1393859207,-2.8761727652,-0.8362914987,428
66060,176778,223283,-9.1393859207,-2.8761727652,-0.8362914987,429
66059,176809,223276,-9.1393859207,-2.8761727652,-0.8362914987,430
66032,176778,223249,-9.1393859207,-2.8761727652,-0.8362914987,431
66072,176803,223237,-9.1393859207,-2.8761727652,-0.8362914987,432
66164,176958,223369,-9.1393859207,-2.8761727652,-0.8362914987,433
66349,177129,223490,-9.1393859207,-2.8761727652,-0.8362914987,434
66534,177187,223545,-9.1393859207,-2.8761727652,-0.8362914987,435
66574,177224,223641,-9.1393859207,-2.8761727652,-0.8362914987,436
66609,177356,223647,-9.1393859207,-2.8761727652,-0.8362914987,437
66645,177416,223724,-9.1393859207,-2.8761727652,-0.8362914987,438
66744,177471,223727,-9.1393859207,-2.8761727652,-0.8362914987,439
66885,177487,223791,-9.1393859207,-2.8761727652,-0.8362914987,440
67015,177479,223810,-9.1393859207,-2.8761727652,-0.8362914987,441
67090,177443,223741,-9.1393859207,-2.8761727652,-0.8362914987,442
67115,177406,223723,-9.1393859207,-2.8761727652,-0.8362914987,443
67193,177447,223731,-9.1393859207,-2.8761727652,-0.8362914987,444
67299,177489,223775,-9.1393859207,-2.8761727652,-0.8362914987,445
67378,177541,223805,-9.1393859207,-2.8761727652,-0.8362914987,446
67443,177568,223789,-9.1393859207,-2.8761727652,-0.8362914987,447
67498,177545,223783,-9.1393859207,-2.8761727652,-0.8362914987,448
67560,177528,223764,-9.1393859207,-2.8761727652,-0.8362914987,449
67558,177438,223711,-9.1393859207,-2.8761727652,-0.8362914987,450
67546,177380,223640,-9.1393859207,-2.8761727652,-0.8362914987,451
67535,177315,223584,-9.1393859207,-2.8761727652,-0.8362914987,452
67360,177196,223509,-9.1393859207,-2.8761727652,-0.8362914987,453
66966,177053,223366,-9.1393859207,-2.8761727652,-0.8362914987,454
66625,177017,223307,-9.1393859207,-2.8761727652,-0.8362914987,455
66502,177012,223332,-9.1393859207,-2.8761727652,-0.8362914987,456
66529,177072,223373,-9.1393859207,-2.8761727652,-0.8362914987,457
66630,177074,223427,-9.1393859207,-2.8761727652,-0.8362914987,458
66710,177126,223444,-9.1393859207,-2.8761727652,-0.8362914987,459
66888,177149,223481,-9.1393859207,-2.8749763539,-0.8518448456000001,460
66885,177119,223485,-9.1393859207,-2.8749763539,-0.8518448456000001,461
66814,177095,223429,-9.1393859207,-2.8749763539,-0.8518448456000001,462
66721,177054,223387,-9.1393859207,-2.8749763539,-0.8518448456000001,463
66664,177064,223440,-9.1393859207,-2.8749763539,-0.8518448456000001,464
66668,177064,223452,-9.1393859207,-2.8749763539,-0.8518448456000001,465
66721,177099,223493,-9.1393859207,-2.8749763539,-0.8518448456000001,466
66803,177126,223473,-9.1393859207,-2.8749763539,-0.8518448456000001,467
66852,177137,223484,-9.1393859207,-2.8749763539,-0.8518448456000001,468
66900,177127,223485,-9.1393859207,-2.8749763539,-0.8518448456000001,469
66939,177144,223510,-9.1393859207,-2.8749763539,-0.8518448456000001,470
66974,177151,223507,-9.1393859207,-2.8749763539,-0.8518448456000001,471
67019,177146,223491,-9.1393859207,-2.8749763539,-0.8518448456000001,472
67064,177162,223446,-9.1393859207,-2.8749763539,-0.8518448456000001,473
67105,177134,223458,-9.1393859207,-2.8749763539,-0.8518448456000001,474
67094,177159,223487,-9.1393859207,-2.8749763539,-0.8518448456000001,475
66907,177003,223381,-9.1393859207,-2.8749763539,-0.8518448456000001,476
66462,176862,223252,-9.1393859207,-2.8749763539,-0.8518448456000001,477
66115,176813,223224,-9.1393859207,-2.8749763539,-0.8518448456000001,478
65973,176827,223207,-9.1393859207,-2.8749763539,-0.8518448456000001,479
65980,176880,223271,-9.1393859207,-2.8749763539,-0.8518448456000001,480
66025,176895,223297,-9.1393859207,-2.8749763539,-0.8518448456000001,481
66066,176902,223299,-9.1393859207,-2.8749763539,-0.8518448456000001,482
66096,176904,223311,-9.1393859207,-2.8749763539,-0.8518448456000001,483
66165,176940,223319,-9.1393859207,-2.8749763539,-0.8518448456000001,484
66195,176953,223324,-9.1393859207,-2.8749763539,-0.8518448456000001,485
66183,176928,223334,-9.1393859207,-2.8749763539,-0.8518448456000001,486
66146,176922,223305,-9.1393859207,-2.8749763539,-0.8518448456000001,487
66148,176931,223320,-9.1393859207,-2.8749763539,-0.8518448456000001,488
66183,176985,223367,-9.1393859207,-2.8749763539,-0.8518448456000001,489
66267,177017,223394,-9.1393859207,-2.8749763539,-0.8518448456000001,490
66367,177034,223402,-9.1393859207,-2.8749763539,-0.8518448456000001,491
66446,177078,223449,-9.1393859207,-2.8749763539,-0.8518448456000001,492
66509,177081,223448,-9.1393859207,-2.8749763539,-0.8518448456000001,493
66584,177116,223437,-9.1393859207,-2.8749763539,-0.8518448456000001,494
66660,177105,223441,-9.1393859207,-2.8749763539,-0.8518448456000001,495
66711,177121,223449,-9.1393859207,-2.8749763539,-0.8518448456000001,496
66759,177141,223445,-9.1393859207,-2.8749763539,-0.8518448456000001,497
66795,177174,223477,-9.1393859207,-2.8749763539,-0.8518448456000001,498
66840,177145,223440,-9.1393859207,-2.8749763539,-0.8518448456000001,499
66865,177158,223433,-9.1393859207,-2.8749763539,-0.8518448456000001,500
66725,177048,223349,-9.1393859207,-2.8749763539,-0.8518448456000001,501
66146,177016,223317,-9.1011007591,-2.9838497821999996,-0.8757730716000001,502
66090,177005,223310,-9.1011007591,-2.9838497821999996,-0.8757730716000001,503
66027,177012,223335,-9.1011007591,-2.9838497821999996,-0.8757730716000001,504
66026,177012,223308,-9.1011007591,-2.9838497821999996,-0.8757730716000001,505
66084,177066,223352,-9.1011007591,-2.9838497821999996,-0.8757730716000001,506
66160,177095,223403,-9.1011007591,-2.9838497821999996,-0.8757730716000001,507
66245,177076,223394,-9.1011007591,-2.9838497821999996,-0.8757730716000001,508
66303,177108,223413,-9.1011007591,-2.9838497821999996,-0.8757730716000001,509
66372,177115,223407,-9.1011007591,-2.9838497821999996,-0.8757730716000001,510
66440,177143,223439,-9.1011007591,-2.9838497821999996,-0.8757730716000001,511
66496,177172,223434,-9.1011007591,-2.9838497821999996,-0.8757730716000001,512
66542,177161,223411,-9.1011007591,-2.9838497821999996,-0.8757730716000001,513
66600,177181,223443,-9.1011007591,-2.9838497821999996,-0.8757730716000001,514
66661,177180,223445,-9.1011007591,-2.9838497821999996,-0.8757730716000001,515
66695,177190,223475,-9.1011007591,-2.9838497821999996,-0.8757730716000001,516
66754,177198,223460,-9.1011007591,-2.9838497821999996,-0.8757730716000001,517
66811,177194,223466,-9.1011007591,-2.9838497821999996,-0.8757730716000001,518
66792,177178,223392,-9.1011007591,-2.9838497821999996,-0.8757730716000001,519
66483,176993,223280,-9.1011007591,-2.9838497821999996,-0.8757730716000001,520
66024,176896,223177,-9.1011007591,-2.9838497821999996,-0.8757730716000001,521
65773,176873,223184,-9.1011007591,-2.9838497821999996,-0.8757730716000001,522
65749,176935,223226,-9.1011007591,-2.9838497821999996,-0.8757730716000001,523
65831,176967,223251,-9.1011007591,-2.9838497821999996,-0.8757730716000001,524
65924,177010,223290,-9.1011007591,-2.9838497821999996,-0.8757730716000001,525
66004,176998,223345,-9.1011007591,-2.9838497821999996,-0.8757730716000001,526
66080,177060,223361,-9.1011007591,-2.9838497821999996,-0.8757730716000001,527
66178,177052,223346,-9.1011007591,-2.9838497821999996,-0.8757730716000001,528
66206,177031,223351,-9.1011007591,-2.9838497821999996,-0.8757730716000001,529
66168,177017,223323,-9.1011007591,-2.9838497821999996,-0.8757730716000001,530
66113,177000,223303,-9.1011007591,-2.9838497821999996,-0.8757730716000001,531
66089,177008,223330,-9.1011007591,-2.9838497821999996,-0.8757730716000001,532
66122,177028,223367,-9.1011007591,-2.9838497821999996,-0.8757730716000001,533
66190,177032,223345,-9.1011007591,-2.9838497821999996,-0.8757730716000001,534
66254,177109,223375,-9.1011007591,-2.9838497821999996,-0.8757730716000001,535
66330,177091,223387,-9.1011007591,-2.9838497821999996,-0.8757730716000001,536
66422,177113,223411,-9.1011007591,-2.9838497821999996,-0.8757730716000001,537
66468,177156,223407,-9.1011007591,-2.9838497821999996,-0.8757730716000001,538
66527,177147,223411,-9.1011007591,-2.9838497821999996,-0.8757730716000001,539
66597,177124,223444,-9.1011007591,-2.9838497821999996,-0.8757730716000001,540
66630,177136,223421,-9.1011007591,-2.9838497821999996,-0.8757730716000001,541
66680,177185,223382,-9.1011007591,-2.9838497821999996,-0.8757730716000001,542
66714,177187,223393,-9.1011007591,-2.9838497821999996,-0.8757730716000001,543
65942,176928,223208,-9.09272588,-2.9946174839,-0.8877371846000001,544
66049,176963,223241,-9.09272588,-2.9946174839,-0.8877371846000001,545
66137,176998,223289,-9.09272588,-2.9946174839,-0.8877371846000001,546
66223,177007,223300,-9.09272588,-2.9946174839,-0.8877371846000001,547
66244,176987,223294,-9.09272588,-2.9946174839,-0.8877371846000001,548
66181,176939,223240,-9.09272588,-2.9946174839,-0.8877371846000001,549
66102,176918,223243,-9.09272588,-2.9946174839,-0.8877371846000001,550
66053,176897,223243,-9.09272588,-2.9946174839,-0.8877371846000001,551
66055,176920,223299,-9.09272588,-2.9946174839,-0.8877371846000001,552
66107,176947,223293,-9.09272588,-2.9946174839,-0.8877371846000001,553
66182,176985,223327,-9.09272588,-2.9946174839,-0.8877371846000001,554
66258,176987,223314,-9.09272588,-2.9946174839,-0.8877371846000001,555
66327,176998,223278,-9.09272588,-2.9946174839,-0.8877371846000001,556
66381,177024,223380,-9.09272588,-2.9946174839,-0.8877371846000001,557
66421,177032,223337,-9.09272588,-2.9946174839,-0.8877371846000001,558
66462,177014,223328,-9.09272588,-2.9946174839,-0.8877371846000001,559
66514,177032,223324,-9.09272588,-2.9946174839,-0.8877371846000001,560
66541,177043,223337,-9.09272588,-2.9946174839,-0.8877371846000001,561
66601,177067,223316,-9.09272588,-2.9946174839,-0.8877371846000001,562
66638,177067,223352,-9.09272588,-2.9946174839,-0.8877371846000001,563
66590,177017,223258,-9.09272588,-2.9946174839,-0.8877371846000001,564
66295,176847,223172,-9.09272588,-2.9946174839,-0.8877371846000001,565
65863,176728,223077,-9.09272588,-2.9946174839,-0.8877371846000001,566
65613,176723,223083,-9.09272588,-2.9946174839,-0.8877371846000001,567
65554,176796,223117,-9.09272588,-2.9946174839,-0.8877371846000001,568
65608,176819,223199,-9.09272588,-2.9946174839,-0.8877371846000001,569
65698,176832,223216,-9.104689993,-2.9096722816000002,-0.8458627891,570
65763,176903,223262,-9.104689993,-2.9096722816000002,-0.8458627891,571
65847,176920,223269,-9.104689993,-2.9096722816000002,-0.8458627891,572
65915,176956,223254,-9.104689993,-2.9096722816000002,-0.8458627891,573
65916,176923,223266,-9.104689993,-2.9096722816000002,-0.8458627891,574
65874,176896,223253,-9.104689993,-2.9096722816000002,-0.8458627891,575
65812,176888,223200,-9.2159562439,-3.0113672421,-0.8327022648,576
65800,176888,223249,-9.2159562439,-3.0113672421,-0.8327022648,577
65832,176927,223241,-9.2159562439,-3.0113672421,-0.8327022648,578
65892,176954,223290,-9.2159562439,-3.0113672421,-0.8327022648,579
65966,176997,223304,-9.2159562439,-3.0113672421,-0.8327022648,580
66018,176996,223320,-9.2159562439,-3.0113672421,-0.8327022648,581
66099,177030,223351,-9.2159562439,-3.0113672421,-0.8327022648,582
66168,177007,223367,-9.2159562439,-3.0113672421,-0.8327022648,583
66234,177063,223376,-9.2159562439,-3.0113672421,-0.8327022648,584
66281,177096,223371,-9.2159562439,-3.0113672421,-0.8327022648,585
66331,177121,223347,-9.2159562439,-3.0113672421,-0.8327022648,586
66375,177093,223397,-9.2159562439,-3.0113672421,-0.8327022648,587
66405,177085,223416,-9.2159562439,-3.0113672421,-0.8327022648,588
66470,177112,223381,-9.2159562439,-3.0113672421,-0.8327022648,589
66489,177142,223422,-9.2159562439,-3.0113672421,-0.8327022648,590
66352,177009,223317,-9.2159562439,-3.0113672421,-0.8327022648,591
65926,176841,223130,-9.2159562439,-3.0113672421,-0.8327022648,592
65518,176752,223085,-9.2159562439,-3.0113672421,-0.8327022648,593
65345,176764,223134,-9.2159562439,-3.0113672421,-0.8327022648,594
65356,176821,223134,-9.2087777761,-2.9599215562,-0.8350950873999999,595
65423,176884,223235,-9.2087777761,-2.9599215562,-0.8350950873999999,596
65504,176888,223267,-9.2087777761,-2.9599215562,-0.8350950873999999,597
65576,176933,223291,-9.2087777761,-2.9599215562,-0.8350950873999999,598
65631,176956,223294,-9.2027957196,-2.9132615155,-0.8662017812,599
65721,176946,223337,-9.21236701,-3.1142586138999997,-0.8195417405,600
65710,176966,223309,-9.1298146303,-3.0077780082,-0.8638089586000001,601
65635,176940,223294,-9.0723868879,-2.9395825641,-0.8709874264,602
65596,176920,223269,-8.9910309195,-2.9347969189,-0.8374879099999999,603
65608,176850,223273,-9.044869428,-3.0329026454999997,-0.8757730716000001,604
65639,176941,223347,-9.1501536224,-2.9240292172,-0.9774680320999999,605
65711,176959,223302,-9.1573320902,-3.0723842184,-0.873380249,606
65814,177007,223348,-9.2171526552,-3.0520452262999997,-0.873380249,607
65872,177011,223368,-9.175278259699999,-2.9288148624,-0.7585247642,608
65926,177074,223393,-9.1238325738,-3.038884702,-0.8685946038000001,609
66003,177083,223375,-9.1202433399,-2.9599215562,-0.9176474671,610
66060,177074,223422,-9.0245304359,-2.9982067177999996,-0.8279166196,611
66123,177096,223403,-9.1417787433,-3.1501509529,-0.9391828704999999,612
66183,177104,223441,-9.2171526552,-2.9048866364,-0.8685946038000001,613
66246,177145,223400,-9.1357966868,-3.0197421212,-0.7860422241,614
66295,177106,223420,-9.2315095908,-2.9300112737000004,-0.7872386353999999,615
66340,177138,223445,-9.1417787433,-2.9072794589999997,-0.8829515394,616
66401,177127,223441,-9.0987079365,-2.8689942974,-0.9140582332,617
66454,177164,223480,-9.0987079365,-2.8689942974,-0.9140582332,618
66416,177103,223375,-9.0987079365,-2.8689942974,-0.9140582332,619
66094,176930,223301,-9.0987079365,-2.8689942974,-0.9140582332,620
65609,176777,223149,-9.0987079365,-2.8689942974,-0.9140582332,621
65352,176764,223145,-9.0987079365,-2.8689942974,-0.9140582332,622
65325,176826,223214,-9.0987079365,-2.8689942974,-0.9140582332,623
65404,176885,223247,-9.0987079365,-2.8689942974,-0.9140582332,624
65505,176890,223355,-9.0987079365,-2.8689942974,-0.9140582332,625
65564,176933,223342,-9.0987079365,-2.8689942974,-0.9140582332,626
65672,176939,223344,-9.0987079365,-2.8689942974,-0.9140582332,627
65746,176966,223353,-9.0987079365,-2.8689942974,-0.9140582332,628
65752,176943,223357,-9.0987079365,-2.8689942974,-0.9140582332,629
65695,176927,223338,-9.0987079365,-2.8689942974,-0.9140582332,630
65620,176902,223314,-9.0987079365,-2.8689942974,-0.9140582332,631
65596,176899,223303,-9.0987079365,-2.8689942974,-0.9140582332,632
65613,176909,223349,-9.0987079365,-2.8689942974,-0.9140582332,633
65667,176936,223351,-9.0987079365,-2.8689942974,-0.9140582332,634
65738,176945,223359,-9.0987079365,-2.8689942974,-0.9140582332,635
65806,176964,223372,-9.0987079365,-2.8689942974,-0.9140582332,636
65864,176984,223350,-9.0987079365,-2.8689942974,-0.9140582332,637
65933,177009,223385,-9.0987079365,-2.8689942974,-0.9140582332,638
65987,177010,223386,-9.0987079365,-2.8689942974,-0.9140582332,639
66021,177019,223399,-9.0987079365,-2.8689942974,-0.9140582332,640
66062,177026,223348,-9.0987079365,-2.8689942974,-0.9140582332,641
66115,177023,223416,-9.0987079365,-2.8689942974,-0.9140582332,642
66135,177041,223397,-9.0987079365,-2.8689942974,-0.9140582332,643
66187,177042,223398,-9.0987079365,-2.8689942974,-0.9140582332,644
66228,177061,223373,-9.0987079365,-2.8689942974,-0.9140582332,645
66246,177053,223401,-9.1238325738,-2.9563323222999998,-0.8805587168,646
66288,177051,223400,-9.1238325738,-2.9563323222999998,-0.8805587168,647
66199,176958,223256,-9.1238325738,-2.9563323222999998,-0.8805587168,648
65804,176789,223169,-9.1238325738,-2.9563323222999998,-0.8805587168,649
65382,176672,223104,-9.1238325738,-2.9563323222999998,-0.8805587168,650
65201,176688,223104,-9.1238325738,-2.9563323222999998,-0.8805587168,651
65200,176709,223128,-9.1238325738,-2.9563323222999998,-0.8805587168,652
65281,176772,223154,-9.1238325738,-2.9563323222999998,-0.8805587168,653
65348,176792,223185,-9.1238325738,-2.9563323222999998,-0.8805587168,654
65439,176821,223218,-9.1238325738,-2.9563323222999998,-0.8805587168,655
65547,176858,223247,-9.1238325738,-2.9563323222999998,-0.8805587168,656
65586,176838,223248,-9.1238325738,-2.9563323222999998,-0.8805587168,657
65550,176827,223224,-9.1238325738,-2.9563323222999998,-0.8805587168,658
65486,176780,223180,-9.1238325738,-2.9563323222999998,-0.8805587168,659
65440,176775,223209,-9.1238325738,-2.9563323222999998,-0.8805587168,660
65443,176778,223178,-9.1238325738,-2.9563323222999998,-0.8805587168,661
65469,176816,223226,-9.1238325738,-2.9563323222999998,-0.8805587168,662
65524,176851,223205,-9.1238325738,-2.9563323222999998,-0.8805587168,663
65608,176872,223249,-9.1238325738,-2.9563323222999998,-0.8805587168,664
65680,176885,223243,-9.1238325738,-2.9563323222999998,-0.8805587168,665
65733,176879,223277,-9.1238325738,-2.9563323222999998,-0.8805587168,666
65789,176920,223251,-9.1238325738,-2.9563323222999998,-0.8805587168,667
65851,176938,223301,-9.1238325738,-2.9563323222999998,-0.8805587168,668
65917,176952,223307,-9.1238325738,-2.9563323222999998,-0.8805587168,669
65969,176987,223330,-9.1238325738,-2.9563323222999998,-0.8805587168,670
66021,176979,223323,-9.1238325738,-2.9563323222999998,-0.8805587168,671
66076,176991,223322,-9.1238325738,-2.9563323222999998,-0.8805587168,672
66113,177005,223343,-9.1238325738,-2.9563323222999998,-0.8805587168,673
66081,176952,223299,-9.1238325738,-2.9563323222999998,-0.8805587168,674
65753,176784,223128,-9.1238325738,-2.9563323222999998,-0.8805587168,675
65289,176654,222970,-9.1238325738,-2.9563323222999998,-0.8805587168,676
64990,176602,223015,-9.1238325738,-2.9563323222999998,-0.8805587168,677
64937,176680,223090,-9.1872423727,-2.9300112737000004,-0.8147560952999999,678
64985,176717,223077,-9.1872423727,-2.9300112737000004,-0.8147560952999999,679
65039,176724,223095,-9.1872423727,-2.9300112737000004,-0.8147560952999999,680
65116,176755,223106,-9.1872423727,-2.9300112737000004,-0.8147560952999999,681
65184,176774,223176,-9.1872423727,-2.9300112737000004,-0.8147560952999999,682
65261,176805,223216,-9.1872423727,-2.9300112737000004,-0.8147560952999999,683
65297,176819,223153,-9.1872423727,-2.9300112737000004,-0.8147560952999999,684
65239,176773,223157,-9.1872423727,-2.9300112737000004,-0.8147560952999999,685
65165,176781,223105,-9.1872423727,-2.9300112737000004,-0.8147560952999999,686
65130,176766,223156,-9.1872423727,-2.9300112737000004,-0.8147560952999999,687
65141,176792,223123,-9.1872423727,-2.9300112737000004,-0.8147560952999999,688
65198,176828,223142,-9.1872423727,-2.9300112737000004,-0.8147560952999999,689
65274,176871,223210,-9.1872423727,-2.9300112737000004,-0.8147560952999999,690
65352,176877,223184,-9.1872423727,-2.9300112737000004,-0.8147560952999999,691
65426,176898,223198,-9.1872423727,-2.9300112737000004,-0.8147560952999999,692
65489,176944,223218,-9.1872423727,-2.9300112737000004,-0.8147560952999999,693
65548,176941,223249,-9.1872423727,-2.9300112737000004,-0.8147560952999999,694
65609,176966,223244,-9.1872423727,-2.9300112737000004,-0.8147560952999999,695
65676,176983,223230,-9.1872423727,-2.9300112737000004,-0.8147560952999999,696
65718,176962,223219,-9.1872423727,-2.9300112737000004,-0.8147560952999999,697
65765,177012,223281,-9.1872423727,-2.9300112737000004,-0.8147560952999999,698
65801,177013,223224,-9.1872423727,-2.9300112737000004,-0.8147560952999999,699
65861,177023,223230,-9.1872423727,-2.9300112737000004,-0.8147560952999999,700
65901,177010,223252,-9.1872423727,-2.9300112737000004,-0.8147560952999999,701
65865,176961,223174,-9.1872423727,-2.9300112737000004,-0.8147560952999999,702
65496,176800,223059,-9.1872423727,-2.9300112737000004,-0.8147560952999999,703
64988,176671,222909,-9.1872423727,-2.9300112737000004,-0.8147560952999999,704
64719,176608,222935,-9.1872423727,-2.9300112737000004,-0.8147560952999999,705
64694,176680,222971,-9.1872423727,-2.9300112737000004,-0.8147560952999999,706
64766,176728,223026,-9.1872423727,-2.9300112737000004,-0.8147560952999999,707
64836,176748,223039,-9.1872423727,-2.9300112737000004,-0.8147560952999999,708
64909,176767,223060,-9.1872423727,-2.9300112737000004,-0.8147560952999999,709
65018,176806,223106,-9.1872423727,-2.9300112737000004,-0.8147560952999999,710
65101,176838,223099,-9.1872423727,-2.9300112737000004,-0.8147560952999999,711
65123,176810,223111,-9.1872423727,-2.9300112737000004,-0.8147560952999999,712
65082,176796,223091,-9.1872423727,-2.9300112737000004,-0.8147560952999999,713
65029,176778,223076,-9.1872423727,-2.9300112737000004,-0.8147560952999999,714
65005,176741,223090,-9.1872423727,-2.9300112737000004,-0.8147560952999999,715
65050,176816,223055,-9.1872423727,-2.9300112737000004,-0.8147560952999999,716
65128,176864,223101,-9.1872423727,-2.9300112737000004,-0.8147560952999999,717
65224,176874,223118,-9.1872423727,-2.9300112737000004,-0.8147560952999999,718
65310,176891,223145,-9.1872423727,-2.9300112737000004,-0.8147560952999999,719
66017,177053,223248,-9.2518485829,-2.9754749031,-0.9762716208,720
66055,177059,223221,-9.2518485829,-2.9754749031,-0.9762716208,721
65913,176920,223068,-9.2518485829,-2.9754749031,-0.9762716208,722
65481,176764,222962,-9.2518485829,-2.9754749031,-0.9762716208,723
65066,176687,222914,-9.2518485829,-2.9754749031,-0.9762716208,724
64959,176704,222933,-9.2518485829,-2.9754749031,-0.9762716208,725
65007,176706,222971,-9.2518485829,-2.9754749031,-0.9762716208,726
65100,176766,223051,-9.2518485829,-2.9754749031,-0.9762716208,727
65196,176809,223069,-9.2518485829,-2.9754749031,-0.9762716208,728
65297,176806,223095,-9.2518485829,-2.9754749031,-0.9762716208,729
65404,176866,223106,-9.2518485829,-2.9754749031,-0.9762716208,730
65455,176845,223095,-9.2518485829,-2.9754749031,-0.9762716208,731
65455,176833,223116,-9.2518485829,-2.9754749031,-0.9762716208,732
65394,176785,223073,-9.2518485829,-2.9754749031,-0.9762716208,733
65341,176766,223117,-9.2518485829,-2.9754749031,-0.9762716208,734
65329,176807,223082,-9.2518485829,-2.9754749031,-0.9762716208,735
65365,176803,223131,-9.2518485829,-2.9754749031,-0.9762716208,736
65466,176835,223118,-9.2518485829,-2.9754749031,-0.9762716208,737
65545,176852,223135,-9.2518485829,-2.9754749031,-0.9762716208,738
65628,176844,223205,-9.2518485829,-2.9754749031,-0.9762716208,739
65700,176878,223166,-9.2518485829,-2.9754749031,-0.9762716208,740
65745,176923,223176,-9.2518485829,-2.9754749031,-0.9762716208,741
65805,176938,223209,-9.2518485829,-2.9754749031,-0.9762716208,742
65857,176891,223192,-9.2518485829,-2.9754749031,-0.9762716208,743
65925,176934,223173,-9.2518485829,-2.9754749031,-0.9762716208,744
65959,176908,223187,-9.2518485829,-2.9754749031,-0.9762716208,745
66004,176913,223207,-9.2518485829,-2.9754749031,-0.9762716208,746
66038,176948,223198,-9.2518485829,-2.9754749031,-0.9762716208,747
66093,176935,223178,-9.2518485829,-2.9754749031,-0.9762716208,748
66142,176950,223216,-9.2518485829,-2.9754749031,-0.9762716208,749
66130,176922,223158,-9.2518485829,-2.9754749031,-0.9762716208,750
65890,176744,223006,-9.2518485829,-2.9754749031,-0.9762716208,751
65442,176586,222964,-9.162117735399999,-3.0077780082,-0.9140582332,752
65132,176564,222916,-9.162117735399999,-3.0077780082,-0.9140582332,753
65097,176586,222914,-9.162117735399999,-3.0077780082,-0.9140582332,754
65151,176623,222965,-9.162117735399999,-3.0077780082,-0.9140582332,755
65237,176661,223050,-9.162117735399999,-3.0077780082,-0.9140582332,756
65349,176704,223032,-9.162117735399999,-3.0077780082,-0.9140582332,757
65454,176719,223089,-9.162117735399999,-3.0077780082,-0.9140582332,758
65546,176731,223057,-9.162117735399999,-3.0077780082,-0.9140582332,759
65566,176726,223113,-9.162117735399999,-3.0077780082,-0.9140582332,760
65527,176691,223039,-9.162117735399999,-3.0077780082,-0.9140582332,761
65468,176643,223032,-9.162117735399999,-3.0077780082,-0.9140582332,762
65438,176669,223024,-9.162117735399999,-3.0077780082,-0.9140582332,763
65471,176652,223093,-9.162117735399999,-3.0077780082,-0.9140582332,764
65521,176719,223085,-9.162117735399999,-3.0077780082,-0.9140582332,765
65618,176733,223091,-9.162117735399999,-3.0077780082,-0.9140582332,766
65694,176771,223131,-9.162117735399999,-3.0077780082,-0.9140582332,767
65769,176796,223150,-9.162117735399999,-3.0077780082,-0.9140582332,768
65852,176791,223135,-9.162117735399999,-3.0077780082,-0.9140582332,769
65931,176857,223181,-9.162117735399999,-3.0077780082,-0.9140582332,770
65967,176833,223187,-9.162117735399999,-3.0077780082,-0.9140582332,771
66046,176879,223208,-9.162117735399999,-3.0077780082,-0.9140582332,772
66104,176879,223197,-9.162117735399999,-3.0077780082,-0.9140582332,773
66172,176899,223206,-9.162117735399999,-3.0077780082,-0.9140582332,774
66225,176868,223231,-9.162117735399999,-3.0077780082,-0.9140582332,775
66221,176828,223161,-9.162117735399999,-3.0077780082,-0.9140582332,776
65947,176696,223054,-9.162117735399999,-3.0077780082,-0.9140582332,777
65477,176552,222921,-9.162117735399999,-3.0077780082,-0.9140582332,778
65173,176500,222942,-9.162117735399999,-3.0077780082,-0.9140582332,779
65097,176544,222954,-9.162117735399999,-3.0077780082,-0.9140582332,780
65132,176597,222971,-9.162117735399999,-3.0077780082,-0.9140582332,781
65209,176615,223023,-9.162117735399999,-3.0077780082,-0.9140582332,782
65288,176622,223059,-9.162117735399999,-3.0077780082,-0.9140582332,783
65373,176667,223092,-9.162117735399999,-3.0077780082,-0.9140582332,784
65465,176693,223106,-9.162117735399999,-3.0077780082,-0.9140582332,785
65512,176687,223111,-9.162117735399999,-3.0077780082,-0.9140582332,786
65488,176686,223107,-9.162117735399999,-3.0077780082,-0.9140582332,787
65423,176646,223104,-9.162117735399999,-3.0077780082,-0.9140582332,788
65385,176662,223100,-9.162117735399999,-3.0077780082,-0.9140582332,789
65406,176632,223118,-9.162117735399999,-3.0077780082,-0.9140582332,790
65459,176692,223147,-9.162117735399999,-3.0077780082,-0.9140582332,791
65560,176735,223136,-9.162117735399999,-3.0077780082,-0.9140582332,792
65633,176753,223213,-9.162117735399999,-3.0077780082,-0.9140582332,793
65851,176826,223238,-9.2458665264,-2.9862426048,-0.8374879099999999,794
65906,176855,223237,-9.2458665264,-2.9862426048,-0.8374879099999999,795
65978,176852,223228,-9.2458665264,-2.9862426048,-0.8374879099999999,796
66035,176854,223246,-9.2458665264,-2.9862426048,-0.8374879099999999,797
66087,176850,223237,-9.2458665264,-2.9862426048,-0.8374879099999999,798
66148,176875,223286,-9.2458665264,-2.9862426048,-0.8374879099999999,799
66191,176892,223275,-9.2458665264,-2.9862426048,-0.8374879099999999,800
66241,176888,223262,-9.2458665264,-2.9862426048,-0.8374879099999999,801
66269,176885,223263,-9.2458665264,-2.9862426048,-0.8374879099999999,802
66078,176719,223162,-9.2458665264,-2.9862426048,-0.8374879099999999,803
65583,176573,223023,-9.2458665264,-2.9862426048,-0.8374879099999999,804
65153,176498,222984,-9.2458665264,-2.9862426048,-0.8374879099999999,805
65006,176486,223014,-9.2458665264,-2.9862426048,-0.8374879099999999,806
65022,176555,223065,-9.2458665264,-2.9862426048,-0.8374879099999999,807
65105,176582,223065,-9.2458665264,-2.9862426048,-0.8374879099999999,808
65180,176587,223157,-9.2458665264,-2.9862426048,-0.8374879099999999,809
65275,176662,223150,-9.2458665264,-2.9862426048,-0.8374879099999999,810
65369,176673,223186,-9.2458665264,-2.9862426048,-0.8374879099999999,811
65427,176672,223179,-9.2458665264,-2.9862426048,-0.8374879099999999,812
65430,176680,223149,-9.2458665264,-2.9862426048,-0.8374879099999999,813
65341,176621,223161,-9.2458665264,-2.9862426048,-0.8374879099999999,814
65285,176605,223137,-9.2458665264,-2.9862426048,-0.8374879099999999,815
65299,176645,223183,-9.2458665264,-2.9862426048,-0.8374879099999999,816
65338,176676,223184,-9.2458665264,-2.9862426048,-0.8374879099999999,817
65406,176699,223229,-9.2458665264,-2.9862426048,-0.8374879099999999,818
65481,176749,223264,-9.2458665264,-2.9862426048,-0.8374879099999999,819
65569,176754,223282,-9.2458665264,-2.9862426048,-0.8374879099999999,820
65629,176793,223287,-9.2458665264,-2.9862426048,-0.8374879099999999,821
65682,176807,223255,-9.2458665264,-2.9862426048,-0.8374879099999999,822
65740,176821,223347,-9.2458665264,-2.9862426048,-0.8374879099999999,823
65813,176825,223284,-9.2458665264,-2.9862426048,-0.8374879099999999,824
65853,176842,223309,-9.2458665264,-2.9862426048,-0.8374879099999999,825
65901,176844,223355,-9.2458665264,-2.9862426048,-0.8374879099999999,826
65952,176890,223337,-9.2458665264,-2.9862426048,-0.8374879099999999,827
65998,176873,223303,-9.2458665264,-2.9862426048,-0.8374879099999999,828
66053,176891,223355,-9.2458665264,-2.9862426048,-0.8374879099999999,829
66105,176918,223357,-9.2458665264,-2.9862426048,-0.8374879099999999,830
66118,176893,223324,-9.2458665264,-2.9862426048,-0.8374879099999999,831
65912,176736,223201,-9.2458665264,-2.9862426048,-0.8374879099999999,832
65409,176538,223100,-9.2458665264,-2.9862426048,-0.8374879099999999,833
65017,176516,223062,-9.2458665264,-2.9862426048,-0.8374879099999999,834
64898,176508,223079,-9.2458665264,-2.9862426048,-0.8374879099999999,835
65140,176550,223211,-9.1740818484,-2.9479574432,-0.9320044027,836
65089,176492,223192,-9.1740818484,-2.9479574432,-0.9320044027,837
65050,176508,223201,-9.1740818484,-2.9479574432,-0.9320044027,838
65093,176539,223211,-9.1740818484,-2.9479574432,-0.9320044027,839
65154,176531,223221,-9.1740818484,-2.9479574432,-0.9320044027,840
65224,176567,223233,-9.1740818484,-2.9479574432,-0.9320044027,841
65299,176625,223278,-9.1740818484,-2.9479574432,-0.9320044027,842
65363,176626,223293,-9.1740818484,-2.9479574432,-0.9320044027,843
65447,176659,223335,-9.1740818484,-2.9479574432,-0.9320044027,844
65529,176656,223325,-9.1740818484,-2.9479574432,-0.9320044027,845
65548,176662,223324,-9.1740818484,-2.9479574432,-0.9320044027,846
65636,176688,223316,-9.1740818484,-2.9479574432,-0.9320044027,847
65679,176735,223394,-9.1740818484,-2.9479574432,-0.9320044027,848
65743,176711,223335,-9.1740818484,-2.9479574432,-0.9320044027,849
65683,176656,223293,-9.1740818484,-2.9479574432,-0.9320044027,850
65316,176472,223130,-9.1740818484,-2.9479574432,-0.9320044027,851
64851,176355,223037,-9.1740818484,-2.9479574432,-0.9320044027,852
64622,176334,223048,-9.1740818484,-2.9479574432,-0.9320044027,853
64591,176351,223091,-9.1740818484,-2.9479574432,-0.9320044027,854
64634,176415,223175,-9.1740818484,-2.9479574432,-0.9320044027,855
64719,176412,223119,-9.1740818484,-2.9479574432,-0.9320044027,856
64813,176460,223220,-9.1740818484,-2.9479574432,-0.9320044027,857
64913,176519,223207,-9.1740818484,-2.9479574432,-0.9320044027,858
64999,176521,223256,-9.1740818484,-2.9479574432,-0.9320044027,859
65041,176493,223225,-9.1740818484,-2.9479574432,-0.9320044027,860
64990,176487,223203,-9.1740818484,-2.9479574432,-0.9320044027,861
64955,176464,223205,-9.1740818484,-2.9479574432,-0.9320044027,862
64916,176476,223211,-9.1740818484,-2.9479574432,-0.9320044027,863
64969,176488,223235,-9.1740818484,-2.9479574432,-0.9320044027,864
65038,176503,223238,-9.1740818484,-2.9479574432,-0.9320044027,865
65122,176545,223302,-9.1740818484,-2.9479574432,-0.9320044027,866
65206,176584,223282,-9.1740818484,-2.9479574432,-0.9320044027,867
65273,176627,223377,-9.3032942688,-3.0747770410000004,-0.7764709337,868
65348,176617,223328,-9.3032942688,-3.0747770410000004,-0.7764709337,869
65427,176631,223334,-9.3032942688,-3.0747770410000004,-0.7764709337,870
65496,176643,223395,-9.3032942688,-3.0747770410000004,-0.7764709337,871
65532,176683,223378,-9.3032942688,-3.0747770410000004,-0.7764709337,872
65593,176697,223357,-9.3032942688,-3.0747770410000004,-0.7764709337,873
65623,176703,223342,-9.1692962032,-3.0185457098999997,-0.777667345,874
65693,176717,223366,-9.1692962032,-3.0185457098999997,-0.777667345,875
65670,176637,223317,-9.1692962032,-3.0185457098999997,-0.777667345,876
65362,176465,223174,-9.1692962032,-3.0185457098999997,-0.777667345,877
64883,176335,223063,-9.1692962032,-3.0185457098999997,-0.777667345,878
64587,176306,223086,-9.1692962032,-3.0185457098999997,-0.777667345,879
64526,176318,223138,-9.1692962032,-3.0185457098999997,-0.777667345,880
64582,176364,223142,-9.1692962032,-3.0185457098999997,-0.777667345,881
64678,176409,223193,-9.1692962032,-3.0185457098999997,-0.777667345,882
64752,176439,223226,-9.1692962032,-3.0185457098999997,-0.777667345,883
64850,176467,223241,-9.1692962032,-3.0185457098999997,-0.777667345,884
64954,176502,223254,-9.1692962032,-3.0185457098999997,-0.777667345,885
64992,176486,223270,-9.1692962032,-3.0185457098999997,-0.777667345,886
64961,176431,223224,-9.1692962032,-3.0185457098999997,-0.777667345,887
64888,176453,223221,-9.1692962032,-3.0185457098999997,-0.777667345,888
64881,176408,223250,-9.1692962032,-3.0185457098999997,-0.777667345,889
64909,176454,223271,-9.1692962032,-3.0185457098999997,-0.777667345,890
64980,176499,223290,-9.1692962032,-3.0185457098999997,-0.777667345,891
65073,176527,223329,-9.1692962032,-3.0185457098999997,-0.777667345,892
65156,176575,223316,-9.1692962032,-3.0185457098999997,-0.777667345,893
65225,176592,223355,-9.1692962032,-3.0185457098999997,-0.777667345,894
65293,176579,223349,-9.1692962032,-3.0185457098999997,-0.777667345,895
65368,176622,223351,-9.1692962032,-3.0185457098999997,-0.777667345,896
65435,176639,223397,-9.1692962032,-3.0185457098999997,-0.777667345,897
65483,176629,223393,-9.1692962032,-3.0185457098999997,-0.777667345,898
65538,176677,223385,-9.1692962032,-3.0185457098999997,-0.777667345,899
65583,176650,223398,-9.1692962032,-3.0185457098999997,-0.777667345,900
65631,176663,223410,-9.1692962032,-3.0185457098999997,-0.777667345,901
65691,176670,223405,-9.1692962032,-3.0185457098999997,-0.777667345,902
65689,176631,223374,-9.1692962032,-3.0185457098999997,-0.777667345,903
65394,176469,223252,-9.1692962032,-3.0185457098999997,-0.777667345,904
64922,176306,223116,-9.1692962032,-3.0185457098999997,-0.777667345,905
64619,176283,223078,-9.1692962032,-3.0185457098999997,-0.777667345,906
64571,176307,223158,-9.1692962032,-3.0185457098999997,-0.777667345,907
64638,176387,223223,-9.1692962032,-3.0185457098999997,-0.777667345,908
64734,176356,223232,-9.1692962032,-3.0185457098999997,-0.777667345,909
64801,176423,223313,-9.1692962032,-3.0185457098999997,-0.777667345,910
64912,176457,223321,-9.1692962032,-3.0185457098999997,-0.777667345,911
65016,176505,223320,-9.1692962032,-3.0185457098999997,-0.777667345,912
65044,176476,223326,-9.2219383004,-2.9204399833,-0.8362914987,913
64987,176423,223243,-9.2219383004,-2.9204399833,-0.8362914987,914
64924,176410,223286,-9.2219383004,-2.9204399833,-0.8362914987,915
64906,176428,223276,-9.2219383004,-2.9204399833,-0.8362914987,916
64934,176464,223298,-9.2219383004,-2.9204399833,-0.8362914987,917
64992,176468,223336,-9.2219383004,-2.9204399833,-0.8362914987,918
65073,176487,223342,-9.2219383004,-2.9204399833,-0.8362914987,919
65162,176532,223359,-9.176474671,-2.9048866364,-0.7860422241,920
65225,176542,223395,-9.176474671,-2.9048866364,-0.7860422241,921
65275,176556,223403,-9.164510558,-3.0532416376,-0.9032905315,922
65350,176592,223393,-9.1932244292,-2.9336005076,-0.8243273857,923
65397,176568,223411,-9.0903330574,-2.9359933301999996,-0.8769694829,924
65440,176587,223411,-9.3068835027,-3.0029923629999997,-0.7716852885,925
65480,176579,223443,-9.3068835027,-3.0029923629999997,-0.7716852885,926
65506,176603,223438,-9.3068835027,-3.0029923629999997,-0.7716852885,927
65569,176581,223432,-9.3068835027,-3.0029923629999997,-0.7716852885,928
65590,176596,223435,-9.3068835027,-3.0029923629999997,-0.7716852885,929
65628,176594,223431,-9.3068835027,-3.0029923629999997,-0.7716852885,930
65561,176532,223389,-9.3068835027,-3.0029923629999997,-0.7716852885,931
65205,176343,223255,-9.3068835027,-3.0029923629999997,-0.7716852885,932
64765,176225,223143,-9.3068835027,-3.0029923629999997,-0.7716852885,933
64533,176239,223149,-9.3068835027,-3.0029923629999997,-0.7716852885,934
64517,176274,223221,-9.3068835027,-3.0029923629999997,-0.7716852885,935
64590,176337,223216,-9.3068835027,-3.0029923629999997,-0.7716852885,936
64671,176322,223283,-9.3068835027,-3.0029923629999997,-0.7716852885,937
64753,176374,223317,-9.3068835027,-3.0029923629999997,-0.7716852885,938
64869,176380,223332,-9.3068835027,-3.0029923629999997,-0.7716852885,939
64915,176416,223353,-9.3068835027,-3.0029923629999997,-0.7716852885,940
64917,176389,223332,-9.3068835027,-3.0029923629999997,-0.7716852885,941
64842,176334,223294,-9.3068835027,-3.0029923629999997,-0.7716852885,942
64808,176357,223286,-9.3068835027,-3.0029923629999997,-0.7716852885,943
64804,176389,223307,-9.3068835027,-3.0029923629999997,-0.7716852885,944
64858,176383,223307,-9.3068835027,-3.0029923629999997,-0.7716852885,945
64943,176393,223371,-9.3068835027,-3.0029923629999997,-0.7716852885,946
65022,176420,223413,-9.3068835027,-3.0029923629999997,-0.7716852885,947
65094,176477,223415,-9.3068835027,-3.0029923629999997,-0.7716852885,948
65169,176505,223425,-9.3068835027,-3.0029923629999997,-0.7716852885,949
65241,176514,223419,-9.3068835027,-3.0029923629999997,-0.7716852885,950
65315,176521,223451,-9.3068835027,-3.0029923629999997,-0.7716852885,951
65375,176526,223451,-9.3068835027,-3.0029923629999997,-0.7716852885,952
65431,176571,223425,-9.3068835027,-3.0029923629999997,-0.7716852885,953
65480,176563,223457,-9.3068835027,-3.0029923629999997,-0.7716852885,954
65530,176572,223476,-9.3068835027,-3.0029923629999997,-0.7716852885,955
65587,176569,223499,-9.3068835027,-3.0029923629999997,-0.7716852885,956
65615,176593,223516,-9.3068835027,-3.0029923629999997,-0.7716852885,957
65515,176453,223418,-9.3068835027,-3.0029923629999997,-0.7716852885,958
65055,176305,223276,-9.3068835027,-3.0029923629999997,-0.7716852885,959
64581,176193,223234,-9.3068835027,-3.0029923629999997,-0.7716852885,960
64394,176218,223212,-9.3068835027,-3.0029923629999997,-0.7716852885,961
64401,176239,223289,-9.3068835027,-3.0029923629999997,-0.7716852885,962
64465,176266,223314,-9.3068835027,-3.0029923629999997,-0.7716852885,963
64548,176283,223375,-9.3068835027,-3.0029923629999997,-0.7716852885,964
64621,176345,223377,-9.3068835027,-3.0029923629999997,-0.7716852885,965
64733,176364,223399,-9.3068835027,-3.0029923629999997,-0.7716852885,966
64733,176330,223427,-9.1597249128,-3.0759734523,-0.849452023,967
64771,176396,223450,-9.1597249128,-3.0759734523,-0.849452023,968
64850,176411,223497,-9.1597249128,-3.0759734523,-0.849452023,969
64944,176431,223524,-9.1597249128,-3.0759734523,-0.849452023,970
65029,176471,223503,-9.1597249128,-3.0759734523,-0.849452023,971
65107,176462,223558,-9.1597249128,-3.0759734523,-0.849452023,972
65187,176505,223587,-9.1597249128,-3.0759734523,-0.849452023,973
65258,176539,223588,-9.1597249128,-3.0759734523,-0.849452023,974
65309,176519,223603,-9.1597249128,-3.0759734523,-0.849452023,975
65361,176559,223576,-9.1597249128,-3.0759734523,-0.849452023,976
65442,176560,223649,-9.1597249128,-3.0759734523,-0.849452023,977
65495,176564,223627,-9.1597249128,-3.0759734523,-0.849452023,978
65535,176559,223612,-9.1597249128,-3.0759734523,-0.849452023,979
65596,176572,223693,-9.1597249128,-3.0759734523,-0.849452023,980
65640,176580,223677,-9.1597249128,-3.0759734523,-0.849452023,981
65696,176602,223649,-9.1597249128,-3.0759734523,-0.849452023,982
65587,176483,223567,-9.1597249128,-3.0759734523,-0.849452023,983
65139,176319,223429,-9.1597249128,-3.0759734523,-0.849452023,984
64650,176187,223355,-9.1597249128,-3.0759734523,-0.849452023,985
64441,176201,223357,-9.1597249128,-3.0759734523,-0.849452023,986
64440,176251,223367,-9.1597249128,-3.0759734523,-0.849452023,987
64527,176288,223465,-9.1597249128,-3.0759734523,-0.849452023,988
64587,176330,223478,-9.1597249128,-3.0759734523,-0.849452023,989
64678,176355,223501,-9.1597249128,-3.0759734523,-0.849452023,990
64795,176377,223557,-9.1597249128,-3.0759734523,-0.849452023,991
64879,176393,223563,-9.1202433399,-3.0065815969000003,-0.7956135145,992
64898,176364,223547,-9.1202433399,-3.0065815969000003,-0.7956135145,993
64858,176347,223538,-9.1202433399,-3.0065815969000003,-0.7956135145,994
64787,176375,223533,-9.1202433399,-3.0065815969000003,-0.7956135145,995
64776,176339,223551,-9.1202433399,-3.0065815969000003,-0.7956135145,996
64820,176372,223582,-9.1202433399,-3.0065815969000003,-0.7956135145,997
64901,176381,223601,-9.1202433399,-3.0065815969000003,-0.7956135145,998
64976,176444,223612,-9.1202433399,-3.0065815969000003,-0.7956135145,999
65062,176471,223636,-9.1202433399,-3.0065815969000003,-0.7956135145,1000
65136,176522,223638,-9.1202433399,-3.0065815969000003,-0.7956135145,1001
65204,176517,223634,-9.1202433399,-3.0065815969000003,-0.7956135145,1002
65282,176528,223689,-9.1202433399,-3.0065815969000003,-0.7956135145,1003
65329,176542,223699,-9.1202433399,-3.0065815969000003,-0.7956135145,1004
65388,176573,223710,-9.1202433399,-3.0065815969000003,-0.7956135145,1005
65456,176556,223709,-9.1202433399,-3.0065815969000003,-0.7956135145,1006
65508,176570,223684,-9.1202433399,-3.0065815969000003,-0.7956135145,1007
65557,176606,223736,-9.1202433399,-3.0065815969000003,-0.7956135145,1008
65608,176588,223721,-9.1202433399,-3.0065815969000003,-0.7956135145,1009
65665,176602,223736,-9.1202433399,-3.0065815969000003,-0.7956135145,1010
65699,176589,223736,-9.1202433399,-3.0065815969000003,-0.7956135145,1011
65548,176456,223613,-9.1202433399,-3.0065815969000003,-0.7956135145,1012
65054,176301,223455,-9.1202433399,-3.0065815969000003,-0.7956135145,1013
64622,176213,223423,-9.1202433399,-3.0065815969000003,-0.7956135145,1014
64490,176226,223438,-9.1202433399,-3.0065815969000003,-0.7956135145,1015
64529,176272,223451,-9.1202433399,-3.0065815969000003,-0.7956135145,1016
64609,176306,223490,-9.1202433399,-3.0065815969000003,-0.7956135145,1017
64709,176343,223503,-9.1202433399,-3.0065815969000003,-0.7956135145,1018
64803,176394,223562,-9.1202433399,-3.0065815969000003,-0.7956135145,1019
64952,176446,223614,-9.1202433399,-3.0065815969000003,-0.7956135145,1020
64995,176424,223607,-9.1202433399,-3.0065815969000003,-0.7956135145,1021
64991,176358,223572,-9.1202433399,-3.0065815969000003,-0.7956135145,1022
64920,176345,223513,-9.1202433399,-3.0065815969000003,-0.7956135145,1023
64857,176354,223510,-9.1202433399,-3.0065815969000003,-0.7956135145,1024
64864,176333,223539,-9.1202433399,-3.0065815969000003,-0.7956135145,1025
64898,176373,223523,-9.1202433399,-3.0065815969000003,-0.7956135145,1026
64995,176418,223587,-9.1202433399,-3.0065815969000003,-0.7956135145,1027
65071,176461,223579,-9.1202433399,-3.0065815969000003,-0.7956135145,1028
65148,176445,223606,-9.1202433399,-3.0065815969000003,-0.7956135145,1029
65209,176467,223568,-9.1202433399,-3.0065815969000003,-0.7956135145,1030
65302,176462,223638,-9.1202433399,-3.0065815969000003,-0.7956135145,1031
65355,176469,223670,-9.1202433399,-3.0065815969000003,-0.7956135145,1032
65405,176475,223665,-9.1202433399,-3.0065815969000003,-0.7956135145,1033
64733,176215,223318,-9.1034935817,-2.8893332895,-0.8434699665000001,1034
64802,176281,223353,-9.1034935817,-2.8893332895,-0.8434699665000001,1035
64893,176292,223404,-9.1034935817,-2.8893332895,-0.8434699665000001,1036
64984,176343,223417,-9.1034935817,-2.8893332895,-0.8434699665000001,1037
65104,176402,223468,-9.1034935817,-2.8893332895,-0.8434699665000001,1038
65201,176424,223511,-9.1034935817,-2.8893332895,-0.8434699665000001,1039
65234,176401,223432,-9.1034935817,-2.8893332895,-0.8434699665000001,1040
65209,176378,223430,-9.1034935817,-2.8893332895,-0.8434699665000001,1041
65136,176360,223422,-9.1034935817,-2.8893332895,-0.8434699665000001,1042
65110,176354,223424,-9.1034935817,-2.8893332895,-0.8434699665000001,1043
65154,176372,223425,-9.1034935817,-2.8893332895,-0.8434699665000001,1044
65226,176414,223438,-9.1034935817,-2.8893332895,-0.8434699665000001,1045
65304,176419,223499,-9.1034935817,-2.8893332895,-0.8434699665000001,1046
65388,176463,223523,-9.1034935817,-2.8893332895,-0.8434699665000001,1047
65456,176465,223524,-9.1034935817,-2.8893332895,-0.8434699665000001,1048
65550,176498,223567,-9.1034935817,-2.8893332895,-0.8434699665000001,1049
65622,176524,223541,-9.1034935817,-2.8893332895,-0.8434699665000001,1050
65687,176564,223544,-9.1034935817,-2.8893332895,-0.8434699665000001,1051
65741,176579,223583,-9.1034935817,-2.8893332895,-0.8434699665000001,1052
65788,176577,223563,-9.1034935817,-2.8893332895,-0.8434699665000001,1053
65845,176590,223572,-9.1034935817,-2.8893332895,-0.8434699665000001,1054
65893,176602,223542,-9.1034935817,-2.8893332895,-0.8434699665000001,1055
65953,176616,223610,-9.1034935817,-2.8893332895,-0.8434699665000001,1056
65890,176541,223463,-9.1034935817,-2.8893332895,-0.8434699665000001,1057
65499,176334,223321,-9.1034935817,-2.8893332895,-0.8434699665000001,1058
64960,176172,223204,-9.1034935817,-2.8893332895,-0.8434699665000001,1059
64662,176180,223256,-9.1034935817,-2.8893332895,-0.8434699665000001,1060
64613,176238,223263,-9.1034935817,-2.8893332895,-0.8434699665000001,1061
64669,176276,223318,-9.1034935817,-2.8893332895,-0.8434699665000001,1062
64735,176299,223354,-9.1034935817,-2.8893332895,-0.8434699665000001,1063
64828,176333,223374,-9.1034935817,-2.8893332895,-0.8434699665000001,1064
64921,176387,223407,-9.1034935817,-2.8893332895,-0.8434699665000001,1065
65023,176432,223409,-9.2685983411,-2.9240292172,-0.7405785947,1066
65053,176405,223441,-9.2685983411,-2.9240292172,-0.7405785947,1067
64998,176367,223399,-9.2685983411,-2.9240292172,-0.7405785947,1068
64917,176361,223364,-9.2685983411,-2.9240292172,-0.7405785947,1069
64854,176335,223396,-9.2685983411,-2.9240292172,-0.7405785947,1070
64866,176353,223354,-9.2685983411,-2.9240292172,-0.7405785947,1071
64912,176379,223402,-9.2685983411,-2.9240292172,-0.7405785947,1072
64978,176404,223403,-9.2685983411,-2.9240292172,-0.7405785947,1073
65049,176412,223460,-9.2685983411,-2.9240292172,-0.7405785947,1074
65110,176448,223445,-9.2685983411,-2.9240292172,-0.7405785947,1075
65163,176427,223444,-9.2685983411,-2.9240292172,-0.7405785947,1076
65218,176482,223500,-9.2685983411,-2.9240292172,-0.7405785947,1077
65269,176452,223483,-9.2685983411,-2.9240292172,-0.7405785947,1078
65295,176491,223512,-9.2685983411,-2.9240292172,-0.7405785947,1079
65330,176517,223463,-9.2685983411,-2.9240292172,-0.7405785947,1080
65373,176493,223491,-9.2685983411,-2.9240292172,-0.7405785947,1081
65393,176504,223514,-9.2685983411,-2.9240292172,-0.7405785947,1082
65416,176507,223501,-9.2685983411,-2.9240292172,-0.7405785947,1083
65417,176450,223447,-9.2685983411,-2.9240292172,-0.7405785947,1084
65145,176318,223353,-9.2685983411,-2.9240292172,-0.7405785947,1085
64614,176150,223181,-9.2685983411,-2.9240292172,-0.7405785947,1086
64228,176064,223170,-9.2685983411,-2.9240292172,-0.7405785947,1087
64134,176147,223210,-9.2685983411,-2.9240292172,-0.7405785947,1088
64188,176176,223266,-9.2685983411,-2.9240292172,-0.7405785947,1089
64252,176232,223269,-9.2685983411,-2.9240292172,-0.7405785947,1090
64351,176248,223289,-9.2685983411,-2.9240292172,-0.7405785947,1091
64433,176275,223309,-9.1980100744,-3.1740791789,-0.9702895642999999,1092
64542,176259,223375,-9.1980100744,-3.1740791789,-0.9702895642999999,1093
64546,176279,223331,-9.1980100744,-3.1740791789,-0.9702895642999999,1094
64476,176236,223295,-9.1980100744,-3.1740791789,-0.9702895642999999,1095
64375,176189,223270,-9.1980100744,-3.1740791789,-0.9702895642999999,1096
64322,176178,223297,-9.1980100744,-3.1740791789,-0.9702895642999999,1097
64333,176216,223298,-9.1980100744,-3.1740791789,-0.9702895642999999,1098
64381,176232,223310,-9.1980100744,-3.1740791789,-0.9702895642999999,1099
64451,176269,223394,-9.1980100744,-3.1740791789,-0.9702895642999999,1100
64548,176277,223371,-9.1980100744,-3.1740791789,-0.9702895642999999,1101
64603,176323,223378,-9.1980100744,-3.1740791789,-0.9702895642999999,1102
64673,176327,223423,-9.1980100744,-3.1740791789,-0.9702895642999999,1103
64714,176353,223404,-9.1980100744,-3.1740791789,-0.9702895642999999,1104
64763,176387,223418,-9.1980100744,-3.1740791789,-0.9702895642999999,1105
64810,176391,223429,-9.1980100744,-3.1740791789,-0.9702895642999999,1106
64859,176368,223425,-9.1980100744,-3.1740791789,-0.9702895642999999,1107
64884,176379,223470,-9.1980100744,-3.1740791789,-0.9702895642999999,1108
64904,176369,223381,-9.1980100744,-3.1740791789,-0.9702895642999999,1109
64663,176212,223285,-9.1980100744,-3.1740791789,-0.9702895642999999,1110
64141,176034,223192,-9.164510558,-2.8917261120999997,-0.8709874264,1111
63784,175992,223118,-9.164510558,-2.8917261120999997,-0.8709874264,1112
63691,176032,223174,-9.164510558,-2.8917261120999997,-0.8709874264,1113
63754,176080,223222,-9.164510558,-2.8917261120999997,-0.8709874264,1114
63886,176076,223277,-9.1824567275,-2.9443682093000003,-0.7836494015,1115
63950,176144,223291,-9.0436730167,-2.9623143788,-0.777667345,1116
64046,176157,223319,-9.1238325738,-2.9575287336000002,-0.7752745223999999,1117
64163,176219,223305,-9.2913301558,-2.9838497821999996,-0.8111668613999999,1118
64247,176118,223372,-9.0149591455,-2.9563323222999998,-0.7812565789,1119
64219,176206,223311,-9.038887371500001,-3.0233313551,-0.8327022648,1120
64169,176170,223335,-9.0999043478,-2.9766713144,-0.7429714173,1121
64149,176153,223340,-9.219545477799999,-3.0424739359,-0.8003991597,1122
64165,176177,223329,-9.178867493599999,-2.9395825641,-0.8829515394,1123
64219,176207,223358,-9.1860459614,-3.0005995404,-0.8063812161999999,1124
64330,176255,223430,-9.1860459614,-3.0963124444,-0.7609175868,1125
64405,176277,223412,-9.1381895094,-2.9228328059,-0.8398807326,1126
64490,176254,223448,-9.152546445,-3.0891339766000003,-0.8135596839999999,1127
64580,176337,223482,-9.2015993083,-3.0831519201,-0.8901300072,1128
64652,176326,223464,-9.2877409219,-2.9419753867,-0.7322037156,1129
64717,176366,223485,-9.1226361625,-3.0173492985999997,-0.7764709337,1130
64813,176375,223499,-9.1238325738,-3.0269205889999995,-0.8398807326,1131
64864,176385,223491,-9.0245304359,-3.0197421212,-0.8063812161999999,1132
64934,176359,223500,-9.0843510009,-3.0077780082,-0.8207381518,1133
64989,176389,223557,-9.178867493599999,-3.0556344602,-0.8075776275,1134
65047,176411,223521,-9.178867493599999,-3.0556344602,-0.8075776275,1135
65056,176407,223459,-9.178867493599999,-3.0556344602,-0.8075776275,1136
64766,176216,223339,-9.178867493599999,-3.0556344602,-0.8075776275,1137
64263,176064,223210,-9.178867493599999,-3.0556344602,-0.8075776275,1138
63965,176028,223234,-9.178867493599999,-3.0556344602,-0.8075776275,1139
63940,176055,223271,-9.178867493599999,-3.0556344602,-0.8075776275,1140
64030,176103,223321,-9.178867493599999,-3.0556344602,-0.8075776275,1141
64135,176171,223398,-9.178867493599999,-3.0556344602,-0.8075776275,1142
64226,176157,223397,-9.2099741874,-3.0340990568,-0.8997012976000001,1143
64362,176220,223406,-9.2099741874,-3.0340990568,-0.8997012976000001,1144
64480,176270,223468,-9.178867493599999,-2.9515466771,-0.7310073043,1145
64538,176212,223458,-9.178867493599999,-2.9515466771,-0.7310073043,1146
64509,176197,223425,-9.178867493599999,-2.9515466771,-0.7310073043,1147
64463,176190,223425,-9.178867493599999,-2.9515466771,-0.7310073043,1148
64441,176185,223399,-9.178867493599999,-2.9515466771,-0.7310073043,1149
64476,176214,223457,-9.178867493599999,-2.9515466771,-0.7310073043,1150
64565,176242,223458,-9.178867493599999,-2.9515466771,-0.7310073043,1151
64665,176297,223530,-9.178867493599999,-2.9515466771,-0.7310073043,1152
64770,176323,223539,-9.178867493599999,-2.9515466771,-0.7310073043,1153
64836,176325,223530,-9.178867493599999,-2.9515466771,-0.7310073043,1154
64912,176359,223573,-9.178867493599999,-2.9515466771,-0.7310073043,1155
64998,176377,223575,-9.178867493599999,-2.9515466771,-0.7310073043,1156
65080,176389,223547,-9.178867493599999,-2.9515466771,-0.7310073043,1157
65159,176389,223608,-9.178867493599999,-2.9515466771,-0.7310073043,1158
65216,176396,223613,-9.178867493599999,-2.9515466771,-0.7310073043,1159
65272,176404,223611,-9.178867493599999,-2.9515466771,-0.7310073043,1160
65331,176428,223632,-9.178867493599999,-2.9515466771,-0.7310073043,1161
65401,176435,223618,-9.178867493599999,-2.9515466771,-0.7310073043,1162
65434,176437,223656,-9.178867493599999,-2.9515466771,-0.7310073043,1163
65505,176432,223657,-9.178867493599999,-2.9515466771,-0.7310073043,1164
65477,176381,223566,-9.178867493599999,-2.9515466771,-0.7310073043,1165
65138,176199,223443,-9.178867493599999,-2.9515466771,-0.7310073043,1166
64660,176075,223319,-9.178867493599999,-2.9515466771,-0.7310073043,1167
64428,176058,223384,-9.178867493599999,-2.9515466771,-0.7310073043,1168
64424,176087,223408,-9.1908316066,-3.0364918793999998,-0.8195417405,1169
64517,176159,223458,-9.1908316066,-3.0364918793999998,-0.8195417405,1170
64613,176198,223484,-9.1908316066,-3.0364918793999998,-0.8195417405,1171
64698,176184,223439,-9.1908316066,-3.0364918793999998,-0.8195417405,1172
64807,176245,223478,-9.2255275343,-3.0400811133000003,-0.7944171031999999,1173
64904,176261,223514,-9.1740818484,-2.9934210726,-0.849452023,1174
64933,176238,223506,-9.116654106,-3.0544380489000003,-0.7968099258,1175
64886,176182,223516,-9.2279203569,-2.9515466771,-0.8350950873999999,1176
64826,176180,223488,-9.188438784,-3.0125636533999995,-0.8721838377000001,1177
64785,176185,223499,-9.164510558,-2.8606194183,-0.8482556117000001,1178
64825,176203,223485,-9.1932244292,-3.0340990568,-0.8003991597,1179
64898,176202,223536,-9.2386880586,-2.9491538545,-0.8374879099999999,1180
64989,176248,223535,-9.3020978575,-3.0245277664,-0.8147560952999999,1181
65076,176267,223513,-9.1477607998,-2.9180471607,-0.8219345630999999,1182
65149,176298,223562,-9.2434737038,-2.9395825641,-0.873380249,1183
65209,176266,223550,-9.0676012427,-2.9958138952,-0.897308475,1184
65269,176328,223600,-9.0747797105,-2.9144579268,-0.7980063370999999,1185
65316,176356,223607,-9.109475638200001,-2.9623143788,-0.9427721043999999,1186
65370,176339,223616,-9.2051885422,-2.9240292172,-0.7142575461,1187
65399,176340,223602,-9.219545477799999,-2.9479574432,-0.885344362,1188
65446,176379,223620,-9.176474671,-3.0616165167,-0.8470592004,1189
65493,176332,223600,-9.2315095908,-2.9694928465999997,-0.9044869428,1190
65530,176370,223583,-9.165706969299999,-2.9084758702999998,-0.7908278692999999,1191
65577,176364,223586,-9.064012008799999,-2.8414768375,-0.7728816998,1192
65485,176312,223586,-9.1740818484,-2.9611179675,-0.8135596839999999,1193
65345,176174,223443,-9.248259349,-2.9934210726,-0.9427721043999999,1194
64877,175993,223317,-9.2757768089,-2.9359933301999996,-0.8135596839999999,1195
64535,175979,223273,-9.1334038642,-2.9060830476999997,-0.7310073043,1196
64435,176029,223292,-9.178867493599999,-2.9742784918,-0.8578269021,1197
64489,176063,223381,-9.1369930981,-2.9647072014,-0.8374879099999999,1198
64575,176094,223399,-9.176474671,-2.9742784918,-0.9008977089,1199
64660,176103,223447,-9.148957211099999,-2.979064137,-0.8949156524,1200
64746,176149,223447,-9.1920280179,-2.9467610319,-0.8470592004,1201
64834,176171,223472,-9.131011041599999,-2.9144579268,-0.8506484343,1202
64860,176180,223472,-9.0771725331,-2.9288148624,-0.8374879099999999,1203
64825,176158,223443,-9.044869428,-3.0831519201,-0.909272588,1204
64761,176123,223440,-9.162117735399999,-2.919243572,-0.8135596839999999,1205
64723,176124,223442,-9.0604227749,-2.931207685,-0.8303094421999999,1206
64706,176146,223431,-9.1465643885,-2.8965117573,-0.8769694829,1207
64810,176176,223476,-9.3009014462,-2.9419753867,-0.7573283529,1208
64883,176223,223517,-9.096315113900001,-2.8618158296000002,-0.8327022648,1209
64980,176239,223537,-9.0903330574,-3.0939196218,-0.8542376682,1210
65063,176295,223564,-9.2051885422,-3.0125636533999995,-0.7980063370999999,1211
65111,176266,223559,-9.0891366461,-2.9419753867,-0.8291130308999999,1212
65190,176291,223585,-9.2051885422,-3.0699913958000002,-0.8159525066,1213
65240,176297,223591,-9.2255275343,-2.8438696600999998,-0.8327022648,1214
65290,176327,223579,-9.0999043478,-3.0077780082,-0.8039883936,1215
65329,176339,223596,-9.2147598326,-2.8749763539,-0.8327022648,1216
65396,176386,223635,-9.152546445,-3.0807590974999997,-0.7190431913,1217
65379,176323,223552,-9.0831545896,-2.9300112737000004,-0.8518448456000001,1218
65103,176148,223398,-9.1381895094,-2.9886354273999998,-0.8662017812,1219
64572,176021,223308,-9.1597249128,-2.9048866364,-0.7716852885,1220
64225,175937,223258,-9.0879402348,-2.99102825,-0.8039883936,1221
64175,175993,223305,-9.1836531388,-2.931207685,-0.7764709337,1222
64184,176052,223342,-9.1070828156,-2.9455646206,-0.8003991597,1223
64263,176116,223394,-9.0652084201,-3.0819555088,-0.7573283529,1224
64335,176106,223403,-9.1633141467,-2.9132615155,-0.8470592004,1225
64424,176134,223470,-9.1034935817,-2.9515466771,-0.8087740388,1226
64541,176159,223468,-9.1322074529,-2.9120651042,-0.8327022648,1227
64588,176184,223483,-9.0987079365,-3.0604201053999995,-0.8207381518,1228
64559,176182,223463,-9.2315095908,-2.9886354273999998,-0.8255237969999999,1229
64496,176160,223458,-9.1812603162,-2.9958138952,-0.7609175868,1230
64475,176173,223430,-9.242277292499999,-2.9371897415,-0.873380249,1231
64498,176172,223469,-9.152546445,-2.9814569596,-0.8709874264,1232
64543,176221,223492,-9.131011041599999,-2.8498517166,-0.7513462964000001,1233
64641,176211,223527,-9.1896351953,-3.0556344602,-0.9248259349,1234
64728,176266,223528,-9.1381895094,-3.1022945009000003,-0.7920242806,1235
64808,176284,223572,-9.1274218077,-3.0245277664,-0.6831508522999999,1236
64877,176207,223545,-9.1836531388,-2.9563323222999998,-0.7884350467,1237
64937,176309,223569,-9.1812603162,-3.0747770410000004,-0.7692924659,1238
65017,176350,223577,-9.233902413400001,-3.0532416376,-0.8087740388,1239
65073,176321,223605,-9.1369930981,-2.9503502657999996,-0.7764709337,1240
65127,176381,223572,-9.1106720495,-3.0077780082,-0.8937192411,1241
65170,176366,223607,-9.2231347117,-3.146561719,-0.7453642399,1242
65241,176381,223590,-9.165706969299999,-3.0915267992,-0.8829515394,1243
65193,176331,223553,-9.148957211099999,-2.8199414341,-0.8255237969999999,1244
64834,176140,223419,-9.2458665264,-2.9958138952,-0.8111668613999999,1245
64309,175996,223256,-9.152546445,-3.0029923629999997,-0.8506484343,1246
64039,175996,223263,-9.041280194099999,-2.9395825641,-0.8099704500999999,1247
64017,176021,223336,-9.3056870914,-3.0161528873,-0.7262216591,1248
64089,176082,223350,-9.2135634213,-2.9623143788,-0.6879364975,1249
64183,176132,223413,-9.117850517299999,-2.9766713144,-0.8027919822999999,1250
64280,176157,223476,-9.247062937699999,-3.0999016782999997,-0.7477570625,1251
64392,176193,223482,-9.1034935817,-3.0233313551,-0.7884350467,1252
64500,176190,223515,-9.286544510599999,-2.9982067177999996,-0.8697910151,1253
64535,176186,223492,-9.176474671,-3.0364918793999998,-0.7956135145,1254
64506,176188,223507,-9.080761767,-3.0364918793999998,-0.8135596839999999,1255
64484,176162,223469,-9.162117735399999,-3.0508488149999997,-0.8291130308999999,1256
64438,176170,223449,-9.1130648721,-3.0005995404,-0.8937192411,1257
64479,176200,223483,-9.2099741874,-3.0723842184,-0.8135596839999999,1258
64543,176214,223500,-9.2171526552,-3.0221349438,-0.7800601676,1259
64630,176239,223545,-9.1322074529,-3.0077780082,-0.8446663778000001,1260
64708,176273,223548,-9.0364945489,-3.0364918793999998,-0.765703232,1261
64785,176291,223610,-9.2099741874,-3.0281170003,-0.7262216591,1262
64866,176324,223593,-9.1812603162,-2.9228328059,-0.8398807326,1263
64951,176319,223625,-9.0400837828,-2.9599215562,-0.7764709337,1264
65014,176369,223599,-9.2015993083,-2.9982067177999996,-0.7489534738,1265
65068,176344,223576,-9.2578306394,-2.9467610319,-0.801595571,1266
65130,176412,223598,-9.0364945489,-2.9216363945999997,-0.8207381518,1267
65173,176387,223605,-9.1848495501,-2.9443682093000003,-0.7980063370999999,1268
65224,176383,223626,-9.3224368496,-3.1154550251999997,-0.729810893,1269
65269,176375,223632,-9.0867438235,-2.9611179675,-0.7824529901999999,1270
65288,176373,223635,-9.0759761218,-3.0197421212,-0.8781658942,1271
65034,176221,223468,-9.2135634213,-3.0460631697999996,-0.849452023,1272
64538,176037,223345,-9.1896351953,-2.8223342567,-0.8685946038000001,1273
64173,175988,223324,-9.162117735399999,-2.9694928465999997,-0.8602197247000001,1274
64097,176030,223334,-9.152546445,-3.0364918793999998,-0.8877371846000001,1275
64160,176082,223388,-9.320044027,-2.8773691765,-0.8303094421999999,1276
64239,176079,223423,-9.0652084201,-2.9862426048,-0.8662017812,1277
64353,176149,223417,-9.2614198733,-2.9407789753999998,-0.9104689993,1278
64444,176174,223486,-9.0795653557,-2.9982067177999996,-0.7872386353999999,1279
64554,176174,223509,-9.3212404383,-3.0029923629999997,-0.8518448456000001,1280
64566,176191,223513,-9.2638126959,-2.967100024,-0.8374879099999999,1281
64523,176135,223458,-9.1692962032,-2.9324040963,-0.9296115801,1282
64443,176085,223438,-9.0987079365,-3.0412775246,-0.8446663778000001,1283
64393,176085,223455,-9.1393859207,-2.9395825641,-0.8063812161999999,1284
64398,176114,223466,-9.2685983411,-2.9359933301999996,-0.7908278692999999,1285
64453,176158,223479,-9.1860459614,-3.0197421212,-0.8590233134,1286
64541,176175,223529,-9.2015993083,-2.9958138952,-0.8662017812,1287
64607,176202,223532,-9.200402897,-3.0735806297,-0.8446663778000001,1288
64690,176210,223531,-9.200402897,-3.0735806297,-0.8446663778000001,1289
64742,176234,223517,-9.200402897,-3.0735806297,-0.8446663778000001,1290
64788,176222,223557,-9.200402897,-3.0735806297,-0.8446663778000001,1291
64828,176236,223571,-9.200402897,-3.0735806297,-0.8446663778000001,1292
64876,176227,223560,-9.200402897,-3.0735806297,-0.8446663778000001,1293
64926,176252,223568,-9.200402897,-3.0735806297,-0.8446663778000001,1294
64971,176241,223551,-9.200402897,-3.0735806297,-0.8446663778000001,1295
65020,176248,223548,-9.200402897,-3.0735806297,-0.8446663778000001,1296
64944,176187,223460,-9.200402897,-3.0735806297,-0.8446663778000001,1297
64554,176012,223333,-9.200402897,-3.0735806297,-0.8446663778000001,1298
64101,175930,223282,-9.200402897,-3.0735806297,-0.8446663778000001,1299
63893,175899,223319,-9.200402897,-3.0735806297,-0.8446663778000001,1300
63933,175945,223348,-9.200402897,-3.0735806297,-0.8446663778000001,1301
64028,175991,223406,-9.200402897,-3.0735806297,-0.8446663778000001,1302
64123,176024,223391,-9.2542414055,-3.0041887742999998,-0.7800601676,1303
64227,176036,223468,-9.2542414055,-3.0041887742999998,-0.7800601676,1304
64352,176094,223480,-9.2542414055,-3.0041887742999998,-0.7800601676,1305
64442,176118,223479,-9.2542414055,-3.0041887742999998,-0.7800601676,1306
64451,176113,223481,-9.2542414055,-3.0041887742999998,-0.7800601676,1307
64406,176096,223453,-9.2542414055,-3.0041887742999998,-0.7800601676,1308
64365,176068,223415,-9.2542414055,-3.0041887742999998,-0.7800601676,1309
64409,176096,223470,-9.2542414055,-3.0041887742999998,-0.7800601676,1310
64476,176104,223481,-9.2542414055,-3.0041887742999998,-0.7800601676,1311
64562,176146,223556,-9.2542414055,-3.0041887742999998,-0.7800601676,1312
64662,176170,223556,-9.2542414055,-3.0041887742999998,-0.7800601676,1313
64746,176234,223546,-9.2542414055,-3.0041887742999998,-0.7800601676,1314
64846,176239,223571,-9.2542414055,-3.0041887742999998,-0.7800601676,1315
64922,176275,223572,-9.2542414055,-3.0041887742999998,-0.7800601676,1316
64990,176293,223615,-9.2542414055,-3.0041887742999998,-0.7800601676,1317
65071,176304,223635,-9.2542414055,-3.0041887742999998,-0.7800601676,1318
65118,176314,223639,-9.2542414055,-3.0041887742999998,-0.7800601676,1319
65180,176325,223634,-9.2542414055,-3.0041887742999998,-0.7800601676,1320
65237,176322,223659,-9.2542414055,-3.0041887742999998,-0.7800601676,1321
65306,176377,223645,-9.2542414055,-3.0041887742999998,-0.7800601676,1322
65298,176284,223567,-9.2542414055,-3.0041887742999998,-0.7800601676,1323
64958,176144,223434,-9.2542414055,-3.0041887742999998,-0.7800601676,1324
64459,175976,223306,-9.2542414055,-3.0041887742999998,-0.7800601676,1325
64203,176001,223353,-9.2542414055,-3.0041887742999998,-0.7800601676,1326
64202,176030,223406,-9.2542414055,-3.0041887742999998,-0.7800601676,1327
64293,176070,223435,-9.2542414055,-3.0041887742999998,-0.7800601676,1328
64373,176108,223466,-9.1058864043,-3.038884702,-0.8003991597,1329
64487,176126,223482,-9.1058864043,-3.038884702,-0.8003991597,1330
64601,176158,223537,-9.1058864043,-3.038884702,-0.8003991597,1331
64721,176203,223507,-9.1058864043,-3.038884702,-0.8003991597,1332
64766,176215,223523,-9.1058864043,-3.038884702,-0.8003991597,1333
64746,176179,223511,-9.1058864043,-3.038884702,-0.8003991597,1334
64684,176148,223517,-9.1058864043,-3.038884702,-0.8003991597,1335
64681,176191,223516,-9.1058864043,-3.038884702,-0.8003991597,1336
64730,176203,223540,-9.1058864043,-3.038884702,-0.8003991597,1337
64802,176249,223539,-9.1058864043,-3.038884702,-0.8003991597,1338
64902,176275,223635,-9.1058864043,-3.038884702,-0.8003991597,1339
64994,176314,223611,-9.1058864043,-3.038884702,-0.8003991597,1340
65076,176320,223644,-9.1058864043,-3.038884702,-0.8003991597,1341
65159,176362,223650,-9.1058864043,-3.038884702,-0.8003991597,1342
65245,176391,223644,-9.1058864043,-3.038884702,-0.8003991597,1343
65314,176391,223671,-9.1058864043,-3.038884702,-0.8003991597,1344
65377,176427,223691,-9.1058864043,-3.038884702,-0.8003991597,1345
65441,176400,223689,-9.1058864043,-3.038884702,-0.8003991597,1346
65503,176418,223677,-9.1058864043,-3.038884702,-0.8003991597,1347
65570,176431,223716,-9.1058864043,-3.038884702,-0.8003991597,1348
65636,176453,223689,-9.1058864043,-3.038884702,-0.8003991597,1349
65677,176451,223684,-9.1058864043,-3.038884702,-0.8003991597,1350
65740,176470,223750,-9.1058864043,-3.038884702,-0.8003991597,1351
65779,176470,223682,-9.1058864043,-3.038884702,-0.8003991597,1352
65615,176317,223593,-9.1058864043,-3.038884702,-0.8003991597,1353
65132,176136,223446,-9.1549392676,-2.9575287336000002,-0.801595571,1354
64749,176088,223412,-9.1549392676,-2.9575287336000002,-0.801595571,1355
64649,176101,223492,-9.1549392676,-2.9575287336000002,-0.801595571,1356
64695,176163,223485,-9.1549392676,-2.9575287336000002,-0.801595571,1357
64800,176210,223530,-9.1549392676,-2.9575287336000002,-0.801595571,1358
64882,176226,223529,-9.1549392676,-2.9575287336000002,-0.801595571,1359
64973,176243,223568,-9.1549392676,-2.9575287336000002,-0.801595571,1360
65085,176298,223606,-9.1549392676,-2.9575287336000002,-0.801595571,1361
65157,176315,223576,-9.1549392676,-2.9575287336000002,-0.801595571,1362
65130,176274,223563,-9.1549392676,-2.9575287336000002,-0.801595571,1363
65057,176257,223527,-9.1549392676,-2.9575287336000002,-0.801595571,1364
65007,176225,223535,-9.1549392676,-2.9575287336000002,-0.801595571,1365
65010,176251,223555,-9.1549392676,-2.9575287336000002,-0.801595571,1366
65076,176285,223578,-9.1549392676,-2.9575287336000002,-0.801595571,1367
65143,176324,223625,-9.1549392676,-2.9575287336000002,-0.801595571,1368
65232,176327,223685,-9.1549392676,-2.9575287336000002,-0.801595571,1369
65315,176356,223656,-9.1549392676,-2.9575287336000002,-0.801595571,1370
65365,176385,223677,-9.1549392676,-2.9575287336000002,-0.801595571,1371
65432,176379,223660,-9.1549392676,-2.9575287336000002,-0.801595571,1372
65497,176370,223691,-9.1549392676,-2.9575287336000002,-0.801595571,1373
65535,176411,223686,-9.1549392676,-2.9575287336000002,-0.801595571,1374
65577,176432,223694,-9.1549392676,-2.9575287336000002,-0.801595571,1375
65596,176412,223652,-9.1549392676,-2.9575287336000002,-0.801595571,1376
65641,176417,223668,-9.1549392676,-2.9575287336000002,-0.801595571,1377
65700,176430,223689,-9.1549392676,-2.9575287336000002,-0.801595571,1378
65732,176392,223702,-9.1549392676,-2.9575287336000002,-0.801595571,1379
65784,176410,223705,-9.1549392676,-2.9575287336000002,-0.801595571,1380
65747,176365,223618,-9.1549392676,-2.9575287336000002,-0.801595571,1381
65428,176219,223517,-9.1549392676,-2.9575287336000002,-0.801595571,1382
64937,176056,223356,-9.1549392676,-2.9575287336000002,-0.801595571,1383
64671,176056,223386,-9.1549392676,-2.9575287336000002,-0.801595571,1384
64644,176135,223431,-9.1549392676,-2.9575287336000002,-0.801595571,1385
64705,176131,223477,-9.1549392676,-2.9575287336000002,-0.801595571,1386
64792,176180,223484,-9.1549392676,-2.9575287336000002,-0.801595571,1387
64881,176215,223533,-9.1549392676,-2.9575287336000002,-0.801595571,1388
65000,176244,223571,-9.1549392676,-2.9575287336000002,-0.801595571,1389
65079,176273,223590,-9.1549392676,-2.9575287336000002,-0.801595571,1390
65055,176228,223577,-9.1549392676,-2.9575287336000002,-0.801595571,1391
64995,176228,223508,-9.1549392676,-2.9575287336000002,-0.801595571,1392
64926,176192,223521,-9.1549392676,-2.9575287336000002,-0.801595571,1393
64905,176218,223530,-9.1549392676,-2.9575287336000002,-0.801595571,1394
64942,176209,223557,-9.1549392676,-2.9575287336000002,-0.801595571,1395
65580,176428,223672,-9.1441715659,-3.0293134116,-0.7764709337,1396
65487,176344,223605,-9.1441715659,-3.0293134116,-0.7764709337,1397
65000,176134,223392,-9.1441715659,-3.0293134116,-0.7764709337,1398
64510,176047,223334,-9.1441715659,-3.0293134116,-0.7764709337,1399
64305,176062,223370,-9.1441715659,-3.0293134116,-0.7764709337,1400
64310,176098,223413,-9.1441715659,-3.0293134116,-0.7764709337,1401
64362,176136,223444,-9.1441715659,-3.0293134116,-0.7764709337,1402
64435,176185,223471,-9.1441715659,-3.0293134116,-0.7764709337,1403
64520,176204,223529,-9.1441715659,-3.0293134116,-0.7764709337,1404
64640,176251,223517,-9.1441715659,-3.0293134116,-0.7764709337,1405
64708,176269,223556,-9.1441715659,-3.0293134116,-0.7764709337,1406
64721,176236,223518,-9.1441715659,-3.0293134116,-0.7764709337,1407
64645,176216,223520,-9.1441715659,-3.0293134116,-0.7764709337,1408
64589,176210,223512,-9.1441715659,-3.0293134116,-0.7764709337,1409
64576,176201,223517,-9.1441715659,-3.0293134116,-0.7764709337,1410
64620,176235,223534,-9.1441715659,-3.0293134116,-0.7764709337,1411
64709,176263,223581,-9.1441715659,-3.0293134116,-0.7764709337,1412
64799,176305,223639,-9.1441715659,-3.0293134116,-0.7764709337,1413
64881,176309,223606,-9.1441715659,-3.0293134116,-0.7764709337,1414
64954,176338,223637,-9.1441715659,-3.0293134116,-0.7764709337,1415
65019,176364,223643,-9.1441715659,-3.0293134116,-0.7764709337,1416
65089,176384,223628,-9.1441715659,-3.0293134116,-0.7764709337,1417
65154,176412,223679,-9.1441715659,-3.0293134116,-0.7764709337,1418
65202,176409,223664,-9.1441715659,-3.0293134116,-0.7764709337,1419
65268,176393,223642,-9.1441715659,-3.0293134116,-0.7764709337,1420
65302,176409,223671,-9.1441715659,-3.0293134116,-0.7764709337,1421
65345,176410,223675,-9.1441715659,-3.0293134116,-0.7764709337,1422
65318,176364,223576,-9.1441715659,-3.0293134116,-0.7764709337,1423
64925,176194,223492,-9.1441715659,-3.0293134116,-0.7764709337,1424
64403,176028,223362,-9.1441715659,-3.0293134116,-0.7764709337,1425
64149,176054,223361,-9.1441715659,-3.0293134116,-0.7764709337,1426
64147,176089,223444,-9.1441715659,-3.0293134116,-0.7764709337,1427
64242,176144,223490,-9.1441715659,-3.0293134116,-0.7764709337,1428
64336,176176,223490,-9.1441715659,-3.0293134116,-0.7764709337,1429
64446,176198,223539,-9.1441715659,-3.0293134116,-0.7764709337,1430
64575,176248,223584,-9.1441715659,-3.0293134116,-0.7764709337,1431
64673,176297,223619,-9.1441715659,-3.0293134116,-0.7764709337,1432
64704,176269,223579,-9.1441715659,-3.0293134116,-0.7764709337,1433
64676,176217,223563,-9.1441715659,-3.0293134116,-0.7764709337,1434
64607,176217,223529,-9.1441715659,-3.0293134116,-0.7764709337,1435
64578,176220,223540,-9.1441715659,-3.0293134116,-0.7764709337,1436
64641,176251,223558,-9.1441715659,-3.0293134116,-0.7764709337,1437
65373,176362,223719,-9.1980100744,-3.0029923629999997,-0.8518448456000001,1438
65321,176296,223631,-9.1980100744,-3.0029923629999997,-0.8518448456000001,1439
64945,176119,223482,-9.1980100744,-3.0029923629999997,-0.8518448456000001,1440
64435,175982,223391,-9.1980100744,-3.0029923629999997,-0.8518448456000001,1441
64214,175991,223414,-9.1980100744,-3.0029923629999997,-0.8518448456000001,1442
64217,176023,223461,-9.1980100744,-3.0029923629999997,-0.8518448456000001,1443
64313,176076,223499,-9.1980100744,-3.0029923629999997,-0.8518448456000001,1444
64413,176103,223520,-9.1980100744,-3.0029923629999997,-0.8518448456000001,1445
64476,176168,223552,-9.1980100744,-3.0029923629999997,-0.8518448456000001,1446
64608,176195,223612,-9.1980100744,-3.0029923629999997,-0.8518448456000001,1447
64717,176216,223592,-9.1980100744,-3.0029923629999997,-0.8518448456000001,1448
64736,176208,223574,-9.1980100744,-3.0029923629999997,-0.8518448456000001,1449
64711,176196,223555,-9.1980100744,-3.0029923629999997,-0.8518448456000001,1450
64669,176140,223553,-9.1980100744,-3.0029923629999997,-0.8518448456000001,1451
64655,176149,223565,-9.1980100744,-3.0029923629999997,-0.8518448456000001,1452
64719,176168,223556,-9.1980100744,-3.0029923629999997,-0.8518448456000001,1453
64803,176224,223627,-9.1980100744,-3.0029923629999997,-0.8518448456000001,1454
64916,176264,223623,-9.1980100744,-3.0029923629999997,-0.8518448456000001,1455
65012,176275,223637,-9.1980100744,-3.0029923629999997,-0.8518448456000001,1456
65087,176286,223689,-9.1980100744,-3.0029923629999997,-0.8518448456000001,1457
65162,176339,223704,-9.1980100744,-3.0029923629999997,-0.8518448456000001,1458
65223,176347,223724,-9.1980100744,-3.0029923629999997,-0.8518448456000001,1459
65299,176354,223730,-9.1980100744,-3.0029923629999997,-0.8518448456000001,1460
65363,176398,223734,-9.1980100744,-3.0029923629999997,-0.8518448456000001,1461
65417,176400,223712,-9.1980100744,-3.0029923629999997,-0.8518448456000001,1462
65469,176392,223745,-9.1980100744,-3.0029923629999997,-0.8518448456000001,1463
65528,176409,223733,-9.1980100744,-3.0029923629999997,-0.8518448456000001,1464
65568,176407,223728,-9.1980100744,-3.0029923629999997,-0.8518448456000001,1465
65376,176273,223626,-9.1980100744,-3.0029923629999997,-0.8518448456000001,1466
64864,176062,223443,-9.1980100744,-3.0029923629999997,-0.8518448456000001,1467
64476,176039,223397,-9.1980100744,-3.0029923629999997,-0.8518448456000001,1468
64385,176073,223466,-9.1980100744,-3.0029923629999997,-0.8518448456000001,1469
64455,176097,223526,-9.1980100744,-3.0029923629999997,-0.8518448456000001,1470
64560,176130,223546,-9.1980100744,-3.0029923629999997,-0.8518448456000001,1471
64654,176180,223563,-9.1980100744,-3.0029923629999997,-0.8518448456000001,1472
64781,176242,223632,-9.1980100744,-3.0029923629999997,-0.8518448456000001,1473
64936,176286,223653,-9.1980100744,-3.0029923629999997,-0.8518448456000001,1474
65055,176319,223680,-9.1980100744,-3.0029923629999997,-0.8518448456000001,1475
65061,176276,223676,-9.1980100744,-3.0029923629999997,-0.8518448456000001,1476
65020,176249,223593,-9.1980100744,-3.0029923629999997,-0.8518448456000001,1477
64984,176255,223664,-9.1980100744,-3.0029923629999997,-0.8518448456000001,1478
64998,176256,223606,-9.1980100744,-3.0029923629999997,-0.8518448456000001,1479
64603,176075,223435,-9.1154576947,-3.0029923629999997,-0.8135596839999999,1480
64589,176081,223463,-9.1154576947,-3.0029923629999997,-0.8135596839999999,1481
64659,176129,223525,-9.1154576947,-3.0029923629999997,-0.8135596839999999,1482
64746,176164,223547,-9.1154576947,-3.0029923629999997,-0.8135596839999999,1483
64863,176208,223571,-9.1154576947,-3.0029923629999997,-0.8135596839999999,1484
64967,176248,223612,-9.1154576947,-3.0029923629999997,-0.8135596839999999,1485
65068,176262,223612,-9.1154576947,-3.0029923629999997,-0.8135596839999999,1486
65091,176227,223595,-9.1154576947,-3.0029923629999997,-0.8135596839999999,1487
65019,176205,223576,-9.1154576947,-3.0029923629999997,-0.8135596839999999,1488
64929,176160,223545,-9.1154576947,-3.0029923629999997,-0.8135596839999999,1489
64889,176194,223580,-9.1154576947,-3.0029923629999997,-0.8135596839999999,1490
64926,176171,223582,-9.1154576947,-3.0029923629999997,-0.8135596839999999,1491
64997,176255,223601,-9.1154576947,-3.0029923629999997,-0.8135596839999999,1492
65076,176235,223626,-9.1154576947,-3.0029923629999997,-0.8135596839999999,1493
65148,176278,223630,-9.1154576947,-3.0029923629999997,-0.8135596839999999,1494
65223,176282,223626,-9.1154576947,-3.0029923629999997,-0.8135596839999999,1495
65269,176297,223679,-9.1154576947,-3.0029923629999997,-0.8135596839999999,1496
65341,176318,223684,-9.1154576947,-3.0029923629999997,-0.8135596839999999,1497
65380,176336,223686,-9.1154576947,-3.0029923629999997,-0.8135596839999999,1498
65431,176335,223686,-9.050851484499999,-2.9491538545,-0.7740781111,1499
65478,176332,223706,-9.050851484499999,-2.9491538545,-0.7740781111,1500
65501,176359,223702,-9.050851484499999,-2.9491538545,-0.7740781111,1501
65587,176342,223695,-8.997012975999999,-2.9288148624,-0.7477570625,1502
65563,176292,223602,-9.2446701151,-2.9754749031,-0.8111668613999999,1503
65126,176107,223489,-9.3655076564,-2.8737799425999997,-0.8219345630999999,1504
64623,176002,223333,-9.1956172518,-3.0520452262999997,-0.8267202082999999,1505
64363,176000,223368,-9.1848495501,-3.0197421212,-0.7872386353999999,1506
64343,176030,223436,-9.1453679772,-2.9024938138,-0.9320044027,1507
64416,176097,223455,-9.207581364800001,-3.0125636533999995,-0.8183453291999999,1508
64514,176113,223515,-9.207581364800001,-3.0125636533999995,-0.8183453291999999,1509
64620,176149,223496,-9.207581364800001,-3.0125636533999995,-0.8183453291999999,1510
64723,176188,223603,-9.207581364800001,-3.0125636533999995,-0.8183453291999999,1511
64819,176228,223561,-9.207581364800001,-3.0125636533999995,-0.8183453291999999,1512
64836,176188,223582,-9.207581364800001,-3.0125636533999995,-0.8183453291999999,1513
64778,176186,223492,-9.207581364800001,-3.0125636533999995,-0.8183453291999999,1514
64719,176175,223538,-9.207581364800001,-3.0125636533999995,-0.8183453291999999,1515
64723,176173,223553,-9.207581364800001,-3.0125636533999995,-0.8183453291999999,1516
64766,176197,223563,-9.207581364800001,-3.0125636533999995,-0.8183453291999999,1517
64848,176229,223566,-9.207581364800001,-3.0125636533999995,-0.8183453291999999,1518
64927,176281,223634,-9.207581364800001,-3.0125636533999995,-0.8183453291999999,1519
65018,176305,223625,-9.207581364800001,-3.0125636533999995,-0.8183453291999999,1520
65104,176363,223669,-9.207581364800001,-3.0125636533999995,-0.8183453291999999,1521
65172,176356,223659,-9.207581364800001,-3.0125636533999995,-0.8183453291999999,1522
65248,176392,223695,-9.207581364800001,-3.0125636533999995,-0.8183453291999999,1523
65309,176391,223692,-9.207581364800001,-3.0125636533999995,-0.8183453291999999,1524
65371,176421,223668,-9.207581364800001,-3.0125636533999995,-0.8183453291999999,1525
65437,176432,223709,-9.207581364800001,-3.0125636533999995,-0.8183453291999999,1526
65491,176438,223700,-9.207581364800001,-3.0125636533999995,-0.8183453291999999,1527
65534,176434,223683,-9.207581364800001,-3.0125636533999995,-0.8183453291999999,1528
65293,176293,223524,-9.207581364800001,-3.0125636533999995,-0.8183453291999999,1529
