green,red,IR,acc_x,acc_y,acc_z,sample_index
88057,181456,204501,-1.2550354537,8.6033936583,4.701896409,1
88091,181440,204473,-1.2945170266,8.5411802707,4.5248275366,2
88162,181481,204467,-1.3339985995,8.6165541826,4.6564327796,3
88241,181497,204522,-1.4189438018,8.5232341012,4.5690947547,4
88330,181516,204518,-1.5266208188,8.7601235386,4.6851466508,5
88431,181560,204537,-1.4811571894,8.4777704718,4.6492543118,6
88543,181545,204509,-1.4201402131,8.654839344200001,4.6947179412,7
88538,181524,204517,-1.3663017045999999,8.6129649487,4.5595234643,8
88505,181495,204474,-1.4691930764,8.556733617599999,4.6923251185999995,9
88619,181502,204495,-1.3399806559999998,8.5112699882,4.6337009649,10
88717,181567,204519,-1.2957134379000002,8.640482408599999,4.618147618,11
88850,181552,204495,-1.4404792052000002,8.7326060787,4.570291166,12
88920,181587,204529,-1.43569356,8.764909183799999,4.6707897152,13
88968,181591,204509,-1.4428720278,8.663214223299999,4.4913280202,14
88976,181605,204524,-1.3770694063,8.5710905532,4.677968183,15
89002,181590,204458,-1.4979069476,8.5016986978,4.754538506199999,16
89113,181616,204529,-1.4285150922,8.5758761984,4.6468614892,17
89068,181593,204468,-1.459621786,8.554340795,4.7186461672,18
89199,181635,204499,-1.4524433182,8.721838377,4.6600220135,19
89198,181617,204531,-1.4739787216,8.654839344200001,4.589433746799999,20
89122,181607,204459,-1.4979069476,8.434699665,4.5726839886,21
89120,181571,204453,-1.5661023917,8.5268233351,4.7772703209000005,22
89179,181605,204467,-1.3890335193,8.6249290617,4.6444686666,23
89271,181656,204477,-1.2370892842,8.7290168448,4.7150569333,24
89354,181652,204458,-1.5840485612,8.7134634979,4.6683968926,25
89381,181663,204472,-1.507478238,8.708677852700001,4.6516471344,26
89392,181647,204481,-1.4691930764,8.4993058752,4.7294138689,27
89377,181625,204472,-1.4273186809,8.6033936583,4.560719875599999,28
89404,181626,204422,-1.5684952143000002,8.4693955927,4.7844487887,29
89467,181619,204431,-1.4428720278,8.6823568041,4.5846481016,30
89473,181609,204389,-1.5170495284,8.681160392799999,4.6636112473999995,31
89504,181649,204400,-1.2394821068,8.5268233351,4.5966122146,32
89448,181589,204435,-1.5457633996,8.6165541826,4.7665026192,33
89408,181607,204391,-1.6929219895,8.5495551498,4.5678983434,34
89414,181594,204394,-1.5720844482,8.4490566006,4.6707897152,35
89450,181632,204391,-1.4883356572,8.5794654323,4.6731825378,36
89528,181644,204373,-1.4560325521,8.6165541826,4.6205404406,37
89579,181668,204367,-1.4500504956,8.4921274074,4.6683968926,38
89575,181643,204366,-1.3292129543,8.7110706753,4.7210389898,39
89578,181613,204369,-1.3603196481,8.6691962798,4.6301117309999995,40
89599,181572,204351,-1.5684952143000002,8.4478601893,4.642075844,41
89612,181627,204365,-1.4668002538,8.5914295453,4.7042892316,42
89637,181639,204373,-1.4524433182,8.4550386571,4.7222354011,43
89664,181666,204358,-1.5493526335,8.7014993849,4.6851466508,44
89604,181613,204302,-1.4739787216,8.5507515611,4.6085763276,45
89501,181575,204331,-1.5122638832,8.6249290617,4.6791645943,46
89419,181577,204309,-1.43569356,8.4993058752,4.6492543118,47
89470,181596,204303,-1.495514125,8.5639120854,4.6971107638,48
89533,181653,204312,-1.6067803759000001,8.569894141899999,4.6325045536000005,49
89569,181625,204268,-1.6307086019,8.584251077500001,4.7066820542,50
89572,181640,204311,-1.4153545679,8.6392859973,4.7593241513999995,51
89566,181629,204293,-1.4727823103,8.7254276109,4.618147618,52
89433,181624,204247,-1.5649059803999998,8.5052879317,4.6947179412,53
89580,181651,204242,-1.567298803,8.650053698999999,4.7174497559,54
89581,181677,204256,-1.5146567058,8.5615192628,4.7473600384,55
89594,181641,204266,-1.3950155758,8.6464644651,4.642075844,56
89606,181648,204279,-1.3543375915999998,8.6321075295,4.7593241513999995,57
89385,181602,204213,-1.5290136414,8.7732840629,4.4410787456,58
89351,181554,204231,-1.7216358607,8.5591264402,4.869393991,59
89291,181578,204216,-1.4560325521,8.4251283746,4.3764725354000005,60
89302,181607,204178,-1.4201402131,8.6596249894,4.8873401605,61
89320,181583,204172,-1.4344971487,8.4622171249,4.6217368519,62
89334,181636,204181,-1.5038890041,8.5710905532,4.6516471344,63
89382,181625,204175,-1.639083481,8.5280197464,4.7581277401,64
89294,181609,204164,-1.2813565023,8.5531443837,4.534398827,65
89301,181634,204158,-1.507478238,8.8259261601,4.713860522,66
89254,181592,204135,-1.5421741657,8.518448456,4.606183505,67
89251,181646,204165,-1.5038890041,8.5052879317,4.6755753604,68
89280,181643,204138,-1.411765334,8.6476608764,4.6755753604,69
89209,181606,204122,-1.4273186809,8.7469630143,4.486542375,70
88994,181555,204073,-1.4967105363,8.5196448673,4.6911287073,71
88851,181571,204084,-1.495514125,8.427521197199999,4.7234318124,72
88789,181524,204047,-1.4141581566,8.7409809578,4.6468614892,73
88769,181574,204038,-1.4703894876999999,8.4251283746,4.713860522,74
88779,181617,204064,-1.5242279962,8.7828553533,4.618147618,75
88778,181592,204041,-1.5086746492999998,8.7972122889,4.609772738899999,76
88721,181558,204036,-1.3866406967,8.458627890999999,4.6707897152,77
88635,181585,204044,-1.459621786,8.4729848266,4.6660040700000005,78
88602,181574,204005,-1.459621786,8.4801632944,4.7700918531,79
88570,181567,203979,-1.531406464,8.653642932899999,4.7078784655,80
88567,181587,204004,-1.2981062605,8.5280197464,4.654039957,81
88582,181594,203980,-1.3770694063,8.6321075295,4.6755753604,82
88461,181560,203946,-1.4775679554999999,8.7804625307,4.6013978598,83
88231,181510,203921,-1.4608181972999998,8.4406817215,4.5990050372,84
88014,181520,203886,-1.3854442854000002,8.7110706753,4.6528435457,85
87913,181501,203910,-1.2909277927,8.6775711589,4.6408794327,86
87892,181547,203885,-1.4225330357,8.6644106346,4.6348973762,87
87928,181557,203873,-1.3052847283,8.638089586,4.6552363683,88
87877,181546,203942,-1.3962119871,8.4741812379,4.7234318124,89
87867,181538,203859,-1.4153545679,8.4921274074,4.6971107638,90
87797,181547,203913,-1.5864413838,8.5710905532,4.7150569333,91
87715,181548,203868,-1.4237294470000001,8.4574314797,4.5846481016,92
87696,181518,203839,-1.4297115034999999,8.61416136,4.6145583840999995,93
87675,181544,203855,-1.4895320685,8.3748791,4.7928236678,94
87644,181550,203819,-1.4811571894,8.6823568041,4.6600220135,95
87492,181521,203806,-1.6594224731,8.6763747476,4.6875394734,96
87207,181448,203776,-1.6833506991,8.3078800672,4.6205404406,97
86916,181466,203767,-1.5696916256,8.3724862774,4.7581277401,98
86741,181460,203719,-1.2358928729,8.4813597057,4.7581277401,99
86735,181471,203785,-1.232303639,8.9120677737,4.5714875773,100
86757,181487,203746,-1.7288143285,8.6117685374,4.7832523774,101
86724,181472,203738,-1.7623138449,8.5890367227,4.6408794327,102
86636,181467,203696,-1.5756736821000001,8.7326060787,4.6277189084,103
86446,181459,203662,-1.4931213024,8.517252044700001,4.7246282237,104
86355,181457,203622,-1.5601203352,8.5459659159,4.7258246349999995,105
86281,181487,203687,-1.4225330357,8.748159425599999,4.6839502395,106
86256,181480,203652,-1.3674981159,8.6129649487,4.737788748,107
86202,181507,203635,-1.5684952143000002,8.6093757148,4.6959143525,108
85902,181425,203593,-1.4081761001,8.654839344200001,4.4339002778,109
85313,181377,203554,-1.4608181972999998,8.445467366699999,4.7700918531,110
84978,181375,203537,-1.4991033588999998,8.5926259566,4.606183505,111
84829,181366,203528,-1.4907284798,8.5998044244,4.6660040700000005,112
84815,181389,203508,-1.3674981159,8.5603228515,4.6516471344,113
84815,181390,203509,-1.4859428346,8.6787675702,4.6085763276,114
84785,181402,203484,-1.519442351,8.4406817215,4.713860522,115
84626,181414,203495,-1.3196416639,8.417949906799999,4.6660040700000005,116
84427,181398,203478,-1.2454641632999999,8.6751783363,4.6923251185999995,117
84297,181362,203445,-1.4907284798,8.7146599092,4.5487557626,118
84253,181388,203432,-1.5266208188,8.4394853102,4.782055966100001,119
84142,181382,203406,-1.5014961814999999,8.6105721261,4.5631126982,120
83984,181369,203440,-1.4572289634,8.7194455544,4.510470601,121
83394,181279,203381,-1.3674981159,8.5555372063,4.5762732225,122
82732,181261,203261,-1.5218351736,8.459824302300001,4.7748774982999995,123
82566,181249,203250,-1.1976077113,8.7924266437,4.7401815706,124
82521,181302,203312,-1.4919248910999998,8.6560357555,4.6085763276,125
82566,181315,203287,-1.495514125,8.4681991814,4.7688954418,126
82596,181315,203349,-1.3770694063,8.516055633399999,4.6971107638,127
82533,181315,203259,-1.4919248910999998,8.7864445872,4.5774696338,128
82304,181255,203236,-1.5852449725,8.5555372063,4.734199514099999,129
82102,181283,203226,-1.4859428346,8.482556117,4.7437708044999995,130
81996,181268,203198,-1.3926227532000002,8.5998044244,4.7234318124,131
81938,181286,203245,-1.4416756165,8.4933238187,4.7246282237,132
81940,181290,203257,-1.3890335193,8.7302132561,4.6755753604,133
81726,181224,203178,-1.5146567058,8.6045900696,4.6492543118,134
81081,181150,203120,-1.5768700934,8.4263247859,4.6624148361,135
80587,181135,203073,-1.4488540843,8.6297147069,4.7557349175,136
80450,181123,203071,-1.4811571894,8.6763747476,4.7234318124,137
80506,181136,203088,-1.4775679554999999,8.5710905532,4.7521456836,138
80570,181152,203110,-1.4883356572,8.596215190499999,4.7401815706,139
80628,181173,203093,-1.4715858990000001,8.5950187792,4.6480579005,140
80526,181151,203092,-1.4500504956,8.5280197464,4.6133619728,141
80348,181128,203091,-1.5206387623,8.4993058752,4.689932296,142
80164,181114,203039,-1.3794622289,8.6165541826,4.7150569333,143
80112,181123,203019,-1.4943177136999999,8.6464644651,4.6588256022,144
80092,181104,203025,-1.4883356572,8.720641965699999,4.7425743932,145
80066,181083,202979,-1.3806586402,8.7720876516,4.7449672158,146
79666,180987,202981,-1.5756736821000001,8.2468630909,4.7401815706,147
79150,180985,202927,-1.5517454561000001,8.4035929712,4.7760739096,148
78919,180941,202960,-1.5122638832,8.5651084967,4.850251410199999,149
78927,180963,202909,-1.5936198516,8.708677852700001,4.6408794327,150
79036,180979,202927,-1.6725829974,8.654839344200001,4.8107698373000005,151
79133,180968,202947,-1.5780665047,8.5914295453,4.748556449700001,152
79183,180965,202928,-1.4799607781,8.4514494232,4.7509492723,153
79089,180959,202935,-1.6486547714,8.458627890999999,4.7605205627,154
78929,180905,202910,-1.5026925928000001,8.4622171249,4.6767717716999995,155
78838,180909,202906,-1.4811571894,8.6237326504,4.654039957,156
78814,180908,202930,-1.5206387623,8.529216157699999,4.7282174576000005,157
78836,180913,202924,-1.5457633996,8.8809610799,4.6229332632,158
78547,180827,202874,-1.6438691261999998,8.590233134,4.6600220135,159
77953,180750,202792,-1.639083481,8.405985793800001,4.797609313,160
77668,180722,202777,-1.5146567058,8.3557365192,4.8035913695,161
77615,180699,202793,-1.4500504956,8.61416136,4.7593241513999995,162
77776,180762,202817,-1.5409777544,8.446663778,4.7353959254,163
77974,180817,202834,-1.6546368279,8.3138621237,4.5846481016,164
78107,180819,202867,-1.5230315848999998,8.829515394,4.7330031028,165
78113,180787,202821,-1.4703894876999999,8.7003029736,4.5164526575,166
77953,180771,202839,-1.5134602944999997,8.475377649199999,4.9328037898999995,167
77888,180765,202805,-1.567298803,8.720641965699999,4.4829531411,168
77914,180767,202833,-1.4859428346,8.386843213,4.6947179412,169
78047,180791,202864,-1.5517454561000001,8.5459659159,4.7940200791,170
77933,180761,202845,-1.4333007374,8.697910151,4.6839502395,171
77441,180659,202763,-1.6450655375,8.3940216808,4.6995035864000005,172
77009,180606,202701,-1.6570296505,8.5507515611,4.7676990305,173
76984,180618,202752,-1.4524433182,8.5340018029,4.7186461672,174
77175,180705,202802,-1.4967105363,8.3784683339,4.7760739096,175
77390,180715,202833,-1.4261222696,8.4323068424,4.5846481016,176
77638,180710,202858,-1.5002997702,8.7373917239,4.737788748,177
77709,180741,202875,-1.4907284798,8.4837525283,4.654039957,178
77666,180702,202863,-1.4081761001,8.5280197464,4.7401815706,179
77544,180726,202860,-1.531406464,8.5615192628,4.6253260858,180
77647,180729,202860,-1.5337992866,8.752945070800001,4.6995035864000005,181
77739,180759,202874,-1.5601203352,8.3820575678,4.705485642899999,182
77832,180750,202886,-1.3555340029,8.6165541826,4.7258246349999995,183
77565,180675,202870,-1.5349956979000001,8.638089586,4.8011985469,184
77113,180601,202836,-1.5505490447999999,8.3413795836,4.6983071751,185
77008,180626,202824,-1.4297115034999999,8.574679787100001,4.642075844,186
77127,180627,202883,-1.2502498085,8.8019979341,4.5930229807,187
77405,180664,202900,-1.5254244074999999,8.427521197199999,4.6851466508,188
77639,180700,202921,-1.4512469069,8.6153577713,4.8107698373000005,189
77801,180745,202923,-1.4500504956,8.8079799906,4.6289153197,190
77823,180730,202933,-1.495514125,8.3760755113,4.8071806034,191
77800,180687,202950,-1.4907284798,8.4335032537,4.6480579005,192
77852,180726,202952,-1.220339526,8.654839344200001,4.5762732225,193
77989,180815,202969,-1.5565311013,8.4789668831,4.7365923367,194
78137,180816,202976,-1.4380863826,8.5615192628,4.7318066915,195
78215,180778,203038,-1.3615160593999998,8.654839344200001,4.6683968926,196
77861,180717,203005,-1.5385849318,8.458627890999999,4.5966122146,197
77589,180648,202932,-1.411765334,8.530412569000001,4.7796631435,198
77624,180695,202930,-1.387837108,8.6333039408,4.6396830214,199
77847,180723,203029,-1.4464612617,8.6117685374,4.498506487999999,200
78104,180797,203049,-1.4536397294999999,8.5268233351,4.7688954418,201
78368,180833,203076,-1.5481562222,8.7708912403,4.7365923367,202
78440,180824,203081,-1.3651052933,8.5998044244,4.7365923367,203
78431,180781,203078,-1.4907284798,8.650053698999999,4.7042892316,204
78417,180762,203047,-1.4668002538,8.596215190499999,4.5870409242,205
78489,180800,203037,-1.495514125,8.5591264402,4.637290198800001,206
78551,180824,203115,-1.3734801723999999,8.6177505939,4.7413779819,207
78744,180836,203094,-1.4404792052000002,8.6225362391,4.618147618,208
78520,180780,203079,-1.4895320685,8.5615192628,4.6444686666,209
78188,180699,203053,-1.4715858990000001,8.5914295453,4.7282174576000005,210
78099,180743,203069,-1.5266208188,8.6727855137,4.589433746799999,211
78211,180752,203049,-1.5397813431,8.636893174699999,4.6995035864000005,212
78488,180787,203111,-1.4811571894,8.6608214007,4.671986126499999,213
78728,180845,203121,-1.4572289634,8.4526458345,4.7234318124,214
78897,180839,203207,-1.4679966650999998,8.6249290617,4.6348973762,215
78934,180835,203153,-1.5409777544,8.5926259566,4.6827538282,216
78911,180808,203130,-1.4404792052000002,8.4658063588,4.6731825378,217
79000,180851,203191,-1.4416756165,8.4969130526,4.6456650779,218
79056,180863,203210,-1.4691930764,8.4083786164,4.7210389898,219
79205,180899,203157,-1.4691930764,8.685946038,4.7365923367,220
79119,180844,203119,-1.4644074312,8.5005022865,4.6971107638,221
78749,180770,203122,-1.3746765837,8.538787448099999,4.7318066915,222
78551,180779,203114,-1.5529418674,8.566304908,4.7617169740000005,223
78611,180781,203119,-1.5218351736,8.4789668831,4.7676990305,224
78835,180844,203182,-1.507478238,8.5076807543,4.7760739096,225
79013,180854,203168,-1.4440684390999998,8.5974116018,4.677968183,226
79239,180869,203187,-1.4189438018,8.6345003521,4.7114676994,227
79225,180883,203167,-1.5696916256,8.5316089803,4.8765724588,228
79145,180830,203137,-1.531406464,8.542376681999999,4.6827538282,229
79111,180836,203166,-1.6019947307,8.6093757148,4.6612184248,230
79170,180800,203145,-1.5361921092,8.517252044700001,4.7569313288,231
79293,180875,203176,-1.6139588437,8.6691962798,4.6636112473999995,232
79279,180834,203155,-1.5577275125999999,8.5088771656,4.7330031028,233
78950,180752,203103,-1.5780665047,8.6201434165,4.844269353700001,234
78646,180704,203098,-1.5290136414,8.5471623272,4.7772703209000005,235
78645,180715,203108,-1.4656038425,8.4897345848,4.9112683865,236
78826,180794,203103,-1.4141581566,8.6069828922,4.642075844,237
79092,180816,203169,-1.3651052933,8.7014993849,4.6325045536000005,238
79274,180843,203210,-1.5493526335,8.5040915204,4.6923251185999995,239
79351,180869,203212,-1.5326028753,8.5998044244,4.6301117309999995,240
79316,180841,203228,-1.4033904549,8.5471623272,4.6707897152,241
79271,180819,203193,-1.6019947307,8.6165541826,4.6851466508,242
79329,180844,203199,-1.4656038425,8.4957166413,4.7090748768,243
79440,180876,203224,-1.5469598109,8.584251077500001,4.7198425785,244
79490,180883,203185,-1.5266208188,8.707481441399999,4.6947179412,245
79180,180777,203131,-1.5936198516,8.566304908,4.6348973762,246
78741,180681,203096,-1.5493526335,8.450253011900001,4.7557349175,247
78634,180753,203107,-1.3890335193,8.5579300289,4.8059841921,248
78748,180742,203100,-1.4919248910999998,8.542376681999999,4.7186461672,249
79045,180798,203204,-1.5577275125999999,8.6093757148,4.642075844,250
79227,180831,203181,-1.5373885205000002,8.6069828922,4.6803610056,251
79316,180828,203213,-1.4548361408000001,8.7565343047,4.7186461672,252
79295,180842,203224,-1.5014961814999999,8.578269021,4.7078784655,253
79243,180804,203219,-1.4105689227,8.584251077500001,4.7796631435,254
79269,180824,203231,-1.4333007374,8.638089586,4.6767717716999995,255
79372,180838,203222,-1.4285150922,8.4610207136,4.7940200791,256
79463,180838,203203,-1.5182459396999999,8.6105721261,4.7521456836,257
79231,180804,203211,-1.5924234403000002,8.6440716425,4.5798624564,258
78732,180686,203109,-1.7216358607,8.4430745441,4.7114676994,259
78499,180693,203120,-1.4584253747,8.5028951091,4.5511485852,260
78550,180683,203142,-1.5014961814999999,8.4562350684,4.773681087,261
78793,180731,203218,-1.5361921092,8.554340795,4.6564327796,262
79025,180785,203222,-1.5337992866,8.5686977306,4.6337009649,263
79209,180774,203218,-1.6354942471,8.650053698999999,4.734199514099999,264
79189,180773,203237,-1.3674981159,8.5758761984,4.7641097966,265
79113,180761,203226,-1.5146567058,8.482556117,4.6875394734,266
79107,180799,203213,-1.5098710606,8.6153577713,4.7593241513999995,267
79194,180795,203268,-1.3064811396,8.4143606729,4.6731825378,268
79333,180819,203285,-1.3986048097,8.877371846,4.6229332632,269
79339,180791,203286,-1.4608181972999998,8.6644106346,4.7126641107,270
78874,180673,203178,-1.6055839645999999,8.463413536200001,4.6803610056,271
78466,180643,203146,-1.4895320685,8.516055633399999,4.7593241513999995,272
78429,180678,203141,-1.5445669883000002,8.5806618436,4.5774696338,273
78630,180703,203188,-1.5397813431,8.525626923799999,4.8203411277,274
78895,180711,203229,-1.5026925928000001,8.506484343,4.5487557626,275
79113,180778,203248,-1.519442351,8.7038922075,4.6564327796,276
79166,180748,203297,-1.5924234403000002,8.4741812379,4.7964129017,277
79116,180739,203285,-1.507478238,8.636893174699999,4.7210389898,278
79088,180732,203249,-1.5936198516,8.470592004,4.6767717716999995,279
79144,180766,203298,-1.5026925928000001,8.5399838594,4.7042892316,280
79277,180797,203294,-1.4500504956,8.373682688699999,4.7437708044999995,281
79384,180753,203293,-1.5852449725,8.7110706753,4.6875394734,282
79172,180724,203236,-1.531406464,8.7014993849,4.6325045536000005,283
78626,180663,203211,-1.5864413838,8.4490566006,4.788038022599999,284
78444,180589,203217,-1.603191142,8.6321075295,4.754538506199999,285
78581,180644,203250,-1.4500504956,8.569894141899999,4.7318066915,286
78830,180718,203321,-1.5996019081000001,8.5447695046,4.5415772948,287
79089,180770,203333,-1.591227029,8.5232341012,4.7162533446,288
79249,180759,203351,-1.55533469,8.6356967634,4.734199514099999,289
79235,180735,203317,-1.4632110199,8.6117685374,4.6396830214,290
79188,180709,203300,-1.5038890041,8.5651084967,4.738985159299999,291
79206,180740,203306,-1.5481562222,8.5878403114,4.6672004813,292
79318,180748,203336,-1.5409777544,8.5244305125,4.5966122146,293
79469,180786,203341,-1.4344971487,8.6464644651,4.6660040700000005,294
79562,180776,203367,-1.7192430381,8.650053698999999,4.6672004813,295
79263,180703,203280,-1.5122638832,8.583054666199999,4.6875394734,296
78735,180631,203269,-1.55533469,8.4646099475,4.6408794327,297
78698,180591,203264,-1.4763715442,8.5399838594,4.7282174576000005,298
78919,180647,203302,-1.4141581566,8.5399838594,4.7330031028,299
79190,180722,203416,-1.6259229567,8.650053698999999,4.6612184248,300
79476,180768,203399,-1.5625131578,8.542376681999999,4.6911287073,301
79583,180778,203438,-1.5684952143000002,8.596215190499999,4.5511485852,302
79568,180733,203352,-1.5960126741999998,8.4981094639,4.6815574169,303
79503,180718,203400,-1.5050854154,8.6297147069,4.637290198800001,304
79573,180772,203386,-1.4811571894,8.4993058752,4.6995035864000005,305
79745,180792,203404,-1.4751751328999998,8.569894141899999,4.6660040700000005,306
79869,180790,203421,-1.4416756165,8.7014993849,4.6588256022,307
79879,180748,203418,-1.4620146086,8.5734833758,4.6229332632,308
79426,180655,203382,-1.5732808595,8.484948939599999,4.6588256022,309
79008,180632,203350,-1.4979069476,8.4646099475,4.6157547954,310
79194,180671,203399,-1.3316057769,8.5411802707,4.5966122146,311
79423,180697,203407,-1.3160524299999998,8.4897345848,4.7521456836,312
79740,180739,203440,-1.4620146086,8.590233134,4.6983071751,313
79972,180780,203453,-1.543370577,8.6895352719,4.6348973762,314
80068,180793,203459,-1.5684952143000002,8.5998044244,4.6731825378,315
80050,180735,203462,-1.4775679554999999,8.6333039408,4.606183505,316
80007,180753,203486,-1.5457633996,8.482556117,4.6683968926,317
80130,180787,203456,-1.531406464,8.6715891024,4.7270210463,318
80277,180815,203515,-1.4799607781,8.538787448099999,4.7246282237,319
80427,180832,203504,-1.5828521499000001,8.7326060787,4.6277189084,320
80355,180788,203480,-1.5361921092,8.5651084967,4.7150569333,321
79845,180689,203442,-1.5302100526999998,8.470592004,4.7030928203,322
79698,180656,203432,-1.3543375915999998,8.518448456,4.6253260858,323
79880,180720,203487,-1.4620146086,8.628518295600001,4.654039957,324
80160,180748,203524,-1.5996019081000001,8.5914295453,4.6492543118,325
80452,180824,203549,-1.5122638832,8.6213398278,4.5762732225,326
80652,180842,203573,-1.5014961814999999,8.6883388606,4.6002014485,327
80705,180784,203532,-1.543370577,8.6321075295,4.6983071751,328
80643,180797,203558,-1.4751751328999998,8.4693955927,4.7006999977,329
80685,180809,203516,-1.4452648504,8.662017812,4.6791645943,330
80818,180823,203568,-1.4536397294999999,8.7038922075,4.6301117309999995,331
80984,180853,203582,-1.4787643668000001,8.5375910368,4.7425743932,332
81121,180875,203607,-1.4560325521,8.7589271273,4.5044885445,333
80926,180834,203535,-1.4536397294999999,8.5794654323,4.7126641107,334
80496,180713,203530,-1.4907284798,8.4981094639,4.5439701174,335
80408,180712,203551,-1.4380863826,8.6476608764,4.7006999977,336
80632,180749,203572,-1.5086746492999998,8.5016986978,4.6157547954,337
80943,180819,203569,-1.603191142,8.5328053916,4.6253260858,338
81184,180863,203638,-1.5876377951,8.6010008357,4.754538506199999,339
81375,180891,203647,-1.4608181972999998,8.7373917239,4.6707897152,340
81398,180866,203639,-1.5816557385999999,8.5100735769,4.6983071751,341
81368,180856,203634,-1.5050854154,8.410771439,4.7258246349999995,342
81421,180877,203646,-1.5661023917,8.6668034572,4.6552363683,343
81551,180861,203682,-1.6163516663,8.4729848266,4.7916272565,344
81703,180891,203701,-1.5649059803999998,8.5998044244,4.6408794327,345
81794,180920,203615,-1.3794622289,8.7182491431,4.6037906824000006,346
81488,180814,203631,-1.5230315848999998,8.5459659159,4.6504507231,347
81112,180747,203570,-1.4931213024,8.641678819900001,4.582255279,348
81095,180751,203606,-1.4548361408000001,8.6464644651,4.5726839886,349
81262,180774,203589,-1.5110674719,8.4203427294,4.7760739096,350
81626,180865,203658,-1.4668002538,8.5591264402,4.6755753604,351
81873,180903,203680,-1.5565311013,8.578269021,4.6600220135,352
81983,180953,203686,-1.3782658175999998,8.516055633399999,4.6755753604,353
81966,180908,203703,-1.5361921092,8.739784546500001,4.5631126982,354
81949,180891,203667,-1.4620146086,8.590233134,4.6851466508,355
81971,180905,203681,-1.5720844482,8.6213398278,4.677968183,356
82130,180950,203679,-1.5002997702,8.4311104311,4.7425743932,357
82290,180950,203768,-1.5146567058,8.681160392799999,4.6564327796,358
82307,180911,203724,-1.4141581566,8.6213398278,4.5750768112,359
81902,180871,203657,-1.5206387623,8.4921274074,4.6923251185999995,360
81585,180797,203640,-1.5242279962,8.5507515611,4.6229332632,361
81639,180791,203658,-1.567298803,8.6608214007,4.6995035864000005,362
81865,180866,203685,-1.4321043261,8.590233134,4.6516471344,363
82158,180891,203742,-1.495514125,8.6392859973,4.5774696338,364
82388,180956,203722,-1.3938191645,8.566304908,4.6971107638,365
82452,180940,203763,-1.5170495284,8.6165541826,4.5092741897,366
82416,180940,203759,-1.4309079148000001,8.5866439001,4.6241296745,367
82367,180937,203722,-1.4608181972999998,8.5579300289,4.6947179412,368
82444,180940,203732,-1.4237294470000001,8.6464644651,4.6660040700000005,369
82588,180968,203743,-1.5218351736,8.4658063588,4.6564327796,370
82781,180967,203763,-1.3292129543,8.6668034572,4.5655055207999995,371
82631,180936,203740,-1.6331014245,8.5040915204,4.7006999977,372
82123,180824,203679,-1.4584253747,8.463413536200001,4.734199514099999,373
81868,180833,203688,-1.5337992866,8.6213398278,4.5846481016,374
81953,180859,203722,-1.4763715442,8.653642932899999,4.6588256022,375
82198,180895,203696,-1.4560325521,8.551947972399999,4.606183505,376
82483,180961,203711,-1.4488540843,8.7589271273,4.5918265694,377
82700,180982,203771,-1.411765334,8.7373917239,4.705485642899999,378
82663,180985,203798,-1.4620146086,8.7661055951,4.6456650779,379
82635,180941,203819,-1.4871392459,8.5232341012,4.637290198800001,380
82611,180915,203799,-1.2729816232,8.6093757148,4.6384866101,381
82664,180939,203793,-1.6175480776,8.626125473,4.6564327796,382
82822,180952,203791,-1.4392827939,8.529216157699999,4.618147618,383
82934,180968,203841,-1.5816557385999999,8.6428752312,4.6875394734,384
82725,180887,203791,-1.3627124707,8.5890367227,4.6911287073,385
82179,180829,203767,-1.5218351736,8.6273218843,4.734199514099999,386
81970,180832,203711,-1.567298803,8.516055633399999,4.6109691502,387
82096,180866,203706,-1.3866406967,8.471788415299999,4.7964129017,388
82283,180905,203752,-1.4452648504,8.5722869645,4.5918265694,389
82602,180994,203815,-1.4632110199,8.6644106346,4.560719875599999,390
82756,181012,203830,-1.4715858990000001,8.5591264402,4.606183505,391
82731,180989,203808,-1.4644074312,8.6476608764,4.6612184248,392
82642,181002,203831,-1.5696916256,8.4921274074,4.5798624564,393
82570,181000,203837,-1.5014961814999999,8.6117685374,4.6612184248,394
82685,180987,203834,-1.5385849318,8.4921274074,4.6133619728,395
82836,180978,203846,-1.4368899712999998,8.6560357555,4.606183505,396
82819,180969,203800,-1.4883356572,8.6093757148,4.6301117309999995,397
82346,180892,203791,-1.6510475939999998,8.5232341012,4.754538506199999,398
81842,180786,203732,-1.3423734786,8.6751783363,4.7294138689,399
81686,180805,203694,-1.3004990831,8.5639120854,4.6193440293,400
81861,180865,203794,-1.5960126741999998,8.4442709554,4.8562334667,401
82124,180916,203764,-1.3579268255,8.7517486595,4.594219392,402
82364,180952,203811,-1.5134602944999997,8.6668034572,4.701896409,403
82422,180969,203873,-1.5098710606,8.6596249894,4.5355952383,404
82305,180919,203816,-1.5768700934,8.5710905532,4.7030928203,405
82144,180913,203807,-1.3196416639,8.5794654323,4.6660040700000005,406
82155,180943,203767,-1.4859428346,8.6165541826,4.6133619728,407
82222,180936,203823,-1.519442351,8.640482408599999,4.6325045536000005,408
82338,180946,203846,-1.3663017045999999,8.73380249,4.6073799163,409
82095,180908,203746,-1.4823536007,8.6297147069,4.7282174576000005,410
81322,180796,203708,-1.6426727149,8.6560357555,4.643272255299999,411
81062,180753,203707,-1.4739787216,8.6524465216,4.5990050372,412
81145,180795,203719,-1.3495519463999999,8.6596249894,4.7006999977,413
81415,180883,203775,-1.5768700934,8.6703926911,4.7174497559,414
81687,180897,203819,-1.4895320685,8.6392859973,4.6707897152,415
81861,180944,203798,-1.4883356572,8.5818582549,4.642075844,416
81848,180929,203812,-1.4691930764,8.4957166413,4.6133619728,417
81715,180887,203775,-1.5720844482,8.6823568041,4.6612184248,418
81628,180871,203806,-1.4416756165,8.6476608764,4.7916272565,419
81663,180906,203786,-1.5026925928000001,8.4095750277,4.7222354011,420
81785,180949,203840,-1.5182459396999999,8.6679998685,4.6995035864000005,421
81731,180949,203796,-1.7288143285,8.6452680538,4.6935215299,422
81076,180772,203729,-1.7455640867,8.4311104311,4.7114676994,423
80585,180683,203706,-1.5050854154,8.6321075295,4.7150569333,424
80553,180701,203697,-1.4380863826,8.5806618436,4.6851466508,425
80755,180768,203721,-1.5744772707999999,8.636893174699999,4.7282174576000005,426
81057,180843,203741,-1.5469598109,8.5136628108,4.6492543118,427
81293,180890,203799,-1.4943177136999999,8.653642932899999,4.7318066915,428
81246,180848,203827,-1.567298803,8.6345003521,4.6875394734,429
81172,180811,203752,-1.55533469,8.5328053916,4.7102712880999995,430
81058,180889,203777,-1.5002997702,8.574679787100001,4.7605205627,431
81009,180816,203734,-1.4584253747,8.61416136,4.6085763276,432
81175,180837,203745,-1.3483555351,8.6584285781,4.6755753604,433
81217,180827,203753,-1.6546368279,8.5603228515,4.6325045536000005,434
80678,180708,203677,-1.6127624323999998,8.5363946255,4.6636112473999995,435
80066,180652,203621,-1.4679966650999998,8.6010008357,4.492524431500001,436
79974,180627,203687,-1.4775679554999999,8.518448456,4.547559351299999,437
80189,180682,203706,-1.5146567058,8.4658063588,4.5918265694,438
80517,180720,203748,-1.6642081183,8.781658942,4.7270210463,439
80826,180778,203766,-1.4943177136999999,8.7014993849,4.6313081423,440
80916,180785,203787,-1.5661023917,8.5447695046,4.5678983434,441
80829,180791,203735,-1.567298803,8.5591264402,4.6480579005,442
80709,180704,203767,-1.4859428346,8.566304908,4.5846481016,443
80732,180732,203731,-1.5002997702,8.556733617599999,4.6217368519,444
80897,180767,203797,-1.4715858990000001,8.5639120854,4.5966122146,445
80995,180773,203767,-1.4811571894,8.8259261601,4.560719875599999,446
80522,180690,203725,-1.6713865861,8.554340795,4.6935215299,447
79879,180528,203701,-1.6917255782,8.484948939599999,4.637290198800001,448
79795,180494,203694,-1.5649059803999998,8.590233134,4.7030928203,449
79991,180590,203689,-1.5613167465000002,8.6213398278,4.6073799163,450
80321,180656,203734,-1.5972090855,8.5088771656,4.534398827,451
80642,180714,203804,-1.5888342063999998,8.5399838594,4.5631126982,452
80789,180708,203838,-1.3986048097,8.6883388606,4.6002014485,453
80720,180688,203859,-1.4380863826,8.596215190499999,4.7222354011,454
80616,180673,203806,-1.5122638832,8.5806618436,4.6384866101,455
80674,180678,203834,-1.4967105363,8.574679787100001,4.6683968926,456
80843,180708,203875,-1.3459627125,8.5471623272,4.6157547954,457
80986,180711,203849,-1.3866406967,8.7684984177,4.6863430621,458
80637,180622,203825,-1.6091731985,8.5375910368,4.5296131818,459
79984,180498,203751,-1.5385849318,8.5040915204,4.6337009649,460
79802,180466,203731,-1.4261222696,8.6129649487,4.7222354011,461
80004,180528,203756,-1.3926227532000002,8.6129649487,4.6683968926,462
80399,180632,203824,-1.5924234403000002,8.7326060787,4.6408794327,463
80732,180662,203852,-1.567298803,8.602197247,4.6851466508,464
80929,180679,203895,-1.5481562222,8.7589271273,4.5954158033,465
80935,180649,203863,-1.5684952143000002,8.7684984177,4.5248275366,466
80856,180634,203888,-1.5864413838,8.551947972399999,4.5391844722,467
80879,180670,203879,-1.5206387623,8.739784546500001,4.6612184248,468
81040,180651,203871,-1.3710873497999998,8.5770726097,4.7126641107,469
81233,180700,203920,-1.4871392459,8.757730716,4.6157547954,470
81092,180648,203943,-1.579262916,8.5890367227,4.6791645943,471
80474,180520,203841,-1.5409777544,8.4873417622,4.6277189084,472
80198,180432,203841,-1.55533469,8.695517328400001,4.5535414078,473
80359,180501,203836,-1.5780665047,8.5016986978,4.5990050372,474
80677,180605,203869,-1.5206387623,8.638089586,4.677968183,475
81123,180638,203982,-1.603191142,8.6703926911,4.5248275366,476
81243,180685,203960,-1.4703894876999999,8.663214223299999,4.5511485852,477
81304,180650,203979,-1.4883356572,8.5005022865,4.6791645943,478
81188,180627,203959,-1.5218351736,8.482556117,4.6791645943,479
81224,180624,203936,-1.5026925928000001,8.7349989013,4.6516471344,480
81367,180657,203961,-1.5768700934,8.628518295600001,4.6109691502,481
81580,180697,204003,-1.4847464232999998,8.638089586,4.5918265694,482
81619,180661,203951,-1.6618152957,8.5603228515,4.5726839886,483
80975,180514,203928,-1.591227029,8.5495551498,4.6516471344,484
80608,180442,203857,-1.5457633996,8.6356967634,4.558327053,485
80724,180474,203882,-1.3579268255,8.5088771656,4.7066820542,486
81065,180568,203944,-1.4679966650999998,8.6297147069,4.5846481016,487
81457,180634,204031,-1.5469598109,8.7134634979,4.5678983434,488
81739,180695,204036,-1.5290136414,8.6129649487,4.5559342304,489
81856,180698,204059,-1.3459627125,8.6560357555,4.570291166,490
81737,180663,204037,-1.519442351,8.5890367227,4.6803610056,491
81736,180624,204025,-1.3794622289,8.5208412786,4.5200418914,492
81890,180678,204079,-1.4739787216,8.5615192628,4.5535414078,493
82082,180684,204105,-1.5505490447999999,8.4837525283,4.6636112473999995,494
82200,180705,204087,-1.4548361408000001,8.7050886188,4.5726839886,495
81778,180546,204052,-1.5457633996,8.5148592221,4.5798624564,496
81205,180460,203986,-1.4907284798,8.5208412786,4.7509492723,497
81152,180485,204044,-1.375872995,8.4538422458,4.7294138689,498
81426,180539,204010,-1.5337992866,8.6117685374,4.6588256022,499
81775,180612,204082,-1.5505490447999999,8.596215190499999,4.5990050372,500
82085,180673,204089,-1.5397813431,8.590233134,4.5966122146,501
82269,180713,204142,-1.4177473905,8.7050886188,4.594219392,502
82215,180679,204102,-1.4512469069,8.596215190499999,4.6672004813,503
82189,180658,204092,-1.5002997702,8.463413536200001,4.689932296,504
82256,180649,204136,-1.4787643668000001,8.7146599092,4.6636112473999995,505
82449,180713,204154,-1.4715858990000001,8.5579300289,4.6468614892,506
82649,180744,204201,-1.4691930764,8.6392859973,4.5678983434,507
82526,180639,204172,-1.4620146086,8.5974116018,4.6384866101,508
81889,180513,204087,-1.6247265454,8.5818582549,4.618147618,509
81579,180489,204059,-1.5038890041,8.5651084967,4.6313081423,510
81699,180514,204112,-1.411765334,8.5016986978,4.6660040700000005,511
82026,180581,204128,-1.4991033588999998,8.7182491431,4.5918265694,512
82379,180673,204176,-1.5996019081000001,8.7014993849,4.6552363683,513
82615,180753,204211,-1.5601203352,8.6524465216,4.5559342304,514
82643,180688,204211,-1.567298803,8.6392859973,4.737788748,515
82625,180660,204189,-1.4763715442,8.7122670866,4.6743789491,516
82565,180657,204180,-1.5373885205000002,8.590233134,4.7078784655,517
82703,180716,204196,-1.3674981159,8.4670027701,4.6875394734,518
82876,180721,204242,-1.5649059803999998,8.5244305125,4.738985159299999,519
83029,180740,204204,-1.5505490447999999,8.5998044244,4.6707897152,520
82610,180629,204167,-1.7084753364,8.4897345848,4.6887358847,521
81982,180489,204085,-1.6474583601,8.4562350684,4.6588256022,522
81865,180513,204099,-1.579262916,8.6045900696,4.6612184248,523
82084,180548,204118,-1.5577275125999999,8.5710905532,4.5798624564,524
82409,180633,204177,-1.6127624323999998,8.6356967634,4.6325045536000005,525
82711,180681,204243,-1.5625131578,8.5878403114,4.7078784655,526
82829,180711,204224,-1.6546368279,8.6392859973,4.7090748768,527
82747,180645,204229,-1.5984054967999999,8.6213398278,4.6612184248,528
82672,180634,204204,-1.6546368279,8.574679787100001,4.6707897152,529
82744,180712,204205,-1.4739787216,8.640482408599999,4.7844487887,530
82894,180715,204188,-1.6498511827,8.6237326504,4.609772738899999,531
83097,180736,204233,-1.5361921092,8.6871424493,4.642075844,532
83076,180680,204287,-1.4727823103,8.7768732968,4.6265224971,533
82425,180543,204141,-1.5230315848999998,8.6069828922,4.7665026192,534
81923,180487,204112,-1.5002997702,8.5136628108,4.589433746799999,535
81938,180514,204147,-1.3339985995,8.5615192628,4.6983071751,536
82225,180579,204185,-1.4476576730000001,8.6153577713,4.6851466508,537
82587,180672,204207,-1.4919248910999998,8.5411802707,4.6600220135,538
82873,180724,204247,-1.4967105363,8.650053698999999,4.6444686666,539
82879,180684,204223,-1.6079767872,8.5878403114,4.5990050372,540
82791,180674,204199,-1.531406464,8.5232341012,4.6731825378,541
82748,180665,204176,-1.6223337227999999,8.5495551498,4.6121655615,542
82836,180672,204258,-1.4213366244,8.638089586,4.6109691502,543
83029,180738,204277,-1.4237294470000001,8.4813597057,4.582255279,544
83170,180747,204262,-1.4584253747,8.6117685374,4.6672004813,545
82977,180662,204228,-1.6103696098,8.5878403114,4.6600220135,546
82241,180517,204167,-1.5517454561000001,8.5363946255,4.5870409242,547
81902,180501,204170,-1.5170495284,8.446663778,4.6384866101,548
82008,180509,204172,-1.5349956979000001,8.61416136,4.6588256022,549
82299,180594,204232,-1.5720844482,8.4897345848,4.522434714,550
82619,180703,204207,-1.5409777544,8.4921274074,4.6935215299,551
82858,180719,204299,-1.6199409001999998,8.7254276109,4.6875394734,552
82850,180626,204275,-1.6127624323999998,8.6225362391,4.5559342304,553
82775,180647,204246,-1.4620146086,8.554340795,4.6875394734,554
82754,180685,204266,-1.5050854154,8.516055633399999,4.6959143525,555
82859,180699,204275,-1.5146567058,8.6596249894,4.6576291909,556
83055,180733,204281,-1.4644074312,8.638089586,4.671986126499999,557
83187,180754,204324,-1.5182459396999999,8.6345003521,4.6109691502,558
82778,180632,204296,-1.4799607781,8.590233134,4.738985159299999,559
82024,180526,204213,-1.5481562222,8.5926259566,4.6205404406,560
81879,180516,204175,-1.4787643668000001,8.5399838594,4.6085763276,561
82045,180558,204189,-1.4488540843,8.5758761984,4.637290198800001,562
82359,180648,204264,-1.5385849318,8.6117685374,4.609772738899999,563
82669,180716,204291,-1.5661023917,8.530412569000001,4.7605205627,564
82763,180733,204316,-1.3112667848,8.6572321668,4.5678983434,565
82794,180709,204327,-1.6307086019,8.7158563205,4.5798624564,566
82685,180636,204318,-1.6115660211,8.602197247,4.6396830214,567
82689,180702,204289,-1.4967105363,8.6608214007,4.6815574169,568
82854,180720,204324,-1.5385849318,8.5040915204,4.6588256022,569
83024,180760,204328,-1.5158531170999998,8.7134634979,4.671986126499999,570
83099,180732,204328,-1.3962119871,8.6428752312,4.5990050372,571
82546,180631,204244,-1.5864413838,8.5399838594,4.6923251185999995,572
81895,180551,204202,-1.4943177136999999,8.5627156741,4.5918265694,573
81828,180503,204217,-1.6259229567,8.538787448099999,4.6636112473999995,574
82063,180594,204276,-1.4644074312,8.5208412786,4.637290198800001,575
82399,180679,204291,-1.4727823103,8.6237326504,4.7306102802,576
82703,180759,204313,-1.5720844482,8.5710905532,4.5415772948,577
82803,180741,204350,-1.4919248910999998,8.739784546500001,4.6480579005,578
82716,180722,204329,-1.4428720278,8.5866439001,4.734199514099999,579
82608,180684,204312,-1.5744772707999999,8.538787448099999,4.7294138689,580
82633,180730,204327,-1.5816557385999999,8.8259261601,4.6911287073,581
82766,180719,204349,-1.4895320685,8.3413795836,4.7222354011,582
82919,180773,204341,-1.4476576730000001,8.7732840629,4.6947179412,583
82842,180711,204328,-1.4560325521,8.4981094639,4.534398827,584
82134,180560,204210,-1.6199409001999998,8.391628858199999,4.7916272565,585
81634,180510,204204,-1.459621786,8.6237326504,4.6588256022,586
81582,180502,204198,-1.4632110199,8.717052731799999,4.6205404406,587
81842,180597,204273,-1.6773686425999998,8.5627156741,4.671986126499999,588
82208,180665,204304,-1.5385849318,8.6213398278,4.618147618,589
82427,180690,204318,-1.5481562222,8.566304908,4.606183505,590
82425,180745,204329,-1.4488540843,8.7314096674,4.6002014485,591
82293,180679,204306,-1.543370577,8.6703926911,4.5966122146,592
82231,180664,204294,-1.5242279962,8.5591264402,4.6205404406,593
82306,180664,204343,-1.5529418674,8.7194455544,4.589433746799999,594
82433,180700,204296,-1.55533469,8.4299140198,4.6229332632,595
82586,180748,204336,-1.3698909385,8.7230347883,4.7102712880999995,596
82167,180635,204279,-1.6737794087,8.4933238187,4.6301117309999995,597
81397,180477,204225,-1.5230315848999998,8.5866439001,4.7557349175,598
81054,180448,204189,-1.5840485612,8.554340795,4.6109691502,599
81179,180537,204183,-1.4895320685,8.6512501103,4.7700918531,600
81479,180597,204265,-1.4703894876999999,8.6751783363,4.6552363683,601
81818,180679,204312,-1.567298803,8.6871424493,4.6265224971,602
81977,180688,204313,-1.4189438018,8.6512501103,4.6683968926,603
81905,180635,204305,-1.5134602944999997,8.6668034572,4.6037906824000006,604
81753,180598,204267,-1.4536397294999999,8.4418781328,4.6636112473999995,605
81723,180593,204302,-1.5804593273,8.5866439001,4.5786660451,606
81809,180635,204315,-1.4691930764,8.5136628108,4.582255279,607
81981,180686,204381,-1.6474583601,8.5531443837,4.6456650779,608
82007,180659,204347,-1.5146567058,8.681160392799999,4.618147618,609
81394,180508,204285,-1.4775679554999999,8.3844503904,4.558327053,610
80614,180385,204189,-1.4321043261,8.5016986978,4.558327053,611
80476,180412,204170,-1.6055839645999999,8.5986080131,4.6109691502,612
80729,180460,204249,-1.4249258583,8.5555372063,4.6672004813,613
81044,180534,204282,-1.6175480776,8.6189470052,4.5882373355,614
81334,180583,204314,-1.4584253747,8.745766603,4.6815574169,615
81438,180610,204328,-1.5218351736,8.654839344200001,4.54636294,616
81367,180512,204340,-1.5385849318,8.5399838594,4.582255279,617
81250,180582,204288,-1.4021940436,8.6799639815,4.6217368519,618
81266,180582,204317,-1.4141581566,8.556733617599999,4.6564327796,619
81433,180599,204313,-1.4153545679,8.5040915204,4.7126641107,620
81630,180654,204349,-1.5696916256,8.7314096674,4.6229332632,621
81508,180601,204337,-1.5206387623,8.4323068424,4.6037906824000006,622
80723,180446,204241,-1.6295121905999999,8.5591264402,4.7030928203,623
80157,180358,204215,-1.5361921092,8.5710905532,4.6133619728,624
80191,180395,204226,-1.5254244074999999,8.5615192628,4.6815574169,625
80508,180497,204301,-1.5158531170999998,8.5651084967,4.6396830214,626
80876,180581,204320,-1.543370577,8.542376681999999,4.6396830214,627
81151,180600,204373,-1.4452648504,8.5639120854,4.5631126982,628
81191,180573,204392,-1.4153545679,8.445467366699999,4.5966122146,629
81065,180556,204341,-1.5720844482,8.4406817215,4.558327053,630
80994,180549,204334,-1.5720844482,8.5375910368,4.7030928203,631
81099,180575,204320,-1.5170495284,8.6010008357,4.6109691502,632
81301,180625,204332,-1.5720844482,8.5375910368,4.6959143525,633
81457,180640,204361,-1.5493526335,8.829515394,4.6013978598,634
81175,180557,204336,-1.6007983194,8.5280197464,4.6887358847,635
80392,180415,204254,-1.5888342063999998,8.484948939599999,4.6253260858,636
80072,180398,204249,-1.3375878334,8.5268233351,4.5690947547,637
80266,180443,204286,-1.4452648504,8.4741812379,4.5643091095,638
80658,180509,204332,-1.4309079148000001,8.6488572877,4.6492543118,639
81041,180602,204387,-1.4991033588999998,8.6464644651,4.6229332632,640
81271,180596,204412,-1.5206387623,8.6225362391,4.7306102802,641
81256,180593,204374,-1.4919248910999998,8.529216157699999,4.5870409242,642
81152,180566,204368,-1.5182459396999999,8.6297147069,4.6205404406,643
81147,180563,204386,-1.5984054967999999,8.6452680538,4.7557349175,644
81311,180585,204362,-1.5026925928000001,8.4071822051,4.6911287073,645
81490,180645,204399,-1.5577275125999999,8.7433737804,4.6444686666,646
81601,180595,204427,-1.5684952143000002,8.6679998685,4.6815574169,647
81095,180518,204352,-1.5409777544,8.3808611565,4.749752861,648
80436,180380,204305,-1.4979069476,8.6237326504,4.560719875599999,649
80373,180402,204321,-1.4392827939,8.518448456,4.6265224971,650
80677,180482,204321,-1.5649059803999998,8.5100735769,4.6325045536000005,651
81068,180557,204412,-1.7024932798999999,8.7517486595,4.5774696338,652
81444,180591,204406,-1.483550012,8.5734833758,4.6588256022,653
81553,180614,204434,-1.6247265454,8.6763747476,4.5834516903,654
81501,180609,204420,-1.6414763036,8.4969130526,4.6983071751,655
81459,180573,204419,-1.6342978358,8.6321075295,4.7006999977,656
81538,180620,204406,-1.5577275125999999,8.7732840629,4.6277189084,657
81752,180660,204461,-1.4512469069,8.4969130526,4.6887358847,658
81958,180664,204478,-1.4883356572,8.7792661194,4.5774696338,659
81914,180638,204463,-1.4931213024,8.5399838594,4.6157547954,660
81246,180504,204371,-1.4632110199,8.463413536200001,4.594219392,661
80801,180439,204330,-1.4368899712999998,8.6045900696,4.6169512067000005,662
80876,180469,204344,-1.531406464,8.626125473,4.7449672158,663
81211,180556,204434,-1.4105689227,8.446663778,4.6109691502,664
81625,180629,204498,-1.531406464,8.5651084967,4.689932296,665
81926,180671,204462,-1.5337992866,8.5938223679,4.6767717716999995,666
82029,180707,204522,-1.4979069476,8.6117685374,4.5523449965,667
81942,180665,204482,-1.5708880369,8.5950187792,4.6636112473999995,668
81941,180641,204477,-1.5014961814999999,8.653642932899999,4.547559351299999,669
82068,180689,204490,-1.5242279962,8.6117685374,4.6396830214,670
82284,180689,204511,-1.6211373115,8.470592004,4.5870409242,671
82492,180770,204537,-1.5720844482,8.7122670866,4.6576291909,672
82231,180667,204477,-1.5960126741999998,8.5280197464,4.5559342304,673
81567,180531,204426,-1.7084753364,8.5926259566,4.6013978598,674
81310,180476,204457,-1.4787643668000001,8.5316089803,4.637290198800001,675
81498,180520,204466,-1.4213366244,8.5878403114,4.5690947547,676
81863,180662,204479,-1.5254244074999999,8.6991065623,4.6193440293,677
82209,180698,204571,-1.5888342063999998,8.641678819900001,4.582255279,678
82462,180712,204519,-1.5768700934,8.764909183799999,4.6253260858,679
82514,180724,204550,-1.5577275125999999,8.6117685374,4.5918265694,680
82446,180707,204498,-1.3818550514999999,8.4430745441,4.6660040700000005,681
82494,180716,204514,-1.5541382787000002,8.628518295600001,4.6085763276,682
82650,180754,204555,-1.4644074312,8.6871424493,4.6600220135,683
82842,180758,204575,-1.4739787216,8.6679998685,4.6133619728,684
83023,180777,204560,-1.5445669883000002,8.8785682573,4.637290198800001,685
82638,180665,204556,-1.6307086019,8.4550386571,4.6588256022,686
82053,180597,204471,-1.4943177136999999,8.636893174699999,4.5415772948,687
81927,180594,204466,-1.3962119871,8.6440716425,4.5978086259,688
82154,180640,204477,-1.6091731985,8.6596249894,4.713860522,689
82511,180740,204555,-1.6450655375,8.5806618436,4.642075844,690
82844,180788,204593,-1.567298803,8.5639120854,4.6672004813,691
83031,180799,204601,-1.3651052933,8.640482408599999,4.7174497559,692
83018,180785,204589,-1.4201402131,8.556733617599999,4.6396830214,693
82972,180792,204549,-1.6007983194,8.6656070459,4.6959143525,694
83042,180771,204592,-1.579262916,8.694320917099999,4.7030928203,695
83207,180812,204588,-1.4763715442,8.5040915204,4.6444686666,696
83427,180853,204609,-1.5122638832,8.6572321668,4.6145583840999995,697
83457,180830,204635,-1.4859428346,8.640482408599999,4.4817567298,698
82996,180721,204546,-1.5984054967999999,8.427521197199999,4.6169512067000005,699
82462,180615,204559,-1.4811571894,8.5471623272,4.5750768112,700
82431,180695,204562,-1.4703894876999999,8.5328053916,4.7365923367,701
82685,180764,204546,-1.6163516663,8.5639120854,4.7653062079,702
83034,180815,204612,-1.5014961814999999,8.6452680538,4.6516471344,703
83346,180827,204665,-1.4608181972999998,8.5710905532,4.6253260858,704
83457,180849,204604,-1.5026925928000001,8.5950187792,4.527220359199999,705
83381,180809,204609,-1.6079767872,8.5806618436,4.6767717716999995,706
83363,180832,204609,-1.5481562222,8.5818582549,4.5906301581,707
83421,180830,204578,-1.5696916256,8.662017812,4.5966122146,708
83621,180885,204625,-1.4392827939,8.4921274074,4.6325045536000005,709
83787,180909,204673,-1.5481562222,8.7756768855,4.5990050372,710
83692,180853,204628,-1.5409777544,8.73380249,4.6384866101,711
83088,180730,204565,-1.6701901747999999,8.471788415299999,4.6672004813,712
82641,180661,204496,-1.4225330357,8.3665042209,4.6839502395,713
82712,180751,204534,-1.5768700934,8.578269021,4.816751893799999,714
82981,180788,204594,-1.6007983194,8.5603228515,4.7234318124,715
83368,180859,204626,-1.5840485612,8.4813597057,4.8514478215,716
83613,180945,204684,-1.5218351736,8.7972122889,4.7042892316,717
83693,180899,204657,-1.4237294470000001,8.6213398278,4.5750768112,718
83642,180880,204654,-1.7395820302,8.4646099475,4.8275195955,719
83597,180877,204631,-1.5038890041,8.6249290617,4.7282174576000005,720
83682,180899,204675,-1.4524433182,8.6345003521,4.9435714916,721
83846,180909,204659,-1.5254244074999999,8.3461652288,4.689932296,722
83981,180958,204690,-1.7264215058999999,8.6333039408,4.8861437492,723
83695,180844,204614,-1.5601203352,8.195417404999999,4.8969114509,724
83001,180747,204520,-1.6091731985,8.6512501103,5.1266224204999995,725
82686,180705,204508,-1.6235301341000001,8.4478601893,4.7856452,726
82778,180783,204536,-1.8927226765999998,8.404789382499999,5.0285166938999994,727
83051,180801,204546,-1.698904046,8.1463645417,5.2845487121,728
83369,180864,204607,-1.6737794087,8.410771439,5.1900322194,729
83498,180843,204603,-1.6378870697,8.463413536200001,4.9387858464,730
83508,180811,204569,-1.7850456596,8.7720876516,5.1601219369,731
83364,180775,204500,-1.5421741657,8.2384882118,5.0081777018,732
83322,180783,204490,-1.6211373115,8.0327054682,5.2917271799,733
83426,180789,204470,-1.6139588437,8.1367932513,5.5166525043000005,734
83621,180779,204505,-1.6438691261999998,7.7994052647,5.2498527844,735
83743,180755,204519,-1.6235301341000001,8.1320076061,5.4352965359,736
83362,180656,204468,-1.770688724,8.4693955927,5.8516476683,737
82654,180533,204399,-1.7874384822,8.049455226400001,5.6985070219,738
82348,180522,204324,-1.6283157793,7.873582765299999,5.4544391167,739
82466,180537,204385,-1.6103696098,7.944171031999999,5.6446685134,740
82791,180643,204410,-1.8029918290999998,8.7469630143,5.694917788000001,741
83045,180666,204419,-1.5816557385999999,8.8247297488,5.1086762509999994,742
83201,180650,204409,-1.519442351,8.0937224445,5.3108697607,743
83172,180670,204370,-1.4057832774999999,7.53739119,5.575276658,744
83055,180640,204389,-1.5457633996,8.0590265168,5.5369914964,745
83032,180636,204405,-1.5206387623,8.2564343813,5.3694939144,746
83099,180653,204414,-1.4093725114000002,8.3617185757,5.0356951617,747
83248,180661,204388,-1.3782658175999998,9.0676012427,4.5738803999,748
83270,180696,204391,-1.8747765071,8.0650085733,4.5451665287,749
82688,180538,204331,-2.0566310246999997,6.7453669094,5.1912286306999995,750
81972,180454,204256,-2.0518453795,6.4785671895,5.8947184750999995,751
81768,180419,204223,-1.7958133612999998,6.7908305388,5.611168996999999,752
82000,180495,204255,-1.3926227532000002,7.539784012599999,4.7521456836,753
82337,180534,204276,-1.3926227532000002,8.6991065623,4.237688824599999,754
82606,180625,204330,-1.3100703735,8.2025958728,3.5198420446,755
82674,180573,204313,-2.5830519966999996,9.7878408453,6.671189408799999,756
82479,180492,204256,-1.5756736821000001,8.650053698999999,7.4524459877,757
82226,180513,204235,-1.3962119871,8.137989662599999,3.1992038162000003,758
82251,180473,204275,-1.9956140484,8.2061851067,5.6147582309,759
82479,180523,204205,-1.7324035624,7.377072075799999,5.6841500863,760
82599,180540,204309,-1.0683952909,9.1106720495,3.7710884175999997,761
82502,180503,204278,-1.0971091621,9.1848495501,4.6564327796,762
81784,180358,204240,-1.3328021881999998,8.13559684,4.1575292675,763
81308,180276,204164,-1.3926227532000002,7.0791656621,4.9734817741,764
81405,180314,204128,-2.1571295739000003,7.166503687,6.1794643645,765
81747,180408,204212,-2.6859433685,7.8341011924,7.282555583100001,766
82228,180549,204297,-2.1786649773,8.0219377665,5.4412785924,767
82580,180590,204306,-1.9525432416,8.4394853102,4.319044793,768
82772,180658,204349,-1.8520446924,8.4442709554,4.9842494758,769
82739,180625,204357,-1.5900306177,7.9836526049,5.223531735800001,770
82644,180604,204354,-1.495514125,8.5280197464,4.6827538282,771
82617,180609,204369,-1.5804593273,8.338986761000001,4.8825545153,772
82757,180662,204398,-1.6522440053,9.2279203569,4.9112683865,773
82917,180691,204351,-1.5230315848999998,8.1499537756,4.9878387097,774
82831,180626,204358,-1.7324035624,8.4442709554,4.8897329831,775
82188,180500,204325,-1.6271193679999998,8.3569329305,4.9519463707,776
81704,180442,204221,-1.5565311013,8.352147285300001,4.926821733400001,777
81737,180512,204271,-1.5601203352,8.1511501869,4.9986064114,778
82033,180550,204314,-1.567298803,8.5005022865,5.029713105200001,779
82377,180628,204341,-1.6043875533,8.2444702683,5.0213382261,780
82673,180672,204328,-1.4919248910999998,8.3114693011,5.168496815999999,781
82685,180643,204358,-1.4895320685,8.4012001486,5.0799623797999995,782
82518,180600,204326,-1.5924234403000002,8.2648092604,4.893322217,783
82418,180581,204287,-1.8005990065,8.1906317598,5.0668018555,784
82469,180572,204311,-1.4416756165,8.4885381735,4.8658047571,785
82608,180611,204311,-1.6797614652,8.4981094639,4.9160540317,786
82734,180621,204355,-1.4201402131,8.4119678503,4.8263231842,787
82346,180525,204280,-1.7898313048,7.992027484,5.1170511301,788
81815,180426,204169,-1.5038890041,8.4526458345,4.990231532299999,789
81483,180396,204164,-1.7970097726,8.757730716,4.6600220135,790
81540,180371,204210,-1.7324035624,8.4035929712,4.8526442328,791
81765,180444,204171,-1.3890335193,8.005188008300001,4.3250268494999995,792
82092,180528,204260,-1.5840485612,9.1202433399,4.1443687432,793
82259,180452,204263,-1.3375878334,8.9407816449,4.0522450731,794
82166,180426,204210,-1.3770694063,7.8424760715,4.713860522,795
82006,180408,204158,-1.6438691261999998,8.85344362,5.7020962558,796
81975,180383,204183,-1.3160524299999998,9.1812603162,4.8203411277,797
82127,180398,204177,-1.5409777544,8.818747692299999,3.5425738593,798
82235,180448,204213,-1.8556339263000001,8.3677006322,4.9866422984,799
82234,180420,204154,-1.6259229567,8.5399838594,4.6923251185999995,800
81590,180294,204119,-1.4919248910999998,8.8151584584,4.6456650779,801
80902,180189,204019,-1.4799607781,8.5136628108,4.5882373355,802
80699,180189,204015,-1.2394821068,8.5076807543,4.6157547954,803
80820,180285,204024,-1.0396814197,8.4323068424,5.029713105200001,804
81055,180308,204089,-1.1282158559,8.6464644651,4.7569313288,805
81446,180420,204150,-1.1497512593,8.5603228515,5.0476592747,806
81494,180369,204095,-1.2825529136,8.4167534955,5.000999234,807
81340,180357,204100,-1.2406785181,8.3964145034,4.8227339503,808
81131,180297,204051,-1.3292129543,8.2875410751,4.9435714916,809
81016,180275,204023,-1.2287144051,8.4131642616,5.0488556860000005,810
81070,180327,204028,-1.0959127508,8.4658063588,5.0237310487,811
81213,180323,204060,-0.9403792818,8.529216157699999,5.044070040799999,812
81181,180314,204019,-1.1748758966000001,8.350950873999999,5.1338008883,813
80513,180164,203975,-1.3256237203999999,8.446663778,5.1074798397,814
79952,180076,203943,-1.1521440819,8.252845147399999,5.0213382261,815
79903,180071,203898,-1.3136596074,8.4143606729,5.239085082699999,816
80096,180147,203941,-1.1796615418,8.4514494232,5.2725845991,817
80377,180240,203984,-1.2622139215000001,8.3593257531,5.2450671392,818
80620,180244,204004,-1.1676974288,8.1571322434,5.1912286306999995,819
80702,180233,203996,-1.1557333158,8.1260255496,5.2869415346999995,820
80595,180222,204013,-1.1401799688999998,8.2779697847,5.3539405675,821
80535,180251,203985,-1.0851450490999999,8.1547394208,5.2498527844,822
80573,180262,203992,-1.1114660977,8.1882389372,5.288137946,823
80693,180264,204000,-1.2191431147,8.0662049846,5.2737810104,824
80777,180270,204024,-1.1234302107,8.1200434931,5.4221360116,825
80496,180199,203977,-1.2251251712,8.4801632944,5.3336015753999995,826
79778,180059,203900,-1.3603196481,8.4167534955,5.3407800432,827
79365,180005,203858,-1.1114660977,8.169096356399999,5.4412785924,828
79437,180068,203878,-1.1688938401,8.128418372199999,5.417350366399999,829
79734,180103,203889,-1.3148560187,7.9106715156,5.554937665900001,830
80051,180210,203951,-1.2287144051,7.9824561936,5.5274202059999995,831
80287,180231,203985,-1.064806057,8.2025958728,5.4233324229,832
80292,180184,203972,-1.2634103328,8.3437724062,5.5214381495,833
80159,180177,203920,-1.2873385588,8.1726855903,5.4771709314,834
80026,180161,203931,-1.4021940436,8.2480595022,5.5094740364999994,835
80134,180148,203952,-1.2658031554,8.061419339399999,5.3874400839,836
80292,180207,203958,-1.2071790017,8.2061851067,5.50349198,837
80408,180221,203988,-0.9822536772999999,8.1427753078,5.5716874241,838
80038,180132,203911,-1.5170495284,7.9549387337,5.6219366987,839
79337,180024,203827,-1.4428720278,8.0805619202,5.491527867,840
79156,180004,203816,-1.0492527101,7.8951181687,5.3970113743,841
79294,180020,203882,-1.0707881135,8.1810604694,5.5094740364999994,842
79625,180123,203914,-1.0097711372,8.2743805508,5.444867826299999,843
79959,180187,203965,-1.4919248910999998,8.1032937349,5.4532427054,844
80101,180195,203905,-1.3076775509,8.391628858199999,5.5740802467,845
80010,180158,203934,-1.0911271056,8.0865439767,5.459224761900001,846
79834,180124,203917,-1.1569297271,8.0434731699,5.6015977066,847
79915,180128,203919,-1.2622139215000001,8.2325061553,5.566901778899999,848
80025,180135,203896,-1.3806586402,7.8556365958,5.6398828682,849
80127,180170,203885,-1.2119646469,8.1140614366,5.624329521299999,850
79939,180105,203900,-1.0875378717,7.8233334907000005,5.5920264161999995,851
79265,179941,203798,-1.1557333158,8.1726855903,5.4963135121999995,852
78867,179909,203731,-1.2574282763000002,8.0961152671,5.637490045600001,853
78960,179934,203777,-1.3411770673,8.070990629799999,5.5441699642,854
79249,180037,203818,-1.2526426310999998,8.169096356399999,5.6099725857,855
79601,180072,203841,-1.2849457361999999,8.1344004287,5.491527867,856
79843,180111,203911,-1.3304093655999998,8.1643107112,5.5202417382,857
79830,180108,203889,-1.1533404932,8.0231341778,5.5214381495,858
79723,180074,203836,-1.232303639,7.9298140964,5.5728838354,859
79662,180084,203828,-1.2047861791,8.0111700648,5.4771709314,860
79755,180078,203889,-1.2634103328,8.0674013959,5.4604211732,861
79933,180120,203885,-1.3555340029,8.0542408716,5.6398828682,862
80012,180134,203887,-1.2514462198,8.0925260332,5.4616175845,863
79483,179975,203795,-1.2873385588,8.0111700648,5.662614682899999,864
78908,179905,203789,-1.2263215825,8.1523465982,5.471188874899999,865
78832,179892,203747,-1.0863414604,8.0123664761,5.525027383399999,866
79121,179965,203791,-1.3423734786,8.1774712355,5.624329521299999,867
79518,180064,203877,-1.2669995667,8.0015987744,5.487938633100001,868
79824,180103,203880,-1.5661023917,7.7814590952,5.9030933542,869
79941,180123,203915,-1.1282158559,8.2779697847,5.4281180681,870
79841,180078,203906,-1.0396814197,7.9956167179,5.525027383399999,871
79756,180086,203866,-1.2071790017,8.1104722027,5.649454158599999,872
79864,180094,203878,-1.3184452526,8.1571322434,5.363511857900001,873
80078,180138,203848,-1.4213366244,8.0685978072,5.6757752072,874
80186,180146,203927,-1.2119646469,8.0865439767,5.583651537100001,875
79988,180049,203882,-1.1653046062,8.0243305891,5.6039905292,876
79367,179931,203798,-1.2335000503,8.0111700648,5.5944192388,877
79126,179910,203757,-1.1868400096,8.111668614,5.563312545,878
79284,179967,203789,-1.2813565023,8.0087772422,5.4891350444,879
79626,180013,203866,-1.1952148887,8.2612200265,5.5680981902,880
79985,180054,203850,-1.1401799688999998,8.0566336942,5.5010991574000005,881
80229,180093,203894,-1.3986048097,8.1188470818,5.6291151665,882
80227,180086,203901,-1.1665010175000001,8.2133635745,5.6602218603,883
80111,180073,203928,-1.1294122672,7.9178499834,5.5082776252,884
80112,179983,203891,-1.1066804525,8.0207413552,5.6195438761,885
80283,180119,203935,-1.1892328322,8.1272219609,5.515456093,886
80478,180151,203937,-1.0468598875,8.0386875247,5.6063833518,887
80501,180151,203928,-1.2598210989,8.005188008300001,5.569294601499999,888
79973,180009,203882,-1.208375413,8.0853475654,5.6063833518,889
79545,179898,203752,-1.6163516663,8.057830105499999,5.569294601499999,890
79587,179953,203836,-1.3351950108,8.0291162343,5.620740287399999,891
79888,180047,203861,-1.1760723079,8.1427753078,5.515456093,892
80230,180077,203903,-1.0025926694,8.039883936,5.583651537100001,893
80596,180170,203960,-1.3268201317000001,8.0925260332,5.569294601499999,894
80749,180153,203991,-1.3663017045999999,8.070990629799999,5.4951171009,895
80711,180148,203960,-1.0265208954,8.2157563971,5.528616617299999,896
80700,180143,203937,-1.3399806559999998,8.147560953,5.6291151665,897
80782,180136,203929,-1.5577275125999999,7.972884903200001,5.5776694806,898
80885,180142,203967,-1.3902299306,8.1631142999,5.459224761900001,899
80967,180180,203974,-1.0037890807,7.9214392173,5.4604211732,900
80630,180091,203937,-1.2000005339,7.9896346614,5.5932228275,901
80114,179958,203871,-1.2143574695,8.1080793801,5.6147582309,902
80049,179985,203851,-1.1198409768,8.1978102276,5.6913285541,903
80331,180040,203921,-1.2634103328,8.0087772422,5.7116675462,904
80719,180150,203918,-1.4668002538,8.0602229281,5.553741254599999,905
81075,180177,204005,-1.3375878334,8.051848049,5.5740802467,906
81199,180228,203994,-1.0313065406,7.9011002251999995,5.566901778899999,907
81153,180165,203994,-1.2143574695,8.115257847899999,5.5776694806,908
81111,180168,203943,-1.2634103328,8.1547394208,5.431707302,909
81107,180189,204001,-1.1916256548,8.0075808309,5.5980084727,910
81337,180206,203976,-1.1186445655,8.026723411699999,5.5274202059999995,911
81516,180224,204036,-1.3351950108,8.2085779293,5.5800623032,912
81349,180135,203987,-1.1377871463,7.972884903200001,5.553741254599999,913
80708,180023,203881,-1.2394821068,8.027919823,5.5788658919,914
80470,180017,203864,-1.2215359373,7.9070822817,5.570491012800001,915
80554,180064,203882,-1.256231865,7.972884903200001,5.582455125799999,916
80990,180155,203972,-1.0851450490999999,8.159525066,5.4903314557,917
81337,180180,203989,-1.2059825904,7.9178499834,5.491527867,918
81577,180231,204018,-1.220339526,8.0422767586,5.6386864569,919
81564,180203,203999,-1.1437692028,8.049455226400001,5.515456093,920
81468,180184,204009,-1.2143574695,7.953742322399999,5.5920264161999995,921
81490,180184,203987,-1.1928220661,8.0865439767,5.5884371823,922
81578,180175,203997,-1.2753744458,8.087740388,5.583651537100001,923
81775,180247,203982,-1.1162517428999998,7.915457160799999,5.5896335936,924
81765,180223,203949,-1.2191431147,8.044669581199999,5.599204884000001,925
81192,180097,203934,-1.2251251712,7.953742322399999,5.6075797630999995,926
80751,179992,203890,-1.1748758966000001,8.1260255496,5.582455125799999,927
80824,180070,203879,-1.232303639,8.0386875247,5.5716874241,928
81111,180116,203936,-1.1820543644000001,8.0542408716,5.553741254599999,929
81521,180213,204025,-1.1748758966000001,8.243273857,5.5728838354,930
81800,180249,204027,-1.112662509,7.9489566772,5.5190453269,931
81870,180220,204009,-1.1760723079,7.9716884919,5.5238309721,932
81754,180216,204014,-1.1569297271,8.1942209937,5.553741254599999,933
81712,180265,203952,-1.2011969452,8.0781690976,5.4472606489,934
81765,180220,203994,-1.136590735,8.0350982908,5.6913285541,935
82002,180287,204021,-1.2299108163999999,8.0291162343,5.5860443597,936
82070,180258,204025,-1.1138589203,7.896314579999999,5.710471134900001,937
81560,180150,203973,-1.2131610582,7.992027484,5.611168996999999,938
80952,180021,203866,-1.1593225497000001,8.0303126456,5.5262237947,939
80859,180065,203885,-1.2346964616,7.9046894591,5.6805608524,940
81087,180104,203960,-1.2023933565,8.1080793801,5.6231331099999995,941
81434,180201,203998,-1.3579268255,8.0817583315,5.5800623032,942
81754,180271,204025,-1.2011969452,8.051848049,5.5932228275,943
81848,180220,204061,-0.9523433948,8.249255913499999,5.6614182716,944
81749,180200,203994,-1.2107682356,8.102097323599999,5.6327044004,945
81687,180174,204000,-1.351944769,7.9884382501,5.7008998445,946
81720,180198,203997,-1.1736794853,8.0147592987,5.637490045600001,947
81854,180274,203996,-1.256231865,8.1344004287,5.5788658919,948
81931,180221,204004,-1.3591232368,8.049455226400001,5.6602218603,949
81486,180152,203959,-1.2861421475,7.992027484,5.6685967394,950
80823,180005,203853,-1.2167502921,8.1499537756,5.6039905292,951
80662,180010,203841,-1.1401799688999998,7.9417782094,5.6674003281,952
80898,180103,203892,-1.2837493249,7.9812597822999996,5.6841500863,953
81214,180192,203929,-1.1653046062,8.0769726863,5.5776694806,954
81495,180205,203969,-1.2466605746,8.1009009123,5.6303115778,955
81633,180231,204012,-1.232303639,8.061419339399999,5.6961141993,956
81540,180214,203992,-1.3507483577,7.9513494998,5.6171510535,957
81436,180183,203978,-1.2861421475,8.0733834524,5.5465627868,958
81456,180173,203963,-1.2861421475,8.0733834524,5.5465627868,959
81578,180237,203987,-1.2861421475,8.0733834524,5.5465627868,960
81682,180214,203964,-1.2861421475,8.0733834524,5.5465627868,961
81269,180141,203898,-1.2861421475,8.0733834524,5.5465627868,962
80558,179993,203842,-1.2861421475,8.0733834524,5.5465627868,963
80326,179979,203827,-1.2861421475,8.0733834524,5.5465627868,964
80514,180036,203888,-1.2861421475,8.0733834524,5.5465627868,965
80873,180147,203918,-1.2861421475,8.0733834524,5.5465627868,966
81170,180207,203960,-1.2861421475,8.0733834524,5.5465627868,967
81332,180232,203906,-1.2861421475,8.0733834524,5.5465627868,968
81200,180144,203919,-1.2861421475,8.0733834524,5.5465627868,969
81078,180140,203948,-1.2861421475,8.0733834524,5.5465627868,970
81089,180162,203898,-1.2861421475,8.0733834524,5.5465627868,971
81245,180202,203908,-1.2861421475,8.0733834524,5.5465627868,972
81361,180205,203979,-1.2861421475,8.0733834524,5.5465627868,973
80964,180107,203851,-1.1210373881,8.0973116784,5.5070812139,974
80205,179968,203745,-1.1210373881,8.0973116784,5.5070812139,975
79960,179968,203845,-1.1210373881,8.0973116784,5.5070812139,976
80111,180029,203812,-1.1210373881,8.0973116784,5.5070812139,977
80426,180072,203860,-1.1210373881,8.0973116784,5.5070812139,978
80769,180157,203880,-1.1210373881,8.0973116784,5.5070812139,979
80961,180179,203916,-1.1210373881,8.0973116784,5.5070812139,980
80914,180163,203961,-1.2658031554,7.9633136127999995,5.499902746099999,981
80834,180142,203902,-1.2658031554,7.9633136127999995,5.499902746099999,982
80864,180163,203905,-1.2658031554,7.9633136127999995,5.499902746099999,983
81027,180193,203904,-1.2658031554,7.9633136127999995,5.499902746099999,984
81170,180230,203927,-1.2658031554,7.9633136127999995,5.499902746099999,985
80829,180125,203885,-1.2658031554,7.9633136127999995,5.499902746099999,986
80096,180003,203773,-1.2658031554,7.9633136127999995,5.499902746099999,987
79831,179956,203761,-1.2658031554,7.9633136127999995,5.499902746099999,988
80009,180002,203827,-1.2658031554,7.9633136127999995,5.499902746099999,989
80351,180102,203872,-1.2658031554,7.9633136127999995,5.499902746099999,990
80711,180195,203877,-1.2658031554,7.9633136127999995,5.499902746099999,991
80891,180201,203879,-1.2658031554,7.9633136127999995,5.499902746099999,992
80876,180165,203875,-1.2658031554,7.9633136127999995,5.499902746099999,993
80760,180143,203859,-1.2658031554,7.9633136127999995,5.499902746099999,994
80797,180138,203861,-1.2658031554,7.9633136127999995,5.499902746099999,995
80975,180174,203904,-1.2658031554,7.9633136127999995,5.499902746099999,996
81117,180210,203862,-1.2658031554,7.9633136127999995,5.499902746099999,997
80912,180149,203856,-1.2658031554,7.9633136127999995,5.499902746099999,998
80262,179998,203776,-1.2658031554,7.9633136127999995,5.499902746099999,999
79961,179953,203721,-1.2658031554,7.9633136127999995,5.499902746099999,1000
80117,180025,203746,-1.2658031554,7.9633136127999995,5.499902746099999,1001
80464,180090,203796,-1.2658031554,7.9633136127999995,5.499902746099999,1002
80817,180155,203879,-1.2658031554,7.9633136127999995,5.499902746099999,1003
81018,180169,203870,-1.2658031554,7.9633136127999995,5.499902746099999,1004
81016,180175,203862,-1.2658031554,7.9633136127999995,5.499902746099999,1005
80962,180152,203852,-1.2155538808,8.0087772422,5.7044890784,1006
81035,180157,203872,-1.2155538808,8.0087772422,5.7044890784,1007
81231,180201,203878,-1.2155538808,8.0087772422,5.7044890784,1008
81422,180214,203901,-1.2155538808,8.0087772422,5.7044890784,1009
81228,180158,203806,-1.2155538808,8.0087772422,5.7044890784,1010
80647,180034,203762,-1.2155538808,8.0087772422,5.7044890784,1011
80414,180010,203754,-1.2155538808,8.0087772422,5.7044890784,1012
80590,180026,203788,-1.2155538808,8.0087772422,5.7044890784,1013
80933,180128,203818,-1.2155538808,8.0087772422,5.7044890784,1014
81264,180157,203843,-1.2155538808,8.0087772422,5.7044890784,1015
81491,180193,203850,-1.2155538808,8.0087772422,5.7044890784,1016
81514,180182,203884,-1.2155538808,8.0087772422,5.7044890784,1017
81483,180180,203875,-1.2155538808,8.0087772422,5.7044890784,1018
81549,180201,203877,-1.2155538808,8.0087772422,5.7044890784,1019
81726,180244,203879,-1.2155538808,8.0087772422,5.7044890784,1020
81925,180265,203896,-1.2155538808,8.0087772422,5.7044890784,1021
81755,180221,203863,-1.2155538808,8.0087772422,5.7044890784,1022
81179,180069,203764,-1.2155538808,8.0087772422,5.7044890784,1023
80921,180055,203759,-1.2155538808,8.0087772422,5.7044890784,1024
81041,180073,203767,-1.2155538808,8.0087772422,5.7044890784,1025
81346,180168,203813,-1.2155538808,8.0087772422,5.7044890784,1026
81651,180254,203832,-1.2155538808,8.0087772422,5.7044890784,1027
81872,180262,203863,-1.2155538808,8.0087772422,5.7044890784,1028
81903,180250,203823,-1.2155538808,8.0087772422,5.7044890784,1029
81841,180202,203854,-1.2155538808,8.0087772422,5.7044890784,1030
81891,180215,203842,-1.2155538808,8.0087772422,5.7044890784,1031
81992,180230,203829,-1.2346964616,7.920242806,5.6159546422,1032
82162,180281,203852,-1.2346964616,7.920242806,5.6159546422,1033
82080,180220,203845,-1.2346964616,7.920242806,5.6159546422,1034
81604,180160,203727,-1.2346964616,7.920242806,5.6159546422,1035
81324,180111,203681,-1.2346964616,7.920242806,5.6159546422,1036
81417,180100,203700,-1.2275179938,7.8771719992,5.620740287399999,1037
81698,180196,203764,-1.1641081949,8.0410803473,5.6721859733,1038
81978,180252,203769,-1.2179467034,8.0231341778,5.6805608524,1039
82221,180291,203848,-1.2681959779999998,7.9968131291999995,5.6147582309,1040
82273,180264,203798,-1.2143574695,8.075776275,5.6805608524,1041
82127,180241,203831,-1.1808579531,7.9369925642,5.6015977066,1042
82240,180289,203766,-1.1964113,7.956135144999999,5.6135618196,1043
82363,180306,203820,-1.1294122672,7.9310105077,5.6063833518,1044
82549,180328,203815,-1.1976077113,8.0937224445,5.682953675,1045
82507,180281,203796,-1.280160091,7.9477602659,5.6482577473,1046
82043,180175,203720,-1.2849457361999999,7.9657064354,5.6087761744,1047
81761,180156,203692,-1.2107682356,8.0063844196,5.6327044004,1048
81755,180175,203725,-1.1006983959999999,7.940581798099999,5.7391850061000005,1049
82090,180235,203733,-1.1641081949,8.0231341778,5.6602218603,1050
82353,180319,203796,-1.2299108163999999,8.061419339399999,5.6279187552000005,1051
82596,180359,203807,-1.2071790017,8.0386875247,5.599204884000001,1052
82665,180349,203803,-1.3088739621999999,8.027919823,5.651846981199999,1053
82624,180348,203784,-1.1617153723,8.027919823,5.6267223439,1054
82648,180347,203818,-1.3722837611,7.9094751043,5.6087761744,1055
82720,180371,203802,-1.2275179938,7.9597243789,5.6398828682,1056
82895,180428,203806,-1.1497512593,8.0697942185,5.6147582309,1057
82940,180390,203815,-1.2693923893,7.986045427500001,5.5573304885,1058
82549,180330,203767,-1.1186445655,7.9872418388,5.666203916800001,1059
82160,180236,203665,-1.2155538808,7.9238320399,5.6853464976,1060
82128,180254,203688,-1.0851450490999999,7.9106715156,5.8049876276,1061
82298,180304,203738,-1.2586246876,7.992027484,5.6973106106,1062
82506,180382,203790,-1.2933206153,7.9369925642,5.7176496027,1063
82780,180369,203825,-1.2526426310999998,8.0015987744,5.620740287399999,1064
82893,180426,203771,-1.1665010175000001,8.01595571,5.651846981199999,1065
82849,180402,203765,-1.1712866627,7.9262248625,5.6303115778,1066
82816,180403,203750,-1.2119646469,8.074579863699999,5.5896335936,1067
82902,180425,203742,-1.2047861791,7.804190909899999,5.679364441100001,1068
83024,180448,203771,-1.2849457361999999,8.0327054682,5.7080783123000005,1069
83102,180467,203780,-1.2466605746,7.9585279676,5.637490045600001,1070
82887,180388,203819,-1.2825529136,7.9046894591,5.710471134900001,1071
82463,180302,203686,-1.2311072277,7.9776705484,5.7116675462,1072
82340,180346,203666,-1.0624132344,7.9393853868,5.659025449,1073
82449,180354,203640,-1.2418749294,8.0817583315,5.666203916800001,1074
82718,180418,203714,-1.2490533972,8.0721870411,5.620740287399999,1075
82952,180472,203737,-1.2227323486,8.0590265168,5.6542398038,1076
83101,180505,203761,-1.2490533972,8.0303126456,5.7583275869,1077
83101,180459,203734,-1.2873385588,8.0087772422,5.6877393201999995,1078
83072,180434,203742,-1.0923235169,7.9417782094,5.6327044004,1079
83111,180504,203736,-1.2155538808,7.8664042975,5.635097223,1080
83233,180486,203730,-1.1353943237,8.0422767586,5.678168029799999,1081
83369,180563,203750,-1.1964113,7.9465638546,5.6446685134,1082
83301,180478,203748,-1.2059825904,7.972884903200001,5.6279187552000005,1083
82847,180401,203692,-1.2658031554,7.9908310727,5.647061336,1084
82603,180409,203622,-1.2107682356,7.915457160799999,5.6685967394,1085
82619,180418,203661,-1.1748758966000001,7.9381889755,5.6721859733,1086
82818,180486,203709,-1.2634103328,8.0458659925,5.6231331099999995,1087
83079,180514,203732,-1.2586246876,8.084151154099999,5.682953675,1088
83234,180536,203704,-1.1521440819,7.9633136127999995,5.6327044004,1089
83277,180549,203718,-1.2610175101999999,8.0303126456,5.6685967394,1090
83272,180539,203706,-1.1449656141,8.01595571,5.6877393201999995,1091
83220,180515,203739,-1.2299108163999999,8.0566336942,5.6410792795,1092
83291,180570,203771,-1.0899306943,8.063812162,5.6279187552000005,1093
83431,180603,203749,-1.2658031554,7.970492080600001,5.6446685134,1094
83451,180566,203735,-1.2335000503,7.8795648218,5.651846981199999,1095
83100,180501,203708,-1.1880364209,7.9956167179,5.7128639575,1096
82651,180459,203662,-1.3208380752,7.9932238953,5.7966127485,1097
82454,180451,203640,-1.208375413,8.0027951857,5.7020962558,1098
82660,180460,203628,-1.1820543644000001,7.9345997416,5.6638110942,1099
82869,180541,203640,-1.1066804525,7.9262248625,5.6925249654,1100
83043,180586,203689,-1.3160524299999998,7.9836526049,5.5920264161999995,1101
83130,180509,203684,-1.280160091,8.017152121299999,5.7056854897,1102
83084,180603,203690,-1.2382856955,7.980063371,5.647061336,1103
83010,180556,203658,-1.1114660977,7.9812597822999996,5.6674003281,1104
82976,180596,203719,-1.208375413,7.9968131291999995,5.6410792795,1105
83066,180619,203692,-1.148554848,8.0542408716,5.6877393201999995,1106
83177,180646,203740,-1.2993026717999998,8.0087772422,5.7140603688,1107
83036,180575,203666,-1.2466605746,7.9609207902,5.6733823846,1108
82451,180475,203603,-1.2825529136,7.9058858704,5.7152567801,1109
82118,180443,203562,-1.1545369045,7.9011002251999995,5.6135618196,1110
82034,180468,203565,-1.2873385588,7.925028451199999,5.6063833518,1111
82198,180499,203593,-1.1593225497000001,8.099704501,5.6602218603,1112
82439,180545,203637,-1.2023933565,7.8113693777,5.633900811699999,1113
82516,180592,203647,-1.1712866627,8.0470624038,5.6638110942,1114
82513,180559,203588,-1.2669995667,7.9345997416,5.678168029799999,1115
82374,180552,203628,-1.244267752,7.970492080600001,5.716453191399999,1116
82285,180540,203572,-1.3160524299999998,7.984849016199999,5.5764730692999995,1117
82308,180573,203610,-1.3004990831,8.0219377665,5.7020962558,1118
82381,180595,203607,-1.4021940436,7.925028451199999,5.7822558129,1119
82346,180559,203563,-1.2610175101999999,7.9836526049,5.716453191399999,1120
81932,180459,203503,-1.1700902514,8.0817583315,5.6422756908,1121
81310,180369,203451,-1.3770694063,7.9334033303,5.693721376699999,1122
81058,180380,203440,-1.3363914221,7.953742322399999,5.6901321428,1123
81084,180416,203456,-1.2406785181,8.0015987744,5.706881900999999,1124
81284,180465,203454,-1.2729816232,7.9345997416,5.6327044004,1125
81461,180522,203525,-1.2095718243,8.0650085733,5.6482577473,1126
81517,180505,203499,-1.0971091621,7.9657064354,5.6255259326000004,1127
81403,180473,203474,-1.2179467034,7.9489566772,5.678168029799999,1128
81267,180476,203491,-1.3064811396,7.9824561936,5.6853464976,1129
81230,180474,203452,-1.2466605746,8.044669581199999,5.720042425300001,1130
81263,180498,203444,-1.2299108163999999,7.9716884919,5.649454158599999,1131
81370,180537,203446,-1.3447663012,8.099704501,5.6422756908,1132
81169,180431,203437,-1.1820543644000001,8.1009009123,5.6398828682,1133
80529,180381,203359,-1.1856435983,8.0554372829,5.6422756908,1134
80052,180257,203335,-1.2586246876,8.026723411699999,5.7511491191,1135
79997,180301,203327,-1.2335000503,7.932206919,5.6745787959,1136
80158,180368,203390,-1.2095718243,7.932206919,5.6315079891,1137
80414,180416,203397,-1.1449656141,7.9334033303,5.6685967394,1138
80581,180449,203386,-1.2741780345,8.0889367993,5.6542398038,1139
80564,180458,203404,-1.1665010175000001,8.049455226400001,5.6997034332,1140
80370,180399,203367,-1.2873385588,7.9465638546,5.666203916800001,1141
80287,180421,203362,-1.2107682356,8.0410803473,5.6853464976,1142
80292,180428,203375,-1.1114660977,8.0219377665,5.570491012800001,1143
80395,180440,203404,-1.2514462198,8.0243305891,5.7631132321,1144
80432,180467,203397,-1.1401799688999998,7.9393853868,5.7511491191,1145
79881,180344,203311,-1.2143574695,8.0554372829,5.6805608524,1146
79293,180254,203263,-1.3208380752,7.932206919,5.649454158599999,1147
79061,180230,203218,-1.2681959779999998,7.8520473619,5.6757752072,1148
79141,180284,203278,-1.2430713407,7.940581798099999,5.5477591981,1149
79396,180303,203283,-1.2071790017,7.9932238953,5.6135618196,1150
79635,180364,203316,-1.3232308977999998,8.0793655089,5.7631132321,1151
79762,180402,203294,-1.3208380752,8.0362947021,5.7272208931,1152
79726,180357,203315,-1.3244273091,8.005188008300001,5.7224352479,1153
79561,180334,203299,-1.2035897678,8.0434731699,5.5561340772,1154
79536,180370,203281,-1.2000005339,7.972884903200001,5.6315079891,1155
79619,180382,203344,-1.1581261384000001,7.9298140964,5.6410792795,1156
79746,180412,203318,-1.1736794853,8.0027951857,5.6877393201999995,1157
79549,180347,203243,-1.1868400096,8.0219377665,5.6183474648,1158
79028,180216,203208,-1.2825529136,7.940581798099999,5.6398828682,1159
78550,180158,203170,-1.256231865,8.026723411699999,5.6925249654,1160
78554,180173,203177,-1.1736794853,7.9932238953,5.6279187552000005,1161
78776,180221,203208,-1.3136596074,8.0674013959,5.693721376699999,1162
79083,180326,203262,-1.2538390423999999,7.9896346614,5.635097223,1163
79307,180304,203279,-1.2669995667,8.027919823,5.6566326264,1164
79374,180317,203268,-1.2035897678,8.0243305891,5.6997034332,1165
79305,180321,203280,-1.3375878334,7.9525459111,5.710471134900001,1166
79274,180303,203256,-1.1234302107,7.8628150636,5.7415778287,1167
79326,180326,203297,-1.2000005339,7.920242806,5.5896335936,1168
79470,180378,203304,-1.2658031554,8.1056865575,5.7212388366,1169
79613,180362,203307,-1.2861421475,7.9513494998,5.7044890784,1170
79314,180270,203283,-1.3722837611,7.9872418388,5.694917788000001,1171
78753,180176,203173,-1.3160524299999998,7.9932238953,5.7116675462,1172
78598,180158,203199,-1.2346964616,7.984849016199999,5.678168029799999,1173
78742,180207,203215,-1.3375878334,7.9621172015,5.7116675462,1174
79057,180268,203235,-1.3016954943999999,7.940581798099999,5.6614182716,1175
79371,180358,203327,-1.3196416639,8.0111700648,5.6159546422,1176
79568,180367,203301,-1.2155538808,8.0482588151,5.659025449,1177
79594,180329,203293,-1.1581261384000001,7.8855468783,5.7260244818,1178
79540,180315,203312,-1.2299108163999999,7.9585279676,5.651846981199999,1179
79583,180340,203287,-1.0384850084,7.968099258,5.5908300049,1180
79699,180336,203297,-1.1808579531,7.9968131291999995,5.5621161337,1181
79902,180400,203323,-1.232303639,8.01595571,5.682953675,1182
79921,180353,203314,-1.2299108163999999,7.9776705484,5.818148151899999,1183
79485,180238,203265,-1.2658031554,7.980063371,5.748756296500001,1184
79106,180177,203214,-1.2681959779999998,7.9956167179,5.7499527078,1185
79141,180211,203203,-1.0779665813,7.8939217574,5.6638110942,1186
79400,180259,203259,-1.244267752,8.0937224445,5.6997034332,1187
79740,180314,203296,-1.0588240005,7.9130643382,5.6398828682,1188
80026,180361,203343,-1.2382856955,7.884350467,5.748756296500001,1189
80161,180386,203382,-1.2957134379000002,8.0087772422,5.6087761744,1190
80063,180310,203326,-1.3328021881999998,8.0482588151,5.7020962558,1191
80113,180341,203351,-1.2335000503,7.8341011924,5.7822558129,1192
80187,180355,203355,-1.3304093655999998,8.0004023631,5.7798629903,1193
80349,180376,203374,-1.2370892842,7.8987074025999995,5.8037912163000005,1194
80518,180402,203344,-1.1964113,7.9058858704,5.6195438761,1195
80382,180326,203339,-1.2466605746,7.9597243789,5.7571311756,1196
79901,180227,203238,-1.1760723079,8.0685978072,5.7379885948,1197
79732,180194,203254,-1.2646067441000002,7.8915289348,5.7750773451,1198
79840,180227,203287,-1.1377871463,8.0123664761,5.7523455304,1199
80141,180302,203307,-1.3196416639,7.9178499834,5.6973106106,1200
80487,180342,203410,-1.2071790017,8.0111700648,5.7810594016,1201
80673,180361,203424,-1.3016954943999999,7.9585279676,5.7188460139999995,1202
80724,180368,203393,-1.3100703735,8.0147592987,5.754738353,1203
80713,180348,203369,-1.3016954943999999,8.0291162343,5.6578290377,1204
80692,180329,203384,-1.4225330357,7.8676007087999995,5.6997034332,1205
80778,180368,203403,-1.2478569859,7.9908310727,5.6674003281,1206
80953,180373,203408,-1.2358928729,7.9645100241,5.7726845225,1207
81042,180350,203405,-1.1258230332999999,7.984849016199999,5.706881900999999,1208
80685,180277,203338,-1.2909277927,7.8209406681,5.6542398038,1209
80308,180204,203329,-1.280160091,7.846065305400001,5.6901321428,1210
80305,180199,203260,-1.0480562988,7.874779176600001,5.635097223,1211
80547,180257,203335,-1.256231865,8.026723411699999,5.7583275869,1212
80860,180343,203378,-1.3136596074,7.9130643382,5.7631132321,1213
81148,180382,203386,-1.3112667848,8.0123664761,5.7272208931,1214
81285,180372,203445,-1.4141581566,8.0111700648,5.720042425300001,1215
81260,180348,203402,-1.0947163395,7.896314579999999,5.6925249654,1216
81235,180375,203404,-1.2107682356,8.0482588151,5.649454158599999,1217
81342,180341,203409,-1.2299108163999999,7.9393853868,5.7116675462,1218
81487,180413,203477,-1.2933206153,7.8819576444,5.7248280705,1219
81655,180471,203433,-1.0193424276,7.9752777258,5.6279187552000005,1220
81529,180394,203416,-1.3064811396,7.9908310727,5.7678988773,1221
81059,180232,203375,-1.2418749294,7.9633136127999995,5.7044890784,1222
80878,180256,203379,-1.3064811396,7.9070822817,5.6877393201999995,1223
81030,180342,203412,-1.304088317,7.844868894099999,5.6685967394,1224
81308,180350,203430,-1.2658031554,8.0602229281,5.6386864569,1225
81642,180426,203485,-1.3172488413,7.9657064354,5.7044890784,1226
81855,180459,203475,-1.2825529136,8.0195449439,5.7236316592000005,1227
81897,180412,203491,-1.2418749294,8.039883936,5.7834522241999995,1228
81876,180395,203506,-1.2586246876,7.7958160308,5.735595772199999,1229
81876,180413,203517,-1.208375413,7.9238320399,5.7272208931,1230
81980,180444,203478,-1.2957134379000002,7.969295669299999,5.6901321428,1231
82228,180469,203544,-1.2107682356,8.0817583315,5.7655060547,1232
82200,180469,203545,-1.244267752,7.9609207902,5.7571311756,1233
81774,180343,203496,-1.3232308977999998,7.9896346614,5.7020962558,1234
81349,180245,203443,-1.160518961,7.953742322399999,5.6733823846,1235
81312,180308,203457,-1.1306086785,7.8640114749,5.694917788000001,1236
81514,180338,203497,-1.2071790017,7.884350467,5.7858450468,1237
81860,180392,203522,-1.2777672683999999,7.9645100241,5.7284173044,1238
82080,180465,203570,-1.2466605746,7.8915289348,5.8037912163000005,1239
82231,180459,203583,-1.2574282763000002,7.9345997416,5.649454158599999,1240
82171,180431,203595,-1.1952148887,7.9369925642,5.745167062599999,1241
82124,180419,203560,-1.2191431147,7.9525459111,5.706881900999999,1242
82165,180436,203579,-1.2394821068,7.970492080600001,5.7810594016,1243
82348,180402,203605,-1.2490533972,7.9477602659,5.8097732728,1244
82470,180505,203629,-1.304088317,7.9417782094,5.7798629903,1245
82262,180409,203571,-1.2430713407,7.957331556300001,5.7260244818,1246
81701,180337,203527,-1.1030912186,7.953742322399999,5.7212388366,1247
81403,180281,203477,-1.3016954943999999,7.8221370794,5.7152567801,1248
81500,180319,203523,-1.1557333158,7.953742322399999,5.682953675,1249
81747,180429,203569,-1.2777672683999999,8.003991596999999,5.7379885948,1250
82011,180437,203604,-1.304088317,8.0386875247,5.8636117813,1251
82257,180473,203638,-1.1952148887,7.902296636499999,5.7870414581,1252
82225,180473,203623,-1.2825529136,7.9477602659,5.7499527078,1253
82103,180443,203633,-1.2634103328,7.860422240999999,5.649454158599999,1254
82102,180440,203607,-1.2741780345,7.9214392173,5.8325050875,1255
82153,180459,203610,-1.1976077113,8.0386875247,5.7559347643,1256
82378,180517,203664,-1.2610175101999999,7.9130643382,5.716453191399999,1257
82327,180487,203663,-1.2394821068,7.9824561936,5.8109696841,1258
81784,180347,203573,-1.2885349701,8.0243305891,5.7272208931,1259
81245,180248,203545,-1.244267752,7.9908310727,5.662614682899999,1260
81146,180286,203508,-1.1162517428999998,7.8341011924,5.8289158536,1261
81307,180354,203553,-1.1473584366999998,7.9489566772,5.647061336,1262
81621,180397,203615,-1.2993026717999998,8.0027951857,5.7296137157,1263
81855,180468,203638,-1.2646067441000002,7.9752777258,5.7966127485,1264
81894,180436,203664,-1.2275179938,7.9633136127999995,5.681757263700001,1265
81793,180429,203643,-1.2921242039999998,7.9525459111,5.7092747236,1266
81698,180404,203628,-1.1341979124,8.0554372829,5.7702916999,1267
81738,180407,203624,-1.3088739621999999,7.848458128,5.7690952886,1268
81855,180448,203656,-1.2753744458,8.0482588151,5.818148151899999,1269
81997,180498,203654,-1.3447663012,7.8771719992,5.8301122648999995,1270
81613,180353,203597,-1.328016543,8.0482588151,5.806184038900001,1271
80943,180239,203526,-1.2658031554,7.9764741371,5.773880933799999,1272
80639,180181,203548,-1.2490533972,7.829315547199999,5.666203916800001,1273
80743,180242,203535,-1.2502498085,7.9298140964,5.747559885199999,1274
80988,180331,203604,-1.2586246876,7.9932238953,5.8253266197,1275
81298,180397,203629,-1.3447663012,7.9453674433,5.8612189587,1276
81465,180420,203667,-1.2418749294,7.9298140964,5.7990055710999995,1277
81428,180360,203661,-1.3651052933,7.942974620699999,5.6171510535,1278
81258,180366,203627,-1.2131610582,7.9716884919,5.7092747236,1279
81250,180340,203603,-1.3028919057000001,7.8927253461,5.7499527078,1280
81354,180396,203632,-1.1916256548,7.902296636499999,5.8109696841,1281
81521,180440,203681,-1.2885349701,7.9513494998,5.7559347643,1282
81498,180426,203674,-1.3136596074,7.8556365958,5.8085768615,1283
80856,180280,203538,-1.4057832774999999,7.9417782094,5.827719442299999,1284
80276,180190,203497,-1.3064811396,7.7024959494,5.7810594016,1285
80194,180185,203539,-1.1473584366999998,7.9884382501,5.7918271033,1286
80432,180238,203572,-1.304088317,7.944171031999999,5.7092747236,1287
80752,180304,203608,-1.2047861791,8.074579863699999,5.7690952886,1288
81044,180368,203633,-1.280160091,8.0291162343,5.7690952886,1289
81093,180350,203642,-1.1784651305,8.0374911134,5.7116675462,1290
80980,180311,203620,-1.3208380752,7.886743289599999,5.761916820800001,1291
80872,180302,203619,-1.232303639,7.873582765299999,5.6997034332,1292
80934,180302,203608,-1.2705888006,7.8652078862,5.8456656118,1293
81070,180347,203625,-1.2490533972,7.9226356286,5.6865429089,1294
81197,180393,203643,-1.3543375915999998,8.1056865575,5.735595772199999,1295
80947,180280,203578,-1.3806586402,7.9178499834,5.7631132321,1296
80132,180139,203527,-1.2382856955,7.844868894099999,5.761916820800001,1297
79914,180107,203468,-1.2311072277,7.8771719992,5.7284173044,1298
79987,180155,203543,-1.1940184774,7.927421273799999,5.773880933799999,1299
80300,180189,203554,-1.1856435983,7.8628150636,5.6997034332,1300
80657,180244,203650,-1.351944769,7.8652078862,5.74277424,1301
80835,180303,203635,-1.3064811396,7.9908310727,5.812166095399999,1302
80817,180283,203606,-1.3914263419,7.886743289599999,5.7978091598,1303
80687,180241,203616,-1.2717852119000002,7.8819576444,5.754738353,1304
80690,180258,203596,-1.2837493249,7.9465638546,5.7846486355,1305
80818,180276,203614,-1.2681959779999998,7.8400832489,5.716453191399999,1306
80905,180304,203609,-1.1880364209,7.9944203065999995,5.7260244818,1307
80955,180267,203611,-1.2777672683999999,7.9011002251999995,5.7798629903,1308
80275,180109,203535,-1.3256237203999999,7.9740813145,5.7690952886,1309
79779,180031,203490,-1.3160524299999998,7.9011002251999995,5.7140603688,1310
79794,180071,203527,-1.1928220661,7.7575308692,5.8037912163000005,1311
80001,180157,203554,-1.2658031554,7.7563344578999995,5.7559347643,1312
80456,180214,203614,-1.2610175101999999,7.928617685100001,5.7403814174,1313
80759,180255,203630,-1.1964113,7.9872418388,5.7044890784,1314
80886,180250,203674,-1.2059825904,7.9011002251999995,5.694917788000001,1315
80793,180251,203635,-1.1736794853,7.8855468783,5.6901321428,1316
80760,180243,203659,-1.1916256548,7.920242806,5.8085768615,1317
80855,180250,203651,-1.1832507757,7.9812597822999996,5.7858450468,1318
81015,180309,203691,-1.2969098492,7.9956167179,5.74277424,1319
81185,180313,203693,-1.2466605746,7.9740813145,5.6805608524,1320
80905,180229,203681,-1.244267752,7.9633136127999995,5.7954163372,1321
80205,180059,203554,-1.2909277927,8.039883936,5.6805608524,1322
79936,180014,203537,-1.1138589203,7.9968131291999995,5.735595772199999,1323
80131,180077,203596,-1.3483555351,7.8281191359,5.6733823846,1324
80459,180161,203619,-1.1976077113,7.920242806,5.5860443597,1325
80852,180246,203654,-1.2897313814,7.896314579999999,5.6877393201999995,1326
81050,180279,203709,-1.3016954943999999,8.0482588151,5.6745787959,1327
81064,180207,203714,-1.3495519463999999,7.9669028467,5.6674003281,1328
80995,180217,203710,-1.3531411803,7.9417782094,5.7212388366,1329
81013,180239,203717,-1.2885349701,8.061419339399999,5.8049876276,1330
81158,180260,203724,-1.2011969452,7.8424760715,5.7643096434,1331
81360,180242,203709,-1.256231865,7.8652078862,5.7439706513,1332
81442,180304,203740,-1.2358928729,8.0350982908,5.7942199259,1333
80954,180169,203705,-1.3866406967,7.874779176600001,5.789434280699999,1334
80376,180071,203643,-1.2466605746,7.9106715156,5.7212388366,1335
80286,180063,203616,-1.2610175101999999,7.980063371,5.7954163372,1336
80557,180142,203679,-1.2705888006,7.8400832489,5.766702466,1337
80929,180229,203711,-1.2000005339,8.0027951857,5.8360943214,1338
81276,180318,203768,-1.3100703735,7.925028451199999,5.7559347643,1339
81459,180308,203774,-1.2765708571,7.8771719992,5.6901321428,1340
81377,180250,203780,-1.3986048097,7.911867926899999,5.7499527078,1341
81326,180253,203774,-1.4368899712999998,8.026723411699999,5.7080783123000005,1342
81385,180255,203767,-1.1449656141,7.972884903200001,5.7248280705,1343
81547,180276,203757,-1.1497512593,7.8771719992,5.8337014988,1344
81753,180334,203795,-1.3806586402,8.137989662599999,5.7188460139999995,1345
81575,180280,203818,-1.3651052933,7.9369925642,5.7978091598,1346
80982,180147,203686,-1.2969098492,7.8628150636,5.7559347643,1347
80615,180059,203650,-1.1437692028,7.7862447404,5.8839507734,1348
80717,180157,203713,-1.2346964616,7.8352976037,5.7834522241999995,1349
81053,180213,203713,-1.304088317,7.819744256799999,5.7918271033,1350
81415,180258,203829,-1.1976077113,7.9716884919,5.7008998445,1351
81685,180305,203812,-1.3591232368,8.0147592987,5.7822558129,1352
81708,180280,203839,-1.4069796888000001,8.0303126456,5.8492548457,1353
81617,180257,203795,-1.3459627125,8.0434731699,5.7140603688,1354
81598,180253,203789,-1.1904292435000001,8.0099736535,5.7391850061000005,1355
81703,180280,203830,-1.0671988796,7.8855468783,5.8707902491,1356
81917,180330,203815,-1.3172488413,7.915457160799999,5.826523031,1357
82077,180347,203840,-1.2825529136,7.9334033303,5.8636117813,1358
81670,180242,203825,-1.2741780345,8.0315090569,5.6865429089,1359
81027,180086,203706,-1.4141581566,8.0482588151,5.6901321428,1360
80799,180100,203706,-1.3962119871,7.908278693,5.858826136099999,1361
80985,180126,203732,-1.1748758966000001,7.8939217574,5.754738353,1362
81342,180202,203801,-1.0157531937,7.829315547199999,5.776273756399999,1363
81742,180296,203830,-1.4847464232999998,8.1966138163,5.952146217499999,1364
81946,180284,203831,-1.2538390423999999,7.791030385599999,5.7212388366,1365
81943,180262,203811,-1.1880364209,7.9369925642,5.7714881112,1366
81743,180267,203834,-1.1318050897999998,7.7994052647,5.7631132321,1367
81904,180291,203858,-1.3112667848,7.788637563,5.843272789199999,1368
82040,180315,203863,-1.5026925928000001,8.1092757914,5.754738353,1369
82220,180319,203894,-1.4141581566,8.0650085733,5.74277424,1370
82193,180322,203868,-1.280160091,7.8209406681,5.6961141993,1371
81615,180168,203789,-1.3399806559999998,7.9226356286,5.8923256525,1372
81105,180082,203706,-1.3339985995,7.896314579999999,5.7403814174,1373
81112,180115,203709,-1.1736794853,8.027919823,5.802594804999999,1374
81360,180190,203785,-1.4859428346,8.0685978072,5.858826136099999,1375
81686,180279,203832,-1.220339526,7.873582765299999,5.8672010152,1376
81943,180321,203858,-1.3220344865,7.7563344578999995,5.9186467011,1377
82024,180286,203843,-1.3112667848,7.9477602659,5.9126646445999995,1378
81949,180273,203822,-1.3208380752,7.7587272805,5.856433313499999,1379
81770,180259,203789,-1.4691930764,7.7659057483,5.8923256525,1380
81988,180267,203819,-1.1186445655,7.779066272600001,5.9246287576,1381
82143,180329,203865,-1.256231865,7.8257263133,5.8217373858000006,1382
82313,180360,203839,-1.519442351,8.061419339399999,5.923432346299999,1383
81988,180215,203828,-1.2909277927,7.9106715156,5.8085768615,1384
81291,180111,203739,-1.2107682356,7.7874411516999995,5.665007505499999,1385
81039,180112,203749,-1.2418749294,7.8532437732,5.7882378694,1386
81197,180134,203772,-1.4177473905,7.873582765299999,5.826523031,1387
81531,180225,203816,-1.4321043261,7.9011002251999995,5.8995041203,1388
81910,180300,203852,-1.3375878334,7.9872418388,5.7690952886,1389
82096,180329,203885,-1.280160091,7.8520473619,5.7583275869,1390
81980,180281,203820,-1.3591232368,8.137989662599999,5.7978091598,1391
81962,180287,203843,-1.4739787216,7.886743289599999,5.766702466,1392
81868,180281,203830,-1.3100703735,7.9669028467,5.802594804999999,1393
81983,180297,203851,-1.1234302107,7.861618652300001,5.7367921835,1394
82143,180331,203881,-1.1952148887,7.718049296299999,5.812166095399999,1395
82088,180337,203857,-1.3399806559999998,7.785048329099999,5.885147184699999,1396
81438,180147,203783,-1.2861421475,7.683353368600001,5.856433313499999,1397
80923,180091,203707,-1.4309079148000001,7.8053873212000005,5.9054861768,1398
80901,180086,203773,-1.3351950108,7.7431739336,5.8504512570000005,1399
81109,180178,203783,-1.1341979124,7.8436724828,5.8672010152,1400
81454,180233,203848,-1.2717852119000002,7.970492080600001,5.8683974265,1401
81718,180269,203854,-1.3543375915999998,7.902296636499999,5.8492548457,1402
81781,180278,203874,-1.2586246876,7.8699935314,5.8145589179999995,1403
81682,180238,203815,-1.3782658175999998,7.7515488127,5.7954163372,1404
81607,180230,203839,-1.2933206153,7.902296636499999,5.776273756399999,1405
81656,180226,203808,-1.3064811396,7.8915289348,5.8480584344,1406
81767,180265,203839,-1.2945170266,7.9310105077,5.8145589179999995,1407
81860,180313,203832,-1.3854442854000002,7.9058858704,5.766702466,1408
81438,180146,203746,-1.1796615418,7.8568330071,5.778666579,1409
80698,180027,203716,-1.2933206153,7.927421273799999,5.761916820800001,1410
80441,180013,203703,-1.3567304141999998,7.800601675999999,5.8097732728,1411
80574,180063,203700,-1.4321043261,7.9034930478000005,5.8468620231,1412
80895,180114,203762,-1.4285150922,7.8185478454999995,5.7260244818,1413
81220,180207,203785,-1.1772687192,7.9034930478000005,5.7690952886,1414
81380,180230,203810,-1.2514462198,7.9262248625,5.7966127485,1415
81332,180191,203796,-1.3244273091,7.9716884919,5.844469200500001,1416
81177,180163,203764,-1.3028919057000001,7.908278693,5.8923256525,1417
81147,180176,203773,-1.3136596074,7.9106715156,5.7954163372,1418
81245,180210,203773,-1.2693923893,7.8209406681,5.7990055710999995,1419
81428,180150,203785,-1.2945170266,7.9178499834,5.898307709,1420
81305,180160,203789,-1.3052847283,7.779066272600001,5.8097732728,1421
80617,180040,203706,-1.280160091,7.9130643382,5.8360943214,1422
80139,179991,203644,-1.4572289634,7.7922267969000005,5.802594804999999,1423
80121,180029,203650,-1.3196416639,7.819744256799999,5.9820565,1424
80360,180102,203694,-1.3351950108,7.683353368600001,5.898307709,1425
80685,180163,203769,-1.2382856955,7.750352401400001,5.874379483,1426
80959,180186,203776,-1.4512469069,7.7443703449,5.8959148864,1427
80921,180174,203742,-1.1653046062,7.848458128,5.858826136099999,1428
80799,180155,203743,-1.2251251712,7.980063371,6.0143596051,1429
80778,180127,203712,-1.5876377951,7.872386354,5.8516476683,1430
80881,180150,203770,-1.3232308977999998,7.8077801438000005,5.8456656118,1431
81048,180185,203778,-1.2454641632999999,7.7001031268,5.8348979101000005,1432
81096,180208,203774,-1.2059825904,7.8939217574,5.900700531599999,1433
80558,180070,203721,-1.4584253747,7.915457160799999,5.9282179915,1434
79920,179974,203675,-1.2095718243,7.7694949822,5.8660046039,1435
79781,179948,203622,-1.2418749294,7.7192457076,5.8337014988,1436
79910,180046,203664,-1.3292129543,7.7742806274,5.812166095399999,1437
80342,180109,203692,-1.4165509792000002,7.8628150636,5.826523031,1438
80585,180174,203732,-1.3627124707,7.969295669299999,5.8576297248,1439
80680,180161,203753,-1.1593225497000001,7.9645100241,5.8995041203,1440
80627,180138,203742,-1.0839486378,7.9334033303,5.9330036367,1441
80613,180165,203747,-1.1928220661,7.750352401400001,5.9018969429000006,1442
80715,180182,203749,-1.3076775509,7.8831540556999995,5.8097732728,1443
80895,180198,203773,-1.387837108,7.785048329099999,5.8193445632000005,1444
81029,180210,203796,-1.3256237203999999,7.735995465799999,5.8504512570000005,1445
80707,180136,203707,-1.4644074312,7.7898339743,5.8695938378,1446
79916,179987,203662,-1.1270194446,7.7826555065,5.812166095399999,1447
79643,179935,203578,-1.3232308977999998,7.9597243789,5.8636117813,1448
79791,179993,203618,-1.1282158559,7.812565789,5.886343596000001,1449
80154,180087,203710,-1.2993026717999998,7.9393853868,5.8923256525,1450
80547,180138,203781,-1.2861421475,7.8269227246,5.8995041203,1451
80818,180210,203763,-1.2023933565,7.8951181687,5.8803615395,1452
80841,180154,203763,-1.2969098492,7.7479595788,5.8672010152,1453
80745,180153,203728,-1.5026925928000001,7.6725856669,5.9306108141000005,1454
80753,180142,203783,-1.3304093655999998,7.7324062319,5.790630692000001,1455
80894,180176,203733,-1.3112667848,7.8496545393,5.86241537,1456
81099,180181,203771,-1.2885349701,7.942974620699999,5.8911292412,1457
80971,180187,203781,-1.3698909385,7.7982088534,5.8325050875,1458
80418,180033,203673,-1.351944769,7.824529902,5.874379483,1459
79908,179909,203622,-1.3160524299999998,7.8305119585,5.9916277904,1460
79946,179991,203639,-1.2382856955,7.733602643199999,6.038287831100001,1461
80265,180070,203679,-1.2789636797000001,7.7060851833,5.843272789199999,1462
80652,180152,203747,-1.2311072277,7.8568330071,5.8540404909,1463
80964,180190,203770,-1.2849457361999999,7.7682985709,5.860022547400001,1464
81061,180186,203808,-1.2287144051,7.8376904263,5.8552369022,1465
80978,180175,203772,-1.3351950108,7.9238320399,5.812166095399999,1466
80941,180135,203762,-1.4237294470000001,7.9094751043,5.8145589179999995,1467
81072,180146,203766,-1.3363914221,7.9310105077,5.8683974265,1468
81268,180194,203785,-1.2969098492,7.8544401845,5.9162538785,1469
81430,180230,203790,-1.2885349701,7.8951181687,5.8217373858000006,1470
81057,180121,203705,-1.2873385588,7.8077801438000005,5.8408799666,1471
80428,179970,203661,-1.1904292435000001,7.9381889755,5.9306108141000005,1472
80323,180014,203666,-1.2215359373,7.8999038139,5.8695938378,1473
80548,180058,203716,-1.2502498085,7.7946196195,5.8408799666,1474
80945,180143,203793,-1.2215359373,7.779066272600001,5.86241537,1475
81196,180217,203796,-1.2131610582,7.764709337,5.874379483,1476
81514,180265,203804,-1.4069796888000001,7.9011002251999995,5.9353964593,1477
81509,180205,203804,-1.2729816232,7.8209406681,5.898307709,1478
81506,180194,203809,-1.1856435983,7.911867926899999,5.8408799666,1479
81569,180223,203821,-1.3399806559999998,7.9046894591,5.7858450468,1480
81732,180259,203839,-1.1653046062,7.7994052647,5.7595239982,1481
81919,180307,203892,-1.2143574695,7.942974620699999,5.8648081926,1482
81896,180257,203824,-1.1988041226,7.788637563,5.8672010152,1483
81260,180109,203738,-1.1916256548,7.8891361122,5.8049876276,1484
80844,180053,203677,-1.244267752,7.8077801438000005,5.8241302084,1485
80934,180104,203745,-1.3292129543,7.9238320399,5.9126646445999995,1486
81235,180184,203802,-1.2490533972,7.77667345,5.838487144,1487
81627,180247,203823,-1.3938191645,7.902296636499999,5.9294144028,1488
81944,180293,203872,-1.220339526,7.8472617167,5.8648081926,1489
82010,180282,203857,-1.2299108163999999,7.9501530885,5.838487144,1490
81978,180286,203861,-1.2945170266,7.9477602659,5.898307709,1491
81965,180271,203840,-1.232303639,7.915457160799999,5.8660046039,1492
82082,180300,203809,-1.328016543,7.8592258297,5.9126646445999995,1493
82324,180339,203903,-1.0947163395,7.7838519178,5.9018969429000006,1494
82365,180358,203890,-1.1832507757,7.8987074025999995,5.8456656118,1495
82098,180234,203845,-1.3555340029,7.8508509506,5.8576297248,1496
81469,180140,203793,-1.3076775509,7.8412796602,5.8348979101000005,1497
81249,180129,203728,-1.1521440819,7.8173514342,5.9114682333,1498
81468,180208,203777,-1.3674981159,7.77667345,5.812166095399999,1499
81809,180271,203838,-1.3471591237999998,7.8628150636,5.9090754107,1500
82215,180348,203899,-1.3483555351,7.7898339743,5.9018969429000006,1501
82393,180382,203888,-1.1569297271,7.911867926899999,5.8480584344,1502
82417,180359,203883,-1.3232308977999998,7.831708369799999,5.954539040099999,1503
82361,180313,203859,-1.2047861791,7.8927253461,5.74277424,1504
82391,180339,203879,-1.2382856955,7.788637563,5.9030933542,1505
82546,180368,203892,-1.2634103328,7.7479595788,5.9210395237,1506
82733,180434,203926,-1.2849457361999999,7.779066272600001,5.9306108141000005,1507
82801,180407,203910,-1.3148560187,7.8233334907000005,5.913861055899999,1508
82295,180270,203826,-1.3028919057000001,7.7671021596,5.9330036367,1509
81744,180186,203781,-1.3028919057000001,7.7742806274,5.8935220638,1510
81658,180183,203787,-1.2921242039999998,7.860422240999999,5.871986660399999,1511
81899,180277,203798,-1.4763715442,7.735995465799999,5.9593246853,1512
82268,180313,203845,-1.3926227532000002,7.824529902,5.9712887983,1513
82519,180374,203908,-1.2107682356,7.788637563,5.8528440796,1514
82687,180396,203925,-1.3304093655999998,7.6917282476999995,5.898307709,1515
82628,180377,203860,-1.3244273091,7.77667345,5.844469200500001,1516
82564,180320,203879,-1.3411770673,7.733602643199999,5.898307709,1517
82617,180347,203882,-1.3495519463999999,7.8999038139,5.874379483,1518
