green,red,IR,acc_x,acc_y,acc_z,sample_index
97398,188850,229979,-2.7302105866,7.225127840700001,6.257231098999999,1
97506,188850,229970,-2.6775684894,7.1198436463,6.3038911397,2
97595,188888,229949,-2.6703900216,7.1748785661,6.2548382764,3
97720,188865,229953,-2.6572294973,7.3136622769,6.2644095668,4
97833,188875,229993,-2.6739792555000004,7.1928247355999995,6.2907306154,5
98007,188918,230003,-2.6105694566,7.3567330837,6.2883377928,6
98222,188962,230020,-2.6285156261,7.2957161074000005,6.2847485589,7
98356,188910,230010,-2.7661029256000003,7.2646094136,6.233302873,8
98531,188957,230089,-2.6823541346,7.1976103808000005,6.3708901725,9
98742,188968,230082,-2.6799613119999997,7.3268228012,6.2428741634,10
98928,189012,230094,-2.739781877,7.2753771152999995,6.269195212,11
99124,188985,230137,-2.7302105866,7.267002236200001,6.293123438,12
99317,189038,230139,-2.6045874001,7.3028945752,6.269195212,13
99491,189001,230136,-2.7373890544,7.4117680035,6.2524454538,14
99666,189024,230170,-2.7457639335,7.4404818747,6.273980857200001,15
99814,189041,230106,-2.8342983697,7.1162544124,6.2907306154,16
100014,189081,230153,-2.6141586905,7.3304120351,6.2380885182,17
100183,189013,230163,-2.6967110702,7.2801627605000006,6.2404813408,18
100221,189120,230124,-2.6488546182,7.2801627605000006,6.1543397272,19
99861,189036,230000,-2.6596223199,7.3028945752,6.1998033565999995,20
99187,188857,229925,-2.656033086,7.237091953699999,6.2404813408,21
98527,188820,229897,-2.6799613119999997,7.323233567299999,6.1998033565999995,22
98042,188776,229863,-2.6548366747000003,7.381857721,6.2201423487000005,23
97657,188784,229866,-2.6943182475999996,7.3842505436,6.1698930741,24
97353,188743,229816,-2.775674216,7.2777699379,6.125625856,25
97240,188737,229826,-2.7337998205,7.348358204599999,6.125625856,26
97249,188755,229880,-2.8319055471,7.3794648984,6.2536418651,27
97425,188741,229890,-2.75174599,7.3722864306,6.2656059781,28
97684,188792,229904,-2.6309084487,7.432106995600001,6.218945937399999,29
97860,188759,229910,-2.8019952646,7.336394091599999,6.1399827916000005,30
98005,188812,229918,-2.7290141752999997,7.226324252,6.2105710583,31
98164,188788,229902,-2.7924239742,7.3399833255,6.094519162199999,32
98310,188841,229950,-2.7996024420000003,7.2550381232,6.0562340006,33
98513,188859,229968,-2.8618158296000002,7.3435725594,6.1040904525999995,34
98693,188883,229970,-2.7385854657,7.4093751809,6.125625856,35
98924,188847,229972,-2.7170500623000002,7.3088766317000005,6.1280186786,36
99158,188934,230001,-2.7601208691,7.4201428826,6.1555361385,37
99397,188975,230007,-2.7014967154,7.357929495,6.1088760978000005,38
99616,188962,230000,-2.8283163132,7.447660342499999,6.173482308,39
99835,188989,230043,-2.8558337731,7.5098737301,6.089733517,40
100012,189028,230067,-2.8307091358,7.4129644148,6.0275201294,41
100307,189076,230101,-2.8618158296000002,7.3914290114000005,6.0969119848,42
100569,189105,230095,-2.7828526838,7.377072075799999,6.1112689204,43
100753,189129,230063,-2.9168507494,7.3722864306,6.1112689204,44
100946,189102,230126,-2.8307091358,7.4835526815,6.2057854131,45
101209,189112,230055,-2.87138712,7.361518728899999,6.1387863803,46
101188,189106,230015,-2.9096722816000002,7.430910584299999,6.1531433159,47
100783,189058,229946,-2.7804598612,7.1509503401,6.1148581543,48
100179,188983,229950,-2.8342983697,7.4811598589,6.162714606300001,49
99693,188948,229918,-2.7996024420000003,7.477570625,6.1555361385,50
99418,188935,229933,-2.7888347403,7.3603223176,6.1064832752,51
99240,188957,229922,-2.8175486115,7.2969125187,6.1268222673,52
99166,188980,229907,-2.8821548217,7.377072075799999,6.0837514605,53
99292,188946,229987,-2.7972096194,7.3112694543000005,6.053841177999999,54
99500,189013,229991,-2.8965117573,7.3603223176,6.1064832752,55
99712,188968,229975,-2.9527430884,7.5194450205,6.051448355400001,56
99866,189041,229990,-2.8785655878,7.154539573999999,6.0753765814,57
99990,189048,230004,-2.8307091358,7.5074809075,6.1268222673,58
100129,189065,230003,-2.8342983697,7.4823562701999995,6.0825550492,59
100280,189024,229986,-2.9001009912,7.465606512,6.017948839,60
100469,189107,230018,-2.8845476443,7.4644101007,6.1316079125,61
100662,189088,230048,-2.9300112737000004,7.415357237399999,6.101697629999999,62
100904,189140,230107,-2.9144579268,7.274180704,5.9868421452,63
100968,189057,230049,-2.9240292172,7.390232600099999,6.051448355400001,64
100882,189177,229998,-2.9024938138,7.3890361888,5.9509498062,65
100672,189183,230061,-2.9515466771,7.29810893,6.065805290999999,66
100499,189189,230093,-2.8534409504999996,7.405785946999999,6.0574304119,67
100517,189207,230208,-2.8929225234,7.2346991311,6.1722858967,68
100715,189224,230276,-2.9527430884,7.345965381999999,6.0993048074,69
100958,189355,230419,-2.9168507494,7.3124658656,6.089733517,70
101183,189395,230409,-2.9096722816000002,7.310073043,6.125625856,71
101284,189381,230362,-2.8809584104000003,7.2335027198,6.2057854131,72
101329,189344,230409,-2.9347969189,7.2909304621999995,6.2512490425,73
101486,189403,230413,-2.9300112737000004,7.3160550995,6.1471612594,74
101547,189444,230383,-2.7529424013,7.2933232848,6.232106461699999,75
101725,189447,230433,-2.7290141752999997,7.4010003018,6.241677752099999,76
101805,189460,230484,-2.8211378454,7.495516794499999,6.228517227799999,77
101966,189439,230469,-2.8163522002,7.3950182453,6.216553114800001,78
102114,189474,230464,-2.87138712,7.3854469549,6.259623921599999,79
102227,189466,230512,-2.8929225234,7.1976103808000005,6.191428477500001,80
102354,189439,230458,-2.8007988533,7.2586273571,6.1998033565999995,81
102511,189459,230470,-2.7625136916999997,7.3280192125,6.218945937399999,82
102557,189442,230509,-2.823530668,7.3387869142,6.2979090831999995,83
102770,189481,230558,-2.8103701436999997,7.278966349199999,6.2524454538,84
102927,189474,230508,-2.9096722816000002,7.3914290114000005,6.22133876,85
103008,189493,230534,-2.8630122409,7.2550381232,6.2500526312,86
103084,189485,230544,-2.5579273594000003,7.2550381232,6.273980857200001,87
103285,189556,230525,-2.6955146589,7.3005017526,6.245266986000001,88
103406,189505,230524,-2.6943182475999996,7.2011996147,6.2237315826,89
103544,189542,230576,-2.8187450228000004,7.1820570339,6.273980857200001,90
103666,189547,230540,-2.7912275628999996,7.2311098972,6.2823557362999995,91
103751,189526,230583,-2.7900311516,7.1772713886999995,6.2297136391,92
103900,189516,230581,-2.7541388126,7.2921268735,6.1304115012,93
104042,189550,230543,-2.7637101029999998,7.202396026,6.269195212,94
104147,189582,230566,-2.8462624827,7.4165536487,6.2141602922,95
104308,189608,230566,-2.7720849821,7.317251510799999,6.299105494500001,96
104402,189579,230557,-2.6811577232999997,7.2454668328,6.272784445899999,97
104478,189604,230571,-2.7003003040999998,7.262216591,6.1878392436,98
104583,189580,230570,-2.9072794589999997,7.202396026,6.2715880346,99
104318,189491,230443,-2.7050859493,7.3304120351,6.2117674696,100
103639,189370,230351,-2.7314069979,7.2753771152999995,6.2428741634,101
102824,189322,230324,-2.7218357075,7.3136622769,6.3086767849,102
102064,189262,230243,-2.7421746995999996,7.4333034069,6.2955162605999995,103
101383,189169,230240,-2.7445675222,7.3567330837,6.2715880346,104
100867,189202,230229,-2.7062823606,7.2646094136,6.301498317099999,105
100453,189153,230190,-2.7206392962,7.3124658656,6.2907306154,106
100251,189167,230169,-2.8414768375,7.238288365000001,6.2225351713,107
100094,189132,230250,-2.6392833278,7.2957161074000005,6.270391623299999,108
100124,189061,230222,-2.7182464736,7.1605216305,6.259623921599999,109
100116,189143,230233,-2.7840490951,7.2442704215000004,6.2919270267,110
100090,189157,230202,-2.75174599,7.3519474385,6.293123438,111
100061,189112,230161,-2.75174599,7.3519474385,6.293123438,112
100051,189145,230151,-2.75174599,7.3519474385,6.293123438,113
100057,189160,230195,-2.75174599,7.3519474385,6.293123438,114
100103,189149,230172,-2.75174599,7.3519474385,6.293123438,115
100093,189136,230151,-2.75174599,7.3519474385,6.293123438,116
99884,189092,230142,-2.75174599,7.3519474385,6.293123438,117
99512,189037,230077,-2.75174599,7.3519474385,6.293123438,118
99198,188998,230047,-2.75174599,7.3519474385,6.293123438,119
99076,188975,230105,-2.75174599,7.3519474385,6.293123438,120
99161,189024,230094,-2.6691936103000002,7.1868426791,6.2380885182,121
99374,189038,230174,-2.8103701436999997,7.3746792532,6.1280186786,122
99555,189106,230150,-2.8103701436999997,7.3746792532,6.1280186786,123
99707,189088,230155,-2.8103701436999997,7.3746792532,6.1280186786,124
99815,189057,230180,-2.8103701436999997,7.3746792532,6.1280186786,125
99855,189062,230165,-2.8103701436999997,7.3746792532,6.1280186786,126
99969,189077,230173,-2.8103701436999997,7.3746792532,6.1280186786,127
100086,189083,230140,-2.8103701436999997,7.3746792532,6.1280186786,128
100235,189095,230177,-2.8103701436999997,7.3746792532,6.1280186786,129
100420,189098,230143,-2.8103701436999997,7.3746792532,6.1280186786,130
100592,189135,230212,-2.8103701436999997,7.3746792532,6.1280186786,131
100753,189126,230160,-2.8103701436999997,7.3746792532,6.1280186786,132
100907,189120,230183,-2.8103701436999997,7.3746792532,6.1280186786,133
101083,189131,230175,-2.8103701436999997,7.3746792532,6.1280186786,134
101241,189183,230160,-2.8103701436999997,7.3746792532,6.1280186786,135
101407,189146,230170,-2.8103701436999997,7.3746792532,6.1280186786,136
101588,189163,230198,-2.8103701436999997,7.3746792532,6.1280186786,137
101771,189191,230230,-2.8103701436999997,7.3746792532,6.1280186786,138
101940,189229,230204,-2.8103701436999997,7.3746792532,6.1280186786,139
102115,189240,230218,-2.8103701436999997,7.3746792532,6.1280186786,140
102302,189260,230250,-2.8103701436999997,7.3746792532,6.1280186786,141
102486,189263,230218,-2.8103701436999997,7.3746792532,6.1280186786,142
102686,189252,230242,-2.8103701436999997,7.3746792532,6.1280186786,143
102874,189310,230254,-2.8103701436999997,7.3746792532,6.1280186786,144
103074,189321,230203,-2.8103701436999997,7.3746792532,6.1280186786,145
103227,189325,230212,-2.8103701436999997,7.3746792532,6.1280186786,146
103441,189335,230250,-2.8103701436999997,7.3746792532,6.1280186786,147
103653,189375,230249,-2.8103701436999997,7.3746792532,6.1280186786,148
103676,189350,230168,-2.8103701436999997,7.3746792532,6.1280186786,149
103343,189284,230066,-2.8103701436999997,7.3746792532,6.1280186786,150
102639,189164,229993,-2.8103701436999997,7.3746792532,6.1280186786,151
101945,189145,229955,-2.8103701436999997,7.3746792532,6.1280186786,152
101359,189076,229940,-2.8103701436999997,7.3746792532,6.1280186786,153
101007,189064,229939,-2.8103701436999997,7.3746792532,6.1280186786,154
100798,189025,229949,-2.8103701436999997,7.3746792532,6.1280186786,155
100717,189066,229935,-2.8103701436999997,7.3746792532,6.1280186786,156
100776,189079,229980,-2.8103701436999997,7.3746792532,6.1280186786,157
100866,189084,229923,-2.8103701436999997,7.3746792532,6.1280186786,158
100936,189069,229929,-2.8103701436999997,7.3746792532,6.1280186786,159
100983,189068,229958,-2.7457639335,7.3746792532,6.107679686499999,160
101029,189108,229962,-2.7457639335,7.3746792532,6.107679686499999,161
101096,189102,229991,-2.7457639335,7.3746792532,6.107679686499999,162
101187,189104,229977,-2.7457639335,7.3746792532,6.107679686499999,163
101280,189187,229988,-2.7457639335,7.3746792532,6.107679686499999,164
101371,189131,229980,-2.7457639335,7.3746792532,6.107679686499999,165
101444,189133,229956,-2.8570301844,7.3423761481,6.145964848099999,166
101319,189150,229877,-2.9120651042,7.378268487100001,6.0131631938000005,167
101073,189152,229931,-2.9252256285000002,7.334001269,6.065805290999999,168
100877,189127,229921,-2.9108686929000003,7.403393124400001,6.113661743,169
100836,189082,229917,-2.9778677257000004,7.525427077,6.0705909362,170
100997,189117,229944,-2.9647072014,7.488338326699999,6.0011990808,171
101222,189141,229978,-2.7649065143000002,7.4931239719,6.0107703712000005,172
101431,189161,229961,-2.8127629663000002,7.3280192125,6.017948839,173
101566,189155,229933,-2.8498517166,7.447660342499999,6.0083775485999995,174
101670,189178,229980,-2.8438696600999998,7.3710900192999995,6.0490555328,175
101770,189218,229952,-2.9419753867,7.2442704215000004,6.078965815299999,176
101901,189233,230001,-2.9048866364,7.3603223176,6.041877065,177
102069,189260,230045,-2.9048866364,7.3603223176,6.041877065,178
102262,189363,230088,-2.7888347403,7.2957161074000005,5.9509498062,179
102449,189433,230175,-2.919243572,7.334001269,6.0969119848,180
102593,189490,230238,-2.8127629663000002,7.2849484057,6.1040904525999995,181
102735,189512,230313,-2.9084758702999998,7.278966349199999,6.1280186786,182
102849,189500,230376,-2.8749763539,7.336394091599999,6.185446421,183
102993,189545,230392,-2.8929225234,7.320840744700001,6.1543397272,184
103101,189570,230377,-2.9718856692,7.2646094136,6.2201423487000005,185
103208,189581,230420,-2.8103701436999997,7.332804857699999,6.244070574699999,186
103246,189581,230418,-2.9958138952,7.2131637277000005,6.1950177114,187
103358,189571,230489,-2.6751756668,7.3830541323,6.3254265431,188
103450,189536,230449,-2.6751756668,7.3830541323,6.3254265431,189
103544,189597,230436,-2.6751756668,7.3830541323,6.3254265431,190
103636,189620,230489,-2.6751756668,7.3830541323,6.3254265431,191
103551,189557,230404,-2.6751756668,7.3830541323,6.3254265431,192
102991,189402,230276,-2.6751756668,7.3830541323,6.3254265431,193
102108,189269,230138,-2.6751756668,7.3830541323,6.3254265431,194
101208,189200,230066,-2.6751756668,7.3830541323,6.3254265431,195
100485,189123,230055,-2.6751756668,7.3830541323,6.3254265431,196
99928,189097,230044,-2.6751756668,7.3830541323,6.3254265431,197
99507,189046,229992,-2.6751756668,7.3830541323,6.3254265431,198
99220,189031,230008,-2.6751756668,7.3830541323,6.3254265431,199
99153,189017,230025,-2.6751756668,7.3830541323,6.3254265431,200
99199,189031,230032,-2.6751756668,7.3830541323,6.3254265431,201
99245,189028,229995,-2.6751756668,7.3830541323,6.3254265431,202
99289,189012,230004,-2.6751756668,7.3830541323,6.3254265431,203
99275,189021,230026,-2.6751756668,7.3830541323,6.3254265431,204
99310,189029,230011,-2.6751756668,7.3830541323,6.3254265431,205
99358,189025,230018,-2.6751756668,7.3830541323,6.3254265431,206
99422,189034,230080,-2.6751756668,7.3830541323,6.3254265431,207
99518,189040,230022,-2.6751756668,7.3830541323,6.3254265431,208
99609,189028,230059,-2.6751756668,7.3830541323,6.3254265431,209
99745,189026,230067,-2.6751756668,7.3830541323,6.3254265431,210
99870,189064,230059,-2.6751756668,7.3830541323,6.3254265431,211
99997,189055,230044,-2.6751756668,7.3830541323,6.3254265431,212
99957,189035,229993,-2.6751756668,7.3830541323,6.3254265431,213
99446,188920,229906,-2.6751756668,7.3830541323,6.3254265431,214
98625,188767,229799,-2.6751756668,7.3830541323,6.3254265431,215
97861,188704,229751,-2.6751756668,7.3830541323,6.3254265431,216
97246,188678,229711,-2.6751756668,7.3830541323,6.3254265431,217
96754,188579,229694,-2.6751756668,7.3830541323,6.3254265431,218
96367,188560,229680,-2.6751756668,7.3830541323,6.3254265431,219
96153,188550,229673,-2.6751756668,7.3830541323,6.3254265431,220
96126,188540,229673,-2.6751756668,7.3830541323,6.3254265431,221
96298,188562,229672,-2.6751756668,7.3830541323,6.3254265431,222
96510,188607,229726,-2.6751756668,7.3830541323,6.3254265431,223
96673,188593,229722,-2.7062823606,7.319644333399999,6.228517227799999,224
96824,188588,229762,-2.7062823606,7.319644333399999,6.228517227799999,225
96921,188573,229774,-2.7062823606,7.319644333399999,6.228517227799999,226
97067,188609,229752,-2.7062823606,7.319644333399999,6.228517227799999,227
97239,188610,229783,-2.7062823606,7.319644333399999,6.228517227799999,228
97418,188644,229789,-2.7062823606,7.319644333399999,6.228517227799999,229
97610,188648,229808,-2.7062823606,7.319644333399999,6.228517227799999,230
97809,188715,229815,-2.7062823606,7.319644333399999,6.228517227799999,231
98020,188722,229861,-2.7062823606,7.319644333399999,6.228517227799999,232
98212,188733,229874,-2.7062823606,7.319644333399999,6.228517227799999,233
98411,188742,229877,-2.7062823606,7.319644333399999,6.228517227799999,234
98611,188767,229879,-2.7062823606,7.319644333399999,6.228517227799999,235
98818,188806,229935,-2.7062823606,7.319644333399999,6.228517227799999,236
99019,188816,229940,-2.7062823606,7.319644333399999,6.228517227799999,237
99218,188811,229946,-2.7062823606,7.319644333399999,6.228517227799999,238
99388,188825,229960,-2.7062823606,7.319644333399999,6.228517227799999,239
99579,188853,229951,-2.7062823606,7.319644333399999,6.228517227799999,240
99780,188874,230004,-2.7062823606,7.319644333399999,6.228517227799999,241
99926,188892,229938,-2.7062823606,7.319644333399999,6.228517227799999,242
99790,188817,229883,-2.7062823606,7.319644333399999,6.228517227799999,243
99143,188684,229798,-2.7062823606,7.319644333399999,6.228517227799999,244
98332,188598,229613,-2.7062823606,7.319644333399999,6.228517227799999,245
97660,188513,229613,-2.7062823606,7.319644333399999,6.228517227799999,246
97163,188469,229530,-2.7062823606,7.319644333399999,6.228517227799999,247
96810,188446,229536,-2.7062823606,7.319644333399999,6.228517227799999,248
96560,188416,229495,-2.7062823606,7.319644333399999,6.228517227799999,249
96489,188420,229468,-2.7062823606,7.319644333399999,6.228517227799999,250
96614,188423,229535,-2.7062823606,7.319644333399999,6.228517227799999,251
96875,188474,229561,-2.7062823606,7.319644333399999,6.228517227799999,252
97097,188530,229559,-2.7062823606,7.319644333399999,6.228517227799999,253
97285,188477,229534,-2.7062823606,7.319644333399999,6.228517227799999,254
97447,188473,229514,-2.7062823606,7.319644333399999,6.228517227799999,255
97602,188487,229517,-2.7062823606,7.319644333399999,6.228517227799999,256
97790,188479,229540,-2.7062823606,7.319644333399999,6.228517227799999,257
98008,188518,229536,-2.7062823606,7.319644333399999,6.228517227799999,258
98241,188503,229553,-2.7062823606,7.319644333399999,6.228517227799999,259
98460,188556,229596,-2.7062823606,7.319644333399999,6.228517227799999,260
98696,188564,229587,-2.7062823606,7.319644333399999,6.228517227799999,261
98939,188597,229594,-2.7062823606,7.319644333399999,6.228517227799999,262
99203,188619,229573,-2.7062823606,7.319644333399999,6.228517227799999,263
99446,188628,229594,-2.7062823606,7.319644333399999,6.228517227799999,264
99685,188646,229614,-2.7062823606,7.319644333399999,6.228517227799999,265
97621,188552,229302,-2.9778677257000004,7.3710900192999995,6.1040904525999995,266
97837,188542,229323,-2.9778677257000004,7.3710900192999995,6.1040904525999995,267
98086,188592,229389,-2.9778677257000004,7.3710900192999995,6.1040904525999995,268
98263,188608,229364,-2.9778677257000004,7.3710900192999995,6.1040904525999995,269
98391,188590,229374,-2.9778677257000004,7.3710900192999995,6.1040904525999995,270
98539,188605,229377,-2.9778677257000004,7.3710900192999995,6.1040904525999995,271
98705,188615,229373,-2.9778677257000004,7.3710900192999995,6.1040904525999995,272
98893,188648,229374,-2.9778677257000004,7.3710900192999995,6.1040904525999995,273
99091,188675,229353,-2.9778677257000004,7.3710900192999995,6.1040904525999995,274
99346,188692,229363,-2.9778677257000004,7.3710900192999995,6.1040904525999995,275
99525,188700,229310,-2.9778677257000004,7.3710900192999995,6.1040904525999995,276
99503,188663,229288,-2.9778677257000004,7.3710900192999995,6.1040904525999995,277
99251,188625,229243,-2.9778677257000004,7.3710900192999995,6.1040904525999995,278
98928,188596,229228,-2.9778677257000004,7.3710900192999995,6.1040904525999995,279
98803,188624,229198,-2.9778677257000004,7.3710900192999995,6.1040904525999995,280
98935,188619,229244,-2.9778677257000004,7.3710900192999995,6.1040904525999995,281
99249,188677,229262,-2.9778677257000004,7.3710900192999995,6.1040904525999995,282
99588,188712,229309,-2.9778677257000004,7.3710900192999995,6.1040904525999995,283
99877,188710,229259,-2.9778677257000004,7.3710900192999995,6.1040904525999995,284
100081,188763,229304,-2.9491538545,7.3962146566,6.0035919034,285
100231,188744,229308,-2.9491538545,7.3962146566,6.0035919034,286
100434,188821,229298,-2.9694928465999997,7.4524459877,5.9461641610000004,287
100644,188816,229343,-3.0592236941,7.158128807899999,6.1184473882,288
100872,188865,229366,-2.967100024,7.319644333399999,5.994020613,289
101137,188923,229434,-2.9551359109999997,7.4021967130999995,6.0849478718,290
101369,188966,229516,-3.062812928,7.4201428826,6.034698597199999,291
101547,189035,229583,-3.0173492985999997,7.2071816712,6.029912952,292
101811,189109,229630,-3.1286155494999996,7.2693950588,6.0119667825,293
101966,189229,229719,-3.0412775246,7.1976103808000005,6.1196437994999995,294
102272,189296,229815,-2.9970103065,7.4703921572,6.1926248888,295
102460,189287,229896,-2.9455646206,7.428517761699999,6.2309100503999995,296
102592,189313,229890,-2.8247270792999997,7.4632136894,6.2476598086,297
102720,189305,229931,-2.6907290137,7.4368926408,6.422335858399999,298
102875,189343,229984,-2.6907290137,7.4368926408,6.422335858399999,299
102994,189356,229951,-2.6907290137,7.4368926408,6.422335858399999,300
103161,189429,230054,-2.6907290137,7.4368926408,6.422335858399999,301
103318,189418,230024,-2.6907290137,7.4368926408,6.422335858399999,302
103469,189445,230033,-2.6907290137,7.4368926408,6.422335858399999,303
103601,189425,230017,-2.6907290137,7.4368926408,6.422335858399999,304
103750,189425,230030,-2.6907290137,7.4368926408,6.422335858399999,305
103899,189457,230063,-2.6907290137,7.4368926408,6.422335858399999,306
104035,189448,230034,-2.6907290137,7.4368926408,6.422335858399999,307
104160,189462,230074,-2.6907290137,7.4368926408,6.422335858399999,308
104293,189430,230053,-2.6907290137,7.4368926408,6.422335858399999,309
104422,189481,230053,-2.6907290137,7.4368926408,6.422335858399999,310
104562,189453,230077,-2.6907290137,7.4368926408,6.422335858399999,311
104582,189494,230029,-2.6907290137,7.4368926408,6.422335858399999,312
104274,189374,229932,-2.6907290137,7.4368926408,6.422335858399999,313
103578,189279,229813,-2.6907290137,7.4368926408,6.422335858399999,314
102821,189229,229737,-2.6907290137,7.4368926408,6.422335858399999,315
102182,189166,229689,-2.6907290137,7.4368926408,6.422335858399999,316
101713,189151,229714,-2.6907290137,7.4368926408,6.422335858399999,317
101380,189155,229674,-2.6907290137,7.4368926408,6.422335858399999,318
101192,189150,229685,-2.6907290137,7.4368926408,6.422335858399999,319
101135,189150,229720,-2.6907290137,7.4368926408,6.422335858399999,320
101179,189162,229743,-2.6907290137,7.4368926408,6.422335858399999,321
101292,189148,229716,-2.6907290137,7.4368926408,6.422335858399999,322
101354,189163,229696,-2.6907290137,7.4368926408,6.422335858399999,323
101380,189107,229643,-2.7194428849,7.3316084464,6.1100725091,324
101436,189129,229654,-2.7194428849,7.3316084464,6.1100725091,325
101504,189159,229616,-2.7194428849,7.3316084464,6.1100725091,326
101640,189123,229627,-2.7194428849,7.3316084464,6.1100725091,327
101778,189097,229584,-2.7194428849,7.3316084464,6.1100725091,328
101921,189098,229551,-2.7194428849,7.3316084464,6.1100725091,329
102060,189056,229488,-2.7996024420000003,7.465606512,6.1160545656,330
102187,189033,229455,-3.1956145822999997,7.3375905029,5.886343596000001,331
102308,188967,229387,-3.1956145822999997,7.3375905029,5.886343596000001,332
102419,188910,229298,-3.1956145822999997,7.3375905029,5.886343596000001,333
102542,188939,229269,-3.1956145822999997,7.3375905029,5.886343596000001,334
102659,188870,229258,-3.1956145822999997,7.3375905029,5.886343596000001,335
102648,188806,229111,-3.1956145822999997,7.3375905029,5.886343596000001,336
102317,188717,229012,-3.1956145822999997,7.3375905029,5.886343596000001,337
101631,188590,228888,-3.1956145822999997,7.3375905029,5.886343596000001,338
100925,188501,228782,-3.1956145822999997,7.3375905029,5.886343596000001,339
100365,188428,228746,-3.1956145822999997,7.3375905029,5.886343596000001,340
99912,188338,228687,-3.1956145822999997,7.3375905029,5.886343596000001,341
99556,188274,228595,-3.1956145822999997,7.3375905029,5.886343596000001,342
99302,188206,228539,-3.1956145822999997,7.3375905029,5.886343596000001,343
99217,188171,228491,-3.1956145822999997,7.3375905029,5.886343596000001,344
99270,188123,228479,-3.1956145822999997,7.3375905029,5.886343596000001,345
99347,188140,228446,-3.1956145822999997,7.3375905029,5.886343596000001,346
99395,188077,228416,-3.1956145822999997,7.3375905029,5.886343596000001,347
99379,188020,228344,-3.1956145822999997,7.3375905029,5.886343596000001,348
99392,187980,228279,-3.1956145822999997,7.3375905029,5.886343596000001,349
99417,187942,228310,-3.1956145822999997,7.3375905029,5.886343596000001,350
99465,187921,228217,-3.1956145822999997,7.3375905029,5.886343596000001,351
99512,187904,228221,-3.1956145822999997,7.3375905029,5.886343596000001,352
99582,187864,228215,-3.1956145822999997,7.3375905029,5.886343596000001,353
99648,187881,228176,-3.1956145822999997,7.3375905029,5.886343596000001,354
99736,187829,228159,-3.1956145822999997,7.3375905029,5.886343596000001,355
99803,187769,228134,-3.1956145822999997,7.3375905029,5.886343596000001,356
99594,187732,228034,-3.1956145822999997,7.3375905029,5.886343596000001,357
98967,187634,227896,-3.1956145822999997,7.3375905029,5.886343596000001,358
98165,187606,227876,-3.1956145822999997,7.3375905029,5.886343596000001,359
97519,187576,227812,-3.1956145822999997,7.3375905029,5.886343596000001,360
97016,187537,227806,-3.1956145822999997,7.3375905029,5.886343596000001,361
96607,187459,227789,-3.1956145822999997,7.3375905029,5.886343596000001,362
96308,187485,227787,-3.1956145822999997,7.3375905029,5.886343596000001,363
96208,187501,227773,-3.1956145822999997,7.3375905029,5.886343596000001,364
96333,187521,227794,-3.1956145822999997,7.3375905029,5.886343596000001,365
96595,187615,227922,-3.1956145822999997,7.3375905029,5.886343596000001,366
96794,187674,227970,-3.1956145822999997,7.3375905029,5.886343596000001,367
96984,187776,228066,-3.1956145822999997,7.3375905029,5.886343596000001,368
97137,187883,228169,-3.1956145822999997,7.3375905029,5.886343596000001,369
97311,187946,228271,-3.1956145822999997,7.3375905029,5.886343596000001,370
97539,188100,228433,-3.1956145822999997,7.3375905029,5.886343596000001,371
97767,188187,228582,-3.1956145822999997,7.3375905029,5.886343596000001,372
103204,188682,228569,-3.0532416376,7.202396026,6.191428477500001,373
103451,188784,228632,-3.0532416376,7.202396026,6.191428477500001,374
103655,188838,228751,-3.0532416376,7.202396026,6.191428477500001,375
103884,188961,228871,-3.0532416376,7.202396026,6.191428477500001,376
104129,189070,229014,-3.0532416376,7.202396026,6.191428477500001,377
104372,189167,229081,-3.0532416376,7.202396026,6.191428477500001,378
104658,189258,229217,-3.0532416376,7.202396026,6.191428477500001,379
104944,189409,229340,-3.0532416376,7.202396026,6.191428477500001,380
105225,189488,229400,-3.0532416376,7.202396026,6.191428477500001,381
105484,189557,229499,-3.0532416376,7.202396026,6.191428477500001,382
105749,189646,229546,-3.0532416376,7.202396026,6.191428477500001,383
106029,189716,229581,-3.0532416376,7.202396026,6.191428477500001,384
106266,189738,229625,-3.0532416376,7.202396026,6.191428477500001,385
106486,189755,229679,-3.0532416376,7.202396026,6.191428477500001,386
106591,189785,229692,-3.0532416376,7.202396026,6.191428477500001,387
106798,189809,229733,-3.0532416376,7.202396026,6.191428477500001,388
106985,189816,229739,-3.0532416376,7.202396026,6.191428477500001,389
107195,189874,229748,-3.0532416376,7.202396026,6.191428477500001,390
107393,189921,229772,-3.0532416376,7.202396026,6.191428477500001,391
107604,189920,229781,-3.0532416376,7.202396026,6.191428477500001,392
107784,189971,229851,-3.146561719,7.125825702799999,6.1962141227,393
107981,189977,229833,-3.146561719,7.125825702799999,6.1962141227,394
108138,189986,229832,-3.146561719,7.125825702799999,6.1962141227,395
108345,190004,229904,-3.146561719,7.125825702799999,6.1962141227,396
108507,190095,229898,-3.146561719,7.125825702799999,6.1962141227,397
108683,190105,229891,-3.146561719,7.125825702799999,6.1962141227,398
108602,190101,229906,-2.9563323222999998,7.4129644148,6.0825550492,399
108166,189983,229760,-2.9563323222999998,7.4129644148,6.0825550492,400
107564,189906,229617,-2.9563323222999998,7.4129644148,6.0825550492,401
106977,189840,229621,-2.9563323222999998,7.4129644148,6.0825550492,402
106511,189856,229594,-2.9563323222999998,7.4129644148,6.0825550492,403
106116,189808,229647,-2.9563323222999998,7.4129644148,6.0825550492,404
105835,189795,229596,-2.9563323222999998,7.4129644148,6.0825550492,405
105646,189838,229674,-2.9563323222999998,7.4129644148,6.0825550492,406
105610,189859,229648,-2.9563323222999998,7.4129644148,6.0825550492,407
105642,189892,229676,-2.9563323222999998,7.4129644148,6.0825550492,408
105643,189865,229671,-2.9563323222999998,7.4129644148,6.0825550492,409
105631,189883,229653,-2.9563323222999998,7.4129644148,6.0825550492,410
105598,189921,229630,-2.9563323222999998,7.4129644148,6.0825550492,411
105608,189889,229639,-2.9563323222999998,7.4129644148,6.0825550492,412
105646,189920,229676,-2.9563323222999998,7.4129644148,6.0825550492,413
105709,189907,229675,-2.9563323222999998,7.4129644148,6.0825550492,414
105784,189916,229665,-2.9563323222999998,7.4129644148,6.0825550492,415
105851,189936,229684,-2.9563323222999998,7.4129644148,6.0825550492,416
105904,189923,229707,-2.9563323222999998,7.4129644148,6.0825550492,417
105994,189941,229707,-2.9563323222999998,7.4129644148,6.0825550492,418
106100,189971,229702,-2.9563323222999998,7.4129644148,6.0825550492,419
106040,189962,229649,-2.9563323222999998,7.4129644148,6.0825550492,420
105666,189872,229557,-2.9563323222999998,7.4129644148,6.0825550492,421
105020,189766,229430,-2.9563323222999998,7.4129644148,6.0825550492,422
104379,189734,229381,-2.9563323222999998,7.4129644148,6.0825550492,423
103926,189705,229304,-2.9563323222999998,7.4129644148,6.0825550492,424
103537,189686,229295,-2.9563323222999998,7.4129644148,6.0825550492,425
103257,189619,229273,-2.9563323222999998,7.4129644148,6.0825550492,426
103081,189601,229190,-2.9563323222999998,7.4129644148,6.0825550492,427
103038,189586,229197,-2.9563323222999998,7.4129644148,6.0825550492,428
103120,189591,229185,-2.9563323222999998,7.4129644148,6.0825550492,429
103200,189555,229138,-2.9563323222999998,7.4129644148,6.0825550492,430
103273,189562,229076,-2.9563323222999998,7.4129644148,6.0825550492,431
103325,189535,229044,-2.9563323222999998,7.4129644148,6.0825550492,432
103380,189517,229073,-2.9563323222999998,7.4129644148,6.0825550492,433
103472,189509,229021,-2.9563323222999998,7.4129644148,6.0825550492,434
103552,189506,229030,-2.9563323222999998,7.4129644148,6.0825550492,435
103639,189492,229006,-2.9563323222999998,7.4129644148,6.0825550492,436
103777,189500,229002,-2.9563323222999998,7.4129644148,6.0825550492,437
103889,189514,228948,-2.9599215562,7.5158557866,5.9916277904,438
104034,189471,228987,-2.9599215562,7.5158557866,5.9916277904,439
104103,189493,228955,-3.1716863562999995,7.4273213504,6.0885371056999995,440
103877,189443,228863,-3.0616165167,7.2849484057,5.9054861768,441
103266,189328,228728,-3.0616165167,7.2849484057,5.9054861768,442
102662,189270,228646,-3.0616165167,7.2849484057,5.9054861768,443
102221,189231,228612,-3.0616165167,7.2849484057,5.9054861768,444
101901,189227,228566,-3.0616165167,7.2849484057,5.9054861768,445
101655,189181,228565,-3.0616165167,7.2849484057,5.9054861768,446
101527,189160,228583,-3.0616165167,7.2849484057,5.9054861768,447
101570,189205,228553,-3.0616165167,7.2849484057,5.9054861768,448
101706,189167,228564,-3.0616165167,7.2849484057,5.9054861768,449
101830,189173,228543,-3.0616165167,7.2849484057,5.9054861768,450
101900,189165,228559,-3.0616165167,7.2849484057,5.9054861768,451
101974,189164,228554,-3.0616165167,7.2849484057,5.9054861768,452
102031,189122,228528,-3.0616165167,7.2849484057,5.9054861768,453
102140,189145,228441,-3.0616165167,7.2849484057,5.9054861768,454
102216,189106,228422,-3.0616165167,7.2849484057,5.9054861768,455
102331,189101,228470,-3.0616165167,7.2849484057,5.9054861768,456
102430,189142,228462,-3.0616165167,7.2849484057,5.9054861768,457
102572,189133,228471,-3.0616165167,7.2849484057,5.9054861768,458
102694,189110,228494,-3.0616165167,7.2849484057,5.9054861768,459
102686,189092,228417,-3.0616165167,7.2849484057,5.9054861768,460
102331,189041,228350,-3.0616165167,7.2849484057,5.9054861768,461
101706,189069,228302,-3.0616165167,7.2849484057,5.9054861768,462
101204,189051,228355,-2.6141586905,7.310073043,6.209374647,463
100853,189144,228404,-2.6141586905,7.310073043,6.209374647,464
100569,189199,228491,-2.6141586905,7.310073043,6.209374647,465
100384,189267,228609,-2.6141586905,7.310073043,6.209374647,466
100367,189354,228734,-2.6141586905,7.310073043,6.209374647,467
100500,189445,228836,-2.6141586905,7.310073043,6.209374647,468
100713,189550,228943,-2.6141586905,7.310073043,6.209374647,469
100892,189587,228958,-2.6141586905,7.310073043,6.209374647,470
101011,189659,229057,-2.6141586905,7.310073043,6.209374647,471
101107,189687,229054,-2.6141586905,7.310073043,6.209374647,472
101245,189764,229105,-2.6141586905,7.310073043,6.209374647,473
101403,189795,229169,-2.6141586905,7.310073043,6.209374647,474
101585,189828,229182,-2.6141586905,7.310073043,6.209374647,475
101760,189867,229210,-2.6141586905,7.310073043,6.209374647,476
101964,189890,229267,-2.6141586905,7.310073043,6.209374647,477
102103,189879,229269,-2.6141586905,7.310073043,6.209374647,478
102280,189895,229287,-2.6141586905,7.310073043,6.209374647,479
102418,189935,229316,-2.6141586905,7.310073043,6.209374647,480
102284,189860,229182,-2.6141586905,7.310073043,6.209374647,481
101739,189722,229074,-2.6141586905,7.310073043,6.209374647,482
101031,189645,228973,-2.6141586905,7.310073043,6.209374647,483
100523,189610,228887,-2.6141586905,7.310073043,6.209374647,484
100139,189578,228878,-2.6141586905,7.310073043,6.209374647,485
99807,189557,228870,-2.6141586905,7.310073043,6.209374647,486
99591,189524,228835,-2.6141586905,7.310073043,6.209374647,487
99559,189552,228893,-2.6141586905,7.310073043,6.209374647,488
99673,189573,228915,-2.6141586905,7.310073043,6.209374647,489
99883,189606,228919,-2.6141586905,7.310073043,6.209374647,490
100057,189626,228887,-2.6141586905,7.310073043,6.209374647,491
100168,189591,228940,-2.6141586905,7.310073043,6.209374647,492
100287,189597,228987,-2.6141586905,7.310073043,6.209374647,493
100410,189677,228945,-2.6141586905,7.310073043,6.209374647,494
100551,189653,228957,-2.6141586905,7.310073043,6.209374647,495
100736,189647,228945,-2.6141586905,7.310073043,6.209374647,496
100858,189669,228964,-2.6141586905,7.310073043,6.209374647,497
100843,189630,228925,-2.6141586905,7.310073043,6.209374647,498
100669,189568,228867,-2.6141586905,7.310073043,6.209374647,499
100562,189623,228878,-2.6141586905,7.310073043,6.209374647,500
100635,189634,228919,-2.6141586905,7.310073043,6.209374647,501
100857,189705,228908,-2.6141586905,7.310073043,6.209374647,502
101124,189703,228977,-2.6141586905,7.310073043,6.209374647,503
101321,189729,228996,-2.6141586905,7.310073043,6.209374647,504
103648,190059,228384,-2.9359933301999996,7.3136622769,6.1399827916000005,505
103792,190007,228372,-2.9359933301999996,7.3136622769,6.1399827916000005,506
103918,190066,228419,-2.9359933301999996,7.3136622769,6.1399827916000005,507
104058,190071,228419,-2.9359933301999996,7.3136622769,6.1399827916000005,508
104209,190049,228435,-2.9359933301999996,7.3136622769,6.1399827916000005,509
104353,190077,228400,-2.9359933301999996,7.3136622769,6.1399827916000005,510
104485,190100,228420,-2.9359933301999996,7.3136622769,6.1399827916000005,511
104622,190122,228468,-2.9359933301999996,7.3136622769,6.1399827916000005,512
104764,190121,228466,-2.9359933301999996,7.3136622769,6.1399827916000005,513
104913,190103,228495,-2.9359933301999996,7.3136622769,6.1399827916000005,514
105046,190157,228441,-2.9359933301999996,7.3136622769,6.1399827916000005,515
105194,190166,228498,-2.9359933301999996,7.3136622769,6.1399827916000005,516
105327,190142,228495,-2.9359933301999996,7.3136622769,6.1399827916000005,517
105468,190140,228468,-2.9359933301999996,7.3136622769,6.1399827916000005,518
105639,190139,228461,-2.9359933301999996,7.3136622769,6.1399827916000005,519
105794,190170,228402,-2.9359933301999996,7.3136622769,6.1399827916000005,520
105930,190162,228463,-2.9359933301999996,7.3136622769,6.1399827916000005,521
106081,190164,228469,-2.9359933301999996,7.3136622769,6.1399827916000005,522
106213,190180,228484,-2.9359933301999996,7.3136622769,6.1399827916000005,523
106139,190161,228401,-2.9359933301999996,7.3136622769,6.1399827916000005,524
105740,190053,228292,-2.9359933301999996,7.3136622769,6.1399827916000005,525
105148,189975,228184,-2.9359933301999996,7.3136622769,6.1399827916000005,526
104580,189942,228165,-2.9359933301999996,7.3136622769,6.1399827916000005,527
104081,189874,228084,-2.9359933301999996,7.3136622769,6.1399827916000005,528
103665,189788,228077,-2.9359933301999996,7.3136622769,6.1399827916000005,529
103363,189766,228055,-2.9359933301999996,7.3136622769,6.1399827916000005,530
103178,189772,227991,-2.9359933301999996,7.3136622769,6.1399827916000005,531
103087,189755,228024,-2.9359933301999996,7.3136622769,6.1399827916000005,532
103116,189771,227978,-2.9359933301999996,7.3136622769,6.1399827916000005,533
103134,189813,228015,-2.9359933301999996,7.3136622769,6.1399827916000005,534
103110,189803,227957,-2.9359933301999996,7.3136622769,6.1399827916000005,535
103086,189789,228016,-2.9359933301999996,7.3136622769,6.1399827916000005,536
103106,189801,227993,-2.9359933301999996,7.3136622769,6.1399827916000005,537
103140,189763,227952,-2.9359933301999996,7.3136622769,6.1399827916000005,538
103195,189781,227957,-2.9359933301999996,7.3136622769,6.1399827916000005,539
103265,189779,227959,-2.9359933301999996,7.3136622769,6.1399827916000005,540
103361,189770,227971,-2.9359933301999996,7.3136622769,6.1399827916000005,541
103460,189756,227939,-2.9359933301999996,7.3136622769,6.1399827916000005,542
103594,189868,227977,-2.9359933301999996,7.3136622769,6.1399827916000005,543
103723,189837,228006,-2.9359933301999996,7.3136622769,6.1399827916000005,544
103864,189835,227996,-2.9359933301999996,7.3136622769,6.1399827916000005,545
103999,189896,228046,-2.9359933301999996,7.3136622769,6.1399827916000005,546
102288,189966,228258,-2.6392833278,7.3136622769,6.2668023894,547
102347,189992,228282,-2.6392833278,7.3136622769,6.2668023894,548
102440,189959,228333,-2.6392833278,7.3136622769,6.2668023894,549
102496,189976,228324,-2.6392833278,7.3136622769,6.2668023894,550
102580,189993,228331,-2.6392833278,7.3136622769,6.2668023894,551
102611,189953,228361,-2.6392833278,7.3136622769,6.2668023894,552
102345,189844,228299,-2.6392833278,7.3136622769,6.2668023894,553
101701,189739,228201,-2.6392833278,7.3136622769,6.2668023894,554
100924,189654,228115,-2.6392833278,7.3136622769,6.2668023894,555
100206,189601,228075,-2.6392833278,7.3136622769,6.2668023894,556
99602,189514,228046,-2.6392833278,7.3136622769,6.2668023894,557
99109,189492,227988,-2.6392833278,7.3136622769,6.2668023894,558
98747,189451,228026,-2.6392833278,7.3136622769,6.2668023894,559
98489,189439,228023,-2.6392833278,7.3136622769,6.2668023894,560
98455,189444,228081,-2.6392833278,7.3136622769,6.2668023894,561
98560,189461,228063,-2.6392833278,7.3136622769,6.2668023894,562
98618,189430,228122,-2.6392833278,7.3136622769,6.2668023894,563
98665,189429,228148,-2.6392833278,7.3136622769,6.2668023894,564
98702,189417,228109,-2.6392833278,7.3136622769,6.2668023894,565
98745,189409,228162,-2.6392833278,7.3136622769,6.2668023894,566
98851,189406,228179,-2.6392833278,7.3136622769,6.2668023894,567
98947,189421,228203,-2.6392833278,7.3136622769,6.2668023894,568
99054,189421,228237,-2.6392833278,7.3136622769,6.2668023894,569
99174,189461,228279,-2.6392833278,7.3136622769,6.2668023894,570
99322,189444,228303,-2.6392833278,7.3136622769,6.2668023894,571
99440,189451,228300,-2.6392833278,7.3136622769,6.2668023894,572
99588,189439,228334,-2.6392833278,7.3136622769,6.2668023894,573
99754,189492,228355,-2.6392833278,7.3136622769,6.2668023894,574
99896,189480,228323,-2.6392833278,7.3136622769,6.2668023894,575
100056,189492,228358,-2.6392833278,7.3136622769,6.2668023894,576
100192,189527,228382,-2.6392833278,7.3136622769,6.2668023894,577
100349,189515,228409,-2.6392833278,7.3136622769,6.2668023894,578
100502,189547,228453,-2.6392833278,7.3136622769,6.2668023894,579
100638,189531,228452,-2.6392833278,7.3136622769,6.2668023894,580
100807,189544,228479,-2.6392833278,7.3136622769,6.2668023894,581
100934,189560,228518,-2.6392833278,7.3136622769,6.2668023894,582
100942,189539,228493,-2.6392833278,7.3136622769,6.2668023894,583
100524,189458,228405,-2.6392833278,7.3136622769,6.2668023894,584
99774,189305,228287,-2.6392833278,7.3136622769,6.2668023894,585
99030,189260,228257,-2.6392833278,7.3136622769,6.2668023894,586
98427,189208,228274,-2.6392833278,7.3136622769,6.2668023894,587
97932,189178,228241,-2.6392833278,7.3136622769,6.2668023894,588
97510,188818,229470,-2.6428725617,7.3914290114000005,6.2404813408,589
97685,188814,229442,-2.6428725617,7.3914290114000005,6.2404813408,590
97866,188847,229491,-2.6428725617,7.3914290114000005,6.2404813408,591
98037,188875,229437,-2.6428725617,7.3914290114000005,6.2404813408,592
98238,188825,229519,-2.6428725617,7.3914290114000005,6.2404813408,593
98428,188867,229530,-2.6428725617,7.3914290114000005,6.2404813408,594
98608,188891,229542,-2.6428725617,7.3914290114000005,6.2404813408,595
98803,188935,229592,-2.6428725617,7.3914290114000005,6.2404813408,596
99006,188934,229601,-2.6428725617,7.3914290114000005,6.2404813408,597
99200,188955,229654,-2.6428725617,7.3914290114000005,6.2404813408,598
99373,189002,229649,-2.6428725617,7.3914290114000005,6.2404813408,599
99566,188985,229704,-2.6428725617,7.3914290114000005,6.2404813408,600
99752,188977,229736,-2.6428725617,7.3914290114000005,6.2404813408,601
99917,189040,229739,-2.6428725617,7.3914290114000005,6.2404813408,602
99913,189031,229717,-2.6428725617,7.3914290114000005,6.2404813408,603
99449,188950,229621,-2.6428725617,7.3914290114000005,6.2404813408,604
98641,188819,229524,-2.6428725617,7.3914290114000005,6.2404813408,605
97857,188769,229507,-2.6428725617,7.3914290114000005,6.2404813408,606
97272,188700,229466,-2.6428725617,7.3914290114000005,6.2404813408,607
96835,188665,229433,-2.7146572396999997,7.3806613097,6.137589969,608
96523,188606,229437,-2.7146572396999997,7.3806613097,6.137589969,609
96360,188565,229444,-2.7146572396999997,7.3806613097,6.137589969,610
96397,188651,229498,-2.7146572396999997,7.3806613097,6.137589969,611
96597,188613,229545,-2.7146572396999997,7.3806613097,6.137589969,612
96868,188644,229596,-2.7146572396999997,7.3806613097,6.137589969,613
97078,188652,229580,-2.7146572396999997,7.3806613097,6.137589969,614
97264,188670,229579,-2.7146572396999997,7.3806613097,6.137589969,615
97435,188707,229542,-2.7146572396999997,7.3806613097,6.137589969,616
97619,188681,229613,-2.7146572396999997,7.3806613097,6.137589969,617
97826,188733,229625,-2.7146572396999997,7.3806613097,6.137589969,618
98043,188727,229637,-2.7146572396999997,7.3806613097,6.137589969,619
98283,188759,229662,-2.7146572396999997,7.3806613097,6.137589969,620
98511,188823,229675,-2.7146572396999997,7.3806613097,6.137589969,621
98775,188813,229711,-2.7146572396999997,7.3806613097,6.137589969,622
99028,188825,229718,-2.7146572396999997,7.3806613097,6.137589969,623
99313,188890,229793,-2.7146572396999997,7.3806613097,6.137589969,624
99556,188906,229817,-2.7146572396999997,7.3806613097,6.137589969,625
99813,188937,229823,-2.7146572396999997,7.3806613097,6.137589969,626
100053,188949,229817,-2.7146572396999997,7.3806613097,6.137589969,627
100285,188950,229843,-2.8522445392,7.4105715922,6.1387863803,628
100565,188966,229855,-2.8522445392,7.4105715922,6.1387863803,629
100759,189003,229850,-2.8522445392,7.4105715922,6.1387863803,630
100672,189008,229804,-2.8522445392,7.4105715922,6.1387863803,631
100218,188893,229711,-2.8522445392,7.4105715922,6.1387863803,632
99606,188852,229693,-2.8522445392,7.4105715922,6.1387863803,633
99146,188850,229679,-2.8522445392,7.4105715922,6.1387863803,634
98867,188816,229609,-2.8522445392,7.4105715922,6.1387863803,635
98669,188783,229694,-2.8522445392,7.4105715922,6.1387863803,636
98595,188775,229682,-2.8522445392,7.4105715922,6.1387863803,637
98694,188802,229751,-2.8522445392,7.4105715922,6.1387863803,638
98927,188792,229777,-2.8522445392,7.4105715922,6.1387863803,639
99181,188830,229756,-2.8522445392,7.4105715922,6.1387863803,640
99386,188861,229748,-2.8522445392,7.4105715922,6.1387863803,641
99553,188883,229760,-2.8522445392,7.4105715922,6.1387863803,642
99731,188904,229794,-2.8522445392,7.4105715922,6.1387863803,643
99931,188944,229845,-2.8522445392,7.4105715922,6.1387863803,644
100135,188932,229782,-2.8522445392,7.4105715922,6.1387863803,645
100361,188992,229853,-2.8522445392,7.4105715922,6.1387863803,646
100579,189008,229866,-2.7170500623000002,7.4093751809,6.137589969,647
100835,188992,229938,-2.9060830476999997,7.3268228012,6.1519469046,648
101112,189059,229917,-2.8390840148999996,7.3292156238,6.1387863803,649
101319,189019,229936,-2.8438696600999998,7.5086773188,6.041877065,650
101561,189074,229966,-2.919243572,7.3722864306,6.101697629999999,651
101799,189076,230034,-2.8307091358,7.4392854634,6.0981083961,652
102023,189180,230023,-2.9324040963,7.446463931199999,6.101697629999999,653
102266,189261,230056,-2.967100024,7.3387869142,6.092126339599999,654
102495,189272,230088,-2.8091737324,7.5026952623000005,6.025127306799999,655
102772,189320,230112,-2.8953153460000003,7.3722864306,6.134000735100001,656
102835,189368,230106,-2.9419753867,7.3878397775,6.2201423487000005,657
102498,189284,230100,-2.9682964353,7.3531438498,6.101697629999999,658
101915,189165,230013,-2.8594230069999997,7.3316084464,6.1663038402,659
101385,189159,229998,-2.7888347403,7.2849484057,6.0765729927,660
100939,189015,230028,-2.7361926431000003,7.488338326699999,6.185446421,661
100608,189078,230005,-2.8271199019,7.240681187599999,6.1794643645,662
100386,189075,230021,-2.7050859493,7.3016981639,6.2117674696,663
100325,189068,230031,-2.7900311516,7.4356962295,6.1639110176,664
100425,189047,230076,-2.6931218363,7.2394847763,6.1447684368,665
100550,189092,230082,-2.8570301844,7.3914290114000005,6.2021961791999995,666
100765,189096,230062,-2.7888347403,7.336394091599999,6.1998033565999995,667
100849,189114,230056,-2.8319055471,7.274180704,6.209374647,668
100925,189087,230060,-2.5842484079999997,7.3028945752,6.1878392436,669
100941,189040,230020,-2.7433711108999996,7.3124658656,6.197410534,670
101106,189102,230045,-2.8259234905999997,7.3052873978,6.2309100503999995,671
101211,189077,230063,-2.7421746995999996,7.3962146566,6.1591253724,672
101312,188988,230094,-2.6979074815,7.3914290114000005,6.137589969,673
101308,189046,230005,-2.6895326024,7.262216591,6.178267953200001,674
100952,188957,229945,-2.6213371583000002,7.3435725594,6.117250976899999,675
100636,188917,229911,-2.6273192148,7.369893608,6.2560346877,676
100407,188913,229964,-2.8211378454,7.1880390904,6.2177495260999995,677
100407,188964,229989,-2.6751756668,7.267002236200001,6.2153567034999995,678
100485,188999,229994,-2.6715864329,7.5756763516,6.1866428323,679
100788,189002,230033,-2.7026931267000003,7.3842505436,6.209374647,680
100919,189013,230064,-2.715853651,7.3304120351,6.1830535984,681
101178,189050,230012,-2.667997199,7.2957161074000005,6.1232330334,682
101270,189007,230019,-2.6991038927999997,7.334001269,6.0131631938000005,683
101367,189023,230030,-2.6991038927999997,7.334001269,6.0131631938000005,684
101509,189068,230045,-2.6991038927999997,7.334001269,6.0131631938000005,685
101653,189070,230039,-2.6991038927999997,7.334001269,6.0131631938000005,686
101791,189048,230093,-2.6991038927999997,7.334001269,6.0131631938000005,687
101950,189086,230095,-2.6991038927999997,7.334001269,6.0131631938000005,688
102100,189106,230061,-2.6991038927999997,7.334001269,6.0131631938000005,689
102286,189109,230110,-2.6991038927999997,7.334001269,6.0131631938000005,690
102450,189135,230135,-2.6991038927999997,7.334001269,6.0131631938000005,691
102612,189143,230157,-2.6991038927999997,7.334001269,6.0131631938000005,692
102761,189163,230150,-2.6991038927999997,7.334001269,6.0131631938000005,693
102929,189183,230174,-2.6991038927999997,7.334001269,6.0131631938000005,694
103100,189187,230148,-2.6991038927999997,7.334001269,6.0131631938000005,695
103270,189235,230170,-2.6991038927999997,7.334001269,6.0131631938000005,696
103443,189256,230184,-2.6991038927999997,7.334001269,6.0131631938000005,697
103609,189222,230174,-2.6991038927999997,7.334001269,6.0131631938000005,698
103788,189270,230231,-2.6991038927999997,7.334001269,6.0131631938000005,699
103944,189248,230239,-2.6991038927999997,7.334001269,6.0131631938000005,700
104109,189272,230219,-2.6991038927999997,7.334001269,6.0131631938000005,701
104277,189268,230227,-2.6991038927999997,7.334001269,6.0131631938000005,702
104420,189332,230233,-2.6991038927999997,7.334001269,6.0131631938000005,703
104588,189342,230268,-2.6991038927999997,7.334001269,6.0131631938000005,704
104762,189358,230273,-2.6991038927999997,7.334001269,6.0131631938000005,705
104901,189365,230275,-2.6991038927999997,7.334001269,6.0131631938000005,706
105070,189361,230254,-2.6991038927999997,7.334001269,6.0131631938000005,707
105216,189389,230271,-2.6991038927999997,7.334001269,6.0131631938000005,708
105349,189413,230275,-2.6991038927999997,7.334001269,6.0131631938000005,709
105512,189395,230292,-2.6991038927999997,7.334001269,6.0131631938000005,710
105649,189412,230310,-2.6991038927999997,7.334001269,6.0131631938000005,711
105801,189446,230273,-2.6991038927999997,7.334001269,6.0131631938000005,712
105744,189455,230270,-2.6991038927999997,7.334001269,6.0131631938000005,713
105335,189378,230157,-2.6991038927999997,7.334001269,6.0131631938000005,714
104609,189245,230073,-2.6991038927999997,7.334001269,6.0131631938000005,715
103817,189226,230024,-2.6991038927999997,7.334001269,6.0131631938000005,716
103065,189132,230032,-2.6991038927999997,7.334001269,6.0131631938000005,717
102433,189143,229989,-2.6991038927999997,7.334001269,6.0131631938000005,718
101922,189118,229996,-2.6991038927999997,7.334001269,6.0131631938000005,719
101577,189105,229971,-2.6991038927999997,7.334001269,6.0131631938000005,720
101400,189132,229970,-2.6991038927999997,7.334001269,6.0131631938000005,721
101363,189106,229969,-2.6991038927999997,7.334001269,6.0131631938000005,722
101357,189118,229977,-2.6991038927999997,7.334001269,6.0131631938000005,723
101372,189103,229950,-2.6991038927999997,7.334001269,6.0131631938000005,724
101044,189158,229861,-2.7744778047,7.3531438498,6.2907306154,725
101211,189136,229873,-2.7744778047,7.3531438498,6.2907306154,726
101369,189194,229884,-2.7744778047,7.3531438498,6.2907306154,727
101578,189206,229917,-2.7744778047,7.3531438498,6.2907306154,728
101768,189228,229920,-2.7744778047,7.3531438498,6.2907306154,729
101940,189245,229910,-2.7744778047,7.3531438498,6.2907306154,730
102113,189239,229929,-2.7744778047,7.3531438498,6.2907306154,731
102274,189258,229945,-2.7744778047,7.3531438498,6.2907306154,732
102451,189258,229948,-2.7744778047,7.3531438498,6.2907306154,733
102637,189289,229929,-2.7744778047,7.3531438498,6.2907306154,734
102783,189284,229900,-2.7744778047,7.3531438498,6.2907306154,735
102629,189264,229823,-2.7744778047,7.3531438498,6.2907306154,736
102076,189191,229782,-2.7744778047,7.3531438498,6.2907306154,737
101384,189110,229723,-2.7744778047,7.3531438498,6.2907306154,738
100796,189100,229711,-2.7744778047,7.3531438498,6.2907306154,739
100360,189078,229704,-2.7744778047,7.3531438498,6.2907306154,740
100057,189099,229730,-2.7744778047,7.3531438498,6.2907306154,741
99892,189078,229751,-2.7744778047,7.3531438498,6.2907306154,742
99919,189085,229791,-2.7744778047,7.3531438498,6.2907306154,743
100054,189136,229795,-2.7744778047,7.3531438498,6.2907306154,744
100268,189170,229812,-2.7744778047,7.3531438498,6.2907306154,745
100439,189182,229888,-2.7744778047,7.3531438498,6.2907306154,746
100560,189250,229971,-2.7744778047,7.3531438498,6.2907306154,747
100668,189286,229976,-2.7744778047,7.3531438498,6.2907306154,748
100793,189302,230013,-2.7744778047,7.3531438498,6.2907306154,749
100893,189328,230091,-2.7744778047,7.3531438498,6.2907306154,750
101010,189359,230146,-2.7744778047,7.3531438498,6.2907306154,751
101157,189379,230140,-2.7744778047,7.3531438498,6.2907306154,752
101287,189385,230152,-2.7744778047,7.3531438498,6.2907306154,753
101440,189405,230231,-2.7744778047,7.3531438498,6.2907306154,754
101574,189421,230226,-2.7744778047,7.3531438498,6.2907306154,755
101726,189403,230212,-2.7744778047,7.3531438498,6.2907306154,756
101861,189430,230199,-2.7744778047,7.3531438498,6.2907306154,757
102002,189403,230240,-2.7744778047,7.3531438498,6.2907306154,758
102144,189423,230202,-2.7744778047,7.3531438498,6.2907306154,759
102284,189481,230247,-2.7744778047,7.3531438498,6.2907306154,760
102349,189400,230223,-2.7744778047,7.3531438498,6.2907306154,761
102114,189320,230138,-2.7744778047,7.3531438498,6.2907306154,762
101457,189192,230060,-2.7744778047,7.3531438498,6.2907306154,763
100722,189144,229951,-2.7744778047,7.3531438498,6.2907306154,764
100117,189092,229950,-2.7744778047,7.3531438498,6.2907306154,765
99669,189046,229920,-2.7744778047,7.3531438498,6.2907306154,766
101828,189129,230025,-2.6189443356999997,7.183253445199999,6.3373906561,767
101402,189049,229925,-2.6189443356999997,7.183253445199999,6.3373906561,768
100705,188934,229853,-2.6189443356999997,7.183253445199999,6.3373906561,769
100122,188935,229864,-2.6189443356999997,7.183253445199999,6.3373906561,770
99634,188875,229781,-2.6189443356999997,7.183253445199999,6.3373906561,771
99269,188855,229780,-2.6189443356999997,7.183253445199999,6.3373906561,772
99014,188836,229785,-2.6189443356999997,7.183253445199999,6.3373906561,773
98885,188809,229784,-2.7900311516,7.3411797368,6.1064832752,774
98936,188848,229846,-2.7900311516,7.3411797368,6.1064832752,775
99070,188883,229872,-2.7900311516,7.3411797368,6.1064832752,776
99227,188919,229821,-2.7900311516,7.3411797368,6.1064832752,777
99362,188900,229817,-2.7900311516,7.3411797368,6.1064832752,778
99456,188899,229822,-2.7900311516,7.3411797368,6.1064832752,779
99577,188970,229837,-2.7900311516,7.3411797368,6.1064832752,780
99702,188943,229885,-2.7900311516,7.3411797368,6.1064832752,781
99851,188968,229897,-2.7900311516,7.3411797368,6.1064832752,782
99983,188982,229909,-2.7900311516,7.3411797368,6.1064832752,783
100172,189006,229908,-2.7900311516,7.3411797368,6.1064832752,784
100346,189008,229921,-2.7900311516,7.3411797368,6.1064832752,785
100515,189023,229963,-2.7900311516,7.3411797368,6.1064832752,786
100689,189057,229951,-2.7900311516,7.3411797368,6.1064832752,787
100862,189003,229999,-2.7900311516,7.3411797368,6.1064832752,788
101038,189037,229930,-2.7900311516,7.3411797368,6.1064832752,789
101217,189041,229958,-2.7900311516,7.3411797368,6.1064832752,790
101383,189070,229905,-2.7900311516,7.3411797368,6.1064832752,791
101582,189067,229946,-2.7900311516,7.3411797368,6.1064832752,792
101776,189086,229995,-2.7900311516,7.3411797368,6.1064832752,793
101842,189084,229892,-2.7900311516,7.3411797368,6.1064832752,794
101583,189006,229821,-2.7900311516,7.3411797368,6.1064832752,795
100988,188904,229690,-2.7900311516,7.3411797368,6.1064832752,796
100411,188828,229677,-2.7900311516,7.3411797368,6.1064832752,797
99927,188834,229648,-2.7900311516,7.3411797368,6.1064832752,798
99563,188783,229584,-2.7900311516,7.3411797368,6.1064832752,799
99280,188770,229580,-2.7900311516,7.3411797368,6.1064832752,800
99132,188745,229598,-2.7900311516,7.3411797368,6.1064832752,801
99144,188772,229577,-2.7900311516,7.3411797368,6.1064832752,802
99307,188791,229631,-2.7900311516,7.3411797368,6.1064832752,803
99551,188802,229626,-2.7900311516,7.3411797368,6.1064832752,804
99723,188837,229615,-2.7900311516,7.3411797368,6.1064832752,805
99854,188821,229612,-2.8151557889,7.3124658656,6.1507504933,806
99966,188824,229623,-2.8151557889,7.3124658656,6.1507504933,807
100104,188906,229667,-2.8151557889,7.3124658656,6.1507504933,808
100291,188862,229644,-2.8151557889,7.3124658656,6.1507504933,809
100494,188936,229686,-2.8151557889,7.3124658656,6.1507504933,810
100706,188924,229716,-2.8151557889,7.3124658656,6.1507504933,811
100858,188987,229653,-2.8498517166,7.349554615900001,6.0717873475,812
100939,188956,229677,-2.8642086522,7.334001269,6.1160545656,813
101008,188975,229667,-2.8737799425999997,7.3256263899,6.041877065,814
101142,189003,229676,-2.9240292172,7.3435725594,6.136393557699999,815
101345,189032,229696,-2.9072794589999997,7.488338326699999,6.107679686499999,816
101630,189040,229743,-2.8342983697,7.319644333399999,6.148357670699999,817
101872,189080,229725,-2.835494781,7.473981391100001,5.9988062582,818
102077,189105,229760,-2.8271199019,7.4368926408,6.0849478718,819
102269,189111,229760,-3.0735806297,7.2801627605000006,6.1184473882,820
102441,189130,229823,-2.7912275628999996,7.2921268735,5.984449322600001,821
102662,189142,229801,-2.8677978860999995,7.453642399,6.101697629999999,822
102893,189204,229811,-2.8642086522,7.3435725594,6.117250976899999,823
103062,189206,229807,-2.9503502657999996,7.3160550995,6.0107703712000005,824
103243,189201,229804,-2.9778677257000004,7.4117680035,6.041877065,825
103445,189264,229839,-3.0616165167,7.252645300599999,6.0287165407000005,826
103635,189255,229874,-3.0616165167,7.252645300599999,6.0287165407000005,827
103845,189261,229840,-3.0616165167,7.252645300599999,6.0287165407000005,828
104036,189321,229849,-3.0616165167,7.252645300599999,6.0287165407000005,829
104252,189352,229908,-3.0616165167,7.252645300599999,6.0287165407000005,830
104449,189380,229920,-3.0616165167,7.252645300599999,6.0287165407000005,831
104625,189391,229934,-3.0616165167,7.252645300599999,6.0287165407000005,832
104822,189391,229966,-3.0616165167,7.252645300599999,6.0287165407000005,833
105008,189388,229978,-3.0616165167,7.252645300599999,6.0287165407000005,834
105195,189453,229931,-3.0616165167,7.252645300599999,6.0287165407000005,835
105386,189473,229983,-3.0616165167,7.252645300599999,6.0287165407000005,836
105563,189504,229998,-3.0616165167,7.252645300599999,6.0287165407000005,837
105789,189549,230023,-3.0305098229,7.3950182453,5.967699564399999,838
105932,189625,230097,-2.9443682093000003,7.211967316399999,5.9772708547999995,839
106213,189682,230182,-2.9766713144,7.310073043,6.095715573500001,840
106431,189832,230329,-3.1178478478000002,7.286144817,6.017948839,841
106677,189913,230416,-3.1262227269,7.3124658656,6.149554082000001,842
106799,189968,230460,-3.0568308715,7.3280192125,6.2356956956000005,843
106913,189920,230520,-3.0568308715,7.3124658656,6.2500526312,844
107039,189960,230501,-3.0508488149999997,7.4201428826,6.1878392436,845
106967,189926,230456,-3.0508488149999997,7.3052873978,6.270391623299999,846
106513,189812,230353,-2.9336005076,7.1952175581999995,6.1519469046,847
105852,189719,230280,-2.5926232871,7.250252477999999,6.3589260595,848
105151,189651,230254,-2.5926232871,7.250252477999999,6.3589260595,849
104544,189595,230198,-2.5926232871,7.250252477999999,6.3589260595,850
104060,189538,230224,-2.5926232871,7.250252477999999,6.3589260595,851
103684,189539,230203,-2.5926232871,7.250252477999999,6.3589260595,852
103446,189512,230187,-2.5926232871,7.250252477999999,6.3589260595,853
103311,189492,230188,-2.5926232871,7.250252477999999,6.3589260595,854
103270,189480,230173,-2.5926232871,7.250252477999999,6.3589260595,855
103203,189524,230151,-2.5926232871,7.250252477999999,6.3589260595,856
103131,189468,230162,-2.5926232871,7.250252477999999,6.3589260595,857
103040,189455,230138,-2.5926232871,7.250252477999999,6.3589260595,858
102995,189437,230128,-2.5926232871,7.250252477999999,6.3589260595,859
102989,189482,230138,-2.5926232871,7.250252477999999,6.3589260595,860
102992,189462,230134,-2.5926232871,7.250252477999999,6.3589260595,861
103003,189477,230134,-2.5926232871,7.250252477999999,6.3589260595,862
103065,189471,230149,-2.5926232871,7.250252477999999,6.3589260595,863
103120,189469,230150,-2.5926232871,7.250252477999999,6.3589260595,864
103187,189479,230151,-2.5926232871,7.250252477999999,6.3589260595,865
103247,189485,230129,-2.5926232871,7.250252477999999,6.3589260595,866
103299,189526,230126,-2.5926232871,7.250252477999999,6.3589260595,867
103410,189482,230132,-2.5926232871,7.250252477999999,6.3589260595,868
103478,189494,230131,-2.5926232871,7.250252477999999,6.3589260595,869
103285,189463,229989,-2.5926232871,7.250252477999999,6.3589260595,870
102718,189304,229918,-2.5926232871,7.250252477999999,6.3589260595,871
101915,189222,229817,-2.5926232871,7.250252477999999,6.3589260595,872
101125,189150,229802,-2.5926232871,7.250252477999999,6.3589260595,873
100407,189096,229741,-2.5926232871,7.250252477999999,6.3589260595,874
99831,189064,229727,-2.5926232871,7.250252477999999,6.3589260595,875
99349,189004,229690,-3.1022945009000003,7.253841711900001,6.0598232345,876
99044,189019,229656,-3.1022945009000003,7.253841711900001,6.0598232345,877
98956,189049,229714,-3.1022945009000003,7.253841711900001,6.0598232345,878
99019,189047,229733,-3.1022945009000003,7.253841711900001,6.0598232345,879
99112,189039,229750,-3.1022945009000003,7.253841711900001,6.0598232345,880
99173,189025,229762,-3.1022945009000003,7.253841711900001,6.0598232345,881
99197,189039,229748,-3.1022945009000003,7.253841711900001,6.0598232345,882
99248,189040,229738,-3.1022945009000003,7.253841711900001,6.0598232345,883
99319,189046,229746,-3.1022945009000003,7.253841711900001,6.0598232345,884
99413,189062,229752,-3.1022945009000003,7.253841711900001,6.0598232345,885
99519,189068,229738,-3.1022945009000003,7.253841711900001,6.0598232345,886
99644,189075,229786,-3.1022945009000003,7.253841711900001,6.0598232345,887
99786,189104,229814,-3.1022945009000003,7.253841711900001,6.0598232345,888
99929,189092,229855,-3.1022945009000003,7.253841711900001,6.0598232345,889
100085,189120,229757,-3.1022945009000003,7.253841711900001,6.0598232345,890
100232,189088,229817,-3.1022945009000003,7.253841711900001,6.0598232345,891
100131,189043,229764,-3.1022945009000003,7.253841711900001,6.0598232345,892
99565,188952,229661,-3.1022945009000003,7.253841711900001,6.0598232345,893
98745,188840,229519,-3.1022945009000003,7.253841711900001,6.0598232345,894
98022,188751,229443,-3.1022945009000003,7.253841711900001,6.0598232345,895
97479,188689,229408,-3.1022945009000003,7.253841711900001,6.0598232345,896
97087,188689,229414,-3.1022945009000003,7.253841711900001,6.0598232345,897
96792,188682,229332,-3.1022945009000003,7.253841711900001,6.0598232345,898
96705,188667,229366,-3.1022945009000003,7.253841711900001,6.0598232345,899
96766,188630,229411,-3.1022945009000003,7.253841711900001,6.0598232345,900
97021,188642,229431,-3.1022945009000003,7.253841711900001,6.0598232345,901
97243,188637,229394,-3.1022945009000003,7.253841711900001,6.0598232345,902
97481,188660,229353,-3.1022945009000003,7.253841711900001,6.0598232345,903
97673,188676,229335,-3.1022945009000003,7.253841711900001,6.0598232345,904
97842,188662,229320,-3.1022945009000003,7.253841711900001,6.0598232345,905
98040,188657,229357,-3.1022945009000003,7.253841711900001,6.0598232345,906
98268,188716,229388,-3.1022945009000003,7.253841711900001,6.0598232345,907
98502,188760,229398,-3.1022945009000003,7.253841711900001,6.0598232345,908
98750,188742,229411,-3.1022945009000003,7.253841711900001,6.0598232345,909
98993,188773,229417,-3.1022945009000003,7.253841711900001,6.0598232345,910
99233,188799,229396,-3.1022945009000003,7.253841711900001,6.0598232345,911
99493,188811,229406,-3.1022945009000003,7.253841711900001,6.0598232345,912
99743,188842,229402,-3.1022945009000003,7.253841711900001,6.0598232345,913
99999,188881,229452,-3.1022945009000003,7.253841711900001,6.0598232345,914
99988,188819,229367,-3.1022945009000003,7.253841711900001,6.0598232345,915
99521,188742,229266,-3.1022945009000003,7.253841711900001,6.0598232345,916
98859,188671,229182,-3.1022945009000003,7.253841711900001,6.0598232345,917
99792,188311,228709,-3.146561719,7.3543402611,6.1710894854,918
99325,188278,228635,-3.146561719,7.3543402611,6.1710894854,919
98946,188261,228595,-3.146561719,7.3543402611,6.1710894854,920
98689,188237,228624,-3.146561719,7.3543402611,6.1710894854,921
98550,188195,228631,-3.146561719,7.3543402611,6.1710894854,922
98611,188235,228639,-3.146561719,7.3543402611,6.1710894854,923
98809,188248,228601,-3.146561719,7.3543402611,6.1710894854,924
99031,188247,228547,-3.146561719,7.3543402611,6.1710894854,925
99217,188260,228609,-3.146561719,7.3543402611,6.1710894854,926
99336,188266,228528,-3.146561719,7.3543402611,6.1710894854,927
99492,188251,228551,-3.146561719,7.3543402611,6.1710894854,928
99668,188277,228627,-3.146561719,7.3543402611,6.1710894854,929
99847,188294,228610,-3.146561719,7.3543402611,6.1710894854,930
100040,188278,228571,-3.146561719,7.3543402611,6.1710894854,931
100226,188266,228588,-3.146561719,7.3543402611,6.1710894854,932
100402,188268,228589,-3.146561719,7.3543402611,6.1710894854,933
100596,188249,228558,-3.146561719,7.3543402611,6.1710894854,934
100798,188297,228577,-3.146561719,7.3543402611,6.1710894854,935
101011,188292,228599,-3.146561719,7.3543402611,6.1710894854,936
101180,188364,228636,-3.146561719,7.3543402611,6.1710894854,937
101211,188322,228620,-3.146561719,7.3543402611,6.1710894854,938
100828,188277,228521,-3.146561719,7.3543402611,6.1710894854,939
100195,188205,228489,-3.146561719,7.3543402611,6.1710894854,940
99652,188247,228545,-3.146561719,7.3543402611,6.1710894854,941
99267,188338,228634,-3.146561719,7.3543402611,6.1710894854,942
98973,188407,228723,-3.146561719,7.3543402611,6.1710894854,943
98764,188422,228840,-3.2386853891,7.378268487100001,6.080162226600001,944
98720,188514,228924,-3.2386853891,7.378268487100001,6.080162226600001,945
98852,188505,228993,-3.1238299043,7.1724857435,6.1124653317,946
99053,188616,229057,-2.8103701436999997,7.171289332200001,6.2787665024,947
99227,188699,229157,-2.8103701436999997,7.171289332200001,6.2787665024,948
99361,188775,229175,-2.8103701436999997,7.171289332200001,6.2787665024,949
99533,188885,229220,-2.8103701436999997,7.171289332200001,6.2787665024,950
99695,188910,229296,-2.8103701436999997,7.171289332200001,6.2787665024,951
99882,188951,229330,-2.8103701436999997,7.171289332200001,6.2787665024,952
100076,188946,229315,-2.8103701436999997,7.171289332200001,6.2787665024,953
100216,188974,229339,-2.8103701436999997,7.171289332200001,6.2787665024,954
100416,188970,229372,-2.8103701436999997,7.171289332200001,6.2787665024,955
100584,189016,229356,-2.8103701436999997,7.171289332200001,6.2787665024,956
100742,189003,229360,-2.9563323222999998,7.170092920899999,6.3098731962,957
100913,189044,229407,-2.8689942974,7.390232600099999,6.3122660188,958
101082,189033,229422,-2.8689942974,7.390232600099999,6.3122660188,959
101261,189048,229460,-2.8689942974,7.390232600099999,6.3122660188,960
101342,189020,229385,-2.8689942974,7.390232600099999,6.3122660188,961
101057,188963,229327,-2.8689942974,7.390232600099999,6.3122660188,962
100320,188823,229173,-2.8342983697,7.2107709050999995,6.34097989,963
99532,188750,229096,-2.8163522002,7.214360139,6.3457655352,964
98882,188755,229059,-2.7708885708000004,7.2000032034000006,6.2955162605999995,965
98364,188586,228998,-2.8522445392,7.3471617933,6.2763736798,966
97982,188624,228981,-2.7732813934,7.3160550995,6.1543397272,967
97785,188663,229016,-2.8259234905999997,7.2311098972,6.3326050109,968
97764,188664,229022,-3.2350961552,7.473981391100001,5.8253266197,969
97978,188734,229117,-3.2350961552,7.473981391100001,5.8253266197,970
98197,188728,229143,-3.2350961552,7.473981391100001,5.8253266197,971
98398,188740,229108,-3.2350961552,7.473981391100001,5.8253266197,972
98555,188793,229118,-3.2350961552,7.473981391100001,5.8253266197,973
98711,188794,229158,-3.2350961552,7.473981391100001,5.8253266197,974
98863,188788,229168,-3.2350961552,7.473981391100001,5.8253266197,975
99055,188803,229164,-3.2350961552,7.473981391100001,5.8253266197,976
99279,188787,229135,-3.2350961552,7.473981391100001,5.8253266197,977
99470,188797,229131,-3.2350961552,7.473981391100001,5.8253266197,978
99710,188817,229073,-3.2350961552,7.473981391100001,5.8253266197,979
99993,188835,229096,-3.2350961552,7.473981391100001,5.8253266197,980
100298,188847,229119,-3.2350961552,7.473981391100001,5.8253266197,981
100545,188783,229006,-3.2350961552,7.473981391100001,5.8253266197,982
100706,188756,228957,-3.2350961552,7.473981391100001,5.8253266197,983
100552,188712,228805,-3.2350961552,7.473981391100001,5.8253266197,984
99923,188522,228685,-3.2350961552,7.473981391100001,5.8253266197,985
99211,188435,228528,-3.2350961552,7.473981391100001,5.8253266197,986
98678,188337,228483,-3.2350961552,7.473981391100001,5.8253266197,987
98309,188263,228414,-3.2350961552,7.473981391100001,5.8253266197,988
98030,188170,228324,-3.2350961552,7.473981391100001,5.8253266197,989
97880,188116,228285,-3.2350961552,7.473981391100001,5.8253266197,990
97899,188121,228327,-3.2350961552,7.473981391100001,5.8253266197,991
98128,188071,228306,-3.2350961552,7.473981391100001,5.8253266197,992
98330,188038,228219,-3.2350961552,7.473981391100001,5.8253266197,993
98492,188030,228175,-3.2350961552,7.473981391100001,5.8253266197,994
98583,187960,228180,-3.2350961552,7.473981391100001,5.8253266197,995
98682,187907,228059,-3.2350961552,7.473981391100001,5.8253266197,996
98792,187887,228055,-3.2350961552,7.473981391100001,5.8253266197,997
98935,187838,228076,-3.2350961552,7.473981391100001,5.8253266197,998
99093,187811,228019,-3.2350961552,7.473981391100001,5.8253266197,999
99238,187770,227971,-3.2350961552,7.473981391100001,5.8253266197,1000
99393,187769,227979,-3.2350961552,7.473981391100001,5.8253266197,1001
99539,187731,227919,-3.2350961552,7.473981391100001,5.8253266197,1002
99731,187722,227935,-3.2350961552,7.473981391100001,5.8253266197,1003
99904,187719,227930,-3.2350961552,7.473981391100001,5.8253266197,1004
99968,187739,227913,-3.2350961552,7.473981391100001,5.8253266197,1005
99647,187666,227792,-3.2350961552,7.473981391100001,5.8253266197,1006
99054,187636,227752,-3.2350961552,7.473981391100001,5.8253266197,1007
98583,187618,227741,-2.919243572,7.3519474385,6.1028940413,1008
98289,187638,227726,-2.919243572,7.3519474385,6.1028940413,1009
98119,187648,227719,-2.919243572,7.3519474385,6.1028940413,1010
98046,187638,227738,-2.919243572,7.3519474385,6.1028940413,1011
98113,187675,227803,-2.919243572,7.3519474385,6.1028940413,1012
98379,187774,227862,-2.919243572,7.3519474385,6.1028940413,1013
98737,187882,227996,-2.919243572,7.3519474385,6.1028940413,1014
99038,187981,228124,-2.919243572,7.3519474385,6.1028940413,1015
99310,188078,228161,-2.919243572,7.3519474385,6.1028940413,1016
99542,188186,228334,-2.919243572,7.3519474385,6.1028940413,1017
99813,188341,228500,-2.919243572,7.3519474385,6.1028940413,1018
100110,188472,228641,-2.919243572,7.3519474385,6.1028940413,1019
100393,188599,228766,-2.919243572,7.3519474385,6.1028940413,1020
100723,188746,228881,-2.919243572,7.3519474385,6.1028940413,1021
101027,188899,229014,-2.919243572,7.3519474385,6.1028940413,1022
101315,188965,229081,-2.919243572,7.3519474385,6.1028940413,1023
101621,189022,229167,-2.919243572,7.3519474385,6.1028940413,1024
101924,189074,229191,-2.919243572,7.3519474385,6.1028940413,1025
102148,189177,229285,-2.919243572,7.3519474385,6.1028940413,1026
102039,189161,229190,-2.919243572,7.3519474385,6.1028940413,1027
101567,189085,229115,-2.919243572,7.3519474385,6.1028940413,1028
101036,189034,229076,-2.919243572,7.3519474385,6.1028940413,1029
100717,188978,229089,-2.919243572,7.3519474385,6.1028940413,1030
100527,188988,229065,-2.919243572,7.3519474385,6.1028940413,1031
100372,188999,229108,-2.919243572,7.3519474385,6.1028940413,1032
100362,188991,229068,-2.919243572,7.3519474385,6.1028940413,1033
100515,189007,229125,-2.919243572,7.3519474385,6.1028940413,1034
100815,189082,229142,-2.919243572,7.3519474385,6.1028940413,1035
101088,189083,229193,-2.919243572,7.3519474385,6.1028940413,1036
101305,189086,229226,-2.919243572,7.3519474385,6.1028940413,1037
101485,189115,229190,-2.919243572,7.3519474385,6.1028940413,1038
101648,189096,229239,-2.919243572,7.3519474385,6.1028940413,1039
101844,189167,229268,-2.919243572,7.3519474385,6.1028940413,1040
102078,189180,229298,-2.919243572,7.3519474385,6.1028940413,1041
102302,189154,229287,-2.919243572,7.3519474385,6.1028940413,1042
102538,189208,229312,-2.919243572,7.3519474385,6.1028940413,1043
102776,189212,229326,-2.919243572,7.3519474385,6.1028940413,1044
102988,189263,229360,-2.919243572,7.3519474385,6.1028940413,1045
103235,189314,229357,-2.919243572,7.3519474385,6.1028940413,1046
103451,189305,229376,-2.919243572,7.3519474385,6.1028940413,1047
103679,189305,229394,-2.919243572,7.3519474385,6.1028940413,1048
103918,189359,229437,-2.919243572,7.3519474385,6.1028940413,1049
103980,189807,229025,-3.218346397,7.2311098972,5.9294144028,1050
104040,189821,228961,-3.218346397,7.2311098972,5.9294144028,1051
104125,189771,228924,-3.218346397,7.2311098972,5.9294144028,1052
104218,189830,228901,-3.218346397,7.2311098972,5.9294144028,1053
104307,189787,228869,-3.218346397,7.2311098972,5.9294144028,1054
104434,189790,228898,-3.218346397,7.2311098972,5.9294144028,1055
104550,189788,228867,-3.218346397,7.2311098972,5.9294144028,1056
104632,189798,228803,-3.218346397,7.2311098972,5.9294144028,1057
104513,189769,228765,-3.218346397,7.2311098972,5.9294144028,1058
104101,189712,228666,-3.218346397,7.2311098972,5.9294144028,1059
103584,189740,228604,-3.218346397,7.2311098972,5.9294144028,1060
103213,189715,228663,-3.218346397,7.2311098972,5.9294144028,1061
102939,189764,228663,-3.218346397,7.2311098972,5.9294144028,1062
102767,189750,228649,-3.218346397,7.2311098972,5.9294144028,1063
102699,189741,228659,-3.218346397,7.2311098972,5.9294144028,1064
102782,189772,228672,-3.218346397,7.2311098972,5.9294144028,1065
102975,189809,228755,-3.218346397,7.2311098972,5.9294144028,1066
103143,189815,228720,-3.218346397,7.2311098972,5.9294144028,1067
103261,189826,228754,-3.218346397,7.2311098972,5.9294144028,1068
103357,189800,228734,-3.218346397,7.2311098972,5.9294144028,1069
103460,189820,228777,-3.218346397,7.2311098972,5.9294144028,1070
103596,189845,228754,-3.218346397,7.2311098972,5.9294144028,1071
103683,189792,228784,-3.218346397,7.2311098972,5.9294144028,1072
103853,189854,228802,-3.218346397,7.2311098972,5.9294144028,1073
104009,189899,228854,-3.218346397,7.2311098972,5.9294144028,1074
104161,189943,228895,-3.218346397,7.2311098972,5.9294144028,1075
104382,190047,229004,-3.314059301,7.0923261864,5.8959148864,1076
104598,190182,229111,-3.314059301,7.0923261864,5.8959148864,1077
104640,190248,229229,-3.3308090592,7.2418775989,6.063412468399999,1078
104274,190233,229244,-3.2805597846,7.2095744938,6.2656059781,1079
103660,190157,229188,-3.0735806297,7.3052873978,6.228517227799999,1080
103132,190131,229149,-3.1417760738,7.2083780824999995,6.1591253724,1081
102712,190090,229159,-3.0460631697999996,7.225127840700001,6.0849478718,1082
102425,190077,229180,-3.0831519201,7.2873412283,6.1842500096999995,1083
102090,190109,229191,-3.1250263156,7.369893608,6.190232066199999,1084
102190,190169,229238,-3.1633114771999997,7.2083780824999995,6.2021961791999995,1085
102323,190167,229276,-3.0436703472,7.171289332200001,6.260820332899999,1086
102459,190145,229277,-3.0532416376,7.2083780824999995,6.1950177114,1087
102554,190165,229258,-3.1405796625,7.2311098972,6.3182480753000005,1088
102650,190147,229268,-3.1310083721,7.2059852599,6.2967126719,1089
102662,190134,229263,-3.0855447427,7.1940211469,6.287141381500001,1090
102738,190125,229295,-2.9874390161,7.1856462678,6.3218373092,1091
102846,190145,229282,-3.0735806297,7.3088766317000005,6.1890356549,1092
102933,190154,229314,-2.8725835312999997,7.2574309458,6.3074803736,1093
103092,190178,229259,-2.9252256285000002,7.2777699379,6.2356956956000005,1094
103246,190061,229272,-2.9120651042,7.3866433661999995,6.3062839623,1095
103420,190172,229338,-2.7936203855,7.1892355017,6.2787665024,1096
103588,190182,229324,-2.7792634499,7.2323063085,6.216553114800001,1097
103691,190163,229342,-2.9001009912,7.1030938881,6.2943198493,1098
103784,190181,229314,-2.7242285301,7.3519474385,6.2668023894,1099
104053,190191,229354,-2.9623143788,7.2000032034000006,6.3158552527000005,1100
104182,190198,229337,-2.8570301844,7.2095744938,6.2404813408,1101
104351,190194,229371,-2.7601208691,7.3124658656,6.3074803736,1102
104519,190200,229364,-2.7996024420000003,7.3567330837,6.2907306154,1103
104667,190242,229364,-2.7493531674,7.2586273571,6.2907306154,1104
104806,190234,229397,-2.8881368781999996,7.3603223176,6.2428741634,1105
104891,190280,229394,-2.8378876036,7.2191457842,6.22133876,1106
105148,190280,229416,-2.8151557889,7.166503687,6.216553114800001,1107
105262,190329,229446,-2.7984060307000003,7.335197680299999,6.22133876,1108
105192,190288,229356,-2.9276184511,7.336394091599999,6.305087551,1109
104827,190151,229217,-2.8438696600999998,7.1880390904,6.293123438,1110
104157,190026,229084,-2.7206392962,7.278966349199999,6.2644095668,1111
103561,189972,229051,-2.775674216,7.278966349199999,6.3493547691,1112
103081,189941,229060,-2.775674216,7.278966349199999,6.3493547691,1113
102702,189945,229014,-2.775674216,7.278966349199999,6.3493547691,1114
102395,189902,228977,-2.775674216,7.278966349199999,6.3493547691,1115
102236,189936,228974,-2.775674216,7.278966349199999,6.3493547691,1116
102201,189957,229057,-2.775674216,7.278966349199999,6.3493547691,1117
102318,189980,229055,-2.775674216,7.278966349199999,6.3493547691,1118
102422,190000,229037,-2.775674216,7.278966349199999,6.3493547691,1119
102485,189981,229021,-2.775674216,7.278966349199999,6.3493547691,1120
102531,189993,229041,-2.8319055471,7.2335027198,6.2955162605999995,1121
102589,189981,229037,-2.8534409504999996,7.2717878814,6.2237315826,1122
102679,190014,229051,-2.6979074815,7.3124658656,6.3601224708,1123
102779,190023,229082,-2.6979074815,7.3124658656,6.3601224708,1124
102898,190030,229082,-2.6979074815,7.3124658656,6.3601224708,1125
103026,190054,229076,-2.6979074815,7.3124658656,6.3601224708,1126
103139,190066,229118,-2.6979074815,7.3124658656,6.3601224708,1127
103263,190059,229108,-2.6979074815,7.3124658656,6.3601224708,1128
103426,190056,229120,-2.6979074815,7.3124658656,6.3601224708,1129
103552,190091,229124,-2.6979074815,7.3124658656,6.3601224708,1130
103691,190121,229141,-2.6979074815,7.3124658656,6.3601224708,1131
103818,190144,229124,-2.6979074815,7.3124658656,6.3601224708,1132
103945,190111,229148,-2.6979074815,7.3124658656,6.3601224708,1133
104070,190115,229139,-2.6979074815,7.3124658656,6.3601224708,1134
104213,190123,229182,-2.6979074815,7.3124658656,6.3601224708,1135
104322,190152,229211,-2.6979074815,7.3124658656,6.3601224708,1136
104459,190167,229124,-2.6979074815,7.3124658656,6.3601224708,1137
104375,190127,229094,-2.6979074815,7.3124658656,6.3601224708,1138
103900,190007,229000,-2.6979074815,7.3124658656,6.3601224708,1139
103259,189950,228912,-2.919243572,7.3124658656,6.1268222673,1140
102688,189904,228851,-2.919243572,7.3124658656,6.1268222673,1141
102215,189874,228847,-2.919243572,7.3124658656,6.1268222673,1142
101854,189874,228810,-2.919243572,7.3124658656,6.1268222673,1143
101545,189861,228789,-2.919243572,7.3124658656,6.1268222673,1144
101384,189875,228799,-2.919243572,7.3124658656,6.1268222673,1145
101381,189798,228827,-2.919243572,7.3124658656,6.1268222673,1146
101361,189638,228654,-2.919243572,7.3124658656,6.1268222673,1147
101329,189549,228585,-2.919243572,7.3124658656,6.1268222673,1148
101300,189599,228592,-2.919243572,7.3124658656,6.1268222673,1149
101400,189667,228649,-2.919243572,7.3124658656,6.1268222673,1150
101490,189754,228688,-2.919243572,7.3124658656,6.1268222673,1151
101630,189813,228771,-2.919243572,7.3124658656,6.1268222673,1152
101805,189830,228810,-2.919243572,7.3124658656,6.1268222673,1153
101954,189901,228854,-2.919243572,7.3124658656,6.1268222673,1154
102098,189910,228852,-2.919243572,7.3124658656,6.1268222673,1155
102249,189925,228888,-2.919243572,7.3124658656,6.1268222673,1156
102434,189951,228876,-2.919243572,7.3124658656,6.1268222673,1157
102599,189971,228865,-2.919243572,7.3124658656,6.1268222673,1158
102754,189959,228840,-2.919243572,7.3124658656,6.1268222673,1159
102926,189939,228888,-2.919243572,7.3124658656,6.1268222673,1160
103100,189976,228894,-2.919243572,7.3124658656,6.1268222673,1161
103267,189990,228866,-2.919243572,7.3124658656,6.1268222673,1162
103430,189990,228842,-2.919243572,7.3124658656,6.1268222673,1163
103590,190003,228839,-2.919243572,7.3124658656,6.1268222673,1164
103762,189997,228792,-2.919243572,7.3124658656,6.1268222673,1165
103924,189992,228826,-2.919243572,7.3124658656,6.1268222673,1166
104054,189984,228790,-2.919243572,7.3124658656,6.1268222673,1167
103969,189945,228733,-2.919243572,7.3124658656,6.1268222673,1168
103526,189865,228598,-2.919243572,7.3124658656,6.1268222673,1169
102989,189815,228502,-2.919243572,7.3124658656,6.1268222673,1170
102527,189812,228463,-2.919243572,7.3124658656,6.1268222673,1171
102173,189746,228466,-2.919243572,7.3124658656,6.1268222673,1172
101888,189728,228360,-2.919243572,7.3124658656,6.1268222673,1173
101700,189744,228405,-2.919243572,7.3124658656,6.1268222673,1174
101645,189754,228380,-2.919243572,7.3124658656,6.1268222673,1175
101730,189812,228415,-2.919243572,7.3124658656,6.1268222673,1176
101909,189822,228452,-2.919243572,7.3124658656,6.1268222673,1177
102053,189801,228423,-2.919243572,7.3124658656,6.1268222673,1178
102132,189838,228437,-2.8307091358,7.3555366724,6.2715880346,1179
102207,189859,228422,-2.8307091358,7.3555366724,6.2715880346,1180
102344,189836,228453,-2.8307091358,7.3555366724,6.2715880346,1181
102483,189857,228448,-2.8307091358,7.3555366724,6.2715880346,1182
102653,189929,228495,-2.8307091358,7.3555366724,6.2715880346,1183
102838,189922,228506,-2.8307091358,7.3555366724,6.2715880346,1184
102993,189901,228491,-2.8307091358,7.3555366724,6.2715880346,1185
103167,189980,228528,-2.8307091358,7.3555366724,6.2715880346,1186
103388,189976,228552,-2.8307091358,7.3555366724,6.2715880346,1187
103537,190039,228589,-2.8307091358,7.3555366724,6.2715880346,1188
103737,190049,228590,-2.8307091358,7.3555366724,6.2715880346,1189
103911,190069,228610,-2.8307091358,7.3555366724,6.2715880346,1190
104096,190114,228654,-2.8307091358,7.3555366724,6.2715880346,1191
104274,190124,228670,-2.8307091358,7.3555366724,6.2715880346,1192
104462,190196,228730,-2.8307091358,7.3555366724,6.2715880346,1193
104651,190230,228800,-2.8307091358,7.3555366724,6.2715880346,1194
104818,190299,228834,-2.8307091358,7.3555366724,6.2715880346,1195
104818,190264,228858,-2.8307091358,7.3555366724,6.2715880346,1196
104489,190191,228757,-2.8307091358,7.3555366724,6.2715880346,1197
103932,190118,228684,-2.8307091358,7.3555366724,6.2715880346,1198
103410,190097,228688,-2.8307091358,7.3555366724,6.2715880346,1199
103032,190067,228655,-2.8307091358,7.3555366724,6.2715880346,1200
102734,190083,228648,-2.8307091358,7.3555366724,6.2715880346,1201
102508,190068,228632,-2.8307091358,7.3555366724,6.2715880346,1202
102436,190068,228679,-2.8307091358,7.3555366724,6.2715880346,1203
102455,190081,228642,-2.8307091358,7.3555366724,6.2715880346,1204
102535,190097,228671,-2.8307091358,7.3555366724,6.2715880346,1205
102575,190090,228648,-2.8307091358,7.3555366724,6.2715880346,1206
102600,190076,228656,-2.8307091358,7.3555366724,6.2715880346,1207
102609,190080,228683,-2.8307091358,7.3555366724,6.2715880346,1208
102650,190062,228640,-2.8307091358,7.3555366724,6.2715880346,1209
102722,190081,228683,-2.8307091358,7.3555366724,6.2715880346,1210
102777,190110,228681,-2.8307091358,7.3555366724,6.2715880346,1211
102843,190077,228675,-2.8307091358,7.3555366724,6.2715880346,1212
102702,190034,228607,-2.8307091358,7.3555366724,6.2715880346,1213
102360,189969,228547,-2.8307091358,7.3555366724,6.2715880346,1214
102051,189947,228476,-2.8307091358,7.3555366724,6.2715880346,1215
101878,189967,228497,-2.8307091358,7.3555366724,6.2715880346,1216
101883,189978,228519,-2.8307091358,7.3555366724,6.2715880346,1217
102056,189998,228559,-2.8307091358,7.3555366724,6.2715880346,1218
102207,190004,228588,-2.8307091358,7.3555366724,6.2715880346,1219
102347,189998,228574,-2.8307091358,7.3555366724,6.2715880346,1220
102418,189986,228372,-2.5507488916,7.310073043,6.2261244052,1221
102460,189983,228408,-2.5507488916,7.310073043,6.2261244052,1222
102537,190008,228427,-2.5507488916,7.310073043,6.2261244052,1223
102616,190013,228446,-2.5507488916,7.310073043,6.2261244052,1224
102692,190005,228393,-2.5507488916,7.310073043,6.2261244052,1225
102803,190016,228443,-2.5507488916,7.310073043,6.2261244052,1226
102896,190006,228444,-2.7110680058,7.2610201797,6.1423756142,1227
102992,190053,228488,-2.7110680058,7.2610201797,6.1423756142,1228
103083,190075,228503,-2.7110680058,7.2610201797,6.1423756142,1229
103180,190036,228494,-2.7110680058,7.2610201797,6.1423756142,1230
103279,190080,228489,-2.7110680058,7.2610201797,6.1423756142,1231
103373,190073,228510,-2.7110680058,7.2610201797,6.1423756142,1232
103476,190100,228507,-2.7110680058,7.2610201797,6.1423756142,1233
103457,190056,228478,-2.7110680058,7.2610201797,6.1423756142,1234
103074,189929,228328,-2.7110680058,7.2610201797,6.1423756142,1235
102427,189869,228222,-2.7110680058,7.2610201797,6.1423756142,1236
101725,189779,228191,-2.7110680058,7.2610201797,6.1423756142,1237
101167,189758,228092,-2.7110680058,7.2610201797,6.1423756142,1238
100718,189713,228077,-2.7110680058,7.2610201797,6.1423756142,1239
100363,189665,228017,-2.7110680058,7.2610201797,6.1423756142,1240
100106,189637,228052,-2.8115665549999997,7.2885376395999995,6.1232330334,1241
100035,189644,228027,-2.8115665549999997,7.2885376395999995,6.1232330334,1242
100114,189678,228029,-2.8115665549999997,7.2885376395999995,6.1232330334,1243
100197,189711,228021,-2.8115665549999997,7.2885376395999995,6.1232330334,1244
100289,189660,228052,-2.8115665549999997,7.2885376395999995,6.1232330334,1245
100313,189641,228012,-2.8115665549999997,7.2885376395999995,6.1232330334,1246
100384,189674,228053,-2.7792634499,7.4691957459,6.125625856,1247
100471,189650,228053,-2.7050859493,7.3387869142,6.1351971464,1248
100605,189666,228101,-2.8163522002,7.393821834000001,6.1710894854,1249
100671,189699,228106,-2.8474588940000003,7.5242306657,6.0993048074,1250
100880,189667,228098,-2.6524438520999998,7.4835526815,6.120840210799999,1251
101049,189723,228136,-2.8761727652,7.3088766317000005,6.1543397272,1252
101194,189727,228122,-2.8211378454,7.3986074792,6.101697629999999,1253
101368,189757,228146,-2.8606194183,7.4010003018,6.1040904525999995,1254
101559,189754,228179,-2.7170500623000002,7.4500531651,6.0490555328,1255
101728,189771,228178,-2.8283163132,7.3806613097,6.089733517,1256
101853,189796,228222,-2.8737799425999997,7.3411797368,6.1005012187,1257
102099,189755,228224,-2.9048866364,7.336394091599999,6.149554082000001,1258
102281,189839,228215,-3.0113672421,7.4237321165,6.1232330334,1259
102465,189833,228256,-2.9419753867,7.444071108599999,6.025127306799999,1260
102542,189841,228225,-2.9359933301999996,7.4488567538,6.0729837587999995,1261
102287,189740,228132,-2.8618158296000002,7.3507510272,5.9617175078999995,1262
101690,189729,228099,-2.8809584104000003,7.3926254227,6.041877065,1263
101088,189648,228083,-3.0580272828,7.3866433661999995,6.005984725999999,1264
100658,189646,228050,-2.8929225234,7.4404818747,6.037091419799999,1265
100325,189625,228084,-2.8331019584000003,7.4201428826,6.0993048074,1266
100135,189596,228048,-2.835494781,7.5290163108999995,6.1184473882,1267
100051,189577,228090,-2.8737799425999997,7.3292156238,6.080162226600001,1268
100177,189622,228061,-2.9012974024999996,7.377072075799999,6.1040904525999995,1269
100319,189654,228101,-2.9467610319,7.3866433661999995,6.0586268232,1270
100446,189648,228141,-2.8965117573,7.4333034069,6.0203416616,1271
100535,189640,228160,-2.931207685,7.5385876013,6.1040904525999995,1272
100628,189567,228177,-2.8953153460000003,7.3806613097,6.0323057746,1273
100730,189640,228198,-2.9539394997,7.3914290114000005,6.005984725999999,1274
100852,189704,228189,-2.8606194183,7.393821834000001,5.970092387,1275
101001,189687,228242,-2.8271199019,7.2705914701,6.0753765814,1276
101161,189715,228296,-2.9407789753999998,7.2167529616,6.0729837587999995,1277
101332,189763,228347,-2.9407789753999998,7.2167529616,6.0729837587999995,1278
101537,189794,228411,-2.9407789753999998,7.2167529616,6.0729837587999995,1279
101697,189802,228452,-2.9407789753999998,7.2167529616,6.0729837587999995,1280
101903,189829,228472,-2.9407789753999998,7.2167529616,6.0729837587999995,1281
102069,189890,228534,-2.9407789753999998,7.2167529616,6.0729837587999995,1282
102254,189961,228613,-2.9407789753999998,7.2167529616,6.0729837587999995,1283
102406,190021,228707,-2.9407789753999998,7.2167529616,6.0729837587999995,1284
102533,190013,228710,-2.9407789753999998,7.2167529616,6.0729837587999995,1285
102669,190074,228801,-3.0197421212,7.3531438498,6.2775700911,1286
102702,190069,228782,-3.0340990568,7.3435725594,6.077769404,1287
102417,190022,228769,-2.9371897415,7.4093751809,6.2368921069,1288
101804,189872,228634,-2.9204399833,7.3950182453,6.0969119848,1289
100995,189743,228526,-2.8630122409,7.3794648984,6.173482308,1290
100420,189758,228505,-2.9108686929000003,7.3543402611,6.2021961791999995,1291
99857,189666,228497,-2.9168507494,7.3854469549,6.2368921069,1292
99471,189641,228468,-2.8522445392,7.444071108599999,6.2679988007,1293
99157,189615,228517,-2.8259234905999997,7.319644333399999,6.1950177114,1294
99063,189581,228535,-2.8677978860999995,7.3256263899,6.2141602922,1295
99156,189611,228592,-2.8474588940000003,7.286144817,6.101697629999999,1296
99259,189632,228595,-2.8689942974,7.2323063085,6.3003019058,1297
99325,189566,228583,-2.9096722816000002,7.3794648984,6.2045890018000005,1298
99367,189598,228583,-2.8905297008,7.381857721,6.1950177114,1299
99448,189571,228601,-2.8905297008,7.381857721,6.1950177114,1300
99525,189590,228638,-2.8905297008,7.381857721,6.1950177114,1301
99661,189617,228622,-2.8905297008,7.381857721,6.1950177114,1302
99804,189600,228709,-2.8905297008,7.381857721,6.1950177114,1303
99942,189627,228689,-2.8905297008,7.381857721,6.1950177114,1304
100142,189638,228692,-2.9324040963,7.262216591,6.161518194999999,1305
100283,189656,228761,-2.9276184511,7.3830541323,6.203392590499999,1306
100451,189681,228759,-2.8701907087,7.3148586882,6.1591253724,1307
100626,189570,228787,-2.9431717980000003,7.345965381999999,6.1830535984,1308
100809,189713,228842,-2.9024938138,7.29810893,6.1112689204,1309
100998,189720,228866,-2.8223342567,7.2909304621999995,6.1220366221,1310
101151,189706,228871,-2.8618158296000002,7.3124658656,6.178267953200001,1311
101302,189770,228883,-2.7529424013,7.3148586882,6.1519469046,1312
101442,189756,228935,-2.7960132080999998,7.2957161074000005,6.120840210799999,1313
101682,189812,228935,-2.8594230069999997,7.2837519944,6.021538072899999,1314
101663,189749,228905,-2.9575287336000002,7.3686971967,6.2679988007,1315
101203,189651,228810,-2.87138712,7.3734828419,6.173482308,1316
100442,189550,228739,-2.8378876036,7.2993053413,6.1567325498,1317
99707,189514,228695,-2.99102825,7.1736821548,6.1926248888,1318
99085,189428,228682,-2.9132615155,7.3591259063,6.2249279939,1319
98544,189367,228665,-2.8055844984999996,7.1760749774,6.173482308,1320
98135,189382,228675,-2.9240292172,7.390232600099999,6.175875130600001,1321
97868,189327,228661,-2.8151557889,7.2562345345,6.2632131555,1322
97756,189269,228713,-2.9084758702999998,7.1593252192,6.2141602922,1323
97829,189274,228739,-2.8905297008,7.2311098972,6.2656059781,1324
97951,189289,228773,-2.7337998205,7.3710900192999995,6.3110696074999995,1325
98083,189293,228845,-2.7290141752999997,7.393821834000001,6.2356956956000005,1326
98107,189279,228814,-2.6344976826,7.3136622769,6.2500526312,1327
98121,189270,228856,-2.7146572396999997,7.226324252,6.3182480753000005,1328
98196,189163,228850,-2.7349962318,7.1653072757,6.2644095668,1329
98283,189277,228886,-2.6703900216,7.2598237683999995,6.2524454538,1330
98440,189323,228931,-2.6943182475999996,7.3016981639,6.2380885182,1331
98563,189363,228951,-2.6644079651,7.2646094136,6.3206408979,1332
98725,189343,228973,-2.7768706272999997,7.2000032034000006,6.3158552527000005,1333
98861,189354,229016,-2.6117658679000004,7.274180704,6.3457655352,1334
99025,189353,229022,-2.7086751831999996,7.2083780824999995,6.2787665024,1335
99185,189366,229063,-2.8019952646,7.2071816712,6.2955162605999995,1336
99360,189367,229052,-2.7541388126,7.214360139,6.2261244052,1337
99525,189411,229115,-2.8701907087,7.262216591,6.281159325,1338
99706,189458,229134,-2.6895326024,7.2191457842,6.2668023894,1339
99848,189420,229147,-2.7493531674,7.3005017526,6.287141381500001,1340
100017,189433,229185,-2.75174599,7.3280192125,6.2644095668,1341
100170,189497,229157,-2.7625136916999997,7.3268228012,6.273980857200001,1342
100291,189475,229244,-2.8247270792999997,7.223931429399999,6.197410534,1343
100182,189369,229154,-2.667997199,7.2442704215000004,6.314658841399999,1344
99583,189303,229044,-2.7972096194,7.1605216305,6.314658841399999,1345
98814,189184,228983,-2.7589244578,7.310073043,6.4019968663,1346
98100,189173,228916,-2.6847469572,7.2430740102,6.385247108100001,1347
97576,189056,228908,-2.7110680058,7.3052873978,6.2907306154,1348
97143,189000,228881,-2.7577280465,7.1497539288,6.2979090831999995,1349
96822,188921,228871,-2.7637101029999998,7.3399833255,6.209374647,1350
96683,188966,228840,-2.8749763539,7.3471617933,6.2392849295,1351
96745,188945,228885,-2.703889538,7.3124658656,6.2620167442,1352
96953,188963,228920,-2.7326034091999998,7.3005017526,6.1998033565999995,1353
97159,188994,228920,-2.8043880872,7.4081787696,6.2021961791999995,1354
97308,188950,228946,-2.9324040963,7.2287170746000005,6.2560346877,1355
97431,188942,228993,-2.8139593776000003,7.29810893,6.1878392436,1356
97558,188967,228949,-2.787638329,7.3794648984,6.2117674696,1357
97693,188960,229005,-2.7852455064000003,7.3088766317000005,6.190232066199999,1358
97870,188947,228995,-2.8175486115,7.447660342499999,6.212963880899999,1359
98060,188944,229017,-2.8893332895,7.3244299786000004,6.1830535984,1360
98245,188979,229043,-2.7888347403,7.488338326699999,6.216553114800001,1361
98505,188890,229068,-2.7385854657,7.3663043741,6.0681981136,1362
98793,189068,229099,-2.9228328059,7.3447689707,6.0753765814,1363
98997,189085,229100,-2.8666014748,7.307680220399999,6.1675002515,1364
99246,189067,229106,-2.8761727652,7.2933232848,6.1555361385,1365
99484,189120,229144,-2.9156543381000004,7.3088766317000005,6.120840210799999,1366
99724,189119,229166,-2.8857440556,7.4069823583000005,6.1818571871,1367
99933,189146,229151,-2.9527430884,7.2921268735,6.1040904525999995,1368
100202,189146,229189,-2.8175486115,7.4991060284,6.0681981136,1369
100410,189191,229227,-2.8785655878,7.4368926408,6.0610196458,1370
100589,189243,229227,-2.9024938138,7.317251510799999,6.132804323799999,1371
100613,189159,229199,-2.9611179675,7.3986074792,6.0562340006,1372
100205,189114,229129,-2.8474588940000003,7.381857721,6.0729837587999995,1373
99555,189065,229072,-2.8917261120999997,7.3411797368,6.0825550492,1374
98969,188971,229036,-2.8474588940000003,7.430910584299999,6.0490555328,1375
98563,188944,229058,-2.8331019584000003,7.3722864306,6.2835521476,1376
98271,188985,229039,-2.8331019584000003,7.3722864306,6.2835521476,1377
98090,188974,229066,-2.8331019584000003,7.3722864306,6.2835521476,1378
98060,188949,229098,-2.8331019584000003,7.3722864306,6.2835521476,1379
98219,188952,229142,-2.8331019584000003,7.3722864306,6.2835521476,1380
98446,189030,229131,-2.8331019584000003,7.3722864306,6.2835521476,1381
98665,189022,229155,-2.8331019584000003,7.3722864306,6.2835521476,1382
98803,189034,229184,-2.8331019584000003,7.3722864306,6.2835521476,1383
98957,189026,229189,-2.8331019584000003,7.3722864306,6.2835521476,1384
99117,189044,229225,-2.8331019584000003,7.3722864306,6.2835521476,1385
99308,189083,229288,-2.8331019584000003,7.3722864306,6.2835521476,1386
99502,189101,229322,-2.8331019584000003,7.3722864306,6.2835521476,1387
99715,189112,229321,-2.8331019584000003,7.3722864306,6.2835521476,1388
99946,189147,229323,-2.8331019584000003,7.3722864306,6.2835521476,1389
100145,189172,229362,-2.8331019584000003,7.3722864306,6.2835521476,1390
100403,189219,229439,-2.8331019584000003,7.3722864306,6.2835521476,1391
100630,189249,229481,-2.8331019584000003,7.3722864306,6.2835521476,1392
100870,189349,229548,-2.8331019584000003,7.3722864306,6.2835521476,1393
101098,189432,229626,-2.8331019584000003,7.3722864306,6.2835521476,1394
101307,189487,229725,-2.8331019584000003,7.3722864306,6.2835521476,1395
101470,189497,229812,-2.8331019584000003,7.3722864306,6.2835521476,1396
101621,189529,229769,-2.8331019584000003,7.3722864306,6.2835521476,1397
101701,189470,229814,-2.8331019584000003,7.3722864306,6.2835521476,1398
101562,189419,229743,-2.8331019584000003,7.3722864306,6.2835521476,1399
101075,189284,229611,-2.8331019584000003,7.3722864306,6.2835521476,1400
100297,189181,229558,-2.8331019584000003,7.3722864306,6.2835521476,1401
99589,189110,229530,-2.8331019584000003,7.3722864306,6.2835521476,1402
99025,189068,229527,-2.8331019584000003,7.3722864306,6.2835521476,1403
98596,189037,229445,-2.8331019584000003,7.3722864306,6.2835521476,1404
98326,189014,229456,-2.8331019584000003,7.3722864306,6.2835521476,1405
98175,189011,229515,-2.8331019584000003,7.3722864306,6.2835521476,1406
98225,189032,229543,-2.8331019584000003,7.3722864306,6.2835521476,1407
98371,189083,229563,-2.8331019584000003,7.3722864306,6.2835521476,1408
98547,189057,229574,-2.8331019584000003,7.3722864306,6.2835521476,1409
98645,189071,229583,-2.8331019584000003,7.3722864306,6.2835521476,1410
98763,189089,229570,-2.8331019584000003,7.3722864306,6.2835521476,1411
98826,189047,229602,-2.8331019584000003,7.3722864306,6.2835521476,1412
98956,189095,229595,-2.8331019584000003,7.3722864306,6.2835521476,1413
99109,189100,229671,-2.8331019584000003,7.3722864306,6.2835521476,1414
99276,189142,229698,-2.8331019584000003,7.3722864306,6.2835521476,1415
99432,189142,229673,-2.8331019584000003,7.3722864306,6.2835521476,1416
99619,189150,229714,-2.8331019584000003,7.3722864306,6.2835521476,1417
97852,188856,229500,-2.8689942974,7.319644333399999,6.089733517,1418
97579,188764,229463,-2.8689942974,7.319644333399999,6.089733517,1419
97418,188765,229458,-2.8689942974,7.319644333399999,6.089733517,1420
97450,188790,229472,-2.8689942974,7.319644333399999,6.089733517,1421
97625,188794,229568,-2.8689942974,7.319644333399999,6.089733517,1422
97845,188792,229525,-2.8689942974,7.319644333399999,6.089733517,1423
98028,188849,229502,-2.8689942974,7.319644333399999,6.089733517,1424
98194,188833,229506,-2.8689942974,7.319644333399999,6.089733517,1425
98301,188802,229494,-2.8689942974,7.319644333399999,6.089733517,1426
98444,188831,229481,-2.8689942974,7.319644333399999,6.089733517,1427
98626,188836,229519,-2.8689942974,7.319644333399999,6.089733517,1428
98833,188848,229504,-2.8689942974,7.319644333399999,6.089733517,1429
99051,188882,229499,-2.8689942974,7.319644333399999,6.089733517,1430
99288,188911,229531,-2.8689942974,7.319644333399999,6.089733517,1431
99514,188947,229602,-2.8689942974,7.319644333399999,6.089733517,1432
99748,188927,229618,-2.8689942974,7.319644333399999,6.089733517,1433
99991,188993,229622,-2.8689942974,7.319644333399999,6.089733517,1434
100219,189025,229630,-2.8689942974,7.319644333399999,6.089733517,1435
100449,189072,229680,-2.8689942974,7.319644333399999,6.089733517,1436
100683,189078,229681,-2.8689942974,7.319644333399999,6.089733517,1437
100914,189097,229664,-2.8689942974,7.319644333399999,6.089733517,1438
101136,189125,229690,-2.8689942974,7.319644333399999,6.089733517,1439
101336,189127,229662,-2.8689942974,7.319644333399999,6.089733517,1440
101222,189115,229591,-2.8689942974,7.319644333399999,6.089733517,1441
100751,189050,229519,-2.8689942974,7.319644333399999,6.089733517,1442
100154,188961,229531,-2.8689942974,7.319644333399999,6.089733517,1443
99683,188963,229513,-3.0077780082,7.3184479221,6.034698597199999,1444
99376,188977,229526,-2.9659036127,7.4021967130999995,6.0933227509000005,1445
99161,188961,229511,-2.8642086522,7.3962146566,6.092126339599999,1446
99096,188985,229555,-2.9551359109999997,7.2909304621999995,6.0083775485999995,1447
99204,189040,229575,-2.9383861528,7.3268228012,6.0753765814,1448
99407,189022,229610,-2.8378876036,7.390232600099999,6.0825550492,1449
99564,189040,229602,-2.9575287336000002,7.4069823583000005,6.000002669500001,1450
99733,189088,229580,-2.8773691765,7.3507510272,6.094519162199999,1451
99878,189061,229576,-3.0209385325,7.3722864306,6.1220366221,1452
100013,189036,229651,-2.9563323222999998,7.377072075799999,6.1040904525999995,1453
100159,189068,229613,-2.9563323222999998,7.377072075799999,6.1040904525999995,1454
100327,189084,229641,-2.9563323222999998,7.377072075799999,6.1040904525999995,1455
100535,189113,229664,-2.8247270792999997,7.3244299786000004,6.1112689204,1456
100712,189127,229681,-3.0113672421,7.457231632899999,6.117250976899999,1457
100913,189142,229673,-2.9036902251,7.3722864306,5.9569318627,1458
101125,189185,229676,-2.8271199019,7.3411797368,6.034698597199999,1459
101343,189210,229704,-2.9001009912,7.393821834000001,5.9772708547999995,1460
101550,189186,229780,-2.9264220398,7.4129644148,6.0490555328,1461
101767,189324,229789,-2.8546373618,7.4165536487,6.1220366221,1462
101983,189326,229819,-2.8438696600999998,7.363911551499999,6.0610196458,1463
102189,189374,229906,-2.9503502657999996,7.3052873978,6.051448355400001,1464
102402,189396,229921,-2.9778677257000004,7.3316084464,6.029912952,1465
102597,189464,229968,-2.9754749031,7.390232600099999,6.1579289611,1466
102680,189534,230020,-2.9072794589999997,7.3028945752,6.0490555328,1467
102370,189445,229941,-2.8929225234,7.307680220399999,6.175875130600001,1468
101744,189329,229929,-2.9623143788,7.441678286,6.185446421,1469
101033,189327,229884,-2.9730820805000002,7.2047888486,6.209374647,1470
100440,189220,229832,-2.9898318387,7.4045895357,6.1543397272,1471
99993,189229,229831,-3.0017959517,7.238288365000001,6.2799629137,1472
99645,189183,229828,-2.9216363945999997,7.2191457842,6.2548382764,1473
99486,189157,229856,-2.7565316351999996,7.4069823583000005,6.2488562199,1474
99473,189182,229885,-2.8486553053,7.334001269,6.289534204100001,1475
99566,189169,229892,-2.8486553053,7.334001269,6.289534204100001,1476
99704,189207,229880,-2.8486553053,7.334001269,6.289534204100001,1477
99808,189179,229859,-2.8486553053,7.334001269,6.289534204100001,1478
99868,189149,229859,-2.8486553053,7.334001269,6.289534204100001,1479
99927,189163,229862,-2.8486553053,7.334001269,6.289534204100001,1480
100025,189211,229855,-2.8486553053,7.334001269,6.289534204100001,1481
100120,189150,229895,-2.7828526838,7.3304120351,6.2799629137,1482
100251,189197,229928,-2.8259234905999997,7.2909304621999995,6.287141381500001,1483
100380,189149,229913,-2.7541388126,7.2346991311,6.2356956956000005,1484
100527,189162,229912,-2.8989045799,7.3375905029,6.218945937399999,1485
100692,189206,229899,-2.8929225234,7.3005017526,6.2823557362999995,1486
100850,189149,229953,-2.8402804262,7.2717878814,6.2823557362999995,1487
100979,189298,229917,-2.7302105866,7.2358955424,6.260820332899999,1488
101149,189244,229945,-2.6895326024,7.4847490928,6.2356956956000005,1489
101317,189268,229983,-2.7936203855,7.2765735266,6.2524454538,1490
101467,189280,229968,-2.7302105866,7.4548388103,6.245266986000001,1491
101621,189243,230019,-2.7828526838,7.226324252,6.2787665024,1492
101777,189366,230012,-2.6931218363,7.2777699379,6.2763736798,1493
101955,189337,230013,-2.7134608283999997,7.278966349199999,6.257231098999999,1494
102007,189311,229967,-2.7828526838,7.274180704,6.2428741634,1495
101727,189224,229866,-2.6715864329,7.2167529616,6.2141602922,1496
101038,189122,229792,-2.8414768375,7.3914290114000005,5.9796636774,1497
100311,189069,229740,-2.8414768375,7.3914290114000005,5.9796636774,1498
99688,189023,229715,-2.8414768375,7.3914290114000005,5.9796636774,1499
99189,188980,229646,-2.8414768375,7.3914290114000005,5.9796636774,1500
98839,188932,229651,-2.8414768375,7.3914290114000005,5.9796636774,1501
98566,188930,229701,-2.8414768375,7.3914290114000005,5.9796636774,1502
98468,188961,229666,-2.8414768375,7.3914290114000005,5.9796636774,1503
98534,188955,229695,-2.8414768375,7.3914290114000005,5.9796636774,1504
98695,188960,229706,-2.8414768375,7.3914290114000005,5.9796636774,1505
98829,188979,229700,-2.8414768375,7.3914290114000005,5.9796636774,1506
98947,188988,229672,-2.8414768375,7.3914290114000005,5.9796636774,1507
99025,188984,229732,-2.8414768375,7.3914290114000005,5.9796636774,1508
99124,188995,229718,-2.8414768375,7.3914290114000005,5.9796636774,1509
99256,189037,229714,-2.8414768375,7.3914290114000005,5.9796636774,1510
99404,189054,229770,-2.8414768375,7.3914290114000005,5.9796636774,1511
99576,189025,229768,-2.8414768375,7.3914290114000005,5.9796636774,1512
99738,189079,229784,-2.8414768375,7.3914290114000005,5.9796636774,1513
99923,189065,229816,-2.8414768375,7.3914290114000005,5.9796636774,1514
100106,189143,229805,-2.8414768375,7.3914290114000005,5.9796636774,1515
100295,189152,229852,-2.8414768375,7.3914290114000005,5.9796636774,1516
100482,189150,229880,-2.8414768375,7.3914290114000005,5.9796636774,1517
100653,189156,229860,-2.8414768375,7.3914290114000005,5.9796636774,1518
100847,189155,229868,-2.8414768375,7.3914290114000005,5.9796636774,1519
101017,189187,229925,-2.8414768375,7.3914290114000005,5.9796636774,1520
101200,189200,229870,-2.8414768375,7.3914290114000005,5.9796636774,1521
101370,189204,229911,-2.8414768375,7.3914290114000005,5.9796636774,1522
101444,189215,229854,-2.8414768375,7.3914290114000005,5.9796636774,1523
101107,189158,229786,-2.8414768375,7.3914290114000005,5.9796636774,1524
100433,188997,229686,-2.8414768375,7.3914290114000005,5.9796636774,1525
99765,188948,229660,-2.8414768375,7.3914290114000005,5.9796636774,1526
99206,188906,229623,-2.8414768375,7.3914290114000005,5.9796636774,1527
98788,188897,229584,-2.8414768375,7.3914290114000005,5.9796636774,1528
98493,188857,229578,-2.8414768375,7.3914290114000005,5.9796636774,1529
