green,red,IR,acc_x,acc_y,acc_z,sample_index
65187,148188,183831,10.8562361362,-0.6065805291,-2.4059831243,1
64704,148025,183725,9.945767136899999,-1.4368899712999998,-2.452643165,2
64527,147938,183645,9.403792818,-1.4488540843,-2.7302105866,3
64368,147846,183623,8.8438723296,-1.4847464232999998,-2.7732813934,4
64296,147811,183575,8.3964145034,-1.1880364209,-2.7613172804,5
64325,147816,183611,7.9872418388,-1.2610175101999999,-2.9108686929000003,6
64339,147794,183629,8.3712898661,-1.5996019081000001,-2.6715864329,7
64345,147779,183639,8.745766603,-1.734796385,-2.5387847786,8
64356,147766,183612,9.1417787433,-1.698904046,-2.2037896146,9
64345,147805,183603,9.3296153174,-1.4883356572,-2.1020946541,10
64236,147740,183624,9.5342016497,-1.3830514628000001,-2.3940190112999997,11
64280,147740,183608,9.7196454012,-0.8434699665000001,-2.7708885708000004,12
64216,147731,183616,11.2307128731,-0.8147560952999999,-2.2217357841,13
64240,147736,183528,11.509476706,-0.47377887479999997,-1.9800607015,14
64376,147798,183530,10.7641124661,0.3062812928,-2.0733807828999997,15
64672,147895,183512,10.159924759599999,1.0037890807,-2.1822542112,16
64927,147979,183530,10.0713903234,1.3088739621999999,-2.0709879603,17
64997,147978,183529,9.9924271776,1.8305092889999999,-1.9357934834,18
65002,148028,183542,9.8596255233,2.0171494518,-1.9429719511999999,19
65296,148114,183577,9.894321451,2.2157537276,-2.0195422744,20
65465,148164,183674,9.9732845968,2.2516460665999998,-2.1188444122999996,21
65675,148272,183757,10.013962581,2.2600209457,-2.2157537276,22
65803,148293,183765,10.0103733471,1.9860427579999997,-2.2504496553,23
65734,148302,183786,10.1324072997,1.7982061838999999,-2.2408783649,24
65573,148243,183847,9.750752095,1.2167502921,-2.1260228801,25
65228,148168,183791,10.174281695200001,0.7884350467,-2.2815563491,26
65015,148043,183784,10.316654639900001,0.346959277,-2.5208386090999997,27
64693,147888,183780,10.503294802700001,-0.4522434714,-2.165504453,28
64337,147745,183699,10.359725446699999,-0.9008977089,-2.4490539311,29
64102,147683,183680,9.562915520899999,-1.136590735,-2.7493531674,30
63880,147580,183613,9.3810610033,-1.3208380752,-3.0101708308,31
63788,147495,183540,9.0017986212,-1.2454641632999999,-2.9886354273999998,32
63780,147478,183544,8.5627156741,-0.9990034355,-3.0532416376,33
63813,147509,183625,8.3940216808,-1.1676974288,-3.0592236941,34
63880,147488,183522,8.641678819900001,-1.280160091,-2.6548366747000003,35
63898,147497,183575,9.0939222913,-1.5397813431,-2.5028924396,36
63859,147496,183573,9.4061856406,-1.5349956979000001,-2.0255243308999997,37
63633,147383,183527,9.6502535458,-1.1712866627,-2.213360905,38
63407,147297,183519,9.6418786667,-0.9140582332,-2.7074787719,39
63228,147209,183475,10.1013006059,-0.9990034355,-2.7637101029999998,40
63123,147179,183491,10.528419439999999,-0.6867400861999999,-2.3760728418,41
63143,147197,183453,10.723434481899998,-0.2380858487,-2.0470597343,42
63232,147269,183477,10.4219388343,0.0275174599,-2.0147566292,43
63417,147354,183502,10.2161560907,0.4845465765,-2.093719775,44
63662,147401,183523,10.1850493969,0.8386843212999999,-2.0530417908,45
63794,147476,183552,10.1276216545,0.7824529901999999,-1.9860427579999997,46
63876,147492,183598,10.035497984400001,0.9511469834999999,-1.9441683625,47
63919,147495,183578,10.0127661697,0.6640082715,-2.0865413072,48
63892,147486,183595,10.2185489133,0.574277424,-2.2061824372,49
63871,147455,183580,10.174281695200001,0.43788653580000003,-2.1224336462,50
63814,147471,183611,9.8380901199,0.1459621786,-2.2540388892,51
63711,147412,183562,9.9708917742,-0.3122633493,-2.3593230836,52
63593,147415,183636,9.808179837399999,-0.4414757697,-2.1906290903,53
63452,147343,183562,9.767501853199999,-0.6233302873,-2.3126630429,54
63376,147287,183533,9.5928258034,-0.777667345,-2.0398812665,55
63310,147219,183551,9.5736832226,-0.8805587168,-2.177468566,56
63237,147218,183515,9.5258267706,-0.909272588,-2.2013967919999997,57
63036,147111,183463,9.4313102779,-0.9511469834999999,-2.2336998971,58
62759,147014,183431,9.5377908836,-0.6604190376,-2.3066809864,59
62760,146939,183414,9.8560362894,-0.8111668613999999,-2.3784656644,60
62680,146977,183421,9.870393225,-0.5204389155,-2.2217357841,61
62687,146965,183443,10.1491570579,-0.6520441585,-2.321037922,62
62737,146999,183481,9.8811609267,-0.466600407,-2.3964118339,63
62769,147035,183510,10.1156575415,-0.4211367776,-2.3497517932000003,64
62828,147043,183508,9.9074819753,-0.34097722049999996,-2.2444675988,65
62844,147076,183478,9.8632147572,-0.49770710079999997,-2.2552353005,66
62855,147044,183484,9.7651090306,-0.538385085,-2.2695922361,67
62841,147057,183554,9.8321080634,-0.6807580296999999,-2.4000010678,68
62868,147062,183532,9.8249295956,-0.5659025448999999,-2.1978075581,69
62837,147064,183528,9.9003035075,-0.6209374647,-2.4263221164,70
62770,147073,183513,9.7651090306,-0.41276189849999995,-2.4562323989,71
62899,147058,183550,9.8452685877,-0.7621139981,-2.3976082452,72
62882,147049,183571,9.7818587888,-0.7561319416,-2.4059831243,73
62910,147091,183560,9.7076812882,-0.5563312545,-2.4155544147,74
62923,147061,183535,9.69093153,-0.6759723845,-2.3928226,75
62944,147078,183526,9.6825566509,-0.6496513358999999,-2.2109680824,76
62946,147057,183545,9.8416793538,-0.801595571,-2.356930261,77
62840,147023,183509,9.8907322171,-0.5563312545,-2.2552353005,78
62617,146929,183493,9.8057870148,-0.6005984726,-2.2767707039,79
62472,146837,183456,9.9732845968,-0.6508477471999999,-2.4239292938,80
62393,146829,183471,9.9206424996,-0.6963113766000001,-2.452643165,81
62377,146827,183468,9.7974121357,-0.6508477471999999,-2.6057838114000003,82
62408,146836,183497,9.5748796339,-0.6532405698,-2.5842484079999997,83
62450,146803,183521,9.888339394499999,-0.7609175868,-2.5052852621999997,84
62498,146872,183543,9.6813602396,-0.6580262149999999,-2.3665015514,85
62524,146882,183591,9.7830552001,-0.8219345630999999,-2.4430718746,86
62501,146898,183573,9.9003035075,-0.6604190376,-2.3976082452,87
62465,146867,183550,9.8368937086,-0.7872386353999999,-2.4622144554,88
62485,146890,183551,9.8297152408,-0.7202396026000001,-2.3138594542,89
62488,146903,183556,9.853643466800001,-0.7836494015,-2.4430718746,90
62480,146849,183594,9.9385886691,-0.7082754896000001,-2.4933211492,91
62499,146863,183596,9.750752095,-0.7860422241,-2.4933211492,92
62544,146902,183570,10.0127661697,-0.7968099258,-2.4658036893,93
62490,146907,183601,9.7112705221,-0.9080761767,-2.572284295,94
62519,146912,183561,9.8045906035,-0.8757730716000001,-2.4933211492,95
62533,146878,183570,9.6921279413,-0.7118647235000001,-2.6009981662,96
62542,146889,183553,9.741180804599999,-0.7369893608,-2.3760728418,97
62515,146903,183554,9.8680004024,-0.8147560952999999,-2.548356069,98
62423,146848,183550,9.7340023368,-0.7226324252,-2.4131615921,99
62239,146762,183550,9.8069834261,-0.8697910151,-2.4598216327999998,100
62123,146736,183474,9.839286531199999,-0.6161518195,-2.4610180441000002,101
62104,146682,183490,9.8560362894,-0.9547362173999999,-2.488535504,102
62056,146652,183543,9.714859756,-0.7130611348,-2.4634108667000003,103
62089,146678,183552,9.936195846499999,-0.8398807326,-2.5292134882000004,104
62136,146710,183573,9.8715896363,-0.7716852885,-2.5339991334,105
62178,146717,183574,9.8560362894,-0.8362914987,-2.5028924396,106
62198,146744,183585,9.9026963301,-0.741775006,-2.500499617,107
62235,146756,183624,9.6574320136,-0.6843472636,-2.5435704238000003,108
62197,146742,183602,9.745966449800001,-0.7645068207,-2.5268206656,109
62114,146733,183610,9.732805925500001,-0.765703232,-2.4562323989,110
62214,146787,183589,9.909874797899999,-0.873380249,-2.5866412306,111
62245,146753,183584,9.7519485063,-0.7573283529,-2.4945175605000003,112
62250,146747,183612,9.7304131029,-0.7621139981,-2.4981067944,113
62259,146778,183641,9.857232700700001,-0.909272588,-2.3389840915,114
62273,146753,183659,9.6921279413,-0.921236701,-2.6225335696,115
62279,146781,183605,9.7172525786,-0.8374879099999999,-2.3976082452,116
62293,146792,183608,9.7603233854,-0.8841479507000001,-2.5196421978,117
62227,146802,183648,9.7244310464,-0.7369893608,-2.452643165,118
62312,146805,183628,9.8201439504,-0.9308079913999999,-2.5627130046,119
62244,146773,183617,9.7914300792,-0.7262216591,-2.4861426814,120
62085,146681,183570,9.757930562799999,-0.7992027483999999,-2.4909283265999997,121
61956,146616,183550,9.7555377402,-0.9224331123,-2.572284295,122
61900,146650,183514,9.745966449800001,-0.7668996433,-2.4011974791,123
61882,146589,183567,9.7483592724,-0.7525427077,-2.4729821571,124
61830,146623,183584,9.93021379,-0.8111668613999999,-2.3892333661,125
61954,146643,183561,9.919446088299999,-0.8638089586000001,-2.5435704238000003,126
62010,146680,183621,9.822536773,-0.9188438784,-2.3676979627,127
62043,146685,183648,9.8967142736,-0.8159525066,-2.51246373,128
62054,146696,183600,9.688538707400001,-0.7740781111,-2.5220350203999997,129
62053,146657,183641,9.7938229018,-0.849452023,-2.3916261887,130
62044,146670,183642,9.702895643,-0.7728816998,-2.5292134882000004,131
61987,146685,183650,9.8919286284,-0.9032905315,-2.4969103831,132
62064,146690,183658,9.7244310464,-0.8039883936,-2.5220350203999997,133
62012,146699,183680,9.7076812882,-0.7992027483999999,-2.4873390927,134
62112,146728,183634,9.8141618939,-0.7585247642,-2.4119651808,135
62124,146727,183661,9.7603233854,-0.7704888772,-2.4789642136,136
62145,146739,183645,9.7830552001,-0.8793623055,-2.5387847786,137
62155,146751,183660,9.7782695549,-0.7848458128,-2.4346969955,138
62163,146753,183616,9.6993064091,-0.9140582332,-2.4574288102,139
62172,146744,183667,9.8356972973,-0.7788637562999999,-2.4502503424,140
62180,146764,183628,9.9732845968,-0.9080761767,-2.4933211492,141
62111,146727,183645,9.7495556837,-0.7740781111,-2.5280170769,142
61957,146663,183594,9.8261260069,-0.897308475,-2.4909283265999997,143
61838,146590,183573,9.9158568544,-0.8374879099999999,-2.4921247379,144
61796,146555,183587,9.7938229018,-0.8542376682,-2.4741785684,145
61793,146585,183574,9.7435736272,-0.9140582332,-2.5363919559999997,146
61859,146557,183565,9.745966449800001,-0.885344362,-2.4622144554,147
61857,146607,183637,9.8835537493,-0.8350950873999999,-2.4574288102,148
61914,146658,183648,9.8416793538,-0.8482556117000001,-2.4227328825,149
61850,146636,183645,9.924231733500001,-0.9595218625999999,-2.5220350203999997,150
61939,146631,183670,9.93021379,-0.8327022648,-2.4430718746,151
61935,146655,183666,9.7495556837,-0.7836494015,-2.464607278,152
61941,146679,183678,9.9050891527,-0.7980063370999999,-2.4430718746,153
61951,146667,183664,9.7794659662,-0.9284151688,-2.4299113503,154
61978,146647,183704,9.8799645154,-0.8362914987,-2.4311077616,155
61994,146686,183690,9.744770038499999,-0.921236701,-2.4957139718,156
62020,146735,183722,9.7770731436,-0.9236295236,-2.5375883673,157
62049,146688,183715,9.909874797899999,-0.9427721043999999,-2.4550359876,158
62038,146698,183700,9.8273224182,-0.7812565789,-2.3988046565,159
61996,146704,183643,9.8021977809,-0.9116654106,-2.3904297774,160
62065,146707,183687,9.9565348386,-0.909272588,-2.5292134882000004,161
62075,146723,183648,9.7734839097,-0.7322037156,-2.4107687694999997,162
62079,146719,183691,9.93021379,-0.9260223462,-2.476571391,163
62064,146704,183662,9.9385886691,-0.8207381518,-2.4358934068,164
61937,146644,183622,9.702895643,-0.8638089586000001,-2.5172493752,165
61788,146554,183636,9.7555377402,-0.9619146851999999,-2.4813570362,166
61702,146535,183592,9.7878408453,-0.969093153,-2.488535504,167
61676,146529,183615,9.7794659662,-0.9786644433999999,-2.5244278430000002,168
61690,146538,183605,9.8811609267,-0.8219345630999999,-2.428714939,169
61734,146569,183647,9.808179837399999,-0.8805587168,-2.4239292938,170
61794,146580,183672,9.8847501606,-0.9726823869,-2.4538395763,171
61822,146610,183690,9.7603233854,-0.8901300072,-2.416750826,172
61843,146628,183659,9.8249295956,-0.9822536772999999,-2.4717857458,173
61847,146634,183675,9.954142016,-0.7908278692999999,-2.4753749797,174
61848,146608,183670,9.888339394499999,-0.8805587168,-2.5339991334,175
61833,146616,183710,9.7950193131,-0.8243273857,-2.4789642136,176
61857,146624,183687,9.936195846499999,-0.8434699665000001,-2.4741785684,177
61865,146637,183714,9.8979106849,-0.8315058535,-2.5268206656,178
61895,146647,183702,9.878768104099999,-1.0097711372,-2.3509482045,179
61916,146688,183675,9.6957171752,-0.8434699665000001,-2.5148565526000004,180
61941,146643,183658,9.808179837399999,-0.9882357338,-2.5686950610999997,181
61949,146707,183682,9.9074819753,-0.8697910151,-2.440679052,182
61961,146659,183686,9.858429112,-0.9559326287,-2.4311077616,183
61978,146677,183684,9.865607579799999,-0.9714859755999999,-2.4574288102,184
61973,146719,183667,9.6813602396,-0.8578269021,-2.3940190112999997,185
61979,146680,183695,9.8751788702,-0.9547362173999999,-2.5316063108,186
61974,146689,183685,9.6562356023,-0.9714859755999999,-2.4550359876,187
61979,146680,183668,9.8010013696,-1.0947163395,-2.4622144554,188
61968,146675,183668,9.8010013696,-0.9714859755999999,-2.2983061073,189
61842,146615,183620,9.700502820399999,-0.9523433948,-2.4957139718,190
61712,146544,183590,9.8931250397,-0.9355936366,-2.5268206656,191
61619,146496,183587,9.7818587888,-0.95712904,-2.5363919559999997,192
61602,146557,183568,9.8057870148,-0.8398807326,-2.5555345367999998,193
61624,146509,183568,9.7974121357,-0.933200814,-2.4598216327999998,194
61659,146508,183630,9.869196813699999,-1.0468598875,-2.4837498588,195
61708,146551,183644,9.8368937086,-0.9631110964999999,-2.452643165,196
61705,146576,183701,9.7435736272,-0.8925228298,-2.5339991334,197
61800,146584,183651,9.762716208,-0.8195417405,-2.6404797391000003,198
61746,146558,183652,9.767501853199999,-0.8147560952999999,-2.5974089322999996,199
61736,146592,183625,9.990034354999999,-0.8446663778000001,-2.5172493752,200
61758,146603,183691,9.6586284249,-1.0372885971,-2.5196421978,201
61765,146580,183666,9.741180804599999,-0.7992027483999999,-2.4598216327999998,202
61787,146613,183680,9.6370930215,-0.95712904,-2.5076780847999998,203
61817,146563,183668,9.822536773,-0.9044869428,-2.440679052,204
61822,146620,183667,9.808179837399999,-0.8626125473,-2.4753749797,205
61832,146653,183662,9.8189475391,-0.9738787981999999,-2.51246373,206
61840,146631,183728,9.7818587888,-0.9439685157,-2.5782663514999995,207
61902,146656,183653,9.932606612599999,-0.9882357338,-2.5411776012,208
61877,146640,183670,9.8069834261,-0.909272588,-2.3724836079,209
61892,146659,183649,9.9003035075,-0.9188438784,-2.5639094158999995,210
61880,146628,183645,9.906285564,-0.9391828704999999,-2.4813570362,211
61794,146595,183658,9.7076812882,-0.789631458,-2.4179472373,212
61657,146543,183589,9.8620183459,-1.0193424276,-2.5172493752,213
61487,146507,183572,9.8596255233,-0.8781658942,-2.4119651808,214
61530,146476,183612,9.7722874984,-0.873380249,-2.4598216327999998,215
61530,146478,183631,9.6861458848,-0.8997012976000001,-2.4933211492,216
61496,146501,183630,9.9469635482,-0.9128618219,-2.548356069,217
61624,146529,183652,9.878768104099999,-0.9978070242,-2.3365912689,218
61663,146546,183658,9.8356972973,-0.9343972253,-2.3988046565,219
61670,146570,183660,10.060622621699999,-0.9499505722,-2.5627130046,220
61687,146567,183649,9.69093153,-0.9284151688,-2.4741785684,221
61691,146558,183667,9.808179837399999,-1.0671988796,-2.4358934068,222
61673,146601,183697,9.8021977809,-0.9535398061,-2.4239292938,223
61697,146564,183694,9.7232346351,-0.8913264185,-2.5040888509,224
61705,146582,183660,9.750752095,-0.9499505722,-2.4933211492,225
61736,146648,183720,9.964909717700001,-0.8697910151,-2.4203400599,226
61743,146594,183700,9.7567341515,-0.9355936366,-2.4717857458,227
61761,146623,183689,9.8428757651,-0.9511469834999999,-2.5076780847999998,228
61727,146635,183723,9.7698946758,-0.8781658942,-2.4861426814,229
61794,146631,183675,9.799804958300001,-0.9475577495999999,-2.4813570362,230
61803,146626,183692,9.7842516114,-0.8937192411,-2.4418754632999997,231
61811,146631,183677,9.7591269741,-0.945164927,-2.4131615921,232
61826,146639,183717,9.9266245561,-0.945164927,-2.5304098995,233
61875,146663,183689,9.8033941922,-1.0707881135,-2.4203400599,234
61832,146622,183665,9.808179837399999,-0.9583254512999999,-2.5244278430000002,235
61829,146663,183688,9.7531449176,-1.0995019847,-2.452643165,236
61781,146615,183642,9.8751788702,-0.9260223462,-2.5782663514999995,237
61651,146540,183668,9.7591269741,-0.9607182739,-2.4789642136,238
61529,146487,183584,9.8608219346,-0.8303094421999999,-2.4131615921,239
61477,146464,183570,9.8416793538,-1.0313065406,-2.4418754632999997,240
61476,146471,183625,9.8093762487,-0.9116654106,-2.6237299809,241
61493,146498,183606,9.8955178623,-0.9463613382999999,-2.4574288102,242
61549,146506,183630,9.8416793538,-0.9559326287,-2.464607278,243
61589,146549,183653,9.7663054419,-0.9343972253,-2.3820548983,244
61620,146546,183647,9.7663054419,-0.95712904,-2.4741785684,245
61625,146552,183666,9.726823869,-0.9858429111999999,-2.4598216327999998,246
61618,146532,183683,9.750752095,-0.8315058535,-2.4741785684,247
61629,146554,183654,9.6646104814,-1.004985492,-2.5411776012,248
61623,146571,183664,9.7758767323,-0.9176474671,-2.4346969955,249
61586,146583,183680,9.7663054419,-0.9798608547,-2.4478575198,250
61658,146565,183648,9.700502820399999,-0.9738787981999999,-2.5220350203999997,251
61682,146558,183682,9.865607579799999,-0.8518448456000001,-2.5220350203999997,252
61689,146590,183719,9.799804958300001,-0.8781658942,-2.5411776012,253
61696,146569,183721,9.9074819753,-0.8901300072,-2.4574288102,254
61714,146586,183684,9.7567341515,-0.9427721043999999,-2.5268206656,255
61708,146609,183707,9.786644434,-0.8817551281,-2.5112673187,256
61723,146614,183685,9.6634140701,-1.0193424276,-2.5100709074,257
61739,146612,183704,9.799804958300001,-0.9846464999,-2.3581266723,258
61737,146656,183673,9.8763752815,-0.9427721043999999,-2.4299113503,259
61717,146586,183614,9.7890372566,-1.0253244841,-2.5076780847999998,260
61605,146563,183648,9.7938229018,-0.8638089586000001,-2.4717857458,261
61377,146475,183633,9.7830552001,-0.8937192411,-2.4909283265999997,262
61407,146430,183580,9.834500886,-1.0731809361,-2.5459632464,263
61413,146424,183645,9.745966449800001,-0.8554340795,-2.4741785684,264
61407,146423,183658,9.7244310464,-0.8865407733,-2.3844477209,265
61478,146465,183650,9.8045906035,-0.9236295236,-2.4789642136,266
61488,146507,183652,9.7794659662,-0.9523433948,-2.4323041729,267
61519,146484,183653,9.7698946758,-0.969093153,-2.4011974791,268
61527,146518,183669,9.7818587888,-1.0456634762,-2.4693929232,269
61532,146562,183684,9.8859465719,-0.9224331123,-2.3988046565,270
61536,146506,183678,9.8165547165,-0.921236701,-2.4813570362,271
61527,146529,183654,9.7902336679,-0.8997012976000001,-2.5866412306,272
61539,146575,183657,9.6921279413,-0.9966106129000001,-2.5052852621999997,273
61573,146545,183726,9.839286531199999,-0.945164927,-2.4011974791,274
61566,146541,183674,9.786644434,-0.9188438784,-2.3629123174999997,275
61583,146572,183684,9.852447055499999,-0.9978070242,-2.5244278430000002,276
61617,146579,183706,9.9026963301,-0.9834500885999999,-2.4203400599,277
61627,146562,183710,9.6837530622,-0.9056833541,-2.5387847786,278
61637,146581,183689,9.8273224182,-0.8159525066,-2.5531417142,279
61656,146586,183748,9.799804958300001,-0.8075776275,-2.4693929232,280
61656,146577,183729,9.678967417,-0.9403792818,-2.4299113503,281
61676,146606,183670,9.858429112,-1.0085747259,-2.4981067944,282
61691,146582,183675,9.762716208,-0.8638089586000001,-2.4023938904,283
61698,146610,183707,9.839286531199999,-1.028913718,-2.5136601413,284
61677,146589,183675,9.7890372566,-0.9738787981999999,-2.4227328825,285
61529,146517,183673,9.7686982645,-0.7932206919,-2.4957139718,286
61437,146419,183570,9.7351987481,-1.0384850084,-2.5160529638999996,287
61260,146441,183575,9.8237331843,-0.9116654106,-2.4981067944,288
61325,146412,183603,9.7710910871,-0.9655039191,-2.5172493752,289
61315,146426,183607,9.7603233854,-0.9595218625999999,-2.4502503424,290
61364,146448,183640,9.6801638283,-1.0707881135,-2.3772692530999997,291
61403,146481,183638,10.0091769358,-0.9714859755999999,-2.5100709074,292
61447,146484,183645,9.8428757651,-0.8410771438999999,-2.3952154226,293
61469,146509,183661,9.8261260069,-1.0073783146,-2.4741785684,294
61471,146510,183722,9.909874797899999,-0.945164927,-2.5172493752,295
61475,146476,183690,9.7806623775,-0.9475577495999999,-2.5148565526000004,296
61465,146492,183696,9.8189475391,-0.9966106129000001,-2.4000010678,297
61489,146506,183715,9.7136633447,-0.9978070242,-2.4418754632999997,298
61540,146503,183705,9.7758767323,-0.9702895642999999,-2.5100709074,299
61517,146519,183722,9.7962157244,-0.8362914987,-2.4993032057,300
61518,146536,183734,9.7794659662,-0.7633104094,-2.5674986498,301
61538,146484,183703,9.8835537493,-0.9918249677,-2.4514467537,302
61473,146553,183686,9.8093762487,-0.9152546444999999,-2.51246373,303
61562,146527,183694,9.710074110799999,-0.9798608547,-2.5339991334,304
61580,146546,183694,9.7124669334,-0.9595218625999999,-2.4155544147,305
61508,146590,183682,9.7363951594,-0.945164927,-2.4861426814,306
61593,146562,183702,9.7686982645,-0.7609175868,-2.4179472373,307
61591,146552,183705,9.8416793538,-1.0253244841,-2.4837498588,308
61554,146518,183669,9.6574320136,-0.9140582332,-2.428714939,309
61426,146488,183655,9.8189475391,-1.0588240005,-2.4861426814,310
61187,146399,183652,9.7842516114,-0.9008977089,-2.5196421978,311
61241,146391,183667,9.7734839097,-0.8650053699,-2.4478575198,312
61233,146373,183614,9.7926264905,-0.9714859755999999,-2.5531417142,313
61199,146373,183634,9.6705925379,-0.8243273857,-2.3676979627,314
61328,146395,183727,9.9876415324,-0.9667003303999999,-2.5244278430000002,315
61339,146446,183627,9.799804958300001,-0.9882357338,-2.5435704238000003,316
61350,146455,183716,9.9134640318,-0.9667003303999999,-2.4813570362,317
61353,146450,183699,9.822536773,-0.9607182739,-2.4861426814,318
61351,146469,183679,9.7890372566,-0.8997012976000001,-2.5184457865,319
61366,146445,183705,9.7555377402,-0.9487541609,-2.5351955446999996,320
61356,146443,183667,9.8715896363,-0.9523433948,-2.4335005842,321
61367,146458,183740,9.7890372566,-1.0157531937,-2.5507488916,322
61332,146476,183715,9.6981099978,-1.0947163395,-2.4693929232,323
61412,146466,183696,9.8201439504,-0.9834500885999999,-2.4741785684,324
61409,146491,183725,9.7292166916,-1.0935199281999999,-2.4490539311,325
61413,146499,183730,9.7220382238,-0.9367900479,-2.4083759468999997,326
61450,146503,183751,9.6526463684,-0.741775006,-2.5172493752,327
61453,146489,183718,9.8045906035,-0.969093153,-2.4394826406999996,328
61460,146506,183737,9.812965482600001,-0.9080761767,-2.4729821571,329
61435,146508,183726,9.661021247499999,-0.9379864592,-2.5088744961000002,330
61480,146504,183712,9.8177511278,-1.0121639598,-2.5531417142,331
61483,146508,183756,9.8297152408,-0.9523433948,-2.4574288102,332
61490,146503,183714,9.750752095,-1.0061819033000001,-2.4861426814,333
61495,146520,183670,9.7974121357,-0.9906285563999999,-2.4741785684,334
61328,146474,183681,9.7124669334,-1.0253244841,-2.500499617,335
61288,146410,183654,9.9050891527,-0.9966106129000001,-2.5639094158999995,336
61182,146338,183665,9.726823869,-0.8506484343,-2.4933211492,337
61055,146328,183640,9.8141618939,-0.9080761767,-2.4993032057,338
61148,146341,183649,9.7782695549,-0.8602197247000001,-2.464607278,339
61171,146393,183655,9.7064848769,-0.8877371846000001,-2.3437697367,340
61223,146381,183702,9.7399843933,-0.9343972253,-2.4981067944,341
61265,146395,183707,9.7483592724,-0.8997012976000001,-2.4502503424,342
61298,146426,183725,9.7722874984,-1.0384850084,-2.5292134882000004,343
61320,146415,183694,9.7842516114,-0.8638089586000001,-2.6129622792,344
61303,146419,183740,9.7890372566,-1.0097711372,-2.5208386090999997,345
61288,146406,183709,9.9170532657,-0.9403792818,-2.5674986498,346
61304,146448,183694,9.834500886,-0.9619146851999999,-2.4502503424,347
61282,146431,183760,9.8512506442,-0.9176474671,-2.3629123174999997,348
61331,146447,183774,9.8321080634,-0.9116654106,-2.5076780847999998,349
61364,146461,183730,9.7292166916,-0.9906285563999999,-2.3988046565,350
61375,146459,183744,9.8871429832,-0.8757730716000001,-2.572284295,351
61382,146468,183714,9.7220382238,-0.8937192411,-2.4418754632999997,352
61438,146473,183778,9.6538427797,-0.9547362173999999,-2.3952154226,353
61445,146499,183727,10.0043912906,-1.0109675485,-2.5339991334,354
61431,146477,183756,9.688538707400001,-0.8985048863,-2.4119651808,355
61418,146507,183742,9.9601240725,-0.7764709337,-2.500499617,356
61441,146520,183709,9.9086783866,-1.028913718,-2.5196421978,357
61371,146448,183723,9.6538427797,-0.9607182739,-2.3605194949,358
61223,146270,183686,9.8871429832,-0.8386843212999999,-2.4717857458,359
61043,146352,183680,9.7651090306,-0.9595218625999999,-2.5112673187,360
61068,146307,183664,9.7292166916,-1.0396814197,-2.4574288102,361
61064,146303,183667,9.785448022699999,-0.9858429111999999,-2.4789642136,362
60990,146318,183684,9.7232346351,-1.0612168231,-2.4969103831,363
61142,146382,183698,9.7770731436,-0.9643075078,-2.5148565526000004,364
61182,146394,183722,9.8739824589,-0.909272588,-2.4335005842,365
61196,146418,183766,9.7292166916,-1.0013962581,-2.5507488916,366
61204,146412,183744,9.8500542329,-0.9930213789999999,-2.5100709074,367
61205,146378,183771,9.7244310464,-1.0444670649,-2.4861426814,368
61203,146403,183744,9.7184489899,-0.9248259349,-2.4191436486,369
61227,146397,183794,9.785448022699999,-1.0109675485,-2.3868405435,370
61257,146414,183764,9.7124669334,-0.9248259349,-2.4789642136,371
61248,146417,183778,9.7292166916,-0.9523433948,-2.548356069,372
61259,146430,183768,9.8153583052,-0.9918249677,-2.5555345367999998,373
61277,146439,183799,9.8476614103,-1.0384850084,-2.4693929232,374
61301,146455,183796,9.774680321,-0.8985048863,-2.5064816735,375
61310,146457,183774,9.7196454012,-0.9858429111999999,-2.488535504,376
61323,146533,183804,9.9074819753,-1.0157531937,-2.4813570362,377
61331,146463,183796,9.8297152408,-1.0336993632,-2.5172493752,378
61328,146423,183768,9.7040920543,-0.945164927,-2.428714939,379
61318,146419,183771,9.8668039911,-0.9379864592,-2.4670001006,380
61336,146455,183779,9.8500542329,-1.0947163395,-2.4622144554,381
61348,146444,183766,9.7519485063,-0.9044869428,-2.4921247379,382
61359,146499,183750,9.9254281448,-1.1114660977,-2.4430718746,383
61321,146437,183750,9.7698946758,-0.9774680320999999,-2.4981067944,384
61191,146362,183742,9.7914300792,-1.028913718,-2.464607278,385
61059,146292,183702,9.9409814917,-0.933200814,-2.548356069,386
60998,146289,183709,9.8033941922,-1.088734283,-2.4574288102,387
60990,146289,183725,9.7292166916,-0.9619146851999999,-2.5292134882000004,388
61009,146307,183745,9.6646104814,-0.9320044027,-2.51246373,389
61060,146346,183716,9.786644434,-0.9966106129000001,-2.5411776012,390
61096,146359,183763,9.834500886,-0.9152546444999999,-2.4681965119,391
61173,146377,183785,9.8680004024,-1.0121639598,-2.452643165,392
61146,146371,183791,9.8010013696,-0.9702895642999999,-2.3916261887,393
61162,146355,183814,9.7878408453,-0.9475577495999999,-2.6380869165,394
61161,146417,183790,9.8033941922,-0.8877371846000001,-2.5435704238000003,395
61190,146416,183789,9.8380901199,-0.933200814,-2.4083759468999997,396
61183,146384,183788,9.882357338,-1.0073783146,-2.5208386090999997,397
61201,146418,183852,9.774680321,-1.0193424276,-2.5459632464,398
61222,146392,183803,9.821340361699999,-1.0265208954,-2.5220350203999997,399
61224,146475,183815,9.8715896363,-1.0432706536,-2.5842484079999997,400
61262,146440,183828,9.6849494735,-0.9403792818,-2.5531417142,401
61260,146437,183803,9.6574320136,-1.0899306943,-2.4358934068,402
61274,146437,183811,9.852447055499999,-1.0205388389,-2.5698914723999997,403
61313,146443,183804,9.7256274577,-1.0097711372,-2.4622144554,404
61305,146452,183794,9.878768104099999,-1.0588240005,-2.4729821571,405
61307,146424,183812,9.9074819753,-0.9906285563999999,-2.51246373,406
61244,146415,183756,9.6825566509,-0.8267202082999999,-2.4598216327999998,407
61095,146316,183738,9.7890372566,-1.0719845248,-2.5256242543,408
60991,146277,183772,9.7818587888,-0.9678967417,-2.4729821571,409
60939,146296,183760,9.8404829425,-0.8566304908000001,-2.5866412306,410
60939,146307,183722,9.665806892700001,-0.9152546444999999,-2.3880369548,411
60982,146288,183786,9.7471628611,-0.9762716208,-2.5148565526000004,412
61001,146340,183791,9.857232700700001,-0.8745766603,-2.5316063108,413
61051,146347,183819,9.9170532657,-0.9020941202,-2.4490539311,414
61082,146365,183826,9.8177511278,-1.0432706536,-2.476571391,415
61088,146427,183824,9.7722874984,-0.8410771438999999,-2.5028924396,416
61088,146374,183824,9.667003304,-0.9104689993,-2.440679052,417
61124,146354,183833,9.6825566509,-1.0025926694,-2.5387847786,418
61099,146379,183860,9.7112705221,-0.9164510558,-2.5244278430000002,419
61068,146383,183858,9.811769071299999,-0.9631110964999999,-2.476571391,420
61141,146376,183858,9.774680321,-0.9906285563999999,-2.4861426814,421
61157,146393,183869,9.8775716928,-0.981057266,-2.51246373,422
61172,146420,183852,9.8010013696,-0.9272187574999999,-2.5639094158999995,423
61173,146395,183848,9.7495556837,-0.9403792818,-2.5148565526000004,424
61194,146450,183866,9.7806623775,-1.052841944,-2.5196421978,425
61210,146442,183859,9.6693961266,-1.0157531937,-2.5627130046,426
61213,146440,183820,9.869196813699999,-0.8937192411,-2.4418754632999997,427
61216,146472,183856,9.9888379437,-0.9595218625999999,-2.5627130046,428
61250,146451,183857,9.767501853199999,-0.9535398061,-2.4562323989,429
61233,146443,183851,9.762716208,-1.0360921858,-2.5435704238000003,430
61236,146422,183804,9.667003304,-1.1138589203,-2.5316063108,431
61236,146454,183836,9.589236569499999,-0.9056833541,-2.4466611085,432
61261,146439,183853,9.8177511278,-1.0145567824000001,-2.5244278430000002,433
61178,146385,183804,9.675378183100001,-0.8865407733,-2.3856441322,434
61045,146323,183794,9.8644111685,-0.9678967417,-2.51246373,435
60921,146262,183752,9.8416793538,-0.9954142015999999,-2.4837498588,436
60854,146250,183764,9.857232700700001,-0.9463613382999999,-2.4574288102,437
60836,146235,183761,9.7112705221,-0.9918249677,-2.596212521,438
60845,146233,183797,9.8045906035,-1.004985492,-2.440679052,439
60883,146244,183806,9.7914300792,-1.0504491214,-2.4670001006,440
60923,146293,183811,9.728020280299999,-0.8673981925,-2.4909283265999997,441
60945,146324,183800,9.7292166916,-0.9008977089,-2.4981067944,442
60947,146322,183829,9.7052884656,-0.9643075078,-2.4909283265999997,443
60941,146300,183806,9.7890372566,-0.9978070242,-2.4502503424,444
60940,146326,183857,9.844072176400001,-1.0145567824000001,-2.4011974791,445
60956,146321,183877,9.8045906035,-0.8362914987,-2.4083759468999997,446
60962,146330,183853,9.8333044747,-0.8817551281,-2.4502503424,447
60965,146310,183849,9.878768104099999,-0.8769694829,-2.4693929232,448
60981,146355,183823,9.726823869,-0.8697910151,-2.4442682859,449
60979,146353,183850,9.7651090306,-0.9906285563999999,-2.4263221164,450
60999,146286,183873,9.7782695549,-1.0432706536,-2.5543381254999997,451
61026,146365,183858,9.852447055499999,-0.9355936366,-2.440679052,452
61020,146351,183846,9.8644111685,-1.0444670649,-2.4933211492,453
61017,146321,183845,9.6418786667,-0.9355936366,-2.4981067944,454
61040,146351,183855,9.8273224182,-1.0336993632,-2.5292134882000004,455
61035,146361,183853,9.8201439504,-1.0205388389,-2.5651058272,456
61006,146253,183832,9.81057266,-1.0432706536,-2.4909283265999997,457
60883,146264,183802,9.786644434,-0.9846464999,-2.5339991334,458
60746,146193,183788,9.688538707400001,-1.0863414604,-2.4610180441000002,459
60680,146167,183785,9.7770731436,-0.9954142015999999,-2.5890340532,460
60687,146174,183770,9.7938229018,-0.9523433948,-2.5196421978,461
60708,146180,183786,9.7974121357,-1.0157531937,-2.4741785684,462
60736,146188,183798,9.7256274577,-1.0025926694,-2.4861426814,463
60789,146238,183799,9.8201439504,-0.9224331123,-2.5339991334,464
60808,146266,183846,9.8165547165,-0.8243273857,-2.4107687694999997,465
60852,146275,183843,9.7962157244,-0.9547362173999999,-2.572284295,466
60854,146314,183863,9.8979106849,-0.9834500885999999,-2.5591237707,467
60907,146292,183878,9.8021977809,-0.8374879099999999,-2.5435704238000003,468
60808,146302,183865,9.7363951594,-1.0612168231,-2.4670001006,469
60894,146300,183878,9.844072176400001,-0.9499505722,-2.4705893345,470
60917,146310,183880,9.9050891527,-0.8506484343,-2.4969103831,471
60923,146341,183845,9.8476614103,-1.0683952909,-2.5076780847999998,472
60951,146327,183859,9.745966449800001,-0.9714859755999999,-2.5196421978,473
60969,146342,183848,9.745966449800001,-0.8769694829,-2.5495524802999996,474
60999,146347,183877,9.726823869,-0.8841479507000001,-2.488535504,475
61000,146356,183862,9.870393225,-0.9607182739,-2.4658036893,476
61001,146386,183869,9.8237331843,-0.9595218625999999,-2.4861426814,477
61021,146360,183862,9.869196813699999,-1.0504491214,-2.5938196984,478
61020,146378,183873,9.619146852,-0.945164927,-2.5256242543,479
61032,146351,183866,9.9146604431,-1.052841944,-2.500499617,480
61042,146368,183887,9.6849494735,-1.064806057,-2.548356069,481
61073,146372,183849,9.7519485063,-0.9738787981999999,-2.4550359876,482
61059,146383,183871,9.844072176400001,-1.0600204118,-2.4562323989,483
60963,146371,183844,9.7112705221,-0.9008977089,-2.5471596577,484
60916,146288,183798,9.6275217311,-0.969093153,-2.4969103831,485
60750,146214,183809,9.8021977809,-0.9355936366,-2.5292134882000004,486
60687,146191,183767,9.7722874984,-1.0193424276,-2.5220350203999997,487
60650,146163,183737,9.6538427797,-0.9499505722,-2.5196421978,488
60631,146188,183804,9.7567341515,-1.0145567824000001,-2.5651058272,489
60675,146188,183791,9.8919286284,-0.9858429111999999,-2.5172493752,490
60705,146197,183835,9.9086783866,-1.0265208954,-2.5651058272,491
60747,146265,183813,9.7340023368,-0.9978070242,-2.5531417142,492
60726,146246,183836,9.7950193131,-0.9379864592,-2.4921247379,493
60776,146281,183848,9.9218389109,-0.9308079913999999,-2.4275185276999998,494
60801,146246,183813,9.8560362894,-0.969093153,-2.5531417142,495
60783,146276,183830,9.8356972973,-0.9164510558,-2.4155544147,496
60796,146266,183874,9.741180804599999,-0.9930213789999999,-2.4358934068,497
60805,146236,183849,9.7878408453,-1.0097711372,-2.4598216327999998,498
60826,146286,183838,9.799804958300001,-1.1042876299,-2.5172493752,499
60831,146334,183886,9.7710910871,-0.9762716208,-2.5411776012,500
60846,146311,183870,9.7914300792,-0.8243273857,-2.4837498588,501
60867,146293,183847,9.665806892700001,-0.9559326287,-2.4430718746,502
60881,146285,183851,9.7651090306,-1.0480562988,-2.5028924396,503
60886,146282,183845,9.7184489899,-0.9080761767,-2.5028924396,504
60900,146339,183889,9.8608219346,-0.8518448456000001,-2.3988046565,505
60899,146333,183829,9.857232700700001,-1.0444670649,-2.4311077616,506
60838,146295,183821,9.7663054419,-0.9499505722,-2.4837498588,507
60714,146223,183790,9.7220382238,-0.9786644433999999,-2.5172493752,508
60588,146180,183807,9.688538707400001,-1.0073783146,-2.548356069,509
60526,146150,183759,9.7531449176,-0.9930213789999999,-2.4394826406999996,510
60498,146121,183770,9.7890372566,-1.0097711372,-2.51246373,511
60496,146130,183788,9.762716208,-1.0576275892,-2.4789642136,512
60533,146140,183780,9.8859465719,-1.1964113,-2.4921247379,513
60585,146168,183806,9.7722874984,-0.9188438784,-2.4789642136,514
60594,146241,183801,9.8596255233,-0.9906285563999999,-2.3916261887,515
60642,146176,183822,9.808179837399999,-1.0348957745,-2.4789642136,516
60615,146202,183814,9.8010013696,-1.0097711372,-2.6021945774999997,517
60609,146172,183796,9.865607579799999,-0.9511469834999999,-2.4083759468999997,518
60618,146178,183817,9.8907322171,-1.0827522265,-2.5292134882000004,519
60627,146217,183849,9.6454679006,-0.9846464999,-2.4909283265999997,520
60642,146206,183816,9.631110965,-1.0001998468,-2.4598216327999998,521
60653,146234,183795,9.8165547165,-0.9643075078,-2.4909283265999997,522
60589,146226,183840,9.8261260069,-1.016949605,-2.4562323989,523
60686,146230,183877,9.762716208,-1.1030912186,-2.5256242543,524
60687,146242,183785,9.8739824589,-1.0217352502000001,-2.4837498588,525
60694,146260,183834,9.822536773,-1.0073783146,-2.4538395763,526
60647,146229,183806,9.8476614103,-0.9667003303999999,-2.5555345367999998,527
60711,146222,183828,9.6622176588,-0.9523433948,-2.4191436486,528
60696,146239,183809,9.8237331843,-0.8925228298,-2.4346969955,529
60724,146253,183794,9.7567341515,-1.0336993632,-2.5363919559999997,530
60687,146256,183788,9.8093762487,-0.9308079913999999,-2.4095723582,531
60750,146276,183826,9.7483592724,-1.0217352502000001,-2.5531417142,532
60730,146262,183786,9.8177511278,-0.9990034355,-2.4275185276999998,533
60620,146163,183734,9.7782695549,-0.9188438784,-2.4622144554,534
60475,146123,183655,9.6981099978,-0.969093153,-2.5268206656,535
60405,146083,183720,9.7722874984,-1.0313065406,-2.5411776012,536
60387,146072,183674,9.7208418125,-1.0025926694,-2.4801606249,537
60391,146076,183724,9.7435736272,-1.0576275892,-2.5507488916,538
60418,146078,183715,9.8368937086,-0.8374879099999999,-2.4203400599,539
60471,146138,183742,9.9577312499,-0.9762716208,-2.5579273594000003,540
60512,146141,183750,9.7531449176,-0.9607182739,-2.5914268758000003,541
60505,146130,183749,9.8237331843,-1.040877831,-2.4717857458,542
60516,146164,183760,9.8069834261,-0.9032905315,-2.476571391,543
60512,146216,183773,9.726823869,-0.9930213789999999,-2.572284295,544
60530,146176,183733,9.678967417,-0.9667003303999999,-2.4514467537,545
60544,146164,183748,9.8632147572,-1.004985492,-2.440679052,546
60561,146114,183782,9.878768104099999,-0.9499505722,-2.4957139718,547
60578,146158,183756,9.857232700700001,-0.9056833541,-2.4430718746,548
60598,146221,183768,9.822536773,-1.0576275892,-2.5746771176,549
60664,146183,183752,9.6622176588,-0.95712904,-2.4693929232,550
60626,146232,183763,9.7220382238,-0.9355936366,-2.5674986498,551
60640,146231,183797,9.7363951594,-0.9320044027,-2.4957139718,552
60647,146250,183738,9.8177511278,-0.9523433948,-2.4550359876,553
60670,146252,183795,9.9349994352,-0.9583254512999999,-2.4418754632999997,554
60632,146231,183754,9.9218389109,-1.040877831,-2.5220350203999997,555
60519,146159,183725,9.714859756,-0.9774680320999999,-2.5076780847999998,556
60381,146148,183705,9.8010013696,-0.9762716208,-2.4873390927,557
60335,146059,183671,9.822536773,-0.9930213789999999,-2.5579273594000003,558
60187,146034,183691,9.8069834261,-0.9475577495999999,-2.4670001006,559
60264,146039,183688,9.8093762487,-0.9834500885999999,-2.5220350203999997,560
60300,146060,183686,9.767501853199999,-0.8901300072,-2.5232314317,561
60348,146081,183731,9.8273224182,-0.9870393224999999,-2.5531417142,562
60373,146092,183723,9.7220382238,-0.9224331123,-2.5076780847999998,563
60385,146106,183690,9.9481599595,-1.0432706536,-2.4897319153,564
60407,146141,183705,9.7423772159,-1.0660024683,-2.5387847786,565
60397,146164,183697,9.7531449176,-0.9499505722,-2.4933211492,566
60418,146131,183753,9.7842516114,-0.9786644433999999,-2.5938196984,567
60357,146118,183711,9.785448022699999,-0.9116654106,-2.4442682859,568
60462,146140,183713,9.6765745944,-0.9439685157,-2.5818555854,569
60475,146161,183705,9.7531449176,-0.9415756931,-2.6009981662,570
60505,146218,183737,9.852447055499999,-0.9379864592,-2.4849462701,571
60514,146187,183722,9.7878408453,-0.7872386353999999,-2.4442682859,572
60531,146184,183738,9.7914300792,-0.8841479507000001,-2.5435704238000003,573
60542,146208,183734,9.7603233854,-0.9906285563999999,-2.5268206656,574
60544,146138,183735,9.8010013696,-0.9284151688,-2.4741785684,575
60562,146203,183716,9.6813602396,-0.8458627891,-2.4849462701,576
60564,146183,183723,9.69093153,-1.0025926694,-2.4945175605000003,577
60579,146220,183699,9.7890372566,-0.9152546444999999,-2.4981067944,578
60587,146238,183730,9.7962157244,-0.8554340795,-2.4957139718,579
60613,146211,183740,9.853643466800001,-0.9475577495999999,-2.5651058272,580
60575,146194,183712,9.754341328899999,-0.9463613382999999,-2.4203400599,581
60361,146122,183616,9.7471628611,-0.9786644433999999,-2.4933211492,582
60300,146071,183597,9.812965482600001,-0.9343972253,-2.5363919559999997,583
60237,145999,183608,9.6957171752,-0.9978070242,-2.4203400599,584
60194,145995,183567,9.7603233854,-0.969093153,-2.596212521,585
60184,146010,183572,9.6514499571,-0.9726823869,-2.5651058272,586
60202,146025,183604,9.8057870148,-0.9882357338,-2.5268206656,587
60242,146043,183653,9.7842516114,-1.0145567824000001,-2.4095723582,588
60295,146105,183657,9.714859756,-0.9104689993,-2.5184457865,589
60308,146096,183657,9.738787982,-0.9918249677,-2.4562323989,590
60339,146089,183673,9.7914300792,-1.0085747259,-2.476571391,591
60333,146095,183644,9.7698946758,-0.9176474671,-2.5148565526000004,592
60324,146095,183664,9.7938229018,-0.9535398061,-2.5435704238000003,593
60336,146107,183647,9.8847501606,-0.981057266,-2.4430718746,594
60275,146125,183653,9.7615197967,-0.9798608547,-2.4382862294,595
60374,146128,183668,9.744770038499999,-0.945164927,-2.4466611085,596
60383,146127,183638,9.9038927414,-0.8865407733,-2.4323041729,597
60400,146123,183684,9.700502820399999,-1.0336993632,-2.5100709074,598
60408,146198,183647,9.6526463684,-0.9894321450999999,-2.5220350203999997,599
60442,146178,183663,9.8309116521,-1.064806057,-2.5507488916,600
60432,146183,183639,9.7770731436,-1.0265208954,-2.5459632464,601
60435,146157,183629,9.7974121357,-0.9535398061,-2.4610180441000002,602
60440,146124,183655,9.834500886,-0.9224331123,-2.4323041729,603
60382,146128,183601,9.7758767323,-0.849452023,-2.5172493752,604
60254,146056,183563,9.7340023368,-0.9236295236,-2.4909283265999997,605
60083,146008,183538,9.629914553699999,-0.9631110964999999,-2.3964118339,606
60061,145999,183502,9.7663054419,-0.9882357338,-2.4789642136,607
60052,145954,183504,9.7076812882,-0.7692924659,-2.6225335696,608
60089,145987,183507,9.6514499571,-1.1545369045,-2.3593230836,609
60137,146027,183554,9.8141618939,-1.0384850084,-2.5112673187,610
60186,146042,183539,9.6634140701,-0.9008977089,-2.4131615921,611
60215,146067,183536,9.9014999188,-0.9152546444999999,-2.4741785684,612
60242,146052,183553,9.7340023368,-0.9248259349,-2.5555345367999998,613
60209,146060,183575,9.6681997153,-1.0097711372,-2.5459632464,614
60225,146068,183558,9.8237331843,-0.9714859755999999,-2.4466611085,615
60233,146054,183542,9.7040920543,-1.0636096457,-2.5339991334,616
60173,146075,183520,9.8356972973,-0.8410771438999999,-2.596212521,617
60246,146072,183580,9.738787982,-0.7968099258,-2.5411776012,618
60267,146073,183514,9.798608546999999,-0.8901300072,-2.5363919559999997,619
60279,146106,183573,9.865607579799999,-0.7920242806,-2.5794627628,620
60305,146024,183536,9.852447055499999,-0.8949156524,-2.6464617955999996,621
60324,146092,183521,9.7794659662,-0.9631110964999999,-2.6225335696,622
60319,146105,183514,9.8153583052,-0.8171489179,-2.6344976826,623
60344,146124,183529,9.8416793538,-0.8362914987,-2.5674986498,624
60367,146127,183558,9.7124669334,-0.9894321450999999,-2.4681965119,625
60380,146117,183542,9.6993064091,-0.7788637562999999,-2.5842484079999997,626
60410,146145,183530,9.839286531199999,-1.0121639598,-2.5447668351,627
60422,146163,183549,9.7615197967,-0.8817551281,-2.5674986498,628
60457,146162,183511,9.7076812882,-0.8949156524,-2.6464617955999996,629
60444,146123,183508,9.714859756,-0.9308079913999999,-2.5698914723999997,630
60306,146092,183458,9.7340023368,-0.8458627891,-2.5591237707,631
60174,146024,183444,9.6765745944,-0.9068797654,-2.5399811898999998,632
60100,145976,183415,9.6957171752,-0.9643075078,-2.5674986498,633
60081,145982,183398,9.69093153,-0.9559326287,-2.608176634,634
60087,145992,183426,9.7292166916,-0.8709874264,-2.6033909887999998,635
60110,145994,183419,9.6406822554,-0.8386843212999999,-2.5555345367999998,636
60173,146015,183446,9.774680321,-0.9499505722,-2.5328027221,637
60219,146040,183441,9.7603233854,-0.9655039191,-2.6321048599999997,638
60236,146066,183487,9.8057870148,-0.8350950873999999,-2.5531417142,639
60243,146070,183497,9.7890372566,-0.8662017812,-2.6608187311999996,640
60235,146069,183464,9.7818587888,-0.8685946038000001,-2.5639094158999995,641
60251,146112,183419,9.750752095,-0.9463613382999999,-2.5256242543,642
60265,146099,183427,9.8356972973,-0.8063812161999999,-2.5842484079999997,643
60286,146102,183462,9.674181771799999,-0.9260223462,-2.6273192148,644
60324,146152,183479,9.7363951594,-0.8925228298,-2.5543381254999997,645
60345,146131,183483,9.8380901199,-0.933200814,-2.6225335696,646
60393,146133,183485,9.6897351187,-0.8111668613999999,-2.5627130046,647
60395,146148,183489,9.7220382238,-0.9272187574999999,-2.6368905052,648
60371,146150,183463,9.7651090306,-0.9439685157,-2.608176634,649
60470,146175,183463,9.8045906035,-0.921236701,-2.4969103831,650
60434,146189,183480,9.8189475391,-0.9547362173999999,-2.6703900216,651
60420,146168,183444,9.6514499571,-0.8817551281,-2.5746771176,652
60306,146109,183410,9.7531449176,-0.9882357338,-2.6548366747000003,653
60160,146019,183375,9.878768104099999,-0.945164927,-2.6368905052,654
60071,146016,183349,9.8416793538,-0.9248259349,-2.6751756668,655
60045,146005,183345,9.8380901199,-0.8697910151,-2.620140747,656
60070,146008,183357,9.6394858441,-0.933200814,-2.5447668351,657
60075,146015,183381,9.7830552001,-0.8386843212999999,-2.6177479243999997,658
60137,146019,183410,9.7399843933,-0.7980063370999999,-2.4634108667000003,659
60181,146092,183389,9.9146604431,-0.8135596839999999,-2.4753749797,660
60201,146065,183447,9.6586284249,-0.8817551281,-2.5208386090999997,661
60206,146039,183407,9.8739824589,-0.8003991597,-2.620140747,662
60208,146073,183396,9.8596255233,-0.8446663778000001,-2.572284295,663
60229,146066,183413,9.767501853199999,-0.9284151688,-2.6656043763999997,664
60247,146096,183367,9.8739824589,-1.0061819033000001,-2.620140747,665
60272,146104,183398,9.7698946758,-0.9403792818,-2.6237299809,666
60206,146127,183433,9.8309116521,-0.909272588,-2.5423740125,667
60307,146115,183417,9.7292166916,-0.7788637562999999,-2.5447668351,668
60328,146121,183387,9.6143612068,-0.9523433948,-2.5914268758000003,669
60359,146127,183436,9.7878408453,-0.933200814,-2.5112673187,670
60378,146136,183424,9.8811609267,-0.8781658942,-2.6165515131,671
60376,146177,183379,9.726823869,-1.0109675485,-2.6416761504,672
60382,146134,183428,9.8907322171,-0.7836494015,-2.6177479243999997,673
60390,146182,183412,9.9290173787,-0.8207381518,-2.6057838114000003,674
60428,146169,183432,9.535398061,-0.8997012976000001,-2.4083759468999997,675
60409,146159,183413,9.7603233854,-0.9320044027,-2.5746771176,676
60426,146168,183388,9.7962157244,-0.9667003303999999,-2.6739792555000004,677
60453,146184,183379,9.8321080634,-0.9164510558,-2.5292134882000004,678
60464,146173,183348,10.0079805245,-1.0600204118,-2.5974089322999996,679
60417,146164,183348,9.6143612068,-0.9427721043999999,-2.6237299809,680
60257,146106,183274,9.6287181424,-0.9774680320999999,-2.6009981662,681
60148,146019,183239,9.7112705221,-0.9355936366,-2.6105694566,682
60036,145996,183237,9.7603233854,-1.0348957745,-2.5064816735,683
60009,145986,183225,9.8380901199,-0.95712904,-2.5160529638999996,684
60018,145991,183244,9.6119683842,-0.9714859755999999,-2.5519453029,685
60060,145992,183261,9.7902336679,-0.9930213789999999,-2.5890340532,686
60095,146011,183272,9.8368937086,-1.0791629926,-2.4789642136,687
60131,146022,183298,9.857232700700001,-0.9631110964999999,-2.5088744961000002,688
60155,146068,183274,9.7938229018,-0.8769694829,-2.6057838114000003,689
60156,146062,183250,9.808179837399999,-0.9355936366,-2.5938196984,690
60151,146058,183307,9.8991070962,-0.933200814,-2.5495524802999996,691
60156,146093,183330,9.7172525786,-0.9068797654,-2.4610180441000002,692
60170,146052,183290,9.8309116521,-0.9798608547,-2.5471596577,693
60183,146062,183297,9.7052884656,-0.9499505722,-2.5507488916,694
60189,146071,183258,9.678967417,-0.8219345630999999,-2.5794627628,695
60196,146139,183288,9.865607579799999,-0.9942177902999999,-2.6524438520999998,696
60261,146090,183281,9.8297152408,-0.9116654106,-2.5196421978,697
60215,146122,183279,9.6813602396,-1.0109675485,-2.4394826406999996,698
60248,146128,183287,9.81057266,-0.9164510558,-2.5411776012,699
60251,146099,183286,9.7196454012,-0.8745766603,-2.4921247379,700
60251,146117,183290,9.7914300792,-0.8949156524,-2.6177479243999997,701
60254,146111,183268,9.8201439504,-0.9343972253,-2.4921247379,702
60209,146077,183261,9.9218389109,-0.8841479507000001,-2.4693929232,703
60092,146022,183200,9.6574320136,-0.7477570625,-2.4897319153,704
59976,145962,183172,9.8548398781,-1.0683952909,-2.4705893345,705
59910,145947,183151,9.8177511278,-1.0025926694,-2.5674986498,706
59915,145950,183138,9.745966449800001,-0.9858429111999999,-2.6344976826,707
59913,145977,183124,9.7770731436,-0.8291130308999999,-2.4909283265999997,708
59967,145972,183201,9.726823869,-0.7836494015,-2.6033909887999998,709
60003,145986,183191,9.8153583052,-0.885344362,-2.5698914723999997,710
60039,146005,183163,9.7375915707,-0.7022934331,-2.6009981662,711
60045,146028,183186,9.757930562799999,-0.8183453291999999,-2.667997199,712
60068,146004,183150,9.7076812882,-0.9188438784,-2.6799613119999997,713
60070,145969,183163,9.6586284249,-0.8829515394,-2.5232314317,714
60105,146037,183150,9.7040920543,-0.7453642399,-2.5555345367999998,715
60141,146050,183205,9.6119683842,-0.8925228298,-2.6344976826,716
60166,146070,183181,9.7316095142,-0.8925228298,-2.5507488916,717
60192,146128,183191,9.7639126193,-0.7549355303,-2.5363919559999997,718
60236,146114,183198,9.7734839097,-0.9284151688,-2.6033909887999998,719
60269,146086,183202,9.6837530622,-0.8578269021,-2.6153551018,720
60282,146118,183188,9.7794659662,-0.8267202082999999,-2.6703900216,721
60312,146133,183196,9.661021247499999,-0.8590233134,-2.6751756668,722
60329,146172,183166,9.8356972973,-0.9308079913999999,-2.644068973,723
60339,146137,183202,9.8321080634,-0.9020941202,-2.5375883673,724
60361,146153,183179,9.8799645154,-0.8877371846000001,-2.6249263922,725
60406,146161,183184,9.786644434,-0.9930213789999999,-2.656033086,726
60272,146177,183211,9.5677011661,-0.9260223462,-2.6488546182,727
60401,146191,183187,9.6933243526,-0.8949156524,-2.6297120374,728
60402,146155,183202,9.8057870148,-0.7585247642,-2.5902304645,729
60327,146132,183149,9.7806623775,-0.8590233134,-2.5531417142,730
60164,146064,183062,9.7710910871,-0.8195417405,-2.7086751831999996,731
60035,145995,183018,9.6717889492,-0.8374879099999999,-2.7026931267000003,732
59989,145965,183049,9.7974121357,-0.8685946038000001,-2.6344976826,733
59973,145952,183020,9.674181771799999,-0.8985048863,-2.6297120374,734
59974,145976,183066,9.5437729401,-0.8638089586000001,-2.5830519966999996,735
60005,146019,183089,9.8010013696,-0.9164510558,-2.6656043763999997,736
60063,146031,183101,9.7710910871,-0.8829515394,-2.6033909887999998,737
60122,146060,183059,9.732805925500001,-0.8673981925,-2.5770699402,738
60113,146058,183115,9.598807859899999,-0.9068797654,-2.548356069,739
60129,146048,183087,9.7615197967,-0.9619146851999999,-2.6225335696,740
60138,146066,183098,9.7316095142,-0.8590233134,-2.5591237707,741
60145,146081,183142,9.785448022699999,-0.873380249,-2.5363919559999997,742
60151,146100,183163,9.8033941922,-0.9308079913999999,-2.6285156261,743
60187,146104,183104,9.821340361699999,-0.8590233134,-2.6691936103000002,744
60207,146182,183094,9.8488578216,-0.8757730716000001,-2.6033909887999998,745
60274,146124,183120,9.7052884656,-0.7836494015,-2.6333012713,746
60235,146120,183117,9.750752095,-0.8781658942,-2.6644079651,747
60259,146120,183130,9.7818587888,-0.9236295236,-2.5938196984,748
60283,146153,183089,9.8010013696,-0.7920242806,-2.620140747,749
60294,146178,183122,9.6705925379,-0.9822536772999999,-2.6799613119999997,750
60307,146170,183129,9.869196813699999,-0.7716852885,-2.6117658679000004,751
60303,146167,183105,9.786644434,-0.9822536772999999,-2.5914268758000003,752
60189,146093,183056,9.7040920543,-0.8602197247000001,-2.5758735289,753
60034,146032,183021,9.750752095,-0.7190431913,-2.656033086,754
59959,145994,183000,9.6933243526,-0.9918249677,-2.6656043763999997,755
59939,145987,182990,9.8093762487,-0.9355936366,-2.5567309481,756
59935,146007,183029,9.7483592724,-0.8386843212999999,-2.6835505459,757
59964,146011,183028,9.81057266,-0.9667003303999999,-2.620140747,758
59995,146022,183042,9.8273224182,-0.9427721043999999,-2.6356940939,759
60051,146054,183066,9.7830552001,-0.9367900479,-2.5100709074,760
60074,146078,183059,9.9014999188,-0.8195417405,-2.5304098995,761
60083,146057,183070,9.8045906035,-0.933200814,-2.6476582069,762
60075,146112,183054,9.688538707400001,-0.921236701,-2.5244278430000002,763
60094,146086,183126,9.8859465719,-0.8673981925,-2.6488546182,764
60106,146127,183046,9.7962157244,-0.909272588,-2.5890340532,765
60128,146098,183100,9.7304131029,-0.8925228298,-2.6632115538,766
60156,146080,183108,9.7555377402,-0.9882357338,-2.5674986498,767
60178,146127,183127,9.8488578216,-0.8482556117000001,-2.5938196984,768
60190,146112,183091,9.7914300792,-1.0540383553,-2.5172493752,769
60236,146138,183137,9.7531449176,-0.8386843212999999,-2.5914268758000003,770
60213,146128,183086,9.757930562799999,-0.8626125473,-2.4753749797,771
60198,146121,183117,9.7758767323,-0.9056833541,-2.5842484079999997,772
60237,146149,183057,9.812965482600001,-1.0025926694,-2.5136601413,773
60232,146136,183084,9.808179837399999,-0.9068797654,-2.5914268758000003,774
60239,146144,183074,9.7172525786,-0.8745766603,-2.5770699402,775
60240,146053,183059,9.6478607232,-0.9020941202,-2.5316063108,776
60247,146143,183057,9.8177511278,-0.873380249,-2.5818555854,777
60266,146151,183031,9.7651090306,-0.9391828704999999,-2.6033909887999998,778
60250,146146,183045,9.7734839097,-0.9379864592,-2.4358934068,779
60140,146015,182989,9.7435736272,-1.0109675485,-2.4897319153,780
59976,146000,182992,9.7555377402,-0.981057266,-2.6297120374,781
59854,145994,182882,9.8201439504,-0.933200814,-2.6285156261,782
59815,145919,182954,9.8620183459,-1.0731809361,-2.5172493752,783
59814,145919,182945,9.6107719729,-0.9152546444999999,-2.6009981662,784
59840,145916,182974,9.869196813699999,-0.9008977089,-2.4670001006,785
59904,145970,182970,9.7435736272,-1.0636096457,-2.5136601413,786
59968,145959,182973,9.7172525786,-0.7489534738,-2.5914268758000003,787
59960,146031,182997,9.8033941922,-0.8171489179,-2.6404797391000003,788
59962,145995,182993,9.757930562799999,-0.897308475,-2.5088744961000002,789
59961,145994,182975,9.7340023368,-0.9188438784,-2.5902304645,790
59943,146010,182986,9.8811609267,-0.8422735552,-2.6033909887999998,791
59949,146020,182990,9.7794659662,-0.8135596839999999,-2.608176634,792
59972,146032,183013,9.7172525786,-0.921236701,-2.596212521,793
59972,146038,182951,9.6861458848,-0.801595571,-2.4670001006,794
60033,146024,182978,9.8404829425,-0.7214360139,-2.5998017549,795
60050,146047,182983,9.702895643,-0.8709874264,-2.5016960283,796
60042,146058,182960,9.6634140701,-0.7645068207,-2.6512474407999997,797
60067,146080,183002,9.8991070962,-0.7501498851,-2.6165515131,798
60099,146063,182977,9.7770731436,-0.8374879099999999,-2.5663022385,799
60113,146094,182983,9.7722874984,-0.8793623055,-2.6117658679000004,800
60122,146145,183003,9.8644111685,-0.8817551281,-2.6584259086,801
60071,146026,182942,9.8297152408,-0.8231309743999999,-2.6368905052,802
59915,145988,182917,9.906285564,-0.8650053699,-2.703889538,803
59850,145939,182901,9.7340023368,-0.7334001269,-2.6249263922,804
59829,145942,182935,9.6358966102,-0.8638089586000001,-2.6273192148,805
59833,145956,182938,9.7615197967,-0.7932206919,-2.667997199,806
59867,145976,182922,9.7244310464,-0.8207381518,-2.6871397798,807
59930,145987,182951,9.8416793538,-0.789631458,-2.6799613119999997,808
59987,146030,182990,9.745966449800001,-0.921236701,-2.6943182475999996,809
60022,146035,182989,9.932606612599999,-0.9260223462,-2.691925425,810
60031,146051,183004,9.741180804599999,-0.8697910151,-2.6512474407999997,811
60042,146077,182995,9.631110965,-0.8327022648,-2.5974089322999996,812
60057,146072,182993,9.710074110799999,-0.8422735552,-2.6392833278,813
60082,146061,183032,9.6945207639,-0.8171489179,-2.6189443356999997,814
60126,146081,183032,9.7244310464,-0.7704888772,-2.7206392962,815
60154,146117,182999,9.6514499571,-0.8303094421999999,-2.5902304645,816
60156,146121,183034,9.8931250397,-0.9164510558,-2.7278177639999996,817
60212,146127,183050,9.7124669334,-0.8386843212999999,-2.6703900216,818
60199,146157,183035,9.674181771799999,-0.8446663778000001,-2.6225335696,819
60257,146153,183049,9.821340361699999,-0.7932206919,-2.6213371583000002,820
60237,146171,183031,9.8033941922,-0.8877371846000001,-2.6907290137,821
60253,146105,183069,9.6394858441,-0.9020941202,-2.6464617955999996,822
60252,146187,183000,9.8548398781,-1.0372885971,-2.6751756668,823
60283,146170,183058,9.7244310464,-0.8482556117000001,-2.6344976826,824
60297,146207,183062,9.6729853605,-0.9188438784,-2.7505495787000003,825
60291,146144,183034,9.9038927414,-0.9834500885999999,-2.6727828442,826
60171,146123,182972,9.7603233854,-0.8817551281,-2.6608187311999996,827
60001,146047,182942,9.7232346351,-0.8937192411,-2.6273192148,828
59895,145970,182906,9.7950193131,-0.8650053699,-2.6249263922,829
59859,145944,182915,9.8093762487,-0.9595218625999999,-2.5914268758000003,830
59823,145976,182928,9.8333044747,-0.8195417405,-2.6105694566,831
59845,145978,182973,9.7914300792,-0.9595218625999999,-2.6404797391000003,832
59896,145992,183000,9.811769071299999,-1.0109675485,-2.7086751831999996,833
59970,146008,183015,9.7651090306,-0.885344362,-2.6608187311999996,834
59976,146042,183032,9.8715896363,-0.9104689993,-2.5591237707,835
59998,146048,183030,9.5389872949,-0.6807580296999999,-2.5842484079999997,836
59970,146054,183062,9.7088776995,-0.9511469834999999,-2.4993032057,837
59998,146062,183050,9.6993064091,-0.9702895642999999,-2.6273192148,838
60022,146096,183050,9.7363951594,-0.8865407733,-2.5663022385,839
60032,146075,183047,9.6502535458,-0.7728816998,-2.6644079651,840
60040,146093,183069,9.700502820399999,-0.9511469834999999,-2.5842484079999997,841
60081,146086,183088,9.8596255233,-0.8398807326,-2.6177479243999997,842
60078,146080,183061,9.7399843933,-0.9044869428,-2.5555345367999998,843
60091,146073,183089,9.678967417,-0.8877371846000001,-2.4993032057,844
60104,146113,183069,9.8775716928,-0.8506484343,-2.6536402634000003,845
60122,146101,183076,9.7340023368,-0.8889335959,-2.6297120374,846
60129,146089,183058,9.7471628611,-0.849452023,-2.5627130046,847
60113,146121,183051,9.8201439504,-0.921236701,-2.7314069979,848
60064,146028,183047,9.7124669334,-0.8003991597,-2.5328027221,849
59912,145984,182988,9.9529456047,-0.8027919822999999,-2.5818555854,850
59776,145917,182936,9.6837530622,-0.8626125473,-2.5794627628,851
59704,145907,182952,9.8141618939,-0.8901300072,-2.5866412306,852
59672,145901,182928,9.6646104814,-0.8709874264,-2.4622144554,853
59692,145891,182954,9.7471628611,-0.8147560952999999,-2.6596223199,854
59705,145907,183008,9.754341328899999,-0.8865407733,-2.6033909887999998,855
59758,145940,183025,9.7363951594,-0.7668996433,-2.5986053435999996,856
59799,145944,183031,9.7663054419,-0.8829515394,-2.5830519966999996,857
59809,145953,183034,9.700502820399999,-0.9272187574999999,-2.7206392962,858
59811,145970,183056,9.8153583052,-0.8279166196,-2.6703900216,859
59819,145978,183015,9.6287181424,-0.8362914987,-2.6512474407999997,860
59850,145953,183039,9.7734839097,-0.8662017812,-2.6943182475999996,861
59800,145985,183032,9.745966449800001,-0.7692924659,-2.7014967154,862
59930,146012,183060,9.858429112,-0.8877371846000001,-2.6021945774999997,863
59961,146048,183050,9.7531449176,-0.8051848049,-2.6991038927999997,864
60005,146034,183082,9.726823869,-0.8566304908000001,-2.6237299809,865
60092,146054,183082,9.7531449176,-0.8829515394,-2.7134608283999997,866
60060,146095,183102,9.710074110799999,-0.8243273857,-2.6177479243999997,867
60117,146095,183103,9.878768104099999,-0.7094719009,-2.6404797391000003,868
60108,146097,183067,9.7423772159,-0.9391828704999999,-2.5686950610999997,869
60131,146117,183046,9.6227360859,-0.7812565789,-2.6057838114000003,870
60156,146112,183083,9.8680004024,-0.9140582332,-2.6165515131,871
60180,146126,183084,9.6083791503,-0.8303094421999999,-2.5986053435999996,872
60199,146112,183097,9.8476614103,-0.7621139981,-2.6249263922,873
60185,146115,183077,9.7950193131,-0.9116654106,-2.5674986498,874
60051,146067,183053,9.6023970938,-0.789631458,-2.6632115538,875
59902,145997,183008,9.8596255233,-0.9008977089,-2.6608187311999996,876
59822,145989,183019,9.8021977809,-0.9547362173999999,-2.6428725617,877
59777,145947,183007,9.7734839097,-0.8123632727,-2.6895326024,878
59770,145917,183012,9.754341328899999,-0.8997012976000001,-2.6129622792,879
59799,145932,183013,9.7818587888,-0.8099704500999999,-2.6392833278,880
59855,145967,183072,9.821340361699999,-0.7884350467,-2.6165515131,881
59910,146006,183054,9.7722874984,-0.8183453291999999,-2.6344976826,882
59976,146045,183121,9.8955178623,-0.8997012976000001,-2.6045874001,883
59944,146061,183075,9.8763752815,-0.7788637562999999,-2.6943182475999996,884
59964,146059,183104,9.8189475391,-0.9870393224999999,-2.6153551018,885
59969,146025,183101,9.7830552001,-0.8578269021,-2.6751756668,886
60005,146048,183155,9.750752095,-0.873380249,-2.6727828442,887
60034,146062,183120,9.7172525786,-0.933200814,-2.6967110702,888
60061,146071,183168,9.8153583052,-0.9116654106,-2.6261228035000004,889
60093,146097,183145,9.8249295956,-0.9020941202,-2.6823541346,890
60133,146082,183124,9.7172525786,-0.8949156524,-2.7086751831999996,891
60131,146108,183163,9.811769071299999,-0.9140582332,-2.7696921595,892
60157,146127,183148,9.81057266,-0.8506484343,-2.6368905052,893
60187,146121,183129,9.757930562799999,-0.7609175868,-2.6799613119999997,894
60205,146154,183156,9.8644111685,-0.801595571,-2.6297120374,895
60190,146121,183150,9.7316095142,-0.9499505722,-2.6620151425,896
60094,146137,183135,9.6047899164,-0.8590233134,-2.5782663514999995,897
59918,146024,183037,9.678967417,-0.9068797654,-2.7110680058,898
59843,145985,183093,9.702895643,-0.8841479507000001,-2.6644079651,899
59789,145952,183056,9.9469635482,-0.7680960546,-2.620140747,900
59791,145957,183076,9.7663054419,-0.9044869428,-2.7254249414,901
59793,145972,183066,9.7519485063,-0.7453642399,-2.6416761504,902
59846,145981,183101,9.7136633447,-0.9128618219,-2.6321048599999997,903
59909,146033,183139,9.8680004024,-0.9379864592,-2.6428725617,904
59946,146020,183155,9.7435736272,-0.8997012976000001,-2.5471596577,905
59967,146060,183166,9.7710910871,-0.8829515394,-2.644068973,906
59953,146037,183155,9.6717889492,-1.0133603711,-2.5710878837,907
59978,145980,183162,9.8069834261,-0.8578269021,-2.6273192148,908
59976,146045,183150,9.738787982,-0.9966106129000001,-2.5328027221,909
60063,146044,183196,9.8644111685,-0.9284151688,-2.6464617955999996,910
60040,146116,183179,9.8045906035,-0.7740781111,-2.6033909887999998,911
60062,146119,183167,9.745966449800001,-0.8590233134,-2.5866412306,912
60081,146105,183202,9.7842516114,-0.9475577495999999,-2.5040888509,913
60099,146118,183169,9.6969135865,-0.9667003303999999,-2.667997199,914
60107,146106,183188,9.7663054419,-0.8781658942,-2.5830519966999996,915
60111,146109,183187,9.7172525786,-0.8985048863,-2.6009981662,916
60127,146087,183204,9.7794659662,-0.9343972253,-2.667997199,917
60124,146097,183189,9.69093153,-0.8997012976000001,-2.644068973,918
60132,146093,183187,9.7196454012,-0.8267202082999999,-2.5627130046,919
60138,146106,183199,9.9003035075,-0.8374879099999999,-2.608176634,920
60155,146119,183160,9.7639126193,-0.8410771438999999,-2.4681965119,921
60166,146138,183163,9.8620183459,-0.8913264185,-2.5986053435999996,922
60153,146116,183146,9.8416793538,-0.741775006,-2.5890340532,923
60036,146058,183081,9.7483592724,-0.8207381518,-2.5292134882000004,924
59900,145991,183084,9.744770038499999,-0.95712904,-2.6703900216,925
59752,145905,183055,9.8751788702,-0.9475577495999999,-2.6656043763999997,926
59695,145895,183059,9.7710910871,-0.9523433948,-2.6859433685,927
59685,145888,183051,9.7304131029,-0.909272588,-2.5519453029,928
59710,145897,183051,9.8404829425,-1.0001998468,-2.7481567560999998,929
59760,145966,183065,9.7340023368,-0.8303094421999999,-2.5543381254999997,930
59799,145948,183092,9.8859465719,-1.0325029519,-2.5411776012,931
59837,145955,183175,9.8021977809,-0.8913264185,-2.5639094158999995,932
59814,145962,183146,9.7591269741,-0.9403792818,-2.6536402634000003,933
59805,145931,183106,9.7435736272,-0.8291130308999999,-2.5938196984,934
59804,145955,183134,9.7340023368,-0.9511469834999999,-2.5734807063,935
59818,145953,183101,9.6562356023,-0.9355936366,-2.6093730453,936
59862,145963,183134,9.732805925500001,-0.8255237969999999,-2.5639094158999995,937
59878,146017,183135,9.6562356023,-0.8039883936,-2.667997199,938
59882,145983,183193,9.674181771799999,-0.7501498851,-2.6823541346,939
59799,146020,183155,9.7304131029,-0.8542376682,-2.6392833278,940
59935,146036,183161,9.714859756,-0.9547362173999999,-2.620140747,941
59975,146048,183113,9.812965482600001,-0.9391828704999999,-2.6823541346,942
59990,146041,183151,9.7363951594,-0.8673981925,-2.6967110702,943
60013,146032,183146,9.7124669334,-0.8398807326,-2.6356940939,944
60039,146066,183187,9.888339394499999,-0.8961120637,-2.5591237707,945
59971,146076,183125,9.750752095,-0.9236295236,-2.6225335696,946
59840,145969,183090,9.8069834261,-0.8949156524,-2.6787649007,947
59741,145894,183089,9.7363951594,-0.8027919822999999,-2.6488546182,948
59715,145918,183119,9.7244310464,-0.7860422241,-2.6715864329,949
59721,145895,183101,9.7758767323,-0.8195417405,-2.7134608283999997,950
59742,145917,183125,9.8452685877,-0.8769694829,-2.5674986498,951
59787,145934,183171,9.7938229018,-0.9475577495999999,-2.5926232871,952
59851,145991,183214,9.7962157244,-0.8255237969999999,-2.6787649007,953
59884,146006,183213,9.7555377402,-0.8303094421999999,-2.7014967154,954
59904,146014,183211,9.7950193131,-0.8075776275,-2.7014967154,955
59911,146054,183214,9.728020280299999,-0.8865407733,-2.7110680058,956
59978,146018,183228,9.7651090306,-0.8075776275,-2.6356940939,957
59916,146073,183236,9.7974121357,-0.9080761767,-2.6261228035000004,958
59997,146044,183240,9.774680321,-0.8231309743999999,-2.5878376418999998,959
60022,146110,183243,9.7435736272,-0.7800601676,-2.6715864329,960
60049,146090,183243,9.81057266,-0.8350950873999999,-2.5399811898999998,961
60070,146106,183283,9.6825566509,-0.897308475,-2.6273192148,962
60014,146103,183248,9.7962157244,-1.0384850084,-2.6045874001,963
60122,146095,183246,9.8045906035,-0.8159525066,-2.7014967154,964
60142,146139,183288,9.700502820399999,-0.9499505722,-2.6608187311999996,965
60162,146128,183241,9.6861458848,-0.9643075078,-2.7110680058,966
60166,146160,183254,9.750752095,-0.8231309743999999,-2.6033909887999998,967
60174,146120,183274,9.655039191,-0.9164510558,-2.6344976826,968
60196,146163,183270,9.6370930215,-0.933200814,-2.6117658679000004,969
60216,146165,183287,9.8021977809,-0.7968099258,-2.6871397798,970
60223,146181,183252,9.9050891527,-1.0671988796,-2.5615165933,971
60136,146120,183247,9.7615197967,-0.9475577495999999,-2.560320182,972
59971,145997,183208,9.8021977809,-0.8446663778000001,-2.5615165933,973
59847,146003,183164,9.7782695549,-0.8578269021,-2.6380869165,974
59755,145946,183136,9.808179837399999,-1.0372885971,-2.6057838114000003,975
59741,145937,183172,9.6837530622,-0.9475577495999999,-2.6488546182,976
59757,145915,183198,9.7076812882,-0.9260223462,-2.5782663514999995,977
59801,145956,183199,9.7052884656,-0.9774680320999999,-2.6045874001,978
59848,145956,183255,9.7232346351,-0.8422735552,-2.5830519966999996,979
59907,146014,183230,9.8010013696,-0.95712904,-2.6512474407999997,980
59912,146025,183249,9.7196454012,-0.8338986760999999,-2.5184457865,981
59917,145984,183270,9.6490571345,-0.8925228298,-2.5842484079999997,982
59907,146012,183248,9.8644111685,-0.7800601676,-2.5639094158999995,983
59931,146052,183252,9.7842516114,-0.9068797654,-2.5746771176,984
59952,146041,183285,9.8548398781,-0.8458627891,-2.6129622792,985
59976,146022,183315,9.7878408453,-0.933200814,-2.5794627628,986
59993,146073,183290,9.7710910871,-0.8805587168,-2.6105694566,987
60027,146066,183292,9.7555377402,-0.9786644433999999,-2.644068973,988
60015,146061,183297,9.7806623775,-0.945164927,-2.5914268758000003,989
59947,146030,183310,9.6586284249,-0.9020941202,-2.5854448193,990
60060,146041,183300,9.8033941922,-0.8374879099999999,-2.6321048599999997,991
60045,146062,183282,9.878768104099999,-0.8745766603,-2.5914268758000003,992
60072,146077,183266,9.7531449176,-0.9954142015999999,-2.6344976826,993
60043,146077,183306,9.8309116521,-0.8769694829,-2.6009981662,994
59939,146044,183258,9.9122676205,-0.9284151688,-2.5615165933,995
59777,145942,183181,9.869196813699999,-0.9403792818,-2.5938196984,996
59589,145894,183165,9.6227360859,-0.885344362,-2.5375883673,997
59637,145864,183169,9.6490571345,-0.8949156524,-2.691925425,998
59638,145929,183217,9.710074110799999,-0.9355936366,-2.5854448193,999
59642,145853,183176,9.7363951594,-0.9056833541,-2.6057838114000003,1000
59734,145914,183236,9.8093762487,-0.9020941202,-2.5555345367999998,1001
59751,145947,183258,9.7292166916,-0.7944171031999999,-2.5495524802999996,1002
59780,145920,183285,9.7722874984,-0.6448656907,-2.6751756668,1003
59793,145980,183241,9.8273224182,-0.7848458128,-2.6392833278,1004
59820,145968,183258,9.741180804599999,-0.7824529901999999,-2.6979074815,1005
59784,145971,183252,9.7435736272,-0.8087740388,-2.6488546182,1006
59815,145974,183321,9.5700939887,-0.9020941202,-2.608176634,1007
59847,145988,183302,9.7794659662,-0.861416136,-2.6285156261,1008
59878,146031,183307,9.7806623775,-0.7788637562999999,-2.7349962318,1009
59906,146022,183291,9.6634140701,-0.7645068207,-2.5950161097,1010
59950,146048,183311,9.767501853199999,-0.8123632727,-2.6895326024,1011
59978,146035,183302,9.6957171752,-0.8063812161999999,-2.6380869165,1012
60007,146046,183332,9.7651090306,-0.8769694829,-2.5375883673,1013
60053,146094,183291,9.7962157244,-0.7549355303,-2.6297120374,1014
60052,146098,183342,9.8093762487,-0.8075776275,-2.6739792555000004,1015
60025,146083,183330,9.762716208,-0.7812565789,-2.5866412306,1016
60089,146090,183344,9.7818587888,-0.9379864592,-2.6751756668,1017
60126,146136,183345,9.8763752815,-0.7405785947,-2.6428725617,1018
60152,146132,183314,9.8021977809,-0.9020941202,-2.6273192148,1019
60043,146113,183292,9.7375915707,-0.9260223462,-2.5471596577,1020
60046,146042,183297,9.6693961266,-0.7968099258,-2.6416761504,1021
59896,145996,183221,9.8237331843,-0.8003991597,-2.6225335696,1022
59846,145954,183242,9.6837530622,-0.9068797654,-2.6632115538,1023
59707,145920,183267,9.6765745944,-0.8757730716000001,-2.6261228035000004,1024
59740,145941,183250,9.6957171752,-0.8506484343,-2.6285156261,1025
59767,145937,183270,9.7794659662,-0.8123632727,-2.6656043763999997,1026
59817,145957,183318,9.710074110799999,-0.8338986760999999,-2.6189443356999997,1027
59866,145977,183323,9.6586284249,-0.8231309743999999,-2.6189443356999997,1028
59911,146006,183316,9.757930562799999,-0.9355936366,-2.644068973,1029
59935,146042,183321,9.7363951594,-0.9966106129000001,-2.6416761504,1030
59935,146036,183368,9.6897351187,-1.064806057,-2.7385854657,1031
59962,146028,183312,9.702895643,-0.7860422241,-2.6500510295,1032
59989,146048,183342,9.8763752815,-0.8578269021,-2.7026931267000003,1033
60007,146063,183373,9.6143612068,-0.9463613382999999,-2.6069802227000003,1034
60040,146063,183374,9.7340023368,-0.8267202082999999,-2.5184457865,1035
60061,146107,183359,9.8596255233,-0.8626125473,-2.6847469572,1036
60089,146108,183391,9.7363951594,-0.9702895642999999,-2.644068973,1037
60097,146112,183407,9.667003304,-0.873380249,-2.5866412306,1038
60132,146104,183442,9.8751788702,-0.8386843212999999,-2.6751756668,1039
60146,146126,183408,9.7722874984,-0.873380249,-2.7086751831999996,1040
60083,146114,183418,9.7363951594,-0.8506484343,-2.6512474407999997,1041
60175,146117,183377,9.8021977809,-1.0121639598,-2.667997199,1042
60127,146090,183332,9.8500542329,-0.9403792818,-2.6428725617,1043
59965,146034,183317,9.7722874984,-0.9308079913999999,-2.7062823606,1044
59840,145957,183298,9.9696953629,-0.9786644433999999,-2.6656043763999997,1045
59721,145911,183286,9.8069834261,-0.9236295236,-2.6476582069,1046
59773,145918,183315,9.7172525786,-0.8554340795,-2.6309084487,1047
59776,145975,183263,9.714859756,-1.0420742423,-2.6141586905,1048
59854,145988,183319,9.8560362894,-0.9583254512999999,-2.6321048599999997,1049
59862,146016,183339,9.808179837399999,-0.885344362,-2.656033086,1050
59911,145996,183348,9.8548398781,-0.7836494015,-2.5806591741,1051
59905,146011,183366,9.7435736272,-0.8949156524,-2.6584259086,1052
59921,146052,183369,9.7663054419,-0.849452023,-2.5890340532,1053
59912,146029,183400,9.7555377402,-1.052841944,-2.5734807063,1054
59933,146018,183391,9.7316095142,-0.8338986760999999,-2.6321048599999997,1055
59947,146011,183385,9.7651090306,-0.8937192411,-2.5950161097,1056
59957,146037,183405,9.8201439504,-0.8829515394,-2.5938196984,1057
60027,146023,183383,9.7938229018,-0.873380249,-2.5698914723999997,1058
59995,146021,183391,9.7124669334,-0.7932206919,-2.5208386090999997,1059
60020,146046,183416,9.7842516114,-0.8291130308999999,-2.560320182,1060
60021,146074,183380,9.726823869,-1.0265208954,-2.6512474407999997,1061
60029,146106,183436,9.7818587888,-0.9834500885999999,-2.6033909887999998,1062
60037,146070,183424,9.8297152408,-0.8793623055,-2.6512474407999997,1063
60036,146035,183363,9.7375915707,-0.8673981925,-2.5914268758000003,1064
60042,146035,183400,9.808179837399999,-0.981057266,-2.608176634,1065
60053,146041,183350,9.754341328899999,-1.0707881135,-2.6321048599999997,1066
60065,146054,183411,9.7698946758,-0.8422735552,-2.5710878837,1067
60069,146045,183395,9.858429112,-0.9439685157,-2.5471596577,1068
60057,146035,183329,9.6514499571,-0.7956135145,-2.5196421978,1069
59891,145952,183281,9.8093762487,-0.9547362173999999,-2.5710878837,1070
59752,145883,183288,9.7519485063,-0.9020941202,-2.6368905052,1071
59684,145858,183279,9.7232346351,-0.8506484343,-2.5806591741,1072
59684,145853,183279,9.6358966102,-0.8709874264,-2.6344976826,1073
59696,145895,183258,9.7686982645,-0.8159525066,-2.6751756668,1074
59740,145916,183334,9.821340361699999,-0.7585247642,-2.6416761504,1075
59806,145951,183340,9.821340361699999,-0.8662017812,-2.6751756668,1076
59846,145918,183340,9.852447055499999,-0.8446663778000001,-2.7888347403,1077
59858,145958,183354,9.7483592724,-0.8398807326,-2.6297120374,1078
59899,145980,183334,9.6921279413,-0.9116654106,-2.7493531674,1079
59901,146032,183370,9.7435736272,-0.9702895642999999,-2.715853651,1080
59923,145984,183357,9.7698946758,-0.8626125473,-2.6943182475999996,1081
59932,146054,183351,9.7782695549,-0.861416136,-2.7110680058,1082
59985,146015,183400,9.7758767323,-0.7561319416,-2.7278177639999996,1083
60013,146029,183423,9.954142016,-0.8039883936,-2.6093730453,1084
60043,146082,183398,9.8237331843,-0.909272588,-2.6273192148,1085
60066,146065,183414,9.6765745944,-0.8697910151,-2.6033909887999998,1086
60101,146072,183408,9.69093153,-0.8267202082999999,-2.6775684894,1087
60131,146086,183424,9.7794659662,-0.8697910151,-2.7804598612,1088
60140,146060,183358,9.757930562799999,-0.7944171031999999,-2.6871397798,1089
60168,146100,183385,9.785448022699999,-0.8961120637,-2.6943182475999996,1090
60150,146113,183403,9.687342296099999,-0.8554340795,-2.6057838114000003,1091
60025,146034,183357,9.7316095142,-0.9678967417,-2.6057838114000003,1092
59897,145928,183320,9.8404829425,-0.9750752094999999,-2.6799613119999997,1093
59814,145924,183344,9.8045906035,-0.9140582332,-2.6799613119999997,1094
59796,145881,183273,9.870393225,-0.9116654106,-2.6691936103000002,1095
59805,145919,183340,9.6981099978,-0.8709874264,-2.6249263922,1096
59824,145988,183358,9.7878408453,-0.909272588,-2.6991038927999997,1097
59882,145990,183435,9.8404829425,-0.8422735552,-2.6344976826,1098
59941,146019,183426,9.7196454012,-0.7932206919,-2.6656043763999997,1099
59973,146017,183411,9.6861458848,-0.8291130308999999,-2.6117658679000004,1100
59974,146024,183448,9.5868437469,-0.8829515394,-2.6416761504,1101
59971,146030,183414,9.7256274577,-0.9068797654,-2.7086751831999996,1102
59992,146031,183423,9.7794659662,-0.897308475,-2.6009981662,1103
60024,146046,183507,9.678967417,-0.95712904,-2.6775684894,1104
60048,146042,183457,9.8368937086,-0.8063812161999999,-2.6703900216,1105
60069,146064,183423,9.8261260069,-0.9894321450999999,-2.6392833278,1106
60079,146100,183484,9.744770038499999,-0.8434699665000001,-2.75174599,1107
60114,146088,183518,9.661021247499999,-0.8650053699,-2.6033909887999998,1108
60133,146090,183439,9.6921279413,-0.945164927,-2.6392833278,1109
60153,146116,183465,9.7375915707,-1.0420742423,-2.620140747,1110
60162,146110,183454,9.8189475391,-0.7190431913,-2.6967110702,1111
60181,146092,183466,9.8141618939,-0.9140582332,-2.715853651,1112
60187,146119,183496,9.8476614103,-0.897308475,-2.5615165933,1113
60202,146127,183452,9.7076812882,-0.95712904,-2.6991038927999997,1114
60223,146120,183492,9.7734839097,-0.7621139981,-2.5998017549,1115
60249,146124,183428,9.9433743143,-0.9798608547,-2.6261228035000004,1116
60206,146119,183445,9.7208418125,-0.8374879099999999,-2.6775684894,1117
60049,146027,183414,9.7292166916,-0.8949156524,-2.6895326024,1118
59911,145959,183375,9.738787982,-0.729810893,-2.6608187311999996,1119
59794,145954,183345,9.8835537493,-0.8793623055,-2.6656043763999997,1120
59810,145946,183394,9.7758767323,-1.0253244841,-2.5088744961000002,1121
59809,145924,183407,9.785448022699999,-0.9308079913999999,-2.6225335696,1122
59852,145955,183405,9.8452685877,-0.8362914987,-2.7134608283999997,1123
59897,145995,183440,9.8309116521,-0.8829515394,-2.5686950610999997,1124
59945,146004,183425,9.6705925379,-0.9296115801,-2.7349962318,1125
59966,146005,183463,9.8069834261,-0.9176474671,-2.6895326024,1126
59977,146007,183472,9.7531449176,-0.8506484343,-2.6021945774999997,1127
59986,146034,183454,9.714859756,-0.8458627891,-2.703889538,1128
60012,146017,183485,9.702895643,-0.9044869428,-2.6512474407999997,1129
60032,146054,183502,9.7710910871,-0.981057266,-2.7230321187999995,1130
60060,146053,183511,9.767501853199999,-0.8602197247000001,-2.6404797391000003,1131
60072,146060,183498,9.8380901199,-0.849452023,-2.7134608283999997,1132
60096,146066,183555,9.8333044747,-0.8087740388,-2.6751756668,1133
60117,146080,183492,9.7698946758,-0.9080761767,-2.5902304645,1134
60068,146085,183509,9.6502535458,-0.8566304908000001,-2.6656043763999997,1135
60150,146111,183520,9.700502820399999,-1.004985492,-2.656033086,1136
60162,146131,183477,9.8680004024,-0.8578269021,-2.6392833278,1137
60184,146112,183507,9.8632147572,-0.9595218625999999,-2.6931218363,1138
60169,146090,183477,9.8297152408,-0.8458627891,-2.5686950610999997,1139
60059,146054,183470,9.8093762487,-0.7836494015,-2.6392833278,1140
59906,145956,183462,9.8261260069,-0.981057266,-2.656033086,1141
59715,145928,183420,9.6861458848,-0.9080761767,-2.5256242543,1142
59785,145915,183412,9.6502535458,-0.9236295236,-2.5782663514999995,1143
59784,145961,183465,9.798608546999999,-0.9308079913999999,-2.6189443356999997,1144
59809,145946,183479,9.714859756,-0.8374879099999999,-2.5782663514999995,1145
59862,145947,183481,9.7770731436,-0.9738787981999999,-2.6464617955999996,1146
59921,145980,183487,9.7471628611,-0.8590233134,-2.6823541346,1147
59892,145993,183484,9.726823869,-0.9547362173999999,-2.7122644171,1148
59903,145972,183455,9.8476614103,-0.7920242806,-2.5818555854,1149
59901,145973,183505,9.7555377402,-0.8219345630999999,-2.5674986498,1150
59839,145978,183515,9.821340361699999,-0.9559326287,-2.6225335696,1151
59922,145960,183503,9.7555377402,-0.9667003303999999,-2.5818555854,1152
59925,146004,183515,9.9888379437,-0.8949156524,-2.6823541346,1153
59959,145989,183496,9.750752095,-0.8171489179,-2.6727828442,1154
59958,145979,183527,9.7830552001,-0.933200814,-2.6416761504,1155
59963,146008,183545,9.6837530622,-0.8051848049,-2.6428725617,1156
59973,146001,183548,9.634700198900001,-0.9475577495999999,-2.667997199,1157
59979,146030,183543,9.81057266,-0.873380249,-2.6273192148,1158
59995,145953,183490,9.7794659662,-0.8111668613999999,-2.5902304645,1159
59930,145998,183519,9.6693961266,-0.9068797654,-2.5938196984,1160
60006,146003,183492,9.7878408453,-0.8374879099999999,-2.6057838114000003,1161
60010,145930,183490,9.8560362894,-0.8829515394,-2.5734807063,1162
60022,146007,183479,9.7160561673,-0.8697910151,-2.5172493752,1163
60033,146009,183523,9.7052884656,-0.8506484343,-2.5938196984,1164
60001,146009,183478,9.852447055499999,-0.765703232,-2.6536402634000003,1165
59886,145951,183460,9.69093153,-0.8422735552,-2.6751756668,1166
59751,145871,183436,9.6681997153,-0.8662017812,-2.5495524802999996,1167
59700,145863,183428,9.6969135865,-0.945164927,-2.6895326024,1168
59698,145848,183428,9.7399843933,-0.8925228298,-2.7230321187999995,1169
59710,145872,183448,9.6765745944,-0.8171489179,-2.7026931267000003,1170
59777,145890,183414,9.7938229018,-0.7812565789,-2.6117658679000004,1171
59839,145974,183497,9.8608219346,-0.7788637562999999,-2.6608187311999996,1172
59861,145964,183518,9.726823869,-0.9308079913999999,-2.5543381254999997,1173
59901,145988,183531,9.5748796339,-0.8446663778000001,-2.6500510295,1174
59907,145973,183539,9.674181771799999,-0.873380249,-2.7661029256000003,1175
59928,145996,183553,9.6574320136,-0.861416136,-2.5495524802999996,1176
59977,145970,183541,9.7483592724,-0.8925228298,-2.6512474407999997,1177
59976,145996,183535,9.8057870148,-0.9308079913999999,-2.6847469572,1178
59989,146037,183592,9.750752095,-0.921236701,-2.6907290137,1179
60026,145978,183560,9.750752095,-0.8350950873999999,-2.5818555854,1180
60041,146029,183580,9.7758767323,-0.8997012976000001,-2.7050859493,1181
60074,146046,183553,9.576076045199999,-0.8219345630999999,-2.667997199,1182
60094,146057,183601,9.7734839097,-0.9822536772999999,-2.6584259086,1183
60130,146058,183595,9.9218389109,-1.0001998468,-2.6273192148,1184
60162,146088,183579,9.6693961266,-0.8374879099999999,-2.6045874001,1185
60156,146085,183586,9.7974121357,-0.8195417405,-2.7696921595,1186
60136,146072,183562,9.6957171752,-0.9894321450999999,-2.6823541346,1187
60003,145990,183550,9.9314102013,-1.0636096457,-2.6847469572,1188
59871,145938,183500,9.6957171752,-0.8350950873999999,-2.6596223199,1189
59795,145922,183500,9.7220382238,-1.004985492,-2.6141586905,1190
59786,145903,183491,9.6969135865,-0.9595218625999999,-2.6213371583000002,1191
59791,145905,183508,9.741180804599999,-0.8291130308999999,-2.7349962318,1192
59876,145929,183538,9.8715896363,-0.7860422241,-2.6093730453,1193
59876,145990,183619,9.732805925500001,-0.8590233134,-2.5914268758000003,1194
59941,145998,183582,9.81057266,-0.9164510558,-2.5770699402,1195
59943,145994,183620,9.8548398781,-0.9882357338,-2.7421746995999996,1196
59970,146000,183599,9.757930562799999,-0.8709874264,-2.6428725617,1197
59970,146000,183608,9.700502820399999,-0.8662017812,-2.6464617955999996,1198
59984,146005,183623,9.7256274577,-0.9200402897,-2.6548366747000003,1199
59991,146029,183614,9.8057870148,-0.8171489179,-2.6368905052,1200
60026,146015,183604,9.7363951594,-0.7573283529,-2.691925425,1201
60049,146033,183645,9.8404829425,-1.0157531937,-2.6153551018,1202
60075,146064,183640,9.710074110799999,-0.9774680320999999,-2.5854448193,1203
60098,146075,183668,9.6681997153,-0.9188438784,-2.739781877,1204
60084,146079,183682,9.834500886,-0.9870393224999999,-2.6895326024,1205
60139,146083,183660,9.822536773,-0.861416136,-2.5710878837,1206
60162,146085,183656,9.633503787599999,-0.861416136,-2.6141586905,1207
60168,146100,183648,9.5976114486,-0.8207381518,-2.5639094158999995,1208
60184,146100,183623,9.8596255233,-0.9355936366,-2.7445675222,1209
60255,146132,183645,9.7531449176,-0.8901300072,-2.6835505459,1210
60220,146098,183658,9.8309116521,-0.9930213789999999,-2.6847469572,1211
60255,146075,183670,9.822536773,-0.8949156524,-2.5136601413,1212
60091,146069,183604,9.7663054419,-0.8111668613999999,-2.6632115538,1213
59943,145977,183564,9.8249295956,-0.9906285563999999,-2.6943182475999996,1214
59857,145934,183582,9.774680321,-0.9702895642999999,-2.5806591741,1215
59816,145902,183590,9.8273224182,-0.9320044027,-2.667997199,1216
59795,145924,183615,9.631110965,-1.0360921858,-2.7684957482,1217
59839,145912,183578,9.7136633447,-0.8554340795,-2.7254249414,1218
59899,145991,183568,9.7890372566,-0.9308079913999999,-2.6847469572,1219
59973,145952,183633,9.726823869,-0.9140582332,-2.6309084487,1220
59968,145963,183648,9.7914300792,-0.8554340795,-2.6165515131,1221
59989,145994,183650,9.7651090306,-0.9080761767,-2.6512474407999997,1222
59994,146001,183696,9.7734839097,-0.7597211755,-2.7577280465,1223
60020,146014,183674,9.8021977809,-0.8997012976000001,-2.6775684894,1224
60021,146025,183693,9.8428757651,-0.95712904,-2.6309084487,1225
60050,145994,183706,9.7076812882,-0.9188438784,-2.5734807063,1226
60070,146015,183675,9.8045906035,-0.8709874264,-2.6464617955999996,1227
60102,146064,183719,9.8500542329,-1.1006983959999999,-2.6703900216,1228
60107,146060,183696,9.7639126193,-0.8709874264,-2.7230321187999995,1229
60124,146055,183743,9.6358966102,-0.9260223462,-2.6344976826,1230
60150,146068,183716,9.6849494735,-1.0145567824000001,-2.6739792555000004,1231
60162,146055,183719,9.7603233854,-0.9379864592,-2.6775684894,1232
60145,146054,183680,9.7734839097,-0.897308475,-2.6464617955999996,1233
60165,146066,183713,9.8165547165,-1.0265208954,-2.7110680058,1234
60078,146029,183667,9.655039191,-0.8087740388,-2.6033909887999998,1235
59964,145952,183676,9.7112705221,-0.9906285563999999,-2.6021945774999997,1236
59825,145906,183624,9.7878408453,-0.9140582332,-2.6153551018,1237
59699,145850,183630,9.8021977809,-0.9080761767,-2.7254249414,1238
59777,145868,183656,9.6765745944,-0.9260223462,-2.6703900216,1239
59801,145838,183659,9.633503787599999,-0.8219345630999999,-2.596212521,1240
59841,145926,183681,9.8500542329,-0.9308079913999999,-2.7445675222,1241
59884,145973,183697,9.857232700700001,-0.921236701,-2.6225335696,1242
59910,145929,183694,9.8297152408,-0.8709874264,-2.6751756668,1243
59908,145971,183710,9.688538707400001,-0.9762716208,-2.6608187311999996,1244
59883,145959,183733,9.8368937086,-0.9140582332,-2.5627130046,1245
59940,145959,183681,9.738787982,-0.8590233134,-2.6165515131,1246
59950,145954,183736,9.8069834261,-1.0624132344,-2.6309084487,1247
59957,145966,183742,9.7710910871,-0.9619146851999999,-2.5842484079999997,1248
59990,145969,183719,9.7435736272,-0.9870393224999999,-2.5543381254999997,1249
59992,145979,183763,9.767501853199999,-0.9379864592,-2.5746771176,1250
60016,145988,183754,9.728020280299999,-0.9882357338,-2.5806591741,1251
60082,146018,183728,9.6634140701,-0.8901300072,-2.7146572396999997,1252
60050,145993,183711,9.7902336679,-0.8769694829,-2.5986053435999996,1253
60043,146012,183716,9.7435736272,-0.8638089586000001,-2.6955146589,1254
60056,146018,183738,9.8093762487,-0.9044869428,-2.6093730453,1255
60062,146011,183758,9.643075077999999,-0.8997012976000001,-2.5519453029,1256
60133,146017,183743,9.8141618939,-0.8063812161999999,-2.7337998205,1257
60108,146021,183729,9.7555377402,-0.8673981925,-2.5686950610999997,1258
60134,146023,183748,9.6801638283,-0.9583254512999999,-2.6225335696,1259
60132,146019,183751,9.8165547165,-0.8291130308999999,-2.6273192148,1260
59972,145974,183666,9.688538707400001,-0.8626125473,-2.7505495787000003,1261
59898,145936,183681,9.6981099978,-0.9236295236,-2.7708885708000004,1262
59833,145888,183666,9.7435736272,-0.9655039191,-2.6847469572,1263
59810,145868,183698,9.7686982645,-0.9068797654,-2.7565316351999996,1264
59821,145878,183700,9.8500542329,-0.933200814,-2.644068973,1265
59861,145886,183689,9.667003304,-0.9643075078,-2.7493531674,1266
59961,145914,183704,9.702895643,-0.7812565789,-2.6476582069,1267
59968,145972,183727,9.8057870148,-0.9894321450999999,-2.691925425,1268
59982,145975,183780,9.798608546999999,-0.7764709337,-2.6823541346,1269
60002,145973,183751,9.9888379437,-0.8099704500999999,-2.6368905052,1270
60019,145998,183776,9.6358966102,-0.8003991597,-2.6895326024,1271
60034,146000,183788,9.7052884656,-1.0755737587,-2.6895326024,1272
60060,146005,183786,9.6251289085,-0.8877371846000001,-2.7828526838,1273
60043,146035,183760,9.7902336679,-0.8267202082999999,-2.6488546182,1274
60105,146027,183781,9.7040920543,-0.8303094421999999,-2.7182464736,1275
60109,146061,183821,9.9433743143,-0.9260223462,-2.6069802227000003,1276
60157,146079,183811,9.6526463684,-0.9738787981999999,-2.7110680058,1277
60126,146058,183786,9.7340023368,-0.9236295236,-2.5734807063,1278
60202,146074,183794,9.8835537493,-1.0217352502000001,-2.6333012713,1279
60232,146084,183811,9.785448022699999,-0.9128618219,-2.656033086,1280
60244,146071,183845,9.9134640318,-0.9140582332,-2.6524438520999998,1281
60247,146074,183800,9.7375915707,-0.8315058535,-2.6895326024,1282
60149,146025,183769,9.6502535458,-0.8267202082999999,-2.6763720781,1283
59997,145968,183715,9.774680321,-0.8195417405,-2.6775684894,1284
59908,145932,183750,9.812965482600001,-0.9667003303999999,-2.667997199,1285
59909,145891,183745,9.6454679006,-0.9140582332,-2.620140747,1286
59879,145938,183763,9.6957171752,-0.9786644433999999,-2.5375883673,1287
59903,145928,183776,9.8596255233,-0.8159525066,-2.6129622792,1288
59865,145969,183821,9.8644111685,-0.981057266,-2.75174599,1289
60011,145972,183836,9.7830552001,-0.933200814,-2.6823541346,1290
60033,145992,183811,9.7878408453,-0.8327022648,-2.6368905052,1291
60052,145974,183853,9.6765745944,-0.8769694829,-2.7254249414,1292
60062,146011,183883,9.7734839097,-0.9188438784,-2.6105694566,1293
60067,146011,183871,9.7555377402,-0.885344362,-2.5447668351,1294
60102,146002,183895,9.7112705221,-0.9391828704999999,-2.6632115538,1295
60119,146025,183859,9.741180804599999,-0.9379864592,-2.5615165933,1296
60141,146030,183839,9.8045906035,-0.9834500885999999,-2.6991038927999997,1297
60167,146029,183914,9.7220382238,-0.9248259349,-2.6368905052,1298
60203,146053,183867,9.7124669334,-0.8518448456000001,-2.6416761504,1299
60209,146082,183883,9.7220382238,-0.8578269021,-2.6823541346,1300
60244,146068,183902,9.7340023368,-0.9738787981999999,-2.6356940939,1301
60246,146066,183862,9.7316095142,-1.0001998468,-2.5686950610999997,1302
60254,146084,183890,9.808179837399999,-0.9930213789999999,-2.6512474407999997,1303
60263,146063,183887,9.688538707400001,-0.9978070242,-2.6057838114000003,1304
60270,146080,183890,9.754341328899999,-0.9714859755999999,-2.6715864329,1305
60290,146066,183876,9.7734839097,-0.8171489179,-2.6512474407999997,1306
60299,146094,183883,9.6394858441,-0.9068797654,-2.6703900216,1307
60311,146076,183855,9.8452685877,-0.8626125473,-2.5758735289,1308
60156,146011,183817,9.7483592724,-0.7716852885,-2.6775684894,1309
60005,145940,183806,9.7842516114,-0.8255237969999999,-2.6883361911000003,1310
59920,145904,183799,9.7555377402,-1.0360921858,-2.6105694566,1311
59870,145892,183794,9.7842516114,-0.8207381518,-2.6153551018,1312
59871,145895,183798,9.7686982645,-1.004985492,-2.5890340532,1313
59899,145867,183847,9.7399843933,-0.873380249,-2.6225335696,1314
59954,145956,183846,9.745966449800001,-0.9738787981999999,-2.6321048599999997,1315
59984,145973,183873,9.7722874984,-0.789631458,-2.6368905052,1316
60003,145968,183868,9.6370930215,-0.9068797654,-2.6584259086,1317
60002,145984,183870,9.7830552001,-0.8111668613999999,-2.7122644171,1318
59945,145939,183853,9.7531449176,-0.8327022648,-2.6261228035000004,1319
60005,145966,183876,9.757930562799999,-0.9714859755999999,-2.6416761504,1320
60019,146006,183921,9.7722874984,-0.7621139981,-2.6261228035000004,1321
60043,145975,183878,9.674181771799999,-0.9894321450999999,-2.644068973,1322
60056,145996,183916,9.8428757651,-0.945164927,-2.6189443356999997,1323
60085,145992,183921,9.786644434,-0.9020941202,-2.5663022385,1324
60102,146022,183941,9.8620183459,-0.885344362,-2.5902304645,1325
60128,146039,183929,9.5916293921,-0.9667003303999999,-2.6488546182,1326
60142,146034,183905,9.7698946758,-0.9415756931,-2.7122644171,1327
60184,146031,183902,9.7423772159,-0.9523433948,-2.6189443356999997,1328
60185,146072,183917,9.741180804599999,-0.8159525066,-2.7050859493,1329
60201,146057,183901,9.990034354999999,-0.9128618219,-2.6608187311999996,1330
60120,146028,183847,9.6693961266,-0.8027919822999999,-2.6464617955999996,1331
59991,145923,183896,9.7878408453,-0.9403792818,-2.6703900216,1332
59899,145914,183842,9.762716208,-0.9738787981999999,-2.6177479243999997,1333
59881,145890,183838,9.7052884656,-0.8685946038000001,-2.7409782883,1334
59903,145904,183884,9.674181771799999,-0.8243273857,-2.6632115538,1335
59924,145924,183912,9.7603233854,-0.8195417405,-2.7684957482,1336
59975,145930,183918,9.7842516114,-0.9056833541,-2.5926232871,1337
60032,145957,183875,9.7232346351,-0.9008977089,-2.656033086,1338
60066,145998,183942,9.8620183459,-0.789631458,-2.656033086,1339
60074,145991,183940,9.8165547165,-0.9355936366,-2.5770699402,1340
60076,145990,183968,9.7363951594,-0.9020941202,-2.7086751831999996,1341
60109,145997,184010,9.6490571345,-0.8901300072,-2.6799613119999997,1342
60125,146012,183946,9.7794659662,-1.0540383553,-2.6847469572,1343
60095,146008,183941,9.7483592724,-1.0121639598,-2.7206392962,1344
60173,146041,183955,9.7794659662,-0.7764709337,-2.691925425,1345
60188,146051,184014,9.8297152408,-1.0025926694,-2.6380869165,1346
60214,146111,184028,9.6693961266,-0.9631110964999999,-2.6021945774999997,1347
60247,146079,183982,9.7375915707,-0.8374879099999999,-2.7242285301,1348
60271,146075,184002,9.7340023368,-0.8075776275,-2.5926232871,1349
60283,146086,183983,9.6813602396,-0.9774680320999999,-2.6907290137,1350
60298,146078,184031,9.7818587888,-0.9343972253,-2.644068973,1351
60313,146073,183989,9.7196454012,-0.8949156524,-2.6608187311999996,1352
60339,146091,183967,9.785448022699999,-0.9379864592,-2.656033086,1353
60328,146111,183998,9.7651090306,-1.0097711372,-2.7553352239,1354
60353,146108,183970,9.6646104814,-0.8542376682,-2.5698914723999997,1355
60376,146135,183966,9.7555377402,-0.9643075078,-2.715853651,1356
60350,146071,183962,9.6813602396,-0.7405785947,-2.5698914723999997,1357
60158,146018,183898,9.8727860476,-0.8362914987,-2.6871397798,1358
60012,145940,183920,9.7770731436,-0.9020941202,-2.6620151425,1359
59961,145902,183900,9.7734839097,-0.9762716208,-2.6727828442,1360
59938,145919,183903,9.726823869,-0.9068797654,-2.6069802227000003,1361
59947,145935,183947,9.7064848769,-0.9080761767,-2.6703900216,1362
59982,145976,183984,9.7172525786,-0.9643075078,-2.6608187311999996,1363
60045,145986,183973,9.7076812882,-0.8650053699,-2.6775684894,1364
60080,145999,183980,9.6394858441,-0.933200814,-2.6703900216,1365
60114,146008,183953,9.7256274577,-0.9834500885999999,-2.5974089322999996,1366
60094,146022,183972,9.6586284249,-0.8135596839999999,-2.7086751831999996,1367
60102,146005,184021,9.7639126193,-0.9595218625999999,-2.7302105866,1368
60130,146015,184009,9.7519485063,-0.8434699665000001,-2.7278177639999996,1369
60156,146015,184048,9.7782695549,-0.9631110964999999,-2.6703900216,1370
60162,146058,184017,9.7423772159,-0.8721838377000001,-2.6871397798,1371
60187,146066,184064,9.8093762487,-0.9463613382999999,-2.5591237707,1372
60208,146048,184003,9.745966449800001,-1.004985492,-2.6213371583000002,1373
60212,146052,184016,9.7292166916,-0.9032905315,-2.6488546182,1374
60225,146047,184060,9.6131647955,-0.9942177902999999,-2.6536402634000003,1375
60255,146034,184078,9.882357338,-0.933200814,-2.7206392962,1376
60256,146050,184059,9.702895643,-0.8530412569000001,-2.6572294973,1377
60265,146080,184029,9.8668039911,-0.8781658942,-2.5639094158999995,1378
60269,146050,184065,9.844072176400001,-0.8961120637,-2.5471596577,1379
60183,146028,183990,9.7471628611,-0.8183453291999999,-2.6979074815,1380
60027,145939,183958,9.858429112,-1.040877831,-2.7003003040999998,1381
59905,145890,183917,9.6047899164,-0.9308079913999999,-2.5794627628,1382
59829,145876,183981,9.6287181424,-1.0827522265,-2.6656043763999997,1383
59808,145873,183966,9.688538707400001,-0.933200814,-2.6500510295,1384
59909,145920,183990,9.688538707400001,-0.849452023,-2.6321048599999997,1385
59956,145967,183977,9.7651090306,-0.9379864592,-2.6368905052,1386
60015,145929,184028,9.8189475391,-0.8482556117000001,-2.7433711108999996,1387
60020,145963,183994,9.7112705221,-0.9535398061,-2.6536402634000003,1388
60026,145985,184017,9.7124669334,-0.95712904,-2.5902304645,1389
60042,145990,184043,9.7208418125,-0.9044869428,-2.667997199,1390
60075,145953,184025,9.785448022699999,-0.9990034355,-2.6775684894,1391
60083,145990,184045,9.6287181424,-0.7980063370999999,-2.7110680058,1392
60038,145955,184032,9.8261260069,-0.9236295236,-2.6165515131,1393
60129,146022,184034,9.7794659662,-1.004985492,-2.6811577232999997,1394
60177,146020,184066,9.8476614103,-0.921236701,-2.6775684894,1395
60199,146033,184056,9.6622176588,-0.6987041992,-2.6991038927999997,1396
60229,146047,184042,9.7818587888,-0.9260223462,-2.6428725617,1397
60252,146090,184111,9.6634140701,-0.9284151688,-2.6069802227000003,1398
60308,146042,184046,9.702895643,-0.8470592004,-2.7230321187999995,1399
60300,146092,184074,9.8368937086,-0.8183453291999999,-2.6656043763999997,1400
60333,146110,184064,9.700502820399999,-0.8673981925,-2.6428725617,1401
60331,146074,184062,9.7172525786,-0.909272588,-2.6536402634000003,1402
60357,146100,184070,9.714859756,-0.9188438784,-2.6536402634000003,1403
60384,146116,184089,9.8356972973,-0.8985048863,-2.6488546182,1404
60306,146109,184085,9.667003304,-0.7920242806,-2.6895326024,1405
60418,146136,184090,9.7651090306,-0.9930213789999999,-2.7278177639999996,1406
60354,146080,184079,9.6777710057,-0.8159525066,-2.6608187311999996,1407
60203,145989,184032,9.7076812882,-0.8685946038000001,-2.6823541346,1408
60098,145954,184022,9.8488578216,-0.921236701,-2.5782663514999995,1409
60052,145918,183994,9.7471628611,-0.8925228298,-2.6967110702,1410
60005,145914,183947,9.674181771799999,-0.885344362,-2.6991038927999997,1411
60007,145950,184020,9.7878408453,-0.945164927,-2.6368905052,1412
60058,145976,184021,9.7651090306,-0.9415756931,-2.6751756668,1413
60127,146008,184060,9.69093153,-0.9140582332,-2.6608187311999996,1414
60172,146008,184078,9.8476614103,-0.8985048863,-2.7589244578,1415
60188,146008,184050,9.6765745944,-1.0660024683,-2.6823541346,1416
60226,146023,184080,9.8189475391,-0.897308475,-2.6536402634000003,1417
60198,146022,184049,9.6717889492,-0.8003991597,-2.6632115538,1418
60218,146044,184104,9.6861458848,-0.8769694829,-2.6847469572,1419
60243,146032,184089,9.7938229018,-0.8937192411,-2.7278177639999996,1420
60271,146045,184098,9.6059863277,-0.9846464999,-2.5950161097,1421
60294,146082,184090,9.8500542329,-0.9906285563999999,-2.6727828442,1422
60344,146090,184085,9.744770038499999,-0.8267202082999999,-2.6967110702,1423
60332,146093,184140,9.5976114486,-0.9499505722,-2.6033909887999998,1424
60352,146128,184113,9.757930562799999,-0.8147560952999999,-2.5830519966999996,1425
60371,146104,184099,9.8404829425,-0.9523433948,-2.6488546182,1426
60405,146101,184104,9.745966449800001,-0.9834500885999999,-2.6464617955999996,1427
60418,146123,184128,9.7555377402,-0.9475577495999999,-2.6656043763999997,1428
60418,146147,184064,9.8321080634,-1.0552347666,-2.6536402634000003,1429
60380,146073,184076,9.6406822554,-0.7908278692999999,-2.6177479243999997,1430
60131,145973,184024,9.8811609267,-1.0384850084,-2.7326034091999998,1431
60086,145966,184066,9.6801638283,-0.7573283529,-2.7170500623000002,1432
60048,145952,184085,9.714859756,-0.8865407733,-2.667997199,1433
60052,145947,184039,9.6000042712,-0.8231309743999999,-2.7373890544,1434
60080,145971,184102,9.7124669334,-0.8949156524,-2.7373890544,1435
60131,146012,184125,9.7603233854,-0.9080761767,-2.7720849821,1436
60186,146028,184112,9.710074110799999,-0.8901300072,-2.6871397798,1437
60217,146030,184085,9.6861458848,-0.8099704500999999,-2.6392833278,1438
60214,146027,184122,9.6765745944,-0.8673981925,-2.6333012713,1439
60216,146047,184131,9.7686982645,-0.9068797654,-2.6751756668,1440
60240,146055,184183,9.688538707400001,-0.8769694829,-2.7373890544,1441
60247,146060,184145,9.687342296099999,-0.9523433948,-2.7086751831999996,1442
60319,146081,184145,9.7351987481,-0.8757730716000001,-2.5866412306,1443
60299,146046,184150,9.750752095,-0.8231309743999999,-2.6033909887999998,1444
60316,146099,184162,9.7830552001,-0.8805587168,-2.6512474407999997,1445
60357,146100,184156,9.741180804599999,-0.9463613382999999,-2.6847469572,1446
60368,146126,184141,9.7304131029,-0.8841479507000001,-2.5926232871,1447
60399,146088,184136,9.754341328899999,-0.8518448456000001,-2.6368905052,1448
60446,146109,184158,9.8141618939,-0.9978070242,-2.6703900216,1449
60436,146124,184131,9.6358966102,-0.9296115801,-2.6608187311999996,1450
60421,146111,184149,9.9003035075,-0.7992027483999999,-2.6955146589,1451
60443,146106,184124,9.634700198900001,-0.9858429111999999,-2.6536402634000003,1452
60441,146129,184126,9.7316095142,-0.8219345630999999,-2.5710878837,1453
60460,146133,184169,9.798608546999999,-0.9403792818,-2.4837498588,1454
60486,146148,184170,9.7818587888,-0.9499505722,-2.6428725617,1455
60501,146129,184151,9.7220382238,-0.9667003303999999,-2.6344976826,1456
60503,146129,184103,9.6945207639,-1.040877831,-2.6608187311999996,1457
60426,146067,184145,9.858429112,-0.8195417405,-2.7014967154,1458
60276,146006,184092,9.812965482600001,-0.8554340795,-2.667997199,1459
60135,145939,184060,9.7615197967,-0.9583254512999999,-2.6632115538,1460
60062,145943,184052,9.7124669334,-0.8566304908000001,-2.6536402634000003,1461
60060,145921,184086,9.7076812882,-1.0636096457,-2.6871397798,1462
60089,145932,184067,9.7292166916,-0.8458627891,-2.6344976826,1463
60133,145955,184066,9.754341328899999,-0.9583254512999999,-2.7110680058,1464
60189,145988,184061,9.7698946758,-0.8135596839999999,-2.5734807063,1465
60217,145999,184106,9.6705925379,-0.909272588,-2.6799613119999997,1466
60190,146013,184128,9.8045906035,-1.0013962581,-2.6392833278,1467
60215,145998,184131,9.822536773,-1.0001998468,-2.5782663514999995,1468
60214,146012,184108,9.6418786667,-0.9882357338,-2.6775684894,1469
60224,145999,184119,9.728020280299999,-0.8697910151,-2.5471596577,1470
60227,146027,184133,9.7052884656,-0.8829515394,-2.6871397798,1471
60269,146012,184089,9.7220382238,-0.8578269021,-2.5423740125,1472
60273,146069,184144,9.799804958300001,-0.9355936366,-2.6871397798,1473
60302,146031,184131,9.750752095,-0.8685946038000001,-2.6536402634000003,1474
60329,146038,184132,9.6634140701,-0.8602197247000001,-2.6859433685,1475
60346,146034,184126,9.7722874984,-0.8650053699,-2.6225335696,1476
60364,146081,184192,9.767501853199999,-1.0660024683,-2.6656043763999997,1477
60381,146043,184136,9.620343263299999,-0.8338986760999999,-2.6536402634000003,1478
60401,146084,184130,9.822536773,-0.8506484343,-2.6297120374,1479
60397,146094,184136,9.894321451,-0.9391828704999999,-2.5914268758000003,1480
60317,146042,184164,9.7064848769,-0.7728816998,-2.6703900216,1481
60175,145925,184067,9.6969135865,-0.9523433948,-2.6237299809,1482
60088,145950,184083,9.8093762487,-0.9200402897,-2.6943182475999996,1483
60072,145966,184083,9.6454679006,-0.8937192411,-2.7792634499,1484
60080,145940,184060,9.8285188295,-1.0073783146,-2.6309084487,1485
60006,145958,184117,9.799804958300001,-0.8350950873999999,-2.6608187311999996,1486
60178,146010,184112,9.767501853199999,-0.909272588,-2.6608187311999996,1487
60223,145996,184121,9.6478607232,-0.9990034355,-2.6512474407999997,1488
60265,146045,184150,9.7363951594,-0.873380249,-2.6225335696,1489
60269,146040,184143,9.9050891527,-0.8877371846000001,-2.6751756668,1490
60299,146048,184180,9.726823869,-0.9583254512999999,-2.6644079651,1491
60300,146052,184185,9.7698946758,-0.9236295236,-2.6225335696,1492
60322,146052,184147,9.6717889492,-0.9020941202,-2.6656043763999997,1493
60353,146107,184198,9.8010013696,-0.9726823869,-2.6524438520999998,1494
60377,146080,184205,9.6681997153,-0.909272588,-2.6153551018,1495
60419,146087,184186,9.7316095142,-0.8362914987,-2.6823541346,1496
60495,146127,184207,9.8237331843,-0.9667003303999999,-2.6763720781,1497
60503,146101,184204,9.726823869,-0.9320044027,-2.6416761504,1498
60491,146127,184207,9.7914300792,-0.8602197247000001,-2.6488546182,1499
60516,146142,184170,9.8596255233,-0.9116654106,-2.7062823606,1500
60516,146149,184222,9.8141618939,-0.8961120637,-2.6536402634000003,1501
60551,146161,184169,9.7351987481,-0.9104689993,-2.6488546182,1502
60557,146165,184201,9.6502535458,-0.8446663778000001,-2.596212521,1503
60585,146158,184169,9.8033941922,-0.9499505722,-2.7134608283999997,1504
60504,146172,184252,9.767501853199999,-1.0564311779,-2.6464617955999996,1505
60614,146183,184214,9.7591269741,-0.8255237969999999,-2.6691936103000002,1506
60627,146216,184206,9.9003035075,-0.9128618219,-2.5758735289,1507
60533,146121,184181,9.7136633447,-0.8829515394,-2.6392833278,1508
60371,146042,184136,9.6406822554,-0.8793623055,-2.5758735289,1509
60247,145997,184130,9.7722874984,-0.8781658942,-2.6416761504,1510
60211,145949,184119,9.7806623775,-0.9355936366,-2.7254249414,1511
60208,145963,184094,9.7782695549,-0.9643075078,-2.6668007876999997,1512
60208,145990,184105,9.6705925379,-0.897308475,-2.7062823606,1513
60251,146027,184129,9.8309116521,-0.7788637562999999,-2.691925425,1514
60296,146066,184156,9.8715896363,-0.8673981925,-2.691925425,1515
60336,146059,184154,9.6933243526,-0.8243273857,-2.6033909887999998,1516
60406,146085,184171,9.8428757651,-0.9858429111999999,-2.7326034091999998,1517
60356,146060,184180,9.6394858441,-0.9882357338,-2.6751756668,1518
