green,red,IR,acc_x,acc_y,acc_z,sample_index
89947,188479,207973,2.9587251449000003,-8.8390866844,-2.6321048599999997,1
90050,188496,207965,3.1513473642000003,-8.9898345082,-2.6380869165,2
90178,188520,207983,3.1561330094,-8.85344362,-2.6727828442,3
90316,188481,207974,3.2123643404999997,-8.9108713624,-2.7134608283999997,4
90387,188500,207965,3.0281170003,-8.7780697081,-2.6512474407999997,5
90495,188444,207999,3.0520452262999997,-8.9515493466,-2.5926232871,6
90598,188494,207986,3.1202406704,-8.8678005556,-2.6596223199,7
90747,188504,207982,3.0915267992,-8.8115692245,-2.5806591741,8
90824,188487,207966,3.2350961552,-8.9898345082,-2.6632115538,9
90905,188490,207978,3.1692935337,-8.828318982699999,-2.6895326024,10
90829,188483,207970,3.0436703472,-8.85344362,-2.6644079651,11
90432,188462,207954,3.0293134116,-8.8941216042,-2.6093730453,12
89868,188439,207937,3.0317062341999996,-8.97308475,-2.703889538,13
89443,188444,207893,3.1214370817,-8.939585233599999,-2.6967110702,14
89134,188427,207907,3.1286155494999996,-8.970691927399999,-2.6512474407999997,15
88973,188429,207932,3.2805597846,-8.8031943454,-2.656033086,16
88955,188438,207922,3.1250263156,-8.8031943454,-2.6177479243999997,17
88976,188426,207899,3.0101708308,-8.8259261601,-2.5974089322999996,18
89077,188445,207933,3.098705267,-8.833104627900001,-2.6656043763999997,19
89148,188441,207930,3.0963124444,-8.8438723296,-2.6883361911000003,20
89229,188442,207888,2.9371897415,-8.859425676499999,-2.6249263922,21
89224,188445,207922,3.038884702,-8.944370878800001,-2.7014967154,22
89239,188419,207941,3.2362925665,-8.9276211206,-2.691925425,23
89252,188428,207942,3.0364918793999998,-8.8354974505,-2.6991038927999997,24
89313,188447,207913,3.1836504693,-9.0580299523,-2.7182464736,25
89377,188437,207908,3.1800612354,-8.859425676499999,-2.7062823606,26
89467,188428,207906,3.0963124444,-8.9467637014,-2.6871397798,27
89588,188454,207885,3.1884361145,-8.916853418899999,-2.644068973,28
89681,188428,207951,3.2027930501,-8.9694955161,-2.703889538,29
89793,188347,207952,3.1154550251999997,-8.939585233599999,-2.6727828442,30
89915,188422,207919,3.0652057506,-8.8247297488,-2.6751756668,31
90042,188380,207900,3.0424739359,-8.9539421692,-2.5998017549,32
90151,188409,207912,3.0293134116,-8.9336031771,-2.6309084487,33
90262,188387,207914,3.1633114771999997,-8.9874416856,-2.6871397798,34
90352,188400,207892,3.0735806297,-8.818747692299999,-2.620140747,35
90458,188428,207862,3.2315069213,-8.8797646686,-2.703889538,36
90552,188411,207878,3.2195428083000004,-8.9802632178,-2.6751756668,37
90640,188341,207875,3.1680971224,-8.9575314031,-2.6237299809,38
90693,188363,207918,3.1872397032,-8.9276211206,-2.5758735289,39
90546,188346,207897,3.2075786953,-8.943174467499999,-2.656033086,40
90031,188382,207852,3.1489545415999998,-8.9228354754,-2.6093730453,41
89497,188349,207897,3.2123643404999997,-8.873782612100001,-2.6344976826,42
89063,188381,207894,3.2004002275,-8.949156524,-2.691925425,43
88816,188340,207839,3.1429724850999996,-8.876175434699999,-2.7302105866,44
88717,188354,207848,3.0400811133000003,-8.9036928946,-2.6368905052,45
88689,188338,207819,3.2111679291999997,-8.8618184991,-2.6608187311999996,46
88776,188306,207836,3.1034909122000003,-8.8366938618,-2.6715864329,47
88868,188273,207843,3.0687949845,-8.8570328539,-2.6153551018,48
88955,188275,207814,3.0640093393,-8.781658942,-2.644068973,49
88996,188271,207834,3.0436703472,-8.975477572600001,-2.6656043763999997,50
89015,188296,207814,3.098705267,-8.9108713624,-2.6249263922,51
89018,188245,207805,3.0819555088,-8.8845503138,-2.608176634,52
89051,188286,207803,3.206382284,-9.0831545896,-2.6751756668,53
89120,188263,207782,3.1118657913,-8.8689969669,-2.7230321187999995,54
89202,188253,207764,3.0269205889999995,-8.9120677737,-2.6488546182,55
89284,188280,207829,3.1513473642000003,-8.859425676499999,-2.6368905052,56
89390,188261,207810,3.086741154,-8.8546400313,-2.5830519966999996,57
89495,188234,207745,3.1298119607999997,-8.8139620471,-2.6596223199,58
89631,188217,207775,3.2386853891,-8.8522472087,-2.6069802227000003,59
89739,188225,207767,3.0795626862,-8.9228354754,-2.6632115538,60
89878,188231,207762,2.9718856692,-8.8845503138,-2.7409782883,61
89986,188204,207756,3.1250263156,-8.930013943199999,-2.6656043763999997,62
90082,188209,207765,3.0795626862,-8.889335959,-2.6261228035000004,63
90192,188176,207771,3.0484559924,-9.0017986212,-2.6608187311999996,64
90283,188231,207736,3.134597606,-8.9383888223,-2.5842484079999997,65
90399,188176,207746,3.1836504693,-8.9994057986,-2.7409782883,66
90503,188161,207770,3.206382284,-8.873782612100001,-2.715853651,67
90564,188186,207732,3.0891339766000003,-8.8905323703,-2.667997199,68
90482,188137,207734,3.1645078885,-8.9659062822,-2.6991038927999997,69
90116,188130,207694,3.1262227269,-8.8618184991,-2.5615165933,70
89652,188147,207690,3.11066938,-8.873782612100001,-2.6285156261,71
89310,188153,207708,3.1645078885,-8.918049830200001,-2.7541388126,72
89117,188156,207705,3.1728827676,-8.925228298,-2.6093730453,73
89131,188158,207682,3.0089744195,-9.0269232585,-2.7062823606,74
89213,188165,207698,3.1178478478000002,-8.9288175319,-2.6512474407999997,75
89337,188175,207675,3.1190442591,-8.8713897895,-2.5998017549,76
89449,188106,207700,3.0819555088,-8.8019979341,-2.6153551018,77
89514,188113,207676,3.0556344602,-9.006584266399999,-2.644068973,78
89550,188111,207685,3.1130622026,-8.9359959997,-2.6943182475999996,79
89538,188118,207646,3.1992038162000003,-8.8666041443,-2.6811577232999997,80
89520,188135,207674,3.1190442591,-8.7876409985,-2.6237299809,81
89528,188133,207672,3.1405796625,-8.9682991048,-2.703889538,82
89577,188074,207675,3.1669007111,-8.859425676499999,-2.7493531674,83
89661,188120,207621,3.3020951879999996,-8.9994057986,-2.6584259086,84
89710,188122,207671,3.1429724850999996,-8.9276211206,-2.7278177639999996,85
89820,188058,207682,3.0699913958000002,-8.8307118053,-2.5639094158999995,86
89951,188119,207679,3.1262227269,-8.9551385805,-2.5902304645,87
90059,188124,207649,3.1716863562999995,-8.9694955161,-2.7230321187999995,88
90151,188104,207649,3.2004002275,-8.9994057986,-2.7110680058,89
90260,188157,207687,3.0460631697999996,-8.8426759183,-2.5902304645,90
90368,188150,207711,3.086741154,-8.9790668065,-2.6249263922,91
90432,188160,207637,3.2255248647999997,-8.9467637014,-2.7206392962,92
90544,188170,207713,3.0963124444,-8.9192462415,-2.7050859493,93
90639,188162,207698,3.0915267992,-8.9515493466,-2.6428725617,94
90591,188176,207691,3.1393832512,-8.9718883387,-2.5782663514999995,95
90242,188089,207688,3.0412775246,-8.931210354500001,-2.6727828442,96
89746,188077,207645,3.0675985732,-8.9204426528,-2.7373890544,97
89325,188165,207702,3.266202849,-8.9419780562,-2.7086751831999996,98
89100,188111,207645,3.0699913958000002,-8.9324067658,-2.5663022385,99
88993,188153,207640,3.1369904286000003,-8.8043907567,-2.7326034091999998,100
89017,188141,207631,3.2267212761,-8.943174467499999,-2.6632115538,101
89090,188131,207663,3.1238299043,-8.9228354754,-2.620140747,102
89212,188136,207653,3.1130622026,-8.9204426528,-2.5615165933,103
89305,188132,207675,3.1369904286000003,-8.944370878800001,-2.5926232871,104
89382,188109,207608,3.1417760738,-8.85344362,-2.7278177639999996,105
89380,188087,207662,3.0017959517,-8.949156524,-2.5950161097,106
89407,188093,207618,3.1322047834,-8.985048863000001,-2.6476582069,107
89433,188077,207645,3.1884361145,-8.864211321700001,-2.6309084487,108
89540,188088,207611,3.1992038162000003,-8.913264185,-2.6464617955999996,109
89625,188075,207672,3.206382284,-8.9347995884,-2.656033086,110
89683,188074,207645,3.0089744195,-8.9790668065,-2.6237299809,111
89826,188099,207645,3.1441688964,-9.0077806777,-2.5998017549,112
89917,188063,207632,3.2470602682000003,-8.926424709299999,-2.6021945774999997,113
90025,188067,207630,2.9898318387,-8.7708912403,-2.6703900216,114
90163,188074,207665,3.1154550251999997,-8.9228354754,-2.656033086,115
90265,188034,207636,3.2458638569,-8.8570328539,-2.6045874001,116
90376,188064,207628,3.146561719,-8.8941216042,-2.6165515131,117
90558,188038,207628,3.2434710343,-8.8474615635,-2.7445675222,118
90606,188047,207607,3.0496524037,-8.8869431364,-2.6297120374,119
90699,188022,207623,3.1202406704,-8.8881395477,-2.7373890544,120
90824,188016,207581,3.0580272828,-8.913264185,-2.6727828442,121
90834,188020,207586,3.2123643404999997,-8.913264185,-2.691925425,122
90525,188031,207562,3.1322047834,-9.006584266399999,-2.7266213527,123
89993,188050,207615,3.2362925665,-8.8343010392,-2.644068973,124
89450,188066,207644,3.0532416376,-8.85344362,-2.5471596577,125
89071,188050,207584,3.2027930501,-8.9682991048,-2.6512474407999997,126
88883,188045,207622,3.1286155494999996,-8.9467637014,-2.5830519966999996,127
88844,188084,207589,3.098705267,-8.8977108381,-2.5854448193,128
88829,188054,207602,3.1788648241,-8.9324067658,-2.6703900216,129
88900,188051,207632,3.2697920829,-8.97308475,-2.7230321187999995,130
88999,188055,207582,3.1393832512,-8.9084785398,-2.620140747,131
89105,187937,207612,3.1226334930000004,-8.925228298,-2.6596223199,132
89138,188052,207621,3.0041887742999998,-8.9515493466,-2.6476582069,133
89187,187983,207612,3.0616165167,-8.8163548697,-2.6751756668,134
89203,188049,207621,3.0687949845,-9.0843510009,-2.6344976826,135
89273,188039,207586,3.1657042998000002,-8.9324067658,-2.6991038927999997,136
89344,188033,207645,3.1621150658999997,-8.8522472087,-2.6572294973,137
89439,188052,207621,3.2817561959000003,-8.8678005556,-2.656033086,138
89543,188045,207607,3.0616165167,-8.8139620471,-2.6488546182,139
89632,188029,207652,3.146561719,-8.8833539025,-2.6488546182,140
89765,188032,207655,3.0508488149999997,-8.9659062822,-2.6524438520999998,141
89923,188019,207622,3.2494530908,-8.8570328539,-2.6620151425,142
90031,188075,207642,3.0604201053999995,-8.865407733,-2.6584259086,143
90175,188040,207624,3.0795626862,-8.9001036607,-2.6847469572,144
90273,188031,207561,3.1489545415999998,-8.9802632178,-2.6488546182,145
90423,188048,207660,3.1058837348,-8.8271225714,-2.7565316351999996,146
90526,188018,207591,3.2602207924999997,-8.970691927399999,-2.596212521,147
90650,188060,207635,3.158525832,-8.9144605963,-2.6584259086,148
90751,188055,207602,3.206382284,-8.8965144268,-2.6416761504,149
90867,188060,207635,3.2410782117,-8.9671026935,-2.6464617955999996,150
90979,188022,207557,3.1788648241,-8.8965144268,-2.6691936103000002,151
90964,188046,207610,3.1262227269,-8.7684984177,-2.6321048599999997,152
90647,188027,207590,3.2410782117,-8.975477572600001,-2.6799613119999997,153
90058,188061,207597,3.098705267,-8.7661055951,-2.7182464736,154
89640,188075,207609,3.0412775246,-8.9742811613,-2.6847469572,155
89289,188058,207621,3.1776684127999997,-8.9479601127,-2.6404797391000003,156
89168,188056,207629,3.0771698636,-8.9036928946,-2.6775684894,157
89105,188078,207654,3.1477581302999997,-8.8558364426,-2.6404797391000003,158
89179,188076,207568,3.1836504693,-8.8989072494,-2.6703900216,159
89259,188072,207581,3.1633114771999997,-8.8450687409,-2.6656043763999997,160
89361,188079,207621,3.0484559924,-8.975477572600001,-2.6536402634000003,161
89447,188093,207603,3.1669007111,-8.9862452743,-2.6021945774999997,162
89497,188084,207621,3.1405796625,-8.818747692299999,-2.5543381254999997,163
89533,188071,207623,3.0903303879,-8.9994057986,-2.6333012713,164
89545,188070,207616,3.1202406704,-8.9635134596,-2.667997199,165
89604,188083,207604,3.1058837348,-8.9778703952,-2.5710878837,166
89653,188099,207576,3.1058837348,-8.9778703952,-2.5710878837,167
89735,188089,207590,3.1058837348,-8.9778703952,-2.5710878837,168
89851,188099,207631,3.1058837348,-8.9778703952,-2.5710878837,169
89940,188097,207635,3.1058837348,-8.9778703952,-2.5710878837,170
90054,188086,207602,3.1058837348,-8.9778703952,-2.5710878837,171
90159,188087,207611,3.1058837348,-8.9778703952,-2.5710878837,172
90270,188100,207592,3.1058837348,-8.9778703952,-2.5710878837,173
90403,188057,207595,3.1058837348,-8.9778703952,-2.5710878837,174
90506,188073,207591,3.1609186546,-9.0317089037,-2.6285156261,175
90647,188081,207592,3.0508488149999997,-9.054440718399999,-2.5519453029,176
90745,188080,207560,3.0855447427,-9.0628155975,-2.6536402634000003,177
90838,188067,207555,3.0855447427,-9.0628155975,-2.6536402634000003,178
90954,188051,207553,3.0855447427,-9.0628155975,-2.6536402634000003,179
90956,188024,207565,3.0855447427,-9.0628155975,-2.6536402634000003,180
90744,188048,207581,3.1836504693,-8.9587278144,-2.6859433685,181
90301,188053,207527,3.0771698636,-8.864211321700001,-2.7326034091999998,182
89950,188112,207558,3.2123643404999997,-8.9515493466,-2.6727828442,183
89702,188136,207594,3.0508488149999997,-8.9001036607,-2.6991038927999997,184
89611,188080,207551,3.0963124444,-8.9419780562,-2.6488546182,185
89636,188058,207547,3.0125636533999995,-8.7720876516,-2.6608187311999996,186
89679,188087,207522,3.1429724850999996,-8.901300072,-2.6153551018,187
89820,188116,207552,3.2027930501,-8.8809610799,-2.715853651,188
89925,188124,207551,3.1657042998000002,-8.9144605963,-2.6775684894,189
89976,188131,207550,3.0400811133000003,-8.9994057986,-2.6464617955999996,190
89997,188101,207528,3.0281170003,-8.913264185,-2.7062823606,191
89993,188115,207519,3.1214370817,-8.9240318867,-2.6691936103000002,192
90033,188114,207547,3.0293134116,-8.8450687409,-2.7445675222,193
90023,188185,207562,3.1202406704,-8.9635134596,-2.7206392962,194
90056,188120,207551,3.1764720014999996,-8.8630149104,-2.6991038927999997,195
90144,188147,207541,3.086741154,-8.9563349918,-2.7373890544,196
90239,188118,207525,3.1489545415999998,-9.0269232585,-2.6452653843,197
90314,188121,207541,3.1274191382,-8.8678005556,-2.6392833278,198
90425,188155,207541,3.1262227269,-8.9826560404,-2.5591237707,199
90544,188147,207573,2.8917261120999997,-9.019744790699999,-2.6033909887999998,200
90676,188159,207591,2.9970103065,-9.006584266399999,-2.6368905052,201
90762,188183,207598,2.9982067177999996,-8.961120637,-2.7110680058,202
90877,188198,207629,3.098705267,-9.0436730167,-2.6859433685,203
90969,188192,207603,3.1788648241,-8.9659062822,-2.691925425,204
91057,188220,207623,3.1513473642000003,-8.985048863000001,-2.6584259086,205
91004,188184,207624,3.1082765574000004,-9.0149591455,-2.6105694566,206
90688,188227,207624,3.0508488149999997,-8.8211405149,-2.5591237707,207
90210,188243,207568,3.1214370817,-8.937192411,-2.6344976826,208
89944,188246,207617,3.1908289370999996,-8.926424709299999,-2.6859433685,209
89771,188232,207635,3.1214370817,-8.8845503138,-2.7206392962,210
89728,188235,207606,3.1214370817,-8.8845503138,-2.7206392962,211
89748,188279,207653,3.1214370817,-8.8845503138,-2.7206392962,212
89849,188283,207630,3.1130622026,-8.7984087002,-2.7505495787000003,213
89961,188247,207630,3.1740791789,-8.9563349918,-2.6165515131,214
90065,188173,207612,3.1776684127999997,-8.8749790234,-2.6488546182,215
90116,188266,207627,3.0747770410000004,-8.876175434699999,-2.7864419177,216
90163,188261,207603,3.1812576466999998,-8.859425676499999,-2.5627130046,217
90131,188256,207633,3.0089744195,-8.8917287816,-2.5842484079999997,218
90184,188276,207612,3.1046873235,-9.0221376133,-2.656033086,219
90238,188252,207608,3.2315069213,-8.9635134596,-2.6632115538,220
90296,188260,207670,3.1130622026,-8.901300072,-2.6189443356999997,221
90367,188248,207633,3.1130622026,-8.901300072,-2.6189443356999997,222
90467,188272,207623,3.1130622026,-8.901300072,-2.6189443356999997,223
90559,188276,207605,3.1130622026,-8.901300072,-2.6189443356999997,224
90638,188250,207634,3.1130622026,-8.901300072,-2.6189443356999997,225
90757,188230,207610,3.2147571631,-9.1022971704,-2.691925425,226
90853,188245,207616,3.1752755902,-8.9635134596,-2.5686950610999997,227
90958,188251,207644,3.2279176874,-8.9635134596,-2.6333012713,228
90997,188273,207599,3.0556344602,-9.0484586619,-2.6464617955999996,229
91173,188258,207599,3.1310083721,-8.841479506999999,-2.6632115538,230
91247,188251,207586,3.0819555088,-8.7924266437,-2.6847469572,231
91229,188190,207549,3.1202406704,-8.9587278144,-2.7290141752999997,232
90917,188230,207583,3.1202406704,-8.9587278144,-2.7290141752999997,233
90415,188251,207630,3.1202406704,-8.9587278144,-2.7290141752999997,234
89976,188259,207604,3.1202406704,-8.9587278144,-2.7290141752999997,235
89658,188257,207600,3.1202406704,-8.9587278144,-2.7290141752999997,236
89468,188274,207582,3.1202406704,-8.9587278144,-2.7290141752999997,237
89422,188266,207590,3.1202406704,-8.9587278144,-2.7290141752999997,238
89384,188301,207593,3.1202406704,-8.9587278144,-2.7290141752999997,239
89476,188283,207637,3.1202406704,-8.9587278144,-2.7290141752999997,240
89562,188260,207632,3.1202406704,-8.9587278144,-2.7290141752999997,241
89629,188268,207581,3.1202406704,-8.9587278144,-2.7290141752999997,242
89684,188279,207585,3.1202406704,-8.9587278144,-2.7290141752999997,243
89691,188280,207628,3.1202406704,-8.9587278144,-2.7290141752999997,244
89724,188283,207633,3.1202406704,-8.9587278144,-2.7290141752999997,245
89750,188293,207653,3.1202406704,-8.9587278144,-2.7290141752999997,246
89797,188270,207629,3.1202406704,-8.9587278144,-2.7290141752999997,247
89919,188280,207613,3.1202406704,-8.9587278144,-2.7290141752999997,248
89984,188291,207662,3.1202406704,-8.9587278144,-2.7290141752999997,249
90094,188290,207666,3.1202406704,-8.9587278144,-2.7290141752999997,250
90223,188306,207628,3.1202406704,-8.9587278144,-2.7290141752999997,251
90299,188284,207617,3.1202406704,-8.9587278144,-2.7290141752999997,252
90426,188306,207612,3.1202406704,-8.9587278144,-2.7290141752999997,253
90526,188302,207675,3.1202406704,-8.9587278144,-2.7290141752999997,254
90665,188275,207643,3.1202406704,-8.9587278144,-2.7290141752999997,255
90755,188288,207668,3.1202406704,-8.9587278144,-2.7290141752999997,256
90858,188305,207648,3.1202406704,-8.9587278144,-2.7290141752999997,257
90954,188303,207650,3.1752755902,-8.9036928946,-2.7349962318,258
91049,188320,207671,3.1752755902,-8.9036928946,-2.7349962318,259
91028,188301,207657,3.1752755902,-8.9036928946,-2.7349962318,260
90709,188324,207667,3.1752755902,-8.9036928946,-2.7349962318,261
90254,188309,207597,3.1752755902,-8.9036928946,-2.7349962318,262
89788,188297,207627,3.1752755902,-8.9036928946,-2.7349962318,263
89501,188321,207626,3.1752755902,-8.9036928946,-2.7349962318,264
89346,188283,207634,3.1752755902,-8.9036928946,-2.7349962318,265
89308,188295,207626,3.1752755902,-8.9036928946,-2.7349962318,266
89331,188294,207673,3.1752755902,-8.9036928946,-2.7349962318,267
89404,188281,207641,3.1752755902,-8.9036928946,-2.7349962318,268
89508,188299,207642,3.1752755902,-8.9036928946,-2.7349962318,269
89573,188290,207646,3.1752755902,-8.9036928946,-2.7349962318,270
89607,188282,207654,3.1752755902,-8.9036928946,-2.7349962318,271
89619,188287,207711,3.1752755902,-8.9036928946,-2.7349962318,272
89636,188269,207614,3.1752755902,-8.9036928946,-2.7349962318,273
89701,188299,207598,3.1752755902,-8.9036928946,-2.7349962318,274
89723,188298,207633,3.1752755902,-8.9036928946,-2.7349962318,275
89851,188281,207656,3.1752755902,-8.9036928946,-2.7349962318,276
89930,188299,207626,3.1752755902,-8.9036928946,-2.7349962318,277
90043,188319,207659,3.1752755902,-8.9036928946,-2.7349962318,278
90137,188309,207683,3.1752755902,-8.9036928946,-2.7349962318,279
90256,188296,207649,3.1752755902,-8.9036928946,-2.7349962318,280
90383,188286,207629,3.1752755902,-8.9036928946,-2.7349962318,281
90503,188294,207650,3.1752755902,-8.9036928946,-2.7349962318,282
90600,188258,207674,3.1752755902,-8.9036928946,-2.7349962318,283
90703,188281,207677,3.1752755902,-8.9036928946,-2.7349962318,284
90827,188319,207647,3.1752755902,-8.9036928946,-2.7349962318,285
90937,188286,207674,3.1752755902,-8.9036928946,-2.7349962318,286
91025,188282,207685,3.1752755902,-8.9036928946,-2.7349962318,287
90930,188247,207624,3.1752755902,-8.9036928946,-2.7349962318,288
90571,188278,207623,3.1752755902,-8.9036928946,-2.7349962318,289
90171,188274,207620,3.1752755902,-8.9036928946,-2.7349962318,290
89857,188251,207637,3.1752755902,-8.9036928946,-2.7349962318,291
89714,188271,207609,3.1752755902,-8.9036928946,-2.7349962318,292
89674,188268,207630,3.1752755902,-8.9036928946,-2.7349962318,293
89695,188294,207632,3.1752755902,-8.9036928946,-2.7349962318,294
89807,188263,207594,3.1752755902,-8.9036928946,-2.7349962318,295
89921,188289,207637,3.1752755902,-8.9036928946,-2.7349962318,296
90011,188261,207623,3.1752755902,-8.9036928946,-2.7349962318,297
90040,188278,207604,3.1752755902,-8.9036928946,-2.7349962318,298
90044,188252,207616,3.1752755902,-8.9036928946,-2.7349962318,299
90760,188372,207734,3.1992038162000003,-8.9671026935,-2.6847469572,300
90863,188362,207684,3.1992038162000003,-8.9671026935,-2.6847469572,301
90967,188396,207742,3.1992038162000003,-8.9671026935,-2.6847469572,302
91024,188387,207703,3.1992038162000003,-8.9671026935,-2.6847469572,303
90992,188409,207750,3.1992038162000003,-8.9671026935,-2.6847469572,304
90695,188400,207716,3.1992038162000003,-8.9671026935,-2.6847469572,305
90235,188407,207739,3.1992038162000003,-8.9671026935,-2.6847469572,306
89876,188397,207713,3.1992038162000003,-8.9671026935,-2.6847469572,307
89677,188394,207703,3.1992038162000003,-8.9671026935,-2.6847469572,308
89607,188412,207744,3.1992038162000003,-8.9671026935,-2.6847469572,309
89631,188383,207690,3.1992038162000003,-8.9671026935,-2.6847469572,310
89720,188411,207716,3.1992038162000003,-8.9671026935,-2.6847469572,311
89810,188393,207740,3.1992038162000003,-8.9671026935,-2.6847469572,312
89878,188381,207748,3.0939196218,-8.877371846,-2.6225335696,313
89930,188391,207720,3.0939196218,-8.877371846,-2.6225335696,314
89950,188388,207735,3.0939196218,-8.877371846,-2.6225335696,315
89960,188379,207763,3.0939196218,-8.877371846,-2.6225335696,316
89998,188382,207741,3.0939196218,-8.877371846,-2.6225335696,317
90053,188422,207743,3.0939196218,-8.877371846,-2.6225335696,318
90142,188370,207782,3.0939196218,-8.877371846,-2.6225335696,319
90224,188382,207782,3.0939196218,-8.877371846,-2.6225335696,320
90322,188408,207751,3.0939196218,-8.877371846,-2.6225335696,321
90406,188426,207765,3.0939196218,-8.877371846,-2.6225335696,322
90525,188423,207733,3.0939196218,-8.877371846,-2.6225335696,323
90611,188397,207773,3.0939196218,-8.877371846,-2.6225335696,324
90725,188402,207763,3.0939196218,-8.877371846,-2.6225335696,325
90832,188380,207746,3.1752755902,-8.9599242257,-2.691925425,326
90934,188417,207763,3.1752755902,-8.9599242257,-2.691925425,327
91021,188391,207791,3.1752755902,-8.9599242257,-2.691925425,328
91121,188422,207766,3.1752755902,-8.9599242257,-2.691925425,329
91125,188422,207727,3.1752755902,-8.9599242257,-2.691925425,330
90872,188380,207739,3.1752755902,-8.9599242257,-2.691925425,331
90409,188406,207764,3.1752755902,-8.9599242257,-2.691925425,332
89913,188395,207768,3.1752755902,-8.9599242257,-2.691925425,333
89565,188392,207695,3.1752755902,-8.9599242257,-2.691925425,334
89354,188375,207732,3.1752755902,-8.9599242257,-2.691925425,335
89260,188354,207711,3.1752755902,-8.9599242257,-2.691925425,336
89236,188385,207721,3.1752755902,-8.9599242257,-2.691925425,337
89261,188373,207775,3.1752755902,-8.9599242257,-2.691925425,338
89361,188376,207755,3.0640093393,-8.9718883387,-2.6488546182,339
89414,188408,207774,3.0640093393,-8.9718883387,-2.6488546182,340
89443,188396,207747,3.0640093393,-8.9718883387,-2.6488546182,341
89468,188381,207741,3.0640093393,-8.9718883387,-2.6488546182,342
89465,188387,207794,3.0640093393,-8.9718883387,-2.6488546182,343
89506,188394,207790,3.0640093393,-8.9718883387,-2.6488546182,344
89553,188411,207811,3.0640093393,-8.9718883387,-2.6488546182,345
89611,188393,207774,3.0640093393,-8.9718883387,-2.6488546182,346
89693,188411,207778,3.0640093393,-8.9718883387,-2.6488546182,347
89802,188416,207781,3.0640093393,-8.9718883387,-2.6488546182,348
89889,188412,207793,3.0640093393,-8.9718883387,-2.6488546182,349
89999,188432,207770,3.0640093393,-8.9718883387,-2.6488546182,350
90104,188411,207794,3.0640093393,-8.9718883387,-2.6488546182,351
90222,188409,207801,3.0640093393,-8.9718883387,-2.6488546182,352
90340,188421,207791,3.0640093393,-8.9718883387,-2.6488546182,353
90433,188399,207769,3.0640093393,-8.9718883387,-2.6488546182,354
90536,188406,207796,3.0640093393,-8.9718883387,-2.6488546182,355
90640,188458,207775,3.0640093393,-8.9718883387,-2.6488546182,356
90727,188425,207886,3.0640093393,-8.9718883387,-2.6488546182,357
90685,188396,207803,3.0640093393,-8.9718883387,-2.6488546182,358
90363,188383,207784,3.0640093393,-8.9718883387,-2.6488546182,359
89852,188383,207802,3.0640093393,-8.9718883387,-2.6488546182,360
89444,188403,207757,3.0640093393,-8.9718883387,-2.6488546182,361
89141,188406,207767,3.0640093393,-8.9718883387,-2.6488546182,362
89003,188354,207712,3.0640093393,-8.9718883387,-2.6488546182,363
88943,188352,207769,3.0640093393,-8.9718883387,-2.6488546182,364
88956,188390,207773,3.0640093393,-8.9718883387,-2.6488546182,365
89036,188358,207756,3.0640093393,-8.9718883387,-2.6488546182,366
89149,188402,207789,3.0640093393,-8.9718883387,-2.6488546182,367
89210,188406,207813,3.0640093393,-8.9718883387,-2.6488546182,368
89253,188391,207736,3.0640093393,-8.9718883387,-2.6488546182,369
89259,188402,207774,3.0640093393,-8.9718883387,-2.6488546182,370
89266,188384,207768,3.0640093393,-8.9718883387,-2.6488546182,371
89320,188416,207818,3.0640093393,-8.9718883387,-2.6488546182,372
89406,188397,207823,3.0640093393,-8.9718883387,-2.6488546182,373
89449,188394,207812,3.0640093393,-8.9718883387,-2.6488546182,374
89559,188404,207794,3.0640093393,-8.9718883387,-2.6488546182,375
89636,188396,207761,3.0640093393,-8.9718883387,-2.6488546182,376
89742,188423,207854,3.0640093393,-8.9718883387,-2.6488546182,377
89879,188430,207812,3.0640093393,-8.9718883387,-2.6488546182,378
89998,188412,207800,3.0640093393,-8.9718883387,-2.6488546182,379
90103,188366,207810,3.0640093393,-8.9718883387,-2.6488546182,380
90521,188369,207767,3.1728827676,-8.9587278144,-2.5686950610999997,381
90614,188364,207779,3.1728827676,-8.9587278144,-2.5686950610999997,382
90630,188373,207779,3.1728827676,-8.9587278144,-2.5686950610999997,383
90419,188387,207793,3.1728827676,-8.9587278144,-2.5686950610999997,384
90029,188387,207755,3.1728827676,-8.9587278144,-2.5686950610999997,385
89631,188373,207749,3.1728827676,-8.9587278144,-2.5686950610999997,386
89375,188369,207719,3.1728827676,-8.9587278144,-2.5686950610999997,387
89238,188376,207715,3.1728827676,-8.9587278144,-2.5686950610999997,388
89225,188377,207691,3.1728827676,-8.9587278144,-2.5686950610999997,389
89279,188356,207694,3.1728827676,-8.9587278144,-2.5686950610999997,390
89395,188370,207693,3.1728827676,-8.9587278144,-2.5686950610999997,391
89512,188354,207739,3.1728827676,-8.9587278144,-2.5686950610999997,392
89553,188373,207791,3.1728827676,-8.9587278144,-2.5686950610999997,393
89594,188375,207733,3.1728827676,-8.9587278144,-2.5686950610999997,394
89579,188393,207712,3.1728827676,-8.9587278144,-2.5686950610999997,395
89582,188376,207742,3.1728827676,-8.9587278144,-2.5686950610999997,396
89594,188399,207754,3.1728827676,-8.9587278144,-2.5686950610999997,397
89660,188373,207762,3.1728827676,-8.9587278144,-2.5686950610999997,398
89715,188400,207730,3.1728827676,-8.9587278144,-2.5686950610999997,399
89792,188387,207725,3.1728827676,-8.9587278144,-2.5686950610999997,400
89882,188394,207758,3.1728827676,-8.9587278144,-2.5686950610999997,401
89984,188396,207715,3.1728827676,-8.9587278144,-2.5686950610999997,402
90072,188419,207737,3.1728827676,-8.9587278144,-2.5686950610999997,403
90167,188380,207747,3.1728827676,-8.9587278144,-2.5686950610999997,404
90275,188383,207790,3.1728827676,-8.9587278144,-2.5686950610999997,405
90374,188401,207781,3.1728827676,-8.9587278144,-2.5686950610999997,406
90481,188434,207795,3.1728827676,-8.9587278144,-2.5686950610999997,407
90580,188456,207779,3.1728827676,-8.9587278144,-2.5686950610999997,408
90574,188474,207761,3.1728827676,-8.9587278144,-2.5686950610999997,409
90346,188471,207809,3.1728827676,-8.9587278144,-2.5686950610999997,410
89948,188464,207761,3.1728827676,-8.9587278144,-2.5686950610999997,411
89601,188473,207782,3.1728827676,-8.9587278144,-2.5686950610999997,412
89376,188492,207761,3.1728827676,-8.9587278144,-2.5686950610999997,413
89291,188472,207772,3.1728827676,-8.9587278144,-2.5686950610999997,414
89308,188451,207806,3.1728827676,-8.9587278144,-2.5686950610999997,415
89403,188477,207783,3.1728827676,-8.9587278144,-2.5686950610999997,416
89505,188480,207797,3.1728827676,-8.9587278144,-2.5686950610999997,417
89590,188494,207793,3.1728827676,-8.9587278144,-2.5686950610999997,418
89633,188468,207807,3.1728827676,-8.9587278144,-2.5686950610999997,419
89639,188488,207804,3.1728827676,-8.9587278144,-2.5686950610999997,420
89660,188492,207819,3.1728827676,-8.9587278144,-2.5686950610999997,421
89703,188486,207824,3.1728827676,-8.9587278144,-2.5686950610999997,422
89655,188448,207826,3.1453653077,-8.930013943199999,-2.6189443356999997,423
89716,188477,207845,3.1453653077,-8.930013943199999,-2.6189443356999997,424
89827,188460,207842,3.1453653077,-8.930013943199999,-2.6189443356999997,425
89936,188488,207869,3.1453653077,-8.930013943199999,-2.6189443356999997,426
90042,188484,207837,3.1453653077,-8.930013943199999,-2.6189443356999997,427
90184,188464,207862,3.1453653077,-8.930013943199999,-2.6189443356999997,428
90301,188491,207840,3.1453653077,-8.930013943199999,-2.6189443356999997,429
90416,188501,207879,3.1453653077,-8.930013943199999,-2.6189443356999997,430
90503,188530,207845,3.1453653077,-8.930013943199999,-2.6189443356999997,431
90653,188499,207845,3.1453653077,-8.930013943199999,-2.6189443356999997,432
90734,188493,207827,3.1453653077,-8.930013943199999,-2.6189443356999997,433
90872,188509,207902,3.1453653077,-8.930013943199999,-2.6189443356999997,434
90990,188505,207864,3.1453653077,-8.930013943199999,-2.6189443356999997,435
90971,188514,207876,3.1453653077,-8.930013943199999,-2.6189443356999997,436
90654,188492,207822,3.1453653077,-8.930013943199999,-2.6189443356999997,437
90256,188495,207874,3.1453653077,-8.930013943199999,-2.6189443356999997,438
89887,188467,207785,3.1453653077,-8.930013943199999,-2.6189443356999997,439
89658,188458,207784,3.1453653077,-8.930013943199999,-2.6189443356999997,440
89562,188452,207823,3.1453653077,-8.930013943199999,-2.6189443356999997,441
89517,188475,207811,3.0484559924,-8.8689969669,-2.5902304645,442
89606,188445,207827,3.0484559924,-8.8689969669,-2.5902304645,443
89711,188452,207802,3.0484559924,-8.8689969669,-2.5902304645,444
89807,188440,207837,3.0484559924,-8.8689969669,-2.5902304645,445
89889,188483,207827,3.0484559924,-8.8689969669,-2.5902304645,446
89946,188471,207843,3.0484559924,-8.8689969669,-2.5902304645,447
89978,188470,207824,3.0484559924,-8.8689969669,-2.5902304645,448
90008,188419,207822,3.0484559924,-8.8689969669,-2.5902304645,449
90054,188477,207837,3.0484559924,-8.8689969669,-2.5902304645,450
90119,188478,207859,3.0484559924,-8.8689969669,-2.5902304645,451
90187,188501,207804,3.0484559924,-8.8689969669,-2.5902304645,452
90278,188451,207807,3.0484559924,-8.8689969669,-2.5902304645,453
90384,188484,207842,3.0484559924,-8.8689969669,-2.5902304645,454
90495,188463,207855,3.0484559924,-8.8689969669,-2.5902304645,455
90590,188472,207805,3.0484559924,-8.8689969669,-2.5902304645,456
90704,188476,207839,3.0484559924,-8.8689969669,-2.5902304645,457
90828,188473,207879,3.0484559924,-8.8689969669,-2.5902304645,458
90949,188469,207865,3.0484559924,-8.8689969669,-2.5902304645,459
91049,188462,207814,3.0484559924,-8.8689969669,-2.5902304645,460
91161,188443,207838,3.0484559924,-8.8689969669,-2.5902304645,461
91273,188459,207846,3.0484559924,-8.8689969669,-2.5902304645,462
91313,188493,207841,3.0484559924,-8.8689969669,-2.5902304645,463
91228,188474,207804,3.0484559924,-8.8689969669,-2.5902304645,464
90903,188470,207832,3.0484559924,-8.8689969669,-2.5902304645,465
90571,188460,207824,3.0484559924,-8.8689969669,-2.5902304645,466
90341,188415,207806,3.0484559924,-8.8689969669,-2.5902304645,467
90255,188431,207795,3.0484559924,-8.8689969669,-2.5902304645,468
90254,188423,207770,3.0484559924,-8.8689969669,-2.5902304645,469
90326,188430,207771,3.0484559924,-8.8689969669,-2.5902304645,470
90425,188420,207825,3.0484559924,-8.8689969669,-2.5902304645,471
90540,188434,207842,3.0484559924,-8.8689969669,-2.5902304645,472
90618,188430,207780,3.0484559924,-8.8689969669,-2.5902304645,473
90648,188434,207825,3.1680971224,-8.9910309195,-2.6273192148,474
90655,188424,207789,3.1680971224,-8.9910309195,-2.6273192148,475
90661,188440,207802,3.1680971224,-8.9910309195,-2.6273192148,476
90715,188439,207821,3.1680971224,-8.9910309195,-2.6273192148,477
90788,188434,207810,3.1680971224,-8.9910309195,-2.6273192148,478
90877,188429,207846,3.1680971224,-8.9910309195,-2.6273192148,479
90946,188443,207804,3.1680971224,-8.9910309195,-2.6273192148,480
91056,188489,207819,3.1680971224,-8.9910309195,-2.6273192148,481
91124,188439,207858,3.1680971224,-8.9910309195,-2.6273192148,482
91280,188462,207834,3.1680971224,-8.9910309195,-2.6273192148,483
91348,188464,207823,3.1680971224,-8.9910309195,-2.6273192148,484
91492,188499,207844,3.1680971224,-8.9910309195,-2.6273192148,485
91585,188499,207864,3.1680971224,-8.9910309195,-2.6273192148,486
91678,188507,207879,3.1680971224,-8.9910309195,-2.6273192148,487
91600,188496,207863,3.1680971224,-8.9910309195,-2.6273192148,488
91313,188541,207919,3.1680971224,-8.9910309195,-2.6273192148,489
90957,188535,207823,3.1680971224,-8.9910309195,-2.6273192148,490
90671,188516,207846,3.1680971224,-8.9910309195,-2.6273192148,491
90531,188514,207846,3.1680971224,-8.9910309195,-2.6273192148,492
90480,188495,207879,3.1680971224,-8.9910309195,-2.6273192148,493
90511,188510,207880,3.1680971224,-8.9910309195,-2.6273192148,494
90609,188528,207884,3.1680971224,-8.9910309195,-2.6273192148,495
90712,188493,207895,3.1680971224,-8.9910309195,-2.6273192148,496
90772,188528,207902,3.1680971224,-8.9910309195,-2.6273192148,497
90847,188530,207870,3.1680971224,-8.9910309195,-2.6273192148,498
90836,188505,207890,3.1680971224,-8.9910309195,-2.6273192148,499
90830,188516,207892,3.1680971224,-8.9910309195,-2.6273192148,500
90850,188502,207907,3.1680971224,-8.9910309195,-2.6273192148,501
90889,188513,207904,3.1680971224,-8.9910309195,-2.6273192148,502
90992,188516,207902,3.1680971224,-8.9910309195,-2.6273192148,503
91069,188508,207931,3.1680971224,-8.9910309195,-2.6273192148,504
91138,188522,207904,3.1680971224,-8.9910309195,-2.6273192148,505
91241,188533,207890,3.2147571631,-8.913264185,-2.6620151425,506
91310,188502,207907,3.2147571631,-8.913264185,-2.6620151425,507
91414,188519,207925,3.2147571631,-8.913264185,-2.6620151425,508
91540,188517,207918,3.2147571631,-8.913264185,-2.6620151425,509
91642,188515,207912,3.2147571631,-8.913264185,-2.6620151425,510
91745,188528,207935,3.2147571631,-8.913264185,-2.6620151425,511
91831,188519,207917,3.2147571631,-8.913264185,-2.6620151425,512
91843,188514,207944,3.2147571631,-8.913264185,-2.6620151425,513
91621,188495,207892,3.2147571631,-8.913264185,-2.6620151425,514
91184,188487,207861,3.2147571631,-8.913264185,-2.6620151425,515
90752,188459,207843,3.2147571631,-8.913264185,-2.6620151425,516
90388,188430,207857,3.2147571631,-8.913264185,-2.6620151425,517
90132,188420,207876,3.2147571631,-8.913264185,-2.6620151425,518
90011,188410,207839,3.2147571631,-8.913264185,-2.6620151425,519
89982,188437,207822,3.2147571631,-8.913264185,-2.6620151425,520
89999,188404,207820,3.2147571631,-8.913264185,-2.6620151425,521
90073,188431,207904,3.2147571631,-8.913264185,-2.6620151425,522
90107,188437,207861,3.2147571631,-8.913264185,-2.6620151425,523
90157,188427,207907,3.2147571631,-8.913264185,-2.6620151425,524
90168,188435,207857,3.2147571631,-8.913264185,-2.6620151425,525
90153,188442,207929,3.2147571631,-8.913264185,-2.6620151425,526
90202,188449,207877,3.2147571631,-8.913264185,-2.6620151425,527
90226,188473,207913,3.2147571631,-8.913264185,-2.6620151425,528
90304,188460,207910,3.2147571631,-8.913264185,-2.6620151425,529
90385,188434,207899,3.2147571631,-8.913264185,-2.6620151425,530
90499,188462,207917,3.2147571631,-8.913264185,-2.6620151425,531
90589,188477,207958,3.2147571631,-8.913264185,-2.6620151425,532
90710,188510,207927,3.2147571631,-8.913264185,-2.6620151425,533
90809,188494,207958,3.2147571631,-8.913264185,-2.6620151425,534
90934,188511,207946,3.2147571631,-8.913264185,-2.6620151425,535
91048,188483,207952,3.2147571631,-8.913264185,-2.6620151425,536
91133,188506,207963,3.2147571631,-8.913264185,-2.6620151425,537
91237,188491,207959,3.1621150658999997,-8.8977108381,-2.6871397798,538
91357,188509,207970,3.1621150658999997,-8.8977108381,-2.6871397798,539
91422,188482,207962,3.1621150658999997,-8.8977108381,-2.6871397798,540
91292,188477,207925,3.1621150658999997,-8.8977108381,-2.6871397798,541
90890,188486,207950,3.1621150658999997,-8.8977108381,-2.6871397798,542
90381,188477,207871,3.1238299043,-8.8989072494,-2.6189443356999997,543
89961,188445,207851,3.0508488149999997,-8.8498543861,-2.6249263922,544
89707,188414,207898,3.0257241777000004,-8.873782612100001,-2.6356940939,545
89561,188403,207854,2.9898318387,-8.939585233599999,-2.6703900216,546
89532,188425,207887,3.1214370817,-9.032905315,-2.6584259086,547
89569,188408,207902,3.1908289370999996,-8.9336031771,-2.6321048599999997,548
89670,188463,207858,3.0723842184,-8.7996051115,-2.6189443356999997,549
89734,188456,207932,3.0424739359,-8.876175434699999,-2.7421746995999996,550
89763,188426,207934,3.1872397032,-8.970691927399999,-2.7529424013,551
89803,188421,207892,3.1872397032,-8.970691927399999,-2.7529424013,552
89837,188452,207907,3.1872397032,-8.970691927399999,-2.7529424013,553
89838,188445,207918,3.1872397032,-8.970691927399999,-2.7529424013,554
89899,188455,207942,3.1872397032,-8.970691927399999,-2.7529424013,555
89963,188455,207976,3.1872397032,-8.970691927399999,-2.7529424013,556
90052,188439,207939,3.1872397032,-8.970691927399999,-2.7529424013,557
90146,188465,207934,3.1872397032,-8.970691927399999,-2.7529424013,558
90249,188437,207980,3.1872397032,-8.970691927399999,-2.7529424013,559
90344,188493,207964,3.1872397032,-8.970691927399999,-2.7529424013,560
90457,188488,207995,3.1872397032,-8.970691927399999,-2.7529424013,561
90575,188505,207975,3.1872397032,-8.970691927399999,-2.7529424013,562
90687,188465,207958,3.2004002275,-9.0137627342,-2.6871397798,563
90795,188502,207956,3.2004002275,-9.0137627342,-2.6871397798,564
90910,188503,207957,3.2004002275,-9.0137627342,-2.6871397798,565
91018,188478,207932,3.2004002275,-9.0137627342,-2.6871397798,566
91119,188469,207958,3.2004002275,-9.0137627342,-2.6871397798,567
91060,188486,207955,3.2004002275,-9.0137627342,-2.6871397798,568
90711,188471,207982,3.2004002275,-9.0137627342,-2.6871397798,569
90213,188434,207915,3.0819555088,-8.9084785398,-2.6105694566,570
89779,188405,207870,3.1118657913,-8.997012975999999,-2.6799613119999997,571
89493,188403,207851,3.1561330094,-8.8785682573,-2.6644079651,572
89384,188437,207870,3.2243284535,-8.8366938618,-2.6177479243999997,573
89332,188383,207854,3.1357940173,-9.050851484499999,-2.6141586905,574
89371,188395,207868,3.1381868399,-8.8713897895,-2.656033086,575
89492,188426,207899,3.1561330094,-8.9718883387,-2.4933211492,576
89612,188387,207877,3.1848468806000003,-8.985048863000001,-2.6213371583000002,577
89638,188387,207927,3.1357940173,-8.841479506999999,-2.5543381254999997,578
89718,188394,207910,3.134597606,-8.889335959,-2.6775684894,579
89810,188390,207845,3.1262227269,-8.8749790234,-2.7182464736,580
89773,188386,207927,3.1214370817,-8.9826560404,-2.6632115538,581
89790,188402,207935,3.0831519201,-8.913264185,-2.656033086,582
89886,188401,207886,3.1310083721,-8.865407733,-2.7278177639999996,583
89923,188389,207916,3.1082765574000004,-8.9575314031,-2.6333012713,584
90031,188392,207883,3.1956145822999997,-9.0041914438,-2.6608187311999996,585
90144,188454,207919,3.0795626862,-9.0077806777,-2.7050859493,586
90255,188427,207906,3.086741154,-8.8163548697,-2.6404797391000003,587
90336,188400,207930,3.146561719,-9.0341017263,-2.6416761504,588
90436,188460,207914,3.1393832512,-8.7948194663,-2.6380869165,589
90596,188400,207919,3.2099715178999997,-8.9156570076,-2.7086751831999996,590
90687,188410,207929,2.9611179675,-8.806783579300001,-2.6464617955999996,591
90801,188404,207952,3.1752755902,-9.010173500299999,-2.6967110702,592
90935,188420,207870,3.1022945009000003,-9.0915294687,-2.6069802227000003,593
90973,188402,207921,3.0819555088,-8.9587278144,-2.7373890544,594
91013,188430,207923,3.1716863562999995,-8.859425676499999,-2.7074787719,595
90738,188382,207896,3.1357940173,-8.9419780562,-2.6644079651,596
90335,188381,207823,3.098705267,-8.9862452743,-2.691925425,597
90024,188362,207861,3.0999016782999997,-8.8259261601,-2.620140747,598
89848,188387,207790,3.2398818003999996,-8.961120637,-2.7254249414,599
89806,188409,207827,3.0101708308,-8.865407733,-2.6871397798,600
89847,188330,207817,3.1764720014999996,-8.9204426528,-2.7014967154,601
90003,188386,207831,3.0484559924,-8.9635134596,-2.5878376418999998,602
90124,188368,207865,3.0699913958000002,-8.8845503138,-2.5866412306,603
90190,188364,207876,3.0795626862,-8.8271225714,-2.6584259086,604
90245,188393,207861,3.0233313551,-9.0029950325,-2.7469603447999997,605
90235,188412,207832,3.158525832,-8.9778703952,-2.6799613119999997,606
90264,188418,207878,3.158525832,-8.9778703952,-2.6799613119999997,607
90286,188405,207882,3.158525832,-8.9778703952,-2.6799613119999997,608
90320,188380,207871,3.158525832,-8.9778703952,-2.6799613119999997,609
90382,188404,207852,3.158525832,-8.9778703952,-2.6799613119999997,610
90457,188410,207869,3.158525832,-8.9778703952,-2.6799613119999997,611
90573,188421,207913,3.158525832,-8.9778703952,-2.6799613119999997,612
90670,188422,207904,3.158525832,-8.9778703952,-2.6799613119999997,613
90779,188460,207932,3.158525832,-8.9778703952,-2.6799613119999997,614
90864,188502,207931,3.158525832,-8.9778703952,-2.6799613119999997,615
90984,188484,207954,3.158525832,-8.9778703952,-2.6799613119999997,616
91051,188497,207948,3.158525832,-8.9778703952,-2.6799613119999997,617
91169,188491,207960,3.158525832,-8.9778703952,-2.6799613119999997,618
91179,188474,207969,3.158525832,-8.9778703952,-2.6799613119999997,619
91077,188505,207926,3.158525832,-8.9778703952,-2.6799613119999997,620
90704,188471,207931,3.158525832,-8.9778703952,-2.6799613119999997,621
90283,188466,207895,3.158525832,-8.9778703952,-2.6799613119999997,622
89947,188452,207898,3.158525832,-8.9778703952,-2.6799613119999997,623
89773,188399,207900,3.158525832,-8.9778703952,-2.6799613119999997,624
89691,188428,207910,3.158525832,-8.9778703952,-2.6799613119999997,625
89737,188443,207919,3.158525832,-8.9778703952,-2.6799613119999997,626
89838,188434,207927,3.158525832,-8.9778703952,-2.6799613119999997,627
89960,188433,207927,3.158525832,-8.9778703952,-2.6799613119999997,628
90036,188445,207898,3.158525832,-8.9778703952,-2.6799613119999997,629
90107,188443,207889,3.158525832,-8.9778703952,-2.6799613119999997,630
90126,188434,207918,3.158525832,-8.9778703952,-2.6799613119999997,631
90153,188429,207962,3.158525832,-8.9778703952,-2.6799613119999997,632
90185,188449,207945,3.158525832,-8.9778703952,-2.6799613119999997,633
90267,188457,207924,3.1178478478000002,-8.9563349918,-2.5567309481,634
90364,188425,207948,3.1178478478000002,-8.9563349918,-2.5567309481,635
90441,188450,207931,3.1178478478000002,-8.9563349918,-2.5567309481,636
90539,188451,207965,3.1178478478000002,-8.9563349918,-2.5567309481,637
90655,188461,207974,3.1178478478000002,-8.9563349918,-2.5567309481,638
90747,188472,207960,3.1178478478000002,-8.9563349918,-2.5567309481,639
90855,188458,207974,3.1178478478000002,-8.9563349918,-2.5567309481,640
91001,188483,207995,3.1178478478000002,-8.9563349918,-2.5567309481,641
91083,188449,207981,3.1178478478000002,-8.9563349918,-2.5567309481,642
91203,188464,207980,3.1178478478000002,-8.9563349918,-2.5567309481,643
91320,188458,207995,3.1178478478000002,-8.9563349918,-2.5567309481,644
91394,188441,207993,3.1178478478000002,-8.9563349918,-2.5567309481,645
91354,188425,207950,3.2626136151000003,-8.997012975999999,-2.6823541346,646
90953,188439,207979,3.2626136151000003,-8.997012975999999,-2.6823541346,647
90392,188438,207937,3.2626136151000003,-8.997012975999999,-2.6823541346,648
89967,188379,207918,3.2626136151000003,-8.997012975999999,-2.6823541346,649
89634,188380,207865,3.2626136151000003,-8.997012975999999,-2.6823541346,650
89443,188348,207849,3.2626136151000003,-8.997012975999999,-2.6823541346,651
89399,188370,207865,3.2626136151000003,-8.997012975999999,-2.6823541346,652
89417,188367,207893,3.2626136151000003,-8.997012975999999,-2.6823541346,653
89492,188374,207905,3.2626136151000003,-8.997012975999999,-2.6823541346,654
89600,188368,207903,3.2626136151000003,-8.997012975999999,-2.6823541346,655
89671,188376,207913,3.2626136151000003,-8.997012975999999,-2.6823541346,656
89718,188390,207892,3.2626136151000003,-8.997012975999999,-2.6823541346,657
89735,188385,207930,3.2626136151000003,-8.997012975999999,-2.6823541346,658
89768,188414,207969,3.2626136151000003,-8.997012975999999,-2.6823541346,659
89822,188381,207978,3.2626136151000003,-8.997012975999999,-2.6823541346,660
89889,188406,207981,3.2626136151000003,-8.997012975999999,-2.6823541346,661
89979,188394,207924,3.2626136151000003,-8.997012975999999,-2.6823541346,662
90069,188431,207979,3.2626136151000003,-8.997012975999999,-2.6823541346,663
90182,188410,208003,3.2626136151000003,-8.997012975999999,-2.6823541346,664
90297,188408,207992,3.2626136151000003,-8.997012975999999,-2.6823541346,665
90395,188395,208018,3.1417760738,-8.985048863000001,-2.5806591741,666
90548,188422,208007,3.1417760738,-8.985048863000001,-2.5806591741,667
90665,188413,208025,3.1417760738,-8.985048863000001,-2.5806591741,668
90803,188407,208007,3.1417760738,-8.985048863000001,-2.5806591741,669
90907,188421,208028,3.1417760738,-8.985048863000001,-2.5806591741,670
91021,188426,208021,3.1417760738,-8.985048863000001,-2.5806591741,671
91124,188443,208047,3.1417760738,-8.985048863000001,-2.5806591741,672
91191,188424,207991,3.1417760738,-8.985048863000001,-2.5806591741,673
90944,188404,207949,3.1417760738,-8.985048863000001,-2.5806591741,674
90446,188408,207940,3.1417760738,-8.985048863000001,-2.5806591741,675
89917,188370,207928,3.1417760738,-8.985048863000001,-2.5806591741,676
89569,188370,207918,3.1417760738,-8.985048863000001,-2.5806591741,677
89316,188353,207907,3.1417760738,-8.985048863000001,-2.5806591741,678
89247,188322,207931,3.146561719,-8.937192411,-2.7086751831999996,679
89233,188364,207902,3.146561719,-8.937192411,-2.7086751831999996,680
89317,188357,207955,3.146561719,-8.937192411,-2.7086751831999996,681
89443,188371,207931,3.146561719,-8.937192411,-2.7086751831999996,682
89532,188364,207964,3.146561719,-8.937192411,-2.7086751831999996,683
89590,188341,207978,3.146561719,-8.937192411,-2.7086751831999996,684
89622,188394,207961,3.146561719,-8.937192411,-2.7086751831999996,685
89647,188367,207976,3.146561719,-8.937192411,-2.7086751831999996,686
89668,188384,208006,3.146561719,-8.937192411,-2.7086751831999996,687
89745,188411,207975,3.146561719,-8.937192411,-2.7086751831999996,688
89813,188362,208001,3.146561719,-8.937192411,-2.7086751831999996,689
89908,188386,208037,3.146561719,-8.937192411,-2.7086751831999996,690
90041,188396,207990,3.1298119607999997,-9.0041914438,-2.620140747,691
90138,188379,207993,3.1298119607999997,-9.0041914438,-2.620140747,692
90282,188368,207987,3.1298119607999997,-9.0041914438,-2.620140747,693
90385,188405,207973,3.1298119607999997,-9.0041914438,-2.620140747,694
90527,188396,208007,3.1298119607999997,-9.0041914438,-2.620140747,695
90633,188415,207963,3.1298119607999997,-9.0041914438,-2.620140747,696
90759,188420,208039,3.1298119607999997,-9.0041914438,-2.620140747,697
90855,188414,208025,3.1298119607999997,-9.0041914438,-2.620140747,698
90981,188404,208051,3.1298119607999997,-9.0041914438,-2.620140747,699
91075,188423,207980,3.1298119607999997,-9.0041914438,-2.620140747,700
91128,188390,208028,3.1298119607999997,-9.0041914438,-2.620140747,701
90927,188394,207942,3.1298119607999997,-9.0041914438,-2.620140747,702
90472,188382,207913,3.1298119607999997,-9.0041914438,-2.620140747,703
90002,188373,207901,3.1298119607999997,-9.0041914438,-2.620140747,704
89672,188352,207874,3.1298119607999997,-9.0041914438,-2.620140747,705
89505,188324,207854,3.1298119607999997,-9.0041914438,-2.620140747,706
89484,188340,207888,3.1298119607999997,-9.0041914438,-2.620140747,707
89526,188333,207886,3.1298119607999997,-9.0041914438,-2.620140747,708
89634,188341,207880,3.1298119607999997,-9.0041914438,-2.620140747,709
89761,188344,207922,3.1298119607999997,-9.0041914438,-2.620140747,710
89846,188344,207943,3.2087751066,-9.0053878551,-2.667997199,711
89912,188332,207930,3.2087751066,-9.0053878551,-2.667997199,712
89902,188357,207910,3.2087751066,-9.0053878551,-2.667997199,713
89895,188362,207929,3.2087751066,-9.0053878551,-2.667997199,714
89936,188334,207949,3.2087751066,-9.0053878551,-2.667997199,715
89977,188378,207952,3.2087751066,-9.0053878551,-2.667997199,716
90048,188361,207935,3.2087751066,-9.0053878551,-2.667997199,717
90118,188378,207959,3.2087751066,-9.0053878551,-2.667997199,718
90208,188350,207930,3.2087751066,-9.0053878551,-2.667997199,719
90320,188361,207960,3.2087751066,-9.0053878551,-2.667997199,720
90434,188354,207969,3.2087751066,-9.0053878551,-2.667997199,721
90534,188388,207956,3.2087751066,-9.0053878551,-2.667997199,722
90637,188365,207974,3.2087751066,-9.0053878551,-2.667997199,723
90738,188388,207968,3.2087751066,-9.0053878551,-2.667997199,724
90860,188384,207935,3.2087751066,-9.0053878551,-2.667997199,725
90962,188404,207929,3.2087751066,-9.0053878551,-2.667997199,726
91047,188403,207977,3.2087751066,-9.0053878551,-2.667997199,727
90892,188367,207914,3.2087751066,-9.0053878551,-2.667997199,728
90542,188372,207934,3.2087751066,-9.0053878551,-2.667997199,729
90119,188374,207932,3.2087751066,-9.0053878551,-2.667997199,730
89857,188411,207912,3.2087751066,-9.0053878551,-2.667997199,731
89729,188411,207891,3.2087751066,-9.0053878551,-2.667997199,732
89720,188430,207956,3.2087751066,-9.0053878551,-2.667997199,733
89788,188429,207935,3.2087751066,-9.0053878551,-2.667997199,734
89917,188419,208009,3.2087751066,-9.0053878551,-2.667997199,735
90045,188444,208004,3.2087751066,-9.0053878551,-2.667997199,736
90086,188454,207992,3.2087751066,-9.0053878551,-2.667997199,737
90107,188437,207985,3.2087751066,-9.0053878551,-2.667997199,738
90133,188483,207990,3.2087751066,-9.0053878551,-2.667997199,739
90131,188486,208025,3.2087751066,-9.0053878551,-2.667997199,740
90177,188482,207982,3.2087751066,-9.0053878551,-2.667997199,741
90240,188472,208014,3.2087751066,-9.0053878551,-2.667997199,742
90312,188463,208031,3.1202406704,-8.916853418899999,-2.6644079651,743
90396,188491,207993,3.1202406704,-8.916853418899999,-2.6644079651,744
90501,188503,208030,3.1202406704,-8.916853418899999,-2.6644079651,745
90593,188498,208014,3.1202406704,-8.916853418899999,-2.6644079651,746
90669,188500,208027,3.1202406704,-8.916853418899999,-2.6644079651,747
90816,188499,208017,3.1202406704,-8.916853418899999,-2.6644079651,748
90888,188473,208025,3.1202406704,-8.916853418899999,-2.6644079651,749
90993,188479,208036,3.1202406704,-8.916853418899999,-2.6644079651,750
91069,188472,208018,3.1202406704,-8.916853418899999,-2.6644079651,751
91134,188455,208023,3.1202406704,-8.916853418899999,-2.6644079651,752
90870,188472,207996,3.1202406704,-8.916853418899999,-2.6644079651,753
90389,188489,207993,3.1202406704,-8.916853418899999,-2.6644079651,754
89871,188463,207953,3.1202406704,-8.916853418899999,-2.6644079651,755
89445,188422,207961,3.1202406704,-8.916853418899999,-2.6644079651,756
89240,188395,207924,3.1202406704,-8.916853418899999,-2.6644079651,757
89125,188416,207893,3.1202406704,-8.916853418899999,-2.6644079651,758
89143,188411,207959,3.1202406704,-8.916853418899999,-2.6644079651,759
89217,188392,207956,3.1202406704,-8.916853418899999,-2.6644079651,760
89333,188423,207925,3.1202406704,-8.916853418899999,-2.6644079651,761
89445,188432,207968,3.1202406704,-8.916853418899999,-2.6644079651,762
89542,188443,207961,3.1202406704,-8.916853418899999,-2.6644079651,763
89582,188395,207977,3.1202406704,-8.916853418899999,-2.6644079651,764
89610,188450,208000,3.1202406704,-8.916853418899999,-2.6644079651,765
89669,188426,208050,3.1202406704,-8.916853418899999,-2.6644079651,766
89705,188446,208024,3.1202406704,-8.916853418899999,-2.6644079651,767
89825,188458,207999,3.1202406704,-8.916853418899999,-2.6644079651,768
89917,188454,208013,3.1202406704,-8.916853418899999,-2.6644079651,769
90033,188443,207995,3.1202406704,-8.916853418899999,-2.6644079651,770
90156,188434,208020,3.1202406704,-8.916853418899999,-2.6644079651,771
90267,188465,208016,3.1202406704,-8.916853418899999,-2.6644079651,772
90418,188456,208041,3.1202406704,-8.916853418899999,-2.6644079651,773
90535,188476,207999,3.1202406704,-8.916853418899999,-2.6644079651,774
90658,188488,208022,3.1202406704,-8.916853418899999,-2.6644079651,775
90776,188446,208018,3.1202406704,-8.916853418899999,-2.6644079651,776
90886,188469,208021,3.1202406704,-8.916853418899999,-2.6644079651,777
91024,188491,208041,3.1202406704,-8.916853418899999,-2.6644079651,778
90987,188475,208022,3.1202406704,-8.916853418899999,-2.6644079651,779
90705,188455,208014,3.1202406704,-8.916853418899999,-2.6644079651,780
90223,188450,207997,3.1202406704,-8.916853418899999,-2.6644079651,781
89699,188431,207970,3.1202406704,-8.916853418899999,-2.6644079651,782
89415,188414,207982,3.1202406704,-8.916853418899999,-2.6644079651,783
89229,188418,207944,3.1202406704,-8.916853418899999,-2.6644079651,784
89311,188390,207985,3.1154550251999997,-8.9228354754,-2.6500510295,785
89431,188438,207963,3.1154550251999997,-8.9228354754,-2.6500510295,786
89539,188445,207964,3.1154550251999997,-8.9228354754,-2.6500510295,787
89599,188426,207992,3.1154550251999997,-8.9228354754,-2.6500510295,788
89650,188424,207959,3.1154550251999997,-8.9228354754,-2.6500510295,789
89634,188445,207976,3.1154550251999997,-8.9228354754,-2.6500510295,790
89719,188432,207980,3.1154550251999997,-8.9228354754,-2.6500510295,791
89774,188456,208013,3.1154550251999997,-8.9228354754,-2.6500510295,792
89870,188434,208004,3.1154550251999997,-8.9228354754,-2.6500510295,793
89965,188465,208001,3.1154550251999997,-8.9228354754,-2.6500510295,794
90101,188459,208017,3.1154550251999997,-8.9228354754,-2.6500510295,795
90209,188435,208005,3.1154550251999997,-8.9228354754,-2.6500510295,796
90324,188467,208055,3.1154550251999997,-8.9228354754,-2.6500510295,797
90442,188451,207978,3.1154550251999997,-8.9228354754,-2.6500510295,798
90576,188462,208023,3.1154550251999997,-8.9228354754,-2.6500510295,799
90675,188461,208008,3.1154550251999997,-8.9228354754,-2.6500510295,800
90784,188440,208043,3.1154550251999997,-8.9228354754,-2.6500510295,801
90897,188481,208048,3.1154550251999997,-8.9228354754,-2.6500510295,802
91005,188460,208046,3.1154550251999997,-8.9228354754,-2.6500510295,803
91034,188462,208027,3.1154550251999997,-8.9228354754,-2.6500510295,804
90831,188483,208011,3.1154550251999997,-8.9228354754,-2.6500510295,805
90351,188474,207986,3.1154550251999997,-8.9228354754,-2.6500510295,806
89870,188444,207989,3.1154550251999997,-8.9228354754,-2.6500510295,807
89558,188404,207952,3.1154550251999997,-8.9228354754,-2.6500510295,808
89379,188413,207941,3.1154550251999997,-8.9228354754,-2.6500510295,809
89321,188410,207911,3.1154550251999997,-8.9228354754,-2.6500510295,810
89346,188410,207940,3.1154550251999997,-8.9228354754,-2.6500510295,811
89443,188421,207926,3.1154550251999997,-8.9228354754,-2.6500510295,812
89584,188430,207943,3.1154550251999997,-8.9228354754,-2.6500510295,813
89665,188415,207992,3.1154550251999997,-8.9228354754,-2.6500510295,814
89700,188427,207937,3.1154550251999997,-8.9228354754,-2.6500510295,815
89755,188418,207966,3.1154550251999997,-8.9228354754,-2.6500510295,816
89779,188428,207993,3.1154550251999997,-8.9228354754,-2.6500510295,817
89792,188402,207969,3.1154550251999997,-8.9228354754,-2.6500510295,818
89853,188403,207996,3.1154550251999997,-8.9228354754,-2.6500510295,819
89921,188432,207954,3.1154550251999997,-8.9228354754,-2.6500510295,820
90022,188441,207977,3.1154550251999997,-8.9228354754,-2.6500510295,821
90139,188425,207982,3.1154550251999997,-8.9228354754,-2.6500510295,822
90216,188437,207995,3.1154550251999997,-8.9228354754,-2.6500510295,823
90344,188421,207989,3.1154550251999997,-8.9228354754,-2.6500510295,824
90450,188435,207970,3.1154550251999997,-8.9228354754,-2.6500510295,825
90551,188427,207960,3.1154550251999997,-8.9228354754,-2.6500510295,826
89800,188392,207895,3.1190442591,-8.864211321700001,-2.5866412306,827
89904,188389,207921,3.1190442591,-8.864211321700001,-2.5866412306,828
90054,188392,207926,3.1190442591,-8.864211321700001,-2.5866412306,829
90144,188395,207919,3.1190442591,-8.864211321700001,-2.5866412306,830
90214,188399,207914,3.1190442591,-8.864211321700001,-2.5866412306,831
90246,188415,207911,3.1190442591,-8.864211321700001,-2.5866412306,832
90232,188417,207904,3.1190442591,-8.864211321700001,-2.5866412306,833
90221,188421,207931,3.1190442591,-8.864211321700001,-2.5866412306,834
90271,188431,207901,3.1190442591,-8.864211321700001,-2.5866412306,835
90330,188413,207920,3.1190442591,-8.864211321700001,-2.5866412306,836
90406,188398,207932,3.1190442591,-8.864211321700001,-2.5866412306,837
90517,188453,207914,3.1190442591,-8.864211321700001,-2.5866412306,838
90598,188460,207942,3.1190442591,-8.864211321700001,-2.5866412306,839
90681,188489,207967,3.1190442591,-8.864211321700001,-2.5866412306,840
90804,188494,207966,3.1190442591,-8.864211321700001,-2.5866412306,841
90908,188505,207992,3.1190442591,-8.864211321700001,-2.5866412306,842
91006,188477,208002,3.1190442591,-8.864211321700001,-2.5866412306,843
91098,188521,207985,3.1190442591,-8.864211321700001,-2.5866412306,844
91127,188506,207977,3.1190442591,-8.864211321700001,-2.5866412306,845
90920,188515,208003,3.1190442591,-8.864211321700001,-2.5866412306,846
90523,188496,208000,3.1190442591,-8.864211321700001,-2.5866412306,847
90092,188476,208001,3.1190442591,-8.864211321700001,-2.5866412306,848
89827,188466,207949,3.1190442591,-8.864211321700001,-2.5866412306,849
89681,188459,207924,3.1190442591,-8.864211321700001,-2.5866412306,850
89646,188469,207949,3.1190442591,-8.864211321700001,-2.5866412306,851
89711,188465,207969,3.1190442591,-8.864211321700001,-2.5866412306,852
89810,188467,207969,3.1190442591,-8.864211321700001,-2.5866412306,853
89922,188480,207975,3.1190442591,-8.864211321700001,-2.5866412306,854
89995,188477,207965,3.1190442591,-8.864211321700001,-2.5866412306,855
90000,188493,207975,3.1190442591,-8.864211321700001,-2.5866412306,856
90033,188469,207967,3.1190442591,-8.864211321700001,-2.5866412306,857
90064,188482,207994,3.1190442591,-8.864211321700001,-2.5866412306,858
90069,188455,208016,3.1190442591,-8.864211321700001,-2.5866412306,859
90141,188456,207947,3.1190442591,-8.864211321700001,-2.5866412306,860
90229,188464,208002,3.1190442591,-8.864211321700001,-2.5866412306,861
90325,188461,207997,3.1190442591,-8.864211321700001,-2.5866412306,862
90399,188452,207996,3.1190442591,-8.864211321700001,-2.5866412306,863
90499,188499,208015,3.1190442591,-8.864211321700001,-2.5866412306,864
90634,188479,208022,3.1190442591,-8.864211321700001,-2.5866412306,865
90732,188454,207987,3.1190442591,-8.864211321700001,-2.5866412306,866
90837,188485,208009,3.1190442591,-8.864211321700001,-2.5866412306,867
90944,188477,208038,3.1190442591,-8.864211321700001,-2.5866412306,868
89437,188411,207943,3.1298119607999997,-8.8271225714,-2.644068973,869
89492,188388,207961,3.1298119607999997,-8.8271225714,-2.644068973,870
89538,188409,207977,3.1298119607999997,-8.8271225714,-2.644068973,871
89620,188440,207981,3.1298119607999997,-8.8271225714,-2.644068973,872
89736,188429,207997,3.1298119607999997,-8.8271225714,-2.644068973,873
89848,188425,207960,3.1298119607999997,-8.8271225714,-2.644068973,874
89950,188459,207968,3.1298119607999997,-8.8271225714,-2.644068973,875
90091,188415,208013,3.1298119607999997,-8.8271225714,-2.644068973,876
90212,188459,208007,3.1298119607999997,-8.8271225714,-2.644068973,877
90329,188446,208018,3.1298119607999997,-8.8271225714,-2.644068973,878
90442,188439,208003,3.1298119607999997,-8.8271225714,-2.644068973,879
90530,188455,208032,3.1298119607999997,-8.8271225714,-2.644068973,880
90647,188432,208000,3.1298119607999997,-8.8271225714,-2.644068973,881
90710,188458,208029,3.1298119607999997,-8.8271225714,-2.644068973,882
90471,188426,207971,3.1298119607999997,-8.8271225714,-2.644068973,883
89988,188423,207971,3.1298119607999997,-8.8271225714,-2.644068973,884
89446,188406,207943,3.1298119607999997,-8.8271225714,-2.644068973,885
89033,188384,207893,3.1298119607999997,-8.8271225714,-2.644068973,886
88809,188341,207884,3.1298119607999997,-8.8271225714,-2.644068973,887
88716,188392,207889,3.1298119607999997,-8.8271225714,-2.644068973,888
88734,188367,207932,3.1298119607999997,-8.8271225714,-2.644068973,889
88775,188373,207925,3.1298119607999997,-8.8271225714,-2.644068973,890
88899,188373,207944,3.1298119607999997,-8.8271225714,-2.644068973,891
89016,188408,207934,3.1298119607999997,-8.8271225714,-2.644068973,892
89069,188402,207946,3.1298119607999997,-8.8271225714,-2.644068973,893
89098,188377,208001,3.1298119607999997,-8.8271225714,-2.644068973,894
89167,188378,207929,3.1298119607999997,-8.8271225714,-2.644068973,895
89196,188385,207949,3.1298119607999997,-8.8271225714,-2.644068973,896
89243,188379,207942,3.1298119607999997,-8.8271225714,-2.644068973,897
89308,188392,207981,3.1298119607999997,-8.8271225714,-2.644068973,898
89422,188404,207954,3.1298119607999997,-8.8271225714,-2.644068973,899
89546,188365,207955,3.1298119607999997,-8.8271225714,-2.644068973,900
89640,188383,207917,3.1298119607999997,-8.8271225714,-2.644068973,901
89749,188414,207941,3.1298119607999997,-8.8271225714,-2.644068973,902
89881,188371,207965,3.1298119607999997,-8.8271225714,-2.644068973,903
90015,188389,207966,3.1298119607999997,-8.8271225714,-2.644068973,904
90111,188398,207984,3.1298119607999997,-8.8271225714,-2.644068973,905
90236,188396,207971,3.1298119607999997,-8.8271225714,-2.644068973,906
90347,188405,207964,3.1298119607999997,-8.8271225714,-2.644068973,907
90468,188388,207951,3.1298119607999997,-8.8271225714,-2.644068973,908
90511,188379,207906,3.1298119607999997,-8.8271225714,-2.644068973,909
90267,188358,207916,3.1298119607999997,-8.8271225714,-2.644068973,910
89023,188431,207941,3.1190442591,-8.8953180155,-2.6608187311999996,911
89124,188449,207930,3.1190442591,-8.8953180155,-2.6608187311999996,912
89233,188431,207927,3.1190442591,-8.8953180155,-2.6608187311999996,913
89352,188451,207962,3.1190442591,-8.8953180155,-2.6608187311999996,914
89425,188419,207913,3.1190442591,-8.8953180155,-2.6608187311999996,915
89444,188466,207973,3.1190442591,-8.8953180155,-2.6608187311999996,916
89421,188450,207943,3.1190442591,-8.8953180155,-2.6608187311999996,917
89483,188470,207944,3.1190442591,-8.8953180155,-2.6608187311999996,918
89522,188461,207937,3.1190442591,-8.8953180155,-2.6608187311999996,919
89591,188497,207972,3.1190442591,-8.8953180155,-2.6608187311999996,920
89687,188439,207942,3.1190442591,-8.8953180155,-2.6608187311999996,921
89803,188444,207977,3.1190442591,-8.8953180155,-2.6608187311999996,922
89891,188450,207959,3.1190442591,-8.8953180155,-2.6608187311999996,923
89996,188462,207949,3.1190442591,-8.8953180155,-2.6608187311999996,924
90088,188450,207932,3.1190442591,-8.8953180155,-2.6608187311999996,925
90218,188468,207931,3.1190442591,-8.8953180155,-2.6608187311999996,926
90343,188416,207926,3.1190442591,-8.8953180155,-2.6608187311999996,927
90458,188449,207927,3.1190442591,-8.8953180155,-2.6608187311999996,928
90562,188439,207950,3.1190442591,-8.8953180155,-2.6608187311999996,929
90610,188417,207959,3.1190442591,-8.8953180155,-2.6608187311999996,930
90424,188392,207944,3.1190442591,-8.8953180155,-2.6608187311999996,931
89917,188440,207915,3.1190442591,-8.8953180155,-2.6608187311999996,932
89357,188428,207885,3.1190442591,-8.8953180155,-2.6608187311999996,933
88925,188418,207927,3.1190442591,-8.8953180155,-2.6608187311999996,934
88713,188394,207844,3.1190442591,-8.8953180155,-2.6608187311999996,935
88612,188400,207851,3.1190442591,-8.8953180155,-2.6608187311999996,936
88617,188388,207852,3.1190442591,-8.8953180155,-2.6608187311999996,937
88700,188389,207869,3.1190442591,-8.8953180155,-2.6608187311999996,938
88839,188377,207864,3.1190442591,-8.8953180155,-2.6608187311999996,939
88928,188383,207906,3.1190442591,-8.8953180155,-2.6608187311999996,940
89003,188419,207922,3.1190442591,-8.8953180155,-2.6608187311999996,941
89064,188374,207859,3.1190442591,-8.8953180155,-2.6608187311999996,942
89114,188437,207925,3.1190442591,-8.8953180155,-2.6608187311999996,943
89154,188402,207889,3.1190442591,-8.8953180155,-2.6608187311999996,944
89190,188397,207920,3.1190442591,-8.8953180155,-2.6608187311999996,945
89297,188411,207921,3.1190442591,-8.8953180155,-2.6608187311999996,946
89413,188401,207889,3.1190442591,-8.8953180155,-2.6608187311999996,947
89527,188412,207879,3.1190442591,-8.8953180155,-2.6608187311999996,948
89658,188414,207859,3.1190442591,-8.8953180155,-2.6608187311999996,949
89771,188400,207903,3.1190442591,-8.8953180155,-2.6608187311999996,950
89938,188432,207897,3.1190442591,-8.8953180155,-2.6608187311999996,951
90049,188398,207930,3.1190442591,-8.8953180155,-2.6608187311999996,952
90530,188415,207945,3.1142586138999997,-8.9084785398,-2.7062823606,953
90669,188380,207980,3.1142586138999997,-8.9084785398,-2.7062823606,954
90655,188412,207868,3.1142586138999997,-8.9084785398,-2.7062823606,955
90342,188397,207884,3.1142586138999997,-8.9084785398,-2.7062823606,956
89814,188407,207894,3.1142586138999997,-8.9084785398,-2.7062823606,957
89347,188403,207849,3.1142586138999997,-8.9084785398,-2.7062823606,958
89044,188400,207842,3.1142586138999997,-8.9084785398,-2.7062823606,959
88901,188407,207856,3.1142586138999997,-8.9084785398,-2.7062823606,960
88843,188406,207849,3.1142586138999997,-8.9084785398,-2.7062823606,961
88888,188398,207874,3.1142586138999997,-8.9084785398,-2.7062823606,962
88997,188392,207871,3.1142586138999997,-8.9084785398,-2.7062823606,963
89108,188359,207865,3.1142586138999997,-8.9084785398,-2.7062823606,964
89217,188385,207863,3.1142586138999997,-8.9084785398,-2.7062823606,965
89268,188397,207877,3.1142586138999997,-8.9084785398,-2.7062823606,966
89330,188378,207822,3.1142586138999997,-8.9084785398,-2.7062823606,967
89380,188416,207861,3.1142586138999997,-8.9084785398,-2.7062823606,968
89448,188405,207928,3.1142586138999997,-8.9084785398,-2.7062823606,969
89508,188393,207896,3.1142586138999997,-8.9084785398,-2.7062823606,970
89585,188404,207867,3.1142586138999997,-8.9084785398,-2.7062823606,971
89711,188415,207876,3.1142586138999997,-8.9084785398,-2.7062823606,972
89819,188429,207881,3.1142586138999997,-8.9084785398,-2.7062823606,973
89957,188394,207847,3.1142586138999997,-8.9084785398,-2.7062823606,974
90072,188384,207899,3.1142586138999997,-8.9084785398,-2.7062823606,975
90193,188394,207860,3.1142586138999997,-8.9084785398,-2.7062823606,976
90325,188396,207893,3.1142586138999997,-8.9084785398,-2.7062823606,977
90448,188353,207892,3.1142586138999997,-8.9084785398,-2.7062823606,978
90578,188382,207903,3.1142586138999997,-8.9084785398,-2.7062823606,979
90692,188381,207914,3.1142586138999997,-8.9084785398,-2.7062823606,980
90809,188379,207884,3.1142586138999997,-8.9084785398,-2.7062823606,981
90939,188370,207855,3.1142586138999997,-8.9084785398,-2.7062823606,982
90989,188363,207837,3.1142586138999997,-8.9084785398,-2.7062823606,983
90771,188360,207846,3.1142586138999997,-8.9084785398,-2.7062823606,984
90375,188399,207854,3.1142586138999997,-8.9084785398,-2.7062823606,985
90005,188361,207798,3.1142586138999997,-8.9084785398,-2.7062823606,986
89737,188390,207773,3.1142586138999997,-8.9084785398,-2.7062823606,987
89636,188336,207779,3.1142586138999997,-8.9084785398,-2.7062823606,988
89623,188367,207753,3.1142586138999997,-8.9084785398,-2.7062823606,989
89673,188337,207795,3.1142586138999997,-8.9084785398,-2.7062823606,990
89795,188341,207754,3.1142586138999997,-8.9084785398,-2.7062823606,991
89918,188352,207793,3.1142586138999997,-8.9084785398,-2.7062823606,992
89995,188337,207795,3.1142586138999997,-8.9084785398,-2.7062823606,993
90034,188351,207804,3.1142586138999997,-8.9084785398,-2.7062823606,994
89663,188445,207789,3.1058837348,-8.944370878800001,-2.7086751831999996,995
89754,188423,207788,3.1058837348,-8.944370878800001,-2.7086751831999996,996
89826,188410,207809,3.1058837348,-8.944370878800001,-2.7086751831999996,997
89880,188420,207776,3.1058837348,-8.944370878800001,-2.7086751831999996,998
89917,188457,207784,3.1058837348,-8.944370878800001,-2.7086751831999996,999
89927,188448,207801,3.1058837348,-8.944370878800001,-2.7086751831999996,1000
89958,188441,207782,3.1058837348,-8.944370878800001,-2.7086751831999996,1001
90017,188418,207811,3.1058837348,-8.944370878800001,-2.7086751831999996,1002
90085,188461,207822,3.1058837348,-8.944370878800001,-2.7086751831999996,1003
90165,188456,207841,3.1058837348,-8.944370878800001,-2.7086751831999996,1004
90251,188419,207813,3.1058837348,-8.944370878800001,-2.7086751831999996,1005
90353,188446,207813,3.1058837348,-8.944370878800001,-2.7086751831999996,1006
90486,188426,207808,3.1058837348,-8.944370878800001,-2.7086751831999996,1007
90550,188471,207823,3.1058837348,-8.944370878800001,-2.7086751831999996,1008
90674,188458,207807,3.1058837348,-8.944370878800001,-2.7086751831999996,1009
90803,188443,207823,3.1058837348,-8.944370878800001,-2.7086751831999996,1010
90904,188454,207828,3.1058837348,-8.944370878800001,-2.7086751831999996,1011
91002,188443,207813,3.1058837348,-8.944370878800001,-2.7086751831999996,1012
91091,188455,207819,3.1058837348,-8.944370878800001,-2.7086751831999996,1013
90953,188428,207795,3.1058837348,-8.944370878800001,-2.7086751831999996,1014
90534,188429,207812,3.1058837348,-8.944370878800001,-2.7086751831999996,1015
90061,188417,207742,3.1058837348,-8.944370878800001,-2.7086751831999996,1016
89648,188430,207762,3.1058837348,-8.944370878800001,-2.7086751831999996,1017
89410,188427,207721,3.1058837348,-8.944370878800001,-2.7086751831999996,1018
89304,188361,207750,3.1058837348,-8.944370878800001,-2.7086751831999996,1019
89277,188370,207786,3.1058837348,-8.944370878800001,-2.7086751831999996,1020
89302,188404,207772,3.1058837348,-8.944370878800001,-2.7086751831999996,1021
89428,188374,207805,3.1058837348,-8.944370878800001,-2.7086751831999996,1022
89500,188385,207774,3.1058837348,-8.944370878800001,-2.7086751831999996,1023
89561,188385,207793,3.1058837348,-8.944370878800001,-2.7086751831999996,1024
89595,188419,207804,3.1058837348,-8.944370878800001,-2.7086751831999996,1025
89647,188389,207784,3.1058837348,-8.944370878800001,-2.7086751831999996,1026
89642,188394,207786,3.1058837348,-8.944370878800001,-2.7086751831999996,1027
89717,188411,207801,3.1058837348,-8.944370878800001,-2.7086751831999996,1028
89777,188390,207786,3.1058837348,-8.944370878800001,-2.7086751831999996,1029
89838,188404,207781,3.1058837348,-8.944370878800001,-2.7086751831999996,1030
89934,188409,207784,3.1058837348,-8.944370878800001,-2.7086751831999996,1031
90041,188400,207808,3.1058837348,-8.944370878800001,-2.7086751831999996,1032
90161,188413,207807,3.1058837348,-8.944370878800001,-2.7086751831999996,1033
90273,188408,207768,3.1190442591,-8.9635134596,-2.6811577232999997,1034
90381,188405,207774,3.1190442591,-8.9635134596,-2.6811577232999997,1035
90495,188414,207816,3.1190442591,-8.9635134596,-2.6811577232999997,1036
90596,188414,207797,3.1190442591,-8.9635134596,-2.6811577232999997,1037
90716,188410,207827,3.1190442591,-8.9635134596,-2.6811577232999997,1038
90842,188403,207775,3.1190442591,-8.9635134596,-2.6811577232999997,1039
90896,188408,207806,3.1190442591,-8.9635134596,-2.6811577232999997,1040
90717,188381,207783,3.1190442591,-8.9635134596,-2.6811577232999997,1041
90237,188366,207834,3.1190442591,-8.9635134596,-2.6811577232999997,1042
89741,188367,207773,3.1190442591,-8.9635134596,-2.6811577232999997,1043
89343,188377,207722,3.1190442591,-8.9635134596,-2.6811577232999997,1044
89156,188340,207704,3.1190442591,-8.9635134596,-2.6811577232999997,1045
89071,188354,207726,3.1190442591,-8.9635134596,-2.6811577232999997,1046
89109,188341,207716,3.1190442591,-8.9635134596,-2.6811577232999997,1047
89163,188339,207708,3.1190442591,-8.9635134596,-2.6811577232999997,1048
89287,188337,207731,3.1190442591,-8.9635134596,-2.6811577232999997,1049
89383,188330,207717,3.1190442591,-8.9635134596,-2.6811577232999997,1050
89448,188308,207714,3.1190442591,-8.9635134596,-2.6811577232999997,1051
89457,188329,207698,3.1190442591,-8.9635134596,-2.6811577232999997,1052
89488,188343,207730,3.1190442591,-8.9635134596,-2.6811577232999997,1053
89536,188319,207729,3.1190442591,-8.9635134596,-2.6811577232999997,1054
89554,188322,207726,3.1190442591,-8.9635134596,-2.6811577232999997,1055
89633,188346,207680,3.1190442591,-8.9635134596,-2.6811577232999997,1056
89711,188293,207728,3.1190442591,-8.9635134596,-2.6811577232999997,1057
89801,188303,207713,3.1190442591,-8.9635134596,-2.6811577232999997,1058
89890,188314,207696,3.1190442591,-8.9635134596,-2.6811577232999997,1059
89992,188308,207639,3.1190442591,-8.9635134596,-2.6811577232999997,1060
90129,188303,207712,3.1190442591,-8.9635134596,-2.6811577232999997,1061
90222,188297,207688,3.1190442591,-8.9635134596,-2.6811577232999997,1062
90316,188268,207685,3.1190442591,-8.9635134596,-2.6811577232999997,1063
90438,188258,207709,3.1190442591,-8.9635134596,-2.6811577232999997,1064
90538,188270,207678,3.1190442591,-8.9635134596,-2.6811577232999997,1065
90646,188268,207673,3.1190442591,-8.9635134596,-2.6811577232999997,1066
90703,188289,207636,3.1190442591,-8.9635134596,-2.6811577232999997,1067
90545,188245,207607,3.1190442591,-8.9635134596,-2.6811577232999997,1068
90121,188241,207636,3.1190442591,-8.9635134596,-2.6811577232999997,1069
89729,188298,207641,3.1190442591,-8.9635134596,-2.6811577232999997,1070
89447,188261,207603,3.1190442591,-8.9635134596,-2.6811577232999997,1071
89350,188223,207612,3.1190442591,-8.9635134596,-2.6811577232999997,1072
89346,188253,207637,3.1190442591,-8.9635134596,-2.6811577232999997,1073
89468,188230,207654,3.1190442591,-8.9635134596,-2.6811577232999997,1074
89597,188233,207613,3.1190442591,-8.9635134596,-2.6811577232999997,1075
89875,187985,207519,3.0580272828,-8.9539421692,-2.6285156261,1076
90021,187963,207539,3.0580272828,-8.9539421692,-2.6285156261,1077
90139,187935,207519,3.0580272828,-8.9539421692,-2.6285156261,1078
90278,187968,207473,3.0580272828,-8.9539421692,-2.6285156261,1079
90367,187975,207524,3.0580272828,-8.9539421692,-2.6285156261,1080
90414,187945,207511,3.0580272828,-8.9539421692,-2.6285156261,1081
90196,187926,207458,3.0580272828,-8.9539421692,-2.6285156261,1082
89664,187954,207440,3.0580272828,-8.9539421692,-2.6285156261,1083
89173,187923,207492,3.0580272828,-8.9539421692,-2.6285156261,1084
88859,187953,207442,3.0580272828,-8.9539421692,-2.6285156261,1085
88737,187959,207466,3.0580272828,-8.9539421692,-2.6285156261,1086
88710,187931,207463,3.0580272828,-8.9539421692,-2.6285156261,1087
88821,187945,207465,3.0580272828,-8.9539421692,-2.6285156261,1088
88949,187975,207455,3.0580272828,-8.9539421692,-2.6285156261,1089
89095,187944,207473,3.0580272828,-8.9539421692,-2.6285156261,1090
89208,187925,207433,3.0580272828,-8.9539421692,-2.6285156261,1091
89235,187922,207471,3.0580272828,-8.9539421692,-2.6285156261,1092
89231,187946,207495,3.0580272828,-8.9539421692,-2.6285156261,1093
89210,187939,207449,3.0580272828,-8.9539421692,-2.6285156261,1094
89250,187934,207509,3.0580272828,-8.9539421692,-2.6285156261,1095
89294,187952,207470,3.0580272828,-8.9539421692,-2.6285156261,1096
89369,187957,207488,3.0580272828,-8.9539421692,-2.6285156261,1097
89458,187953,207471,3.0580272828,-8.9539421692,-2.6285156261,1098
89555,187922,207450,3.0580272828,-8.9539421692,-2.6285156261,1099
89653,187948,207454,3.0580272828,-8.9539421692,-2.6285156261,1100
89779,187948,207469,3.0580272828,-8.9539421692,-2.6285156261,1101
89906,187979,207426,3.0580272828,-8.9539421692,-2.6285156261,1102
90013,187955,207482,3.0580272828,-8.9539421692,-2.6285156261,1103
90113,187935,207452,3.0580272828,-8.9539421692,-2.6285156261,1104
90227,187956,207444,3.0580272828,-8.9539421692,-2.6285156261,1105
90345,187967,207439,3.0580272828,-8.9539421692,-2.6285156261,1106
90322,187957,207448,3.0580272828,-8.9539421692,-2.6285156261,1107
90027,187939,207398,3.0580272828,-8.9539421692,-2.6285156261,1108
89571,187962,207456,3.0580272828,-8.9539421692,-2.6285156261,1109
89214,188001,207443,3.0580272828,-8.9539421692,-2.6285156261,1110
89006,188055,207441,3.0580272828,-8.9539421692,-2.6285156261,1111
88986,188050,207476,3.0580272828,-8.9539421692,-2.6285156261,1112
89041,188075,207466,3.0580272828,-8.9539421692,-2.6285156261,1113
89185,188075,207497,3.0580272828,-8.9539421692,-2.6285156261,1114
89284,188094,207524,3.0580272828,-8.9539421692,-2.6285156261,1115
89385,188125,207532,3.0580272828,-8.9539421692,-2.6285156261,1116
89406,188096,207560,3.0580272828,-8.9539421692,-2.6285156261,1117
90224,188120,207541,3.1250263156,-8.901300072,-2.6500510295,1118
90292,188122,207540,3.1250263156,-8.901300072,-2.6500510295,1119
90417,188134,207585,3.1250263156,-8.901300072,-2.6500510295,1120
90491,188120,207495,3.1250263156,-8.901300072,-2.6500510295,1121
90429,188109,207469,3.1250263156,-8.901300072,-2.6500510295,1122
90025,188108,207505,3.1250263156,-8.901300072,-2.6500510295,1123
89459,188114,207507,3.1250263156,-8.901300072,-2.6500510295,1124
89041,188146,207500,3.1250263156,-8.901300072,-2.6500510295,1125
88738,188122,207488,3.1250263156,-8.901300072,-2.6500510295,1126
88599,188142,207545,3.1250263156,-8.901300072,-2.6500510295,1127
88562,188151,207528,3.1250263156,-8.901300072,-2.6500510295,1128
88626,188151,207513,3.1250263156,-8.901300072,-2.6500510295,1129
88732,188139,207519,3.1058837348,-8.8785682573,-2.6285156261,1130
88856,188148,207537,3.1058837348,-8.8785682573,-2.6285156261,1131
88955,188165,207547,3.1058837348,-8.8785682573,-2.6285156261,1132
88995,188182,207498,3.1058837348,-8.8785682573,-2.6285156261,1133
89018,188158,207579,3.1058837348,-8.8785682573,-2.6285156261,1134
89069,188174,207562,3.1058837348,-8.8785682573,-2.6285156261,1135
89126,188153,207573,3.1058837348,-8.8785682573,-2.6285156261,1136
89204,188175,207567,3.1058837348,-8.8785682573,-2.6285156261,1137
89299,188182,207521,3.1058837348,-8.8785682573,-2.6285156261,1138
89408,188176,207538,3.1058837348,-8.8785682573,-2.6285156261,1139
89538,188203,207563,3.1058837348,-8.8785682573,-2.6285156261,1140
89628,188170,207560,3.1058837348,-8.8785682573,-2.6285156261,1141
89745,188216,207568,3.1058837348,-8.8785682573,-2.6285156261,1142
89865,188173,207569,3.1058837348,-8.8785682573,-2.6285156261,1143
89988,188219,207554,3.1058837348,-8.8785682573,-2.6285156261,1144
90138,188167,207537,3.1058837348,-8.8785682573,-2.6285156261,1145
90267,188166,207554,3.1058837348,-8.8785682573,-2.6285156261,1146
90332,188176,207537,3.1058837348,-8.8785682573,-2.6285156261,1147
90449,188192,207524,3.1058837348,-8.8785682573,-2.6285156261,1148
90322,188170,207531,3.1058837348,-8.8785682573,-2.6285156261,1149
89879,188179,207567,3.1058837348,-8.8785682573,-2.6285156261,1150
89326,188197,207561,3.1058837348,-8.8785682573,-2.6285156261,1151
88942,188222,207558,3.1058837348,-8.8785682573,-2.6285156261,1152
88689,188179,207527,3.1058837348,-8.8785682573,-2.6285156261,1153
88577,188184,207540,3.1058837348,-8.8785682573,-2.6285156261,1154
88562,188182,207523,3.1058837348,-8.8785682573,-2.6285156261,1155
88639,188165,207538,3.1058837348,-8.8785682573,-2.6285156261,1156
88755,188202,207530,3.1058837348,-8.8785682573,-2.6285156261,1157
88857,188199,207513,3.1058837348,-8.8785682573,-2.6285156261,1158
88958,188168,207548,3.1058837348,-8.8785682573,-2.6285156261,1159
88982,188190,207514,3.1058837348,-8.8785682573,-2.6285156261,1160
89017,188181,207571,3.1058837348,-8.8785682573,-2.6285156261,1161
89073,188225,207544,3.1788648241,-8.9024964833,-2.7098715945,1162
89124,188240,207590,3.1788648241,-8.9024964833,-2.7098715945,1163
89192,188204,207577,3.1788648241,-8.9024964833,-2.7098715945,1164
89324,188206,207597,3.1788648241,-8.9024964833,-2.7098715945,1165
89415,188177,207574,3.1788648241,-8.9024964833,-2.7098715945,1166
89533,188214,207544,3.1788648241,-8.9024964833,-2.7098715945,1167
89648,188196,207580,3.1788648241,-8.9024964833,-2.7098715945,1168
89775,188210,207575,3.1788648241,-8.9024964833,-2.7098715945,1169
89899,188194,207592,3.1788648241,-8.9024964833,-2.7098715945,1170
90016,188188,207565,3.1788648241,-8.9024964833,-2.7098715945,1171
90153,188228,207562,3.1788648241,-8.9024964833,-2.7098715945,1172
90271,188210,207596,3.1788648241,-8.9024964833,-2.7098715945,1173
90404,188198,207553,3.1788648241,-8.9024964833,-2.7098715945,1174
90484,188222,207573,3.1788648241,-8.9024964833,-2.7098715945,1175
90551,188210,207533,3.1788648241,-8.9024964833,-2.7098715945,1176
90421,188207,207550,3.1788648241,-8.9024964833,-2.7098715945,1177
89970,188178,207534,3.1788648241,-8.9024964833,-2.7098715945,1178
89453,188178,207523,3.1788648241,-8.9024964833,-2.7098715945,1179
89070,188168,207461,3.1788648241,-8.9024964833,-2.7098715945,1180
88872,188168,207491,3.1788648241,-8.9024964833,-2.7098715945,1181
88771,188120,207511,3.1788648241,-8.9024964833,-2.7098715945,1182
88803,188162,207495,3.1788648241,-8.9024964833,-2.7098715945,1183
88873,188144,207515,3.1788648241,-8.9024964833,-2.7098715945,1184
88987,188131,207507,3.1788648241,-8.9024964833,-2.7098715945,1185
89099,188159,207460,3.1788648241,-8.9024964833,-2.7098715945,1186
89175,188136,207523,3.1788648241,-8.9024964833,-2.7098715945,1187
89189,188129,207518,3.1788648241,-8.9024964833,-2.7098715945,1188
89213,188146,207513,3.1788648241,-8.9024964833,-2.7098715945,1189
89268,188141,207533,3.1788648241,-8.9024964833,-2.7098715945,1190
89318,188138,207490,3.1788648241,-8.9024964833,-2.7098715945,1191
89388,188159,207510,3.1788648241,-8.9024964833,-2.7098715945,1192
89497,188119,207474,3.1788648241,-8.9024964833,-2.7098715945,1193
89573,188147,207487,3.1788648241,-8.9024964833,-2.7098715945,1194
89647,188139,207479,3.1788648241,-8.9024964833,-2.7098715945,1195
89791,188121,207495,3.1788648241,-8.9024964833,-2.7098715945,1196
89893,188098,207472,3.1788648241,-8.9024964833,-2.7098715945,1197
90020,188132,207507,3.1788648241,-8.9024964833,-2.7098715945,1198
90151,188108,207468,3.1788648241,-8.9024964833,-2.7098715945,1199
90272,188100,207541,3.1788648241,-8.9024964833,-2.7098715945,1200
90393,188105,207474,3.1788648241,-8.9024964833,-2.7098715945,1201
90496,188105,207486,3.1788648241,-8.9024964833,-2.7098715945,1202
90578,188070,207459,3.1788648241,-8.9024964833,-2.7098715945,1203
89541,188076,207445,2.9970103065,-8.8965144268,-2.6261228035000004,1204
89365,188109,207418,2.9970103065,-8.8965144268,-2.6261228035000004,1205
89325,188097,207379,2.9970103065,-8.8965144268,-2.6261228035000004,1206
89384,188110,207404,2.9970103065,-8.8965144268,-2.6261228035000004,1207
89518,188059,207463,2.9970103065,-8.8965144268,-2.6261228035000004,1208
89646,188071,207409,2.9970103065,-8.8965144268,-2.6261228035000004,1209
89752,188054,207417,2.9970103065,-8.8965144268,-2.6261228035000004,1210
89790,188065,207449,2.9970103065,-8.8965144268,-2.6261228035000004,1211
89809,188049,207418,2.9970103065,-8.8965144268,-2.6261228035000004,1212
89808,188055,207437,2.9970103065,-8.8965144268,-2.6261228035000004,1213
89826,188089,207430,2.9970103065,-8.8965144268,-2.6261228035000004,1214
89842,188079,207451,2.9970103065,-8.8965144268,-2.6261228035000004,1215
89954,188098,207419,2.9970103065,-8.8965144268,-2.6261228035000004,1216
90017,188082,207482,2.9970103065,-8.8965144268,-2.6261228035000004,1217
90122,188112,207450,2.9970103065,-8.8965144268,-2.6261228035000004,1218
90236,188090,207487,2.9970103065,-8.8965144268,-2.6261228035000004,1219
90297,188081,207482,2.9970103065,-8.8965144268,-2.6261228035000004,1220
90405,188137,207507,2.9970103065,-8.8965144268,-2.6261228035000004,1221
90490,188124,207454,2.9970103065,-8.8965144268,-2.6261228035000004,1222
90564,188133,207486,2.9970103065,-8.8965144268,-2.6261228035000004,1223
90651,188121,207452,2.9970103065,-8.8965144268,-2.6261228035000004,1224
90659,188114,207440,2.9970103065,-8.8965144268,-2.6261228035000004,1225
90411,188096,207455,2.9970103065,-8.8965144268,-2.6261228035000004,1226
89955,188110,207442,2.9970103065,-8.8965144268,-2.6261228035000004,1227
89483,188122,207457,2.9970103065,-8.8965144268,-2.6261228035000004,1228
89197,188141,207438,2.9970103065,-8.8965144268,-2.6261228035000004,1229
89032,188119,207443,2.9970103065,-8.8965144268,-2.6261228035000004,1230
88988,188124,207458,2.9970103065,-8.8965144268,-2.6261228035000004,1231
89082,188121,207438,2.9970103065,-8.8965144268,-2.6261228035000004,1232
89204,188091,207446,2.9970103065,-8.8965144268,-2.6261228035000004,1233
89319,188095,207470,2.9970103065,-8.8965144268,-2.6261228035000004,1234
89396,188097,207451,2.9970103065,-8.8965144268,-2.6261228035000004,1235
89423,188062,207428,2.9970103065,-8.8965144268,-2.6261228035000004,1236
89447,188080,207402,2.9970103065,-8.8965144268,-2.6261228035000004,1237
89440,188116,207472,2.9970103065,-8.8965144268,-2.6261228035000004,1238
89498,188069,207451,2.9970103065,-8.8965144268,-2.6261228035000004,1239
89572,188085,207452,2.9970103065,-8.8965144268,-2.6261228035000004,1240
89628,188080,207478,2.9970103065,-8.8965144268,-2.6261228035000004,1241
89743,188101,207487,2.9970103065,-8.8965144268,-2.6261228035000004,1242
89834,188062,207430,2.9970103065,-8.8965144268,-2.6261228035000004,1243
89960,188055,207444,2.9970103065,-8.8965144268,-2.6261228035000004,1244
90065,188046,207409,2.9970103065,-8.8965144268,-2.6261228035000004,1245
89062,187995,207388,3.0317062341999996,-8.9778703952,-2.6512474407999997,1246
89186,188000,207432,3.0317062341999996,-8.9778703952,-2.6512474407999997,1247
89288,187971,207428,3.0317062341999996,-8.9778703952,-2.6512474407999997,1248
89431,187986,207422,3.0317062341999996,-8.9778703952,-2.6512474407999997,1249
89548,188001,207419,3.0317062341999996,-8.9778703952,-2.6512474407999997,1250
89669,187988,207423,3.0317062341999996,-8.9778703952,-2.6512474407999997,1251
89798,187959,207404,3.0317062341999996,-8.9778703952,-2.6512474407999997,1252
89897,187991,207429,3.0317062341999996,-8.9778703952,-2.6512474407999997,1253
90010,187944,207387,3.0317062341999996,-8.9778703952,-2.6512474407999997,1254
90098,187940,207427,3.0317062341999996,-8.9778703952,-2.6512474407999997,1255
89909,187939,207413,3.0317062341999996,-8.9778703952,-2.6512474407999997,1256
89355,187938,207384,3.0317062341999996,-8.9778703952,-2.6512474407999997,1257
88703,187928,207375,3.0317062341999996,-8.9778703952,-2.6512474407999997,1258
88239,187940,207327,3.0317062341999996,-8.9778703952,-2.6512474407999997,1259
87966,187934,207373,3.0317062341999996,-8.9778703952,-2.6512474407999997,1260
87869,187950,207367,3.0317062341999996,-8.9778703952,-2.6512474407999997,1261
87867,187915,207345,3.0317062341999996,-8.9778703952,-2.6512474407999997,1262
87993,187933,207363,3.0317062341999996,-8.9778703952,-2.6512474407999997,1263
88132,187907,207367,3.0317062341999996,-8.9778703952,-2.6512474407999997,1264
88235,187893,207381,3.0317062341999996,-8.9778703952,-2.6512474407999997,1265
88314,187911,207402,3.0317062341999996,-8.9778703952,-2.6512474407999997,1266
88346,187889,207373,3.0317062341999996,-8.9778703952,-2.6512474407999997,1267
88359,187920,207389,3.0317062341999996,-8.9778703952,-2.6512474407999997,1268
88422,187890,207365,3.0317062341999996,-8.9778703952,-2.6512474407999997,1269
88465,187915,207385,3.0317062341999996,-8.9778703952,-2.6512474407999997,1270
88548,187921,207362,3.0317062341999996,-8.9778703952,-2.6512474407999997,1271
88665,187890,207389,3.0317062341999996,-8.9778703952,-2.6512474407999997,1272
88776,187883,207399,3.0317062341999996,-8.9778703952,-2.6512474407999997,1273
88876,187870,207411,3.0317062341999996,-8.9778703952,-2.6512474407999997,1274
89021,187879,207370,3.0317062341999996,-8.9778703952,-2.6512474407999997,1275
89160,187892,207357,3.0317062341999996,-8.9778703952,-2.6512474407999997,1276
89281,187886,207377,3.0317062341999996,-8.9778703952,-2.6512474407999997,1277
89399,187868,207403,3.0317062341999996,-8.9778703952,-2.6512474407999997,1278
89536,187891,207377,3.0317062341999996,-8.9778703952,-2.6512474407999997,1279
89642,187839,207326,3.0317062341999996,-8.9778703952,-2.6512474407999997,1280
89751,187850,207311,3.0317062341999996,-8.9778703952,-2.6512474407999997,1281
89850,187829,207312,3.0317062341999996,-8.9778703952,-2.6512474407999997,1282
89678,187819,207300,3.0317062341999996,-8.9778703952,-2.6512474407999997,1283
89148,187782,207252,3.0317062341999996,-8.9778703952,-2.6512474407999997,1284
88556,187795,207281,3.0317062341999996,-8.9778703952,-2.6512474407999997,1285
88130,187849,207283,3.0317062341999996,-8.9778703952,-2.6512474407999997,1286
87929,187832,207284,3.0317062341999996,-8.9778703952,-2.6512474407999997,1287
89375,187721,207218,3.0604201053999995,-8.913264185,-2.6488546182,1288
89524,187759,207261,3.0604201053999995,-8.913264185,-2.6488546182,1289
89652,187758,207173,3.0604201053999995,-8.913264185,-2.6488546182,1290
89762,187747,207191,3.0604201053999995,-8.913264185,-2.6488546182,1291
89907,187773,207199,3.0604201053999995,-8.913264185,-2.6488546182,1292
89937,187711,207193,3.0604201053999995,-8.913264185,-2.6488546182,1293
89655,187684,207200,3.0604201053999995,-8.913264185,-2.6488546182,1294
89226,187712,207202,3.0604201053999995,-8.913264185,-2.6488546182,1295
88856,187777,207220,3.0604201053999995,-8.913264185,-2.6488546182,1296
88705,187795,207213,3.0604201053999995,-8.913264185,-2.6488546182,1297
88655,187764,207224,3.0604201053999995,-8.913264185,-2.6488546182,1298
88762,187795,207192,3.0604201053999995,-8.913264185,-2.6488546182,1299
88911,187779,207194,3.0604201053999995,-8.913264185,-2.6488546182,1300
89072,187767,207194,3.0604201053999995,-8.913264185,-2.6488546182,1301
89191,187760,207210,3.0604201053999995,-8.913264185,-2.6488546182,1302
89266,187738,207224,3.0604201053999995,-8.913264185,-2.6488546182,1303
89288,187799,207214,3.0604201053999995,-8.913264185,-2.6488546182,1304
89307,187799,207244,3.0604201053999995,-8.913264185,-2.6488546182,1305
89310,187816,207253,3.0604201053999995,-8.913264185,-2.6488546182,1306
89374,187819,207289,3.0604201053999995,-8.913264185,-2.6488546182,1307
89435,187833,207260,3.0604201053999995,-8.913264185,-2.6488546182,1308
89536,187856,207244,3.0604201053999995,-8.913264185,-2.6488546182,1309
89619,187832,207233,3.0604201053999995,-8.913264185,-2.6488546182,1310
89724,187842,207267,3.0604201053999995,-8.913264185,-2.6488546182,1311
89831,187831,207232,3.0604201053999995,-8.913264185,-2.6488546182,1312
89907,187857,207261,3.0604201053999995,-8.913264185,-2.6488546182,1313
90070,187837,207261,3.0604201053999995,-8.913264185,-2.6488546182,1314
90153,187824,207237,3.0604201053999995,-8.913264185,-2.6488546182,1315
90266,187841,207235,3.0604201053999995,-8.913264185,-2.6488546182,1316
90342,187826,207187,3.0604201053999995,-8.913264185,-2.6488546182,1317
90270,187793,207173,3.0604201053999995,-8.913264185,-2.6488546182,1318
89819,187794,207231,3.0604201053999995,-8.913264185,-2.6488546182,1319
89306,187818,207200,3.0604201053999995,-8.913264185,-2.6488546182,1320
88918,187852,207233,3.0604201053999995,-8.913264185,-2.6488546182,1321
88693,187870,207248,3.0604201053999995,-8.913264185,-2.6488546182,1322
88621,187866,207255,3.0604201053999995,-8.913264185,-2.6488546182,1323
88621,187872,207243,3.0604201053999995,-8.913264185,-2.6488546182,1324
88739,187847,207224,3.0604201053999995,-8.913264185,-2.6488546182,1325
88868,187851,207196,3.0604201053999995,-8.913264185,-2.6488546182,1326
88965,187814,207244,3.0604201053999995,-8.913264185,-2.6488546182,1327
89061,187844,207207,3.0604201053999995,-8.913264185,-2.6488546182,1328
89119,187809,207229,3.0604201053999995,-8.913264185,-2.6488546182,1329
89942,187876,207247,3.2291140987,-8.8953180155,-2.5842484079999997,1330
90050,187843,207237,3.2291140987,-8.8953180155,-2.5842484079999997,1331
90171,187856,207241,3.2291140987,-8.8953180155,-2.5842484079999997,1332
90305,187858,207229,3.2291140987,-8.8953180155,-2.5842484079999997,1333
90410,187829,207222,3.2291140987,-8.8953180155,-2.5842484079999997,1334
90551,187828,207251,3.2291140987,-8.8953180155,-2.5842484079999997,1335
90658,187834,207265,3.2291140987,-8.8953180155,-2.5842484079999997,1336
90660,187840,207223,3.2291140987,-8.8953180155,-2.5842484079999997,1337
90353,187850,207189,3.2291140987,-8.8953180155,-2.5842484079999997,1338
89829,187883,207197,3.2291140987,-8.8953180155,-2.5842484079999997,1339
89361,187923,207228,3.2291140987,-8.8953180155,-2.5842484079999997,1340
89054,187895,207240,3.2291140987,-8.8953180155,-2.5842484079999997,1341
88919,187919,207254,3.2291140987,-8.8953180155,-2.5842484079999997,1342
88878,187909,207245,3.1393832512,-8.997012975999999,-2.6548366747000003,1343
88923,187931,207265,3.1393832512,-8.997012975999999,-2.6548366747000003,1344
89052,187900,207216,3.1393832512,-8.997012975999999,-2.6548366747000003,1345
89159,187890,207243,3.1393832512,-8.997012975999999,-2.6548366747000003,1346
89269,187904,207266,3.1393832512,-8.997012975999999,-2.6548366747000003,1347
89275,187866,207217,3.1393832512,-8.997012975999999,-2.6548366747000003,1348
89342,187924,207246,3.1393832512,-8.997012975999999,-2.6548366747000003,1349
89372,187896,207274,3.1393832512,-8.997012975999999,-2.6548366747000003,1350
89433,187936,207246,3.1393832512,-8.997012975999999,-2.6548366747000003,1351
89496,187908,207272,3.1393832512,-8.997012975999999,-2.6548366747000003,1352
89581,187931,207237,3.1393832512,-8.997012975999999,-2.6548366747000003,1353
89690,187906,207212,3.1393832512,-8.997012975999999,-2.6548366747000003,1354
89830,187904,207260,3.1393832512,-8.997012975999999,-2.6548366747000003,1355
89903,187911,207247,3.1393832512,-8.997012975999999,-2.6548366747000003,1356
90034,187887,207245,3.1393832512,-8.997012975999999,-2.6548366747000003,1357
90149,187911,207264,3.1393832512,-8.997012975999999,-2.6548366747000003,1358
90248,187868,207227,3.1393832512,-8.997012975999999,-2.6548366747000003,1359
90406,187910,207207,3.1393832512,-8.997012975999999,-2.6548366747000003,1360
90502,187921,207257,3.1393832512,-8.997012975999999,-2.6548366747000003,1361
90609,187892,207214,3.1393832512,-8.997012975999999,-2.6548366747000003,1362
90696,187895,207182,3.1393832512,-8.997012975999999,-2.6548366747000003,1363
90788,187866,207183,3.1393832512,-8.997012975999999,-2.6548366747000003,1364
90735,187855,207202,3.1393832512,-8.997012975999999,-2.6548366747000003,1365
90432,187858,207200,3.1393832512,-8.997012975999999,-2.6548366747000003,1366
90007,187918,207169,3.1393832512,-8.997012975999999,-2.6548366747000003,1367
89687,187931,207206,3.0855447427,-8.9144605963,-2.7014967154,1368
89480,187935,207235,3.0855447427,-8.9144605963,-2.7014967154,1369
89431,187947,207189,3.0855447427,-8.9144605963,-2.7014967154,1370
89477,187955,207206,3.0855447427,-8.9144605963,-2.7014967154,1371
89584,187931,207199,3.0855447427,-8.9144605963,-2.7014967154,1372
89713,187933,207191,3.0855447427,-8.9144605963,-2.7014967154,1373
89820,187917,207202,3.0855447427,-8.9144605963,-2.7014967154,1374
89857,187908,207221,3.0855447427,-8.9144605963,-2.7014967154,1375
89863,187943,207168,3.0855447427,-8.9144605963,-2.7014967154,1376
89852,187930,207189,3.0855447427,-8.9144605963,-2.7014967154,1377
89882,187962,207208,3.0855447427,-8.9144605963,-2.7014967154,1378
89926,187917,207210,3.0855447427,-8.9144605963,-2.7014967154,1379
89972,187940,207237,3.0855447427,-8.9144605963,-2.7014967154,1380
90066,187966,207199,3.0855447427,-8.9144605963,-2.7014967154,1381
90171,187942,207205,3.0855447427,-8.9144605963,-2.7014967154,1382
90255,187955,207187,3.0855447427,-8.9144605963,-2.7014967154,1383
90384,187966,207227,3.0855447427,-8.9144605963,-2.7014967154,1384
90492,187995,207247,3.0855447427,-8.9144605963,-2.7014967154,1385
90597,188006,207235,3.0855447427,-8.9144605963,-2.7014967154,1386
90708,188013,207223,3.0855447427,-8.9144605963,-2.7014967154,1387
90830,188003,207301,3.0855447427,-8.9144605963,-2.7014967154,1388
90937,188031,207231,3.0855447427,-8.9144605963,-2.7014967154,1389
90846,188048,207255,3.0855447427,-8.9144605963,-2.7014967154,1390
90504,188013,207277,3.0855447427,-8.9144605963,-2.7014967154,1391
90101,188036,207276,3.0855447427,-8.9144605963,-2.7014967154,1392
89803,188108,207302,3.0855447427,-8.9144605963,-2.7014967154,1393
89684,188119,207283,3.1130622026,-8.983852451699999,-2.6691936103000002,1394
89652,188123,207343,3.1130622026,-8.983852451699999,-2.6691936103000002,1395
89718,188120,207293,3.1130622026,-8.983852451699999,-2.6691936103000002,1396
89853,188121,207322,3.1130622026,-8.983852451699999,-2.6691936103000002,1397
89965,188094,207319,3.1130622026,-8.983852451699999,-2.6691936103000002,1398
90077,188099,207289,3.1130622026,-8.983852451699999,-2.6691936103000002,1399
90113,188090,207322,3.1130622026,-8.983852451699999,-2.6691936103000002,1400
90148,188119,207293,3.1130622026,-8.983852451699999,-2.6691936103000002,1401
90161,188147,207365,3.1130622026,-8.983852451699999,-2.6691936103000002,1402
90189,188115,207343,3.1130622026,-8.983852451699999,-2.6691936103000002,1403
90254,188133,207335,3.1130622026,-8.983852451699999,-2.6691936103000002,1404
90322,188145,207340,3.1130622026,-8.983852451699999,-2.6691936103000002,1405
90419,188100,207313,3.1130622026,-8.983852451699999,-2.6691936103000002,1406
90514,188102,207333,3.1130622026,-8.983852451699999,-2.6691936103000002,1407
90603,188121,207339,3.1130622026,-8.983852451699999,-2.6691936103000002,1408
90730,188128,207363,3.1130622026,-8.983852451699999,-2.6691936103000002,1409
90831,188117,207334,3.1130622026,-8.983852451699999,-2.6691936103000002,1410
90921,188129,207344,3.1130622026,-8.983852451699999,-2.6691936103000002,1411
91035,188132,207346,3.1130622026,-8.983852451699999,-2.6691936103000002,1412
91125,188125,207353,3.1130622026,-8.983852451699999,-2.6691936103000002,1413
91246,188125,207315,3.1130622026,-8.983852451699999,-2.6691936103000002,1414
91226,188104,207341,3.1130622026,-8.983852451699999,-2.6691936103000002,1415
90921,188101,207291,3.1130622026,-8.983852451699999,-2.6691936103000002,1416
90439,188136,207334,3.1130622026,-8.983852451699999,-2.6691936103000002,1417
89963,188157,207363,3.1130622026,-8.983852451699999,-2.6691936103000002,1418
89631,188149,207274,3.1130622026,-8.983852451699999,-2.6691936103000002,1419
89464,188157,207381,3.1130622026,-8.983852451699999,-2.6691936103000002,1420
89405,188142,207319,3.1130622026,-8.983852451699999,-2.6691936103000002,1421
89393,188170,207322,3.1130622026,-8.983852451699999,-2.6691936103000002,1422
89454,188124,207337,3.1130622026,-8.983852451699999,-2.6691936103000002,1423
89576,188149,207361,3.1130622026,-8.983852451699999,-2.6691936103000002,1424
89633,188172,207315,3.1130622026,-8.983852451699999,-2.6691936103000002,1425
89696,188164,207347,3.1130622026,-8.983852451699999,-2.6691936103000002,1426
89719,188163,207377,3.1130622026,-8.983852451699999,-2.6691936103000002,1427
89733,188173,207392,3.1130622026,-8.983852451699999,-2.6691936103000002,1428
89777,188203,207412,3.1130622026,-8.983852451699999,-2.6691936103000002,1429
89880,188183,207367,3.1130622026,-8.983852451699999,-2.6691936103000002,1430
89945,188177,207421,3.1130622026,-8.983852451699999,-2.6691936103000002,1431
90038,188172,207381,3.1645078885,-8.9204426528,-2.5543381254999997,1432
90144,188174,207401,3.1645078885,-8.9204426528,-2.5543381254999997,1433
90256,188198,207428,3.1645078885,-8.9204426528,-2.5543381254999997,1434
90374,188174,207389,3.1645078885,-8.9204426528,-2.5543381254999997,1435
90468,188168,207398,3.1645078885,-8.9204426528,-2.5543381254999997,1436
90599,188216,207442,3.1645078885,-8.9204426528,-2.5543381254999997,1437
90723,188179,207439,3.1645078885,-8.9204426528,-2.5543381254999997,1438
90822,188195,207434,3.1645078885,-8.9204426528,-2.5543381254999997,1439
90924,188166,207393,3.1645078885,-8.9204426528,-2.5543381254999997,1440
91055,188190,207417,3.1645078885,-8.9204426528,-2.5543381254999997,1441
90968,188194,207449,3.1645078885,-8.9204426528,-2.5543381254999997,1442
90611,188150,207394,3.1645078885,-8.9204426528,-2.5543381254999997,1443
90134,188180,207419,3.1645078885,-8.9204426528,-2.5543381254999997,1444
89695,188195,207433,3.1645078885,-8.9204426528,-2.5543381254999997,1445
89447,188160,207424,3.1645078885,-8.9204426528,-2.5543381254999997,1446
89320,188168,207377,3.1645078885,-8.9204426528,-2.5543381254999997,1447
89285,188158,207399,3.1645078885,-8.9204426528,-2.5543381254999997,1448
89331,188195,207407,3.1645078885,-8.9204426528,-2.5543381254999997,1449
89414,188168,207416,3.1645078885,-8.9204426528,-2.5543381254999997,1450
89508,188174,207429,3.1645078885,-8.9204426528,-2.5543381254999997,1451
89534,188192,207438,3.1645078885,-8.9204426528,-2.5543381254999997,1452
89627,188182,207473,3.1645078885,-8.9204426528,-2.5543381254999997,1453
89618,188181,207439,3.1645078885,-8.9204426528,-2.5543381254999997,1454
89672,188179,207509,3.1645078885,-8.9204426528,-2.5543381254999997,1455
89710,188207,207444,3.1645078885,-8.9204426528,-2.5543381254999997,1456
89783,188229,207476,3.1645078885,-8.9204426528,-2.5543381254999997,1457
89891,188169,207513,3.1645078885,-8.9204426528,-2.5543381254999997,1458
89968,188228,207477,3.1645078885,-8.9204426528,-2.5543381254999997,1459
90094,188222,207486,3.1645078885,-8.9204426528,-2.5543381254999997,1460
90205,188184,207485,3.1645078885,-8.9204426528,-2.5543381254999997,1461
90302,188212,207446,3.1645078885,-8.9204426528,-2.5543381254999997,1462
90428,188212,207498,3.1645078885,-8.9204426528,-2.5543381254999997,1463
90536,188201,207503,3.1645078885,-8.9204426528,-2.5543381254999997,1464
90660,188203,207485,3.1645078885,-8.9204426528,-2.5543381254999997,1465
90761,188199,207467,3.1645078885,-8.9204426528,-2.5543381254999997,1466
90868,188197,207435,3.1645078885,-8.9204426528,-2.5543381254999997,1467
90940,188202,207461,3.1645078885,-8.9204426528,-2.5543381254999997,1468
90958,188194,207473,3.1645078885,-8.9204426528,-2.5543381254999997,1469
90648,188169,207454,3.1645078885,-8.9204426528,-2.5543381254999997,1470
90197,188182,207427,3.1645078885,-8.9204426528,-2.5543381254999997,1471
89817,188196,207437,3.1645078885,-8.9204426528,-2.5543381254999997,1472
89599,188190,207474,3.1645078885,-8.9204426528,-2.5543381254999997,1473
90166,188415,207802,3.0305098229,-8.8941216042,-2.75174599,1474
90242,188431,207849,3.0305098229,-8.8941216042,-2.75174599,1475
90346,188449,207845,3.0305098229,-8.8941216042,-2.75174599,1476
90410,188459,207801,3.0305098229,-8.8941216042,-2.75174599,1477
90477,188471,207832,3.0305098229,-8.8941216042,-2.75174599,1478
90608,188466,207837,3.0305098229,-8.8941216042,-2.75174599,1479
90678,188475,207862,3.0305098229,-8.8941216042,-2.75174599,1480
90792,188467,207885,3.0305098229,-8.8941216042,-2.75174599,1481
90810,188437,207847,3.0305098229,-8.8941216042,-2.75174599,1482
90635,188440,207831,3.0305098229,-8.8941216042,-2.75174599,1483
90257,188432,207827,3.0305098229,-8.8941216042,-2.75174599,1484
89831,188423,207794,3.0305098229,-8.8941216042,-2.75174599,1485
89521,188411,207788,3.0305098229,-8.8941216042,-2.75174599,1486
89354,188407,207791,3.0305098229,-8.8941216042,-2.75174599,1487
89306,188415,207801,3.0305098229,-8.8941216042,-2.75174599,1488
89333,188356,207819,3.0305098229,-8.8941216042,-2.75174599,1489
89446,188378,207826,3.0305098229,-8.8941216042,-2.75174599,1490
89533,188417,207803,3.0305098229,-8.8941216042,-2.75174599,1491
89621,188387,207833,3.0305098229,-8.8941216042,-2.75174599,1492
89675,188404,207830,3.0305098229,-8.8941216042,-2.75174599,1493
89676,188424,207824,3.0305098229,-8.8941216042,-2.75174599,1494
89741,188417,207838,3.0305098229,-8.8941216042,-2.75174599,1495
89776,188394,207852,3.0305098229,-8.8941216042,-2.75174599,1496
89842,188420,207852,3.0305098229,-8.8941216042,-2.75174599,1497
89950,188421,207824,3.0305098229,-8.8941216042,-2.75174599,1498
90024,188417,207857,3.0305098229,-8.8941216042,-2.75174599,1499
90157,188433,207844,3.0305098229,-8.8941216042,-2.75174599,1500
90260,188411,207872,3.0305098229,-8.8941216042,-2.75174599,1501
90378,188431,207846,3.0305098229,-8.8941216042,-2.75174599,1502
90483,188444,207834,3.0305098229,-8.8941216042,-2.75174599,1503
90599,188418,207860,3.0305098229,-8.8941216042,-2.75174599,1504
90717,188403,207848,3.0305098229,-8.8941216042,-2.75174599,1505
90810,188414,207833,3.0305098229,-8.8941216042,-2.75174599,1506
90720,188383,207824,3.0305098229,-8.8941216042,-2.75174599,1507
90321,188392,207855,3.0305098229,-8.8941216042,-2.75174599,1508
89851,188385,207822,3.0305098229,-8.8941216042,-2.75174599,1509
89365,188331,207761,3.0305098229,-8.8941216042,-2.75174599,1510
89116,188331,207751,3.0305098229,-8.8941216042,-2.75174599,1511
88944,188304,207769,3.0305098229,-8.8941216042,-2.75174599,1512
88887,188321,207783,3.0305098229,-8.8941216042,-2.75174599,1513
88911,188300,207797,3.0305098229,-8.8941216042,-2.75174599,1514
89006,188327,207835,3.0305098229,-8.8941216042,-2.75174599,1515
89711,188336,207868,3.1274191382,-8.9048893059,-2.6859433685,1516
89835,188362,207828,3.1274191382,-8.9048893059,-2.6859433685,1517
89966,188356,207863,3.1274191382,-8.9048893059,-2.6859433685,1518
90055,188334,207865,3.1274191382,-8.9048893059,-2.6859433685,1519
90175,188342,207870,3.1274191382,-8.9048893059,-2.6859433685,1520
90314,188330,207835,3.1274191382,-8.9048893059,-2.6859433685,1521
90381,188339,207861,3.1274191382,-8.9048893059,-2.6859433685,1522
90405,188326,207871,3.1274191382,-8.9048893059,-2.6859433685,1523
90043,188329,207823,3.1274191382,-8.9048893059,-2.6859433685,1524
89483,188304,207803,3.1274191382,-8.9048893059,-2.6859433685,1525
89001,188286,207796,3.1274191382,-8.9048893059,-2.6859433685,1526
88686,188243,207803,3.1274191382,-8.9048893059,-2.6859433685,1527
88516,188256,207767,3.1274191382,-8.9048893059,-2.6859433685,1528
88447,188240,207802,3.1274191382,-8.9048893059,-2.6859433685,1529
88474,188278,207774,3.1274191382,-8.9048893059,-2.6859433685,1530
88596,188220,207804,3.1274191382,-8.9048893059,-2.6859433685,1531
88693,188257,207783,3.1274191382,-8.9048893059,-2.6859433685,1532
88771,188182,207825,3.1274191382,-8.9048893059,-2.6859433685,1533
88847,188219,207790,3.1274191382,-8.9048893059,-2.6859433685,1534
88839,188225,207793,3.1274191382,-8.9048893059,-2.6859433685,1535
88878,188224,207810,3.1274191382,-8.9048893059,-2.6859433685,1536
88921,188241,207830,3.1274191382,-8.9048893059,-2.6859433685,1537
89011,188201,207784,3.1274191382,-8.9048893059,-2.6859433685,1538
89102,188233,207812,3.1274191382,-8.9048893059,-2.6859433685,1539
89215,188226,207800,3.1274191382,-8.9048893059,-2.6859433685,1540
89313,188212,207752,3.1274191382,-8.9048893059,-2.6859433685,1541
89413,188229,207760,3.1274191382,-8.9048893059,-2.6859433685,1542
89550,188215,207771,3.1274191382,-8.9048893059,-2.6859433685,1543
89666,188212,207731,3.1274191382,-8.9048893059,-2.6859433685,1544
89788,188186,207742,3.1274191382,-8.9048893059,-2.6859433685,1545
89882,188205,207770,3.1274191382,-8.9048893059,-2.6859433685,1546
90016,188202,207750,3.1274191382,-8.9048893059,-2.6859433685,1547
90130,188179,207746,3.1274191382,-8.9048893059,-2.6859433685,1548
90186,188149,207726,3.1274191382,-8.9048893059,-2.6859433685,1549
90077,188161,207734,3.1274191382,-8.9048893059,-2.6859433685,1550
89619,188155,207744,3.1274191382,-8.9048893059,-2.6859433685,1551
