green,red,IR,acc_x,acc_y,acc_z,sample_index
124697,186075,233967,-0.1423729447,-4.208974953399999,-8.7864445872,1
124528,186032,233943,-0.051445685899999996,-4.1706897918,-8.7505522482,2
124269,185990,233909,0.0071784678,-4.0809589443,-8.8151584584,3
124006,185999,233923,-0.059820565,-4.2675991071,-8.7565343047,4
123719,185963,233947,-0.0849452023,-4.0594235409,-8.7026957962,5
123509,185980,233910,0.0394815729,-4.1108692268,-8.793623055,6
123326,185997,233875,-0.08853443620000001,-4.1730826144,-8.745766603,7
123243,185928,233890,0.0191425808,-4.1802610821999995,-8.805587167999999,8
123205,185945,233883,-0.1423729447,-4.3034914461,-8.8008015228,9
123243,185961,233941,0.04307080679999999,-4.1216369285,-8.757730716,10
123240,185956,233908,0.056231331100000004,-4.1682969692,-8.865407733,11
123233,185973,233902,0.0035892339,-4.211367776,-8.7888374098,12
123242,185914,233924,0.0777667345,-4.113262049399999,-8.8701933782,13
123307,185960,233916,0.0681954441,-4.0546378957,-8.7768732968,14
123298,185960,233903,0.0681954441,-4.18743955,-8.8749790234,15
123423,185953,233895,0.047856452,-4.1383866867,-8.8343010392,16
123506,185938,233880,0.0646062102,-4.1084764042,-8.7266240222,17
123498,185923,233822,-0.0287138712,-4.2652062845000005,-8.8103728132,18
123679,185974,233915,-0.0011964113,-4.0331024923,-8.7708912403,19
123672,185980,233869,0.0251246373,-4.2125641873,-8.7768732968,20
123847,185922,233851,-0.0287138712,-4.0761732991,-8.876175434699999,21
123843,185948,233898,-0.011964113,-4.1814574935,-8.7792661194,22
124048,185985,233886,0.0825523797,-4.0845481781999995,-8.745766603,23
124019,185956,233895,-0.04307080679999999,-4.2161534212,-8.7158563205,24
124143,185919,233913,0.0538385085,-4.1886359613,-8.8833539025,25
124069,185921,233887,0.155533469,-4.1347974528,-8.8008015228,26
123838,185931,233914,-0.0526420972,-4.1958144290999995,-8.7182491431,27
123622,185919,233823,-0.0765703232,-4.2340995907,-8.7792661194,28
123313,185877,233847,0.1040877831,-4.1551364449,-8.8390866844,29
123079,185837,233848,-0.0933200814,-4.2161534212,-8.748159425599999,30
122869,185856,233828,0.0526420972,-4.0115670889,-8.7732840629,31
122748,185849,233850,0.041874395499999995,-4.146761565799999,-8.7553378934,32
122725,185851,233862,-0.1004985492,-4.2867416879,-8.7517486595,33
122671,185851,233865,0.0,-4.1180476945999995,-8.752945070800001,34
122714,185815,233853,-0.020338992099999998,-4.079762533,-8.685946038,35
122751,185805,233800,-0.11964113,-4.0953158799,-8.8366938618,36
122779,185859,233858,-0.0191425808,-4.223331889,-8.6703926911,37
122888,185859,233867,-0.0334995164,-4.1970108404,-8.819944103600001,38
122884,185868,233835,-0.0334995164,-4.1347974528,-8.7792661194,39
123031,185856,233837,0.11844471869999999,-4.1072799929,-8.8546400313,40
123093,185823,233808,0.021535403399999997,-4.0522450731,-8.7673020064,41
123184,185840,233858,0.035892339,-4.0725840652,-8.793623055,42
123310,185844,233836,-0.1507478238,-4.223331889,-8.8247297488,43
123415,185880,233840,-0.24885355039999998,-4.1228333398,-8.6919280945,44
123526,185825,233835,-0.031106693799999998,-4.2077785421,-8.7888374098,45
123666,185935,233858,-0.040677984199999996,-3.9924245080999996,-8.7912302324,46
123696,185872,233834,-0.056231331100000004,-4.1970108404,-8.7349989013,47
123838,185861,233886,-0.047856452,-4.1001015251,-8.695517328400001,48
123967,185802,233853,0.059820565,-4.2652062845000005,-8.7720876516,49
124094,185906,233839,-0.062213387599999996,-4.0402809601,-8.7828553533,50
124141,185877,233841,0.0059820565,-4.0498522505,-8.745766603,51
124259,185924,233860,0.0299102825,-4.1659041466,-8.7864445872,52
124055,185844,233843,0.0705882667,-4.2496529376,-8.885746725099999,53
123927,185819,233821,-0.0059820565,-4.0821553556,-8.7038922075,54
123634,185827,233863,-0.04307080679999999,-4.1718862031,-8.7792661194,55
123362,185791,233815,-0.0059820565,-4.103690759,-8.774480474199999,56
123154,185762,233782,0.035892339,-4.2508493489,-8.749355836900001,57
122950,185730,233778,0.0299102825,-4.1371902754,-8.8366938618,58
122872,185766,233762,0.031106693799999998,-4.0965122912,-8.8558364426,59
122772,185775,233758,-0.1507478238,-4.1706897918,-8.8019979341,60
122900,185774,233791,0.0143569356,-4.0390845488,-8.7589271273,61
122908,185753,233774,0.015553346899999999,-4.0618163635,-8.7062850301,62
122884,185723,233776,0.010767701699999998,-4.0450666053,-8.8809610799,63
122943,185714,233823,-0.040677984199999996,-4.0498522505,-8.757730716,64
122963,185774,233774,0.040677984199999996,-4.1347974528,-8.7960158776,65
123022,185743,233809,-0.08853443620000001,-4.1072799929,-8.7756768855,66
123125,185753,233772,-0.059820565,-4.0414773714,-8.8103728132,67
123218,185773,233836,-0.0550349198,-4.1120656381,-8.752945070800001,68
123294,185827,233805,-0.0669990328,-4.1060835816,-8.8031943454,69
123318,185748,233854,-0.0574277424,-4.0737804765,-8.8223369262,70
123501,185794,233808,0.0658026215,-4.1084764042,-8.7912302324,71
123596,185806,233805,-0.0729810893,-4.2137605985999995,-8.8008015228,72
123642,185790,233803,-0.0191425808,-4.1587256788,-8.8079799906,73
123813,185776,233829,0.0275174599,-4.1742790257,-8.7661055951,74
123913,185770,233813,-0.0179461695,-4.1587256788,-8.7804625307,75
124050,185817,233784,0.0191425808,-4.1144584607,-8.7840517646,76
124100,185807,233795,0.0346959277,-4.1922251952,-8.7278204335,77
123981,185757,233782,-0.1040877831,-4.0259240245,-8.7290168448,78
123759,185778,233815,-0.1172483074,-4.1443687432,-8.9288175319,79
123598,185772,233776,-0.1160518961,-3.9816568063999997,-8.7900338211,80
123386,185753,233809,0.044267218100000005,-4.211367776,-8.8223369262,81
123204,185715,233753,0.010767701699999998,-4.0570307183,-8.9072821285,82
123019,185679,233766,-0.0669990328,-4.0989051138,-8.681160392799999,83
123020,185718,233783,-0.14476576730000001,-4.0953158799,-8.8450687409,84
122958,185725,233768,0.056231331100000004,-4.1048871703,-8.865407733,85
123094,185680,233790,-0.06340979890000001,-4.1216369285,-8.817551281,86
123102,185741,233740,-0.131605243,-4.1682969692,-8.8522472087,87
123061,185673,233790,0.0,-4.1503507997,-8.8438723296,88
123172,185685,233768,0.0370887503,-4.2017964856,-8.8546400313,89
123234,185564,233793,0.0191425808,-4.0091742663,-8.7254276109,90
123320,185704,233760,-0.0143569356,-4.113262049399999,-8.817551281,91
123312,185699,233764,0.1280160091,-4.2017964856,-8.7912302324,92
123520,185679,233815,0.06340979890000001,-4.2245283003,-8.7601235386,93
123582,185673,233841,0.18185451760000002,-4.237688824599999,-8.8354974505,94
123790,185726,233726,-0.10289137179999999,-4.1108692268,-8.8343010392,95
123790,185719,233748,0.06340979890000001,-3.9948173307,-8.8701933782,96
123975,185757,233801,0.041874395499999995,-4.0857445895,-8.7110706753,97
124075,185697,233781,0.022731814700000002,-4.0055850324,-8.8031943454,98
124235,185733,233805,-0.047856452,-4.1503507997,-8.764909183799999,99
124341,185657,233819,-0.0538385085,-4.1192441059,-8.7278204335,100
124423,185709,233823,-0.0610169763,-4.2185462438,-8.757730716,101
124301,185714,233766,-0.04307080679999999,-4.2293139454999995,-8.6763747476,102
124104,185694,233838,0.0897308475,-4.2484565263,-8.7684984177,103
123882,185665,233787,-0.08374879099999999,-4.2747775749,-8.819944103600001,104
123656,185630,233773,-0.0263210486,-4.1802610821999995,-8.8247297488,105
123455,185662,233718,-0.021535403399999997,-4.1204405172000005,-8.829515394,106
123188,185615,233767,0.059820565,-4.2855452766,-8.7900338211,107
123189,185608,233758,-0.044267218100000005,-4.1503507997,-8.745766603,108
123192,185622,233770,0.041874395499999995,-4.1204405172000005,-8.8271225714,109
123148,185602,233733,-0.10169496049999999,-4.1922251952,-8.757730716,110
123204,185582,233751,-0.0646062102,-4.2556349941,-8.7720876516,111
123230,185641,233752,-0.011964113,-4.06779842,-8.7912302324,112
123251,185569,233790,-0.0287138712,-4.1970108404,-8.7194455544,113
123336,185583,233717,0.0143569356,-4.1120656381,-8.7960158776,114
123383,185590,233737,-0.051445685899999996,-4.079762533,-8.8558364426,115
123446,185623,233724,-0.0669990328,-4.1347974528,-8.752945070800001,116
123553,185645,233709,-0.1471585899,-4.1443687432,-8.7505522482,117
123636,185564,233752,0.0143569356,-4.1778682596,-8.7996051115,118
123723,185638,233716,-0.08853443620000001,-4.1730826144,-8.8043907567,119
123814,185623,233750,-0.1830509289,-4.0965122912,-8.7780697081,120
123932,185628,233770,-0.022731814700000002,-4.0941194686,-8.7194455544,121
124010,185657,233766,-0.0646062102,-3.9505501125999998,-8.85344362,122
124169,185654,233755,0.047856452,-4.1551364449,-8.8223369262,123
124289,185654,233749,0.0490528633,-4.1347974528,-8.8343010392,124
124409,185654,233744,-0.0646062102,-4.1180476945999995,-8.7278204335,125
124499,185683,233799,-0.0287138712,-4.1120656381,-8.7912302324,126
124610,185674,233748,0.0167497582,-4.0546378957,-8.819944103600001,127
124621,185629,233809,0.0346959277,-4.1706897918,-8.7361953126,128
124446,185625,233753,0.051445685899999996,-4.1060835816,-8.749355836900001,129
124272,185640,233767,-0.045463629400000004,-4.1252261624,-8.7421773691,130
124037,185606,233706,-0.0574277424,-4.2448672924,-8.8558364426,131
123818,185589,233742,-0.1088734283,-4.2065821308,-8.8079799906,132
123596,185570,233756,-0.0801595571,-4.2173498325,-8.8103728132,133
123443,185547,233712,-0.062213387599999996,-4.2436708811,-8.7984087002,134
123371,185549,233703,-0.08614161359999999,-4.1539400336,-8.7625163612,135
123377,185558,233700,-0.0502492746,-4.0965122912,-8.8809610799,136
123359,185545,233689,0.051445685899999996,-4.1659041466,-8.7254276109,137
123399,185547,233716,-0.0191425808,-4.1587256788,-8.8558364426,138
123400,185591,233704,-0.020338992099999998,-4.1419759206,-8.8701933782,139
123372,185533,233747,0.0346959277,-4.1682969692,-8.6991065623,140
123556,185570,233744,0.035892339,-4.2041893082,-8.8127656358,141
123575,185536,233721,-0.0550349198,-4.1192441059,-8.7194455544,142
123699,185557,233705,-0.021535403399999997,-4.0809589443,-8.8139620471,143
123848,185593,233728,-0.0143569356,-4.0989051138,-8.831908216599999,144
123936,185576,233731,-0.0179461695,-4.1563328562,-8.793623055,145
124066,185571,233758,0.12083754129999999,-4.1180476945999995,-8.7469630143,146
124173,185571,233771,0.0526420972,-4.0857445895,-8.7254276109,147
124257,185618,233720,0.0921236701,-4.2616170506,-8.7984087002,148
124390,185552,233762,0.095712904,-4.1730826144,-8.8366938618,149
124482,185618,233723,-0.0346959277,-4.1659041466,-8.829515394,150
124563,185601,233753,-0.010767701699999998,-4.2161534212,-8.6177505939,151
124709,185586,233791,-0.0921236701,-4.1659041466,-8.7960158776,152
124841,185577,233804,0.020338992099999998,-4.1539400336,-8.7864445872,153
124914,185615,233740,0.0179461695,-4.18743955,-8.805587167999999,154
124897,185569,233710,-0.08135596839999999,-4.1718862031,-8.761319949899999,155
124783,185561,233740,0.0346959277,-4.0845481781999995,-8.7840517646,156
124610,185524,233694,-0.035892339,-4.1228333398,-8.7996051115,157
124368,185491,233713,-0.08135596839999999,-4.3010986235,-8.793623055,158
124180,185535,233671,0.0167497582,-4.1108692268,-8.7266240222,159
123983,185469,233652,0.031106693799999998,-4.140779509300001,-8.8271225714,160
123872,185464,233684,0.0059820565,-4.0654055974,-8.8713897895,161
123827,185491,233732,0.0251246373,-4.092923057299999,-8.781658942,162
123826,185503,233677,-0.0263210486,-4.2293139454999995,-8.828318982699999,163
123847,185510,233650,-0.031106693799999998,-4.151547211,-8.7792661194,164
123827,185462,233681,-0.1495514125,-4.0606199522,-8.6991065623,165
123827,185519,233677,0.0753739119,-4.1611185014,-8.817551281,166
123827,185450,233711,0.0023928226,-4.1587256788,-8.7804625307,167
123862,185481,233733,-0.0334995164,-4.0701912426,-8.8115692245,168
123837,185452,233683,-0.0849452023,-4.1371902754,-8.752945070800001,169
123726,185438,233619,0.04307080679999999,-4.2460637037,-8.8031943454,170
123730,185467,233665,0.0574277424,-4.0857445895,-8.8558364426,171
123795,185434,233686,-0.045463629400000004,-4.1790646709,-8.739784546500001,172
123917,185518,233725,-0.11964113,-4.1168512833,-8.761319949899999,173
123990,185438,233666,-0.0574277424,-4.151547211,-8.7720876516,174
124037,185435,233699,-0.0059820565,-4.0546378957,-8.7948194663,175
124137,185448,233703,-0.10169496049999999,-4.0498522505,-8.7840517646,176
124196,185493,233709,-0.0789631458,-4.1587256788,-8.6679998685,177
124277,185468,233698,0.0897308475,-4.2257247116,-8.7673020064,178
124329,185384,233719,-0.0083748791,-4.0737804765,-8.7553378934,179
124445,185470,233726,-0.0574277424,-4.1359938641000005,-8.8223369262,180
124537,185465,233764,-0.0658026215,-4.1682969692,-8.7720876516,181
124636,185475,233713,0.0167497582,-4.2652062845000005,-8.7505522482,182
124754,185475,233776,-0.040677984199999996,-4.175475436999999,-8.8008015228,183
124869,185523,233717,-0.0011964113,-4.103690759,-8.748159425599999,184
124885,185489,233680,-0.0693918554,-4.2209390664,-8.8821574912,185
125058,185531,233734,-0.0669990328,-4.0905302347,-8.7601235386,186
125173,185522,233700,0.0777667345,-4.235296002,-8.781658942,187
125263,185498,233773,-0.0299102825,-4.175475436999999,-8.7038922075,188
125394,185497,233751,-0.0669990328,-4.2747775749,-8.819944103600001,189
125493,185577,233719,0.0251246373,-4.208974953399999,-8.9024964833,190
125619,185481,233750,0.044267218100000005,-4.1599220901,-8.841479506999999,191
125728,185546,233718,0.0263210486,-4.1886359613,-8.6464644651,192
125823,185514,233740,-0.023928226,-4.2807596314,-8.846265152199999,193
125953,185571,233743,0.0299102825,-4.235296002,-8.793623055,194
126055,185594,233756,-0.022731814700000002,-4.199403663,-8.774480474199999,195
126097,185556,233807,0.044267218100000005,-4.1084764042,-8.8079799906,196
126002,185543,233676,-0.0502492746,-4.2329031794,-8.8271225714,197
125647,185465,233719,-0.0753739119,-4.126422573699999,-8.7888374098,198
125449,185503,233715,-0.0789631458,-4.1096728155,-8.9036928946,199
125148,185442,233716,-0.022731814700000002,-4.1611185014,-8.7708912403,200
124947,185482,233645,-0.0143569356,-4.1419759206,-8.7433737804,201
124702,185443,233708,0.021535403399999997,-4.1192441059,-8.7637127725,202
124478,185466,233692,-0.0023928226,-4.0821553556,-8.7254276109,203
124536,185462,233671,-0.021535403399999997,-4.2556349941,-8.8558364426,204
124494,185435,233699,0.0023928226,-4.1539400336,-8.708677852700001,205
124490,185436,233641,-0.0789631458,-4.115654872,-8.8031943454,206
124459,185435,233712,-0.0167497582,-4.1778682596,-8.8821574912,207
124508,185443,233757,-0.16151552549999998,-4.1850467274,-8.793623055,208
124414,185459,233602,-0.08374879099999999,-4.2807596314,-8.7804625307,209
124521,185497,233643,-0.035892339,-4.2006000743,-8.7469630143,210
124586,185444,233659,0.0287138712,-4.146761565799999,-8.781658942,211
124675,185449,233646,0.011964113,-4.103690759,-8.7684984177,212
124731,185448,233661,-0.1148554848,-4.2161534212,-8.831908216599999,213
124762,185438,233644,0.0275174599,-4.1252261624,-8.7373917239,214
124966,185450,233703,-0.035892339,-4.139583098,-8.8103728132,215
125018,185461,233666,-0.0287138712,-4.1024943476999995,-8.9036928946,216
125010,185498,233649,0.031106693799999998,-4.1216369285,-8.7661055951,217
125157,185499,233717,-0.0023928226,-4.146761565799999,-8.846265152199999,218
125271,185487,233665,0.0382851616,-4.2161534212,-8.7876409985,219
125429,185564,233706,-0.0143569356,-4.2317067681000005,-8.872586200799999,220
125459,185485,233685,0.0550349198,-4.163511324,-8.7840517646,221
125577,185470,233683,-0.040677984199999996,-4.2029928969000006,-8.7589271273,222
125685,185513,233702,-0.12442677519999999,-4.1084764042,-8.7720876516,223
125776,185501,233693,0.0167497582,-4.097708702499999,-8.636893174699999,224
125872,185523,233606,-0.0646062102,-4.1706897918,-8.769694829,225
125951,185537,233719,0.044267218100000005,-4.1072799929,-8.8247297488,226
125857,185491,233684,-0.0323031051,-4.1371902754,-8.8259261601,227
125637,185481,233650,0.0490528633,-4.1659041466,-8.6967137397,228
125362,185469,233642,-0.10289137179999999,-4.139583098,-8.6679998685,229
125052,185376,233694,0.1519442351,-4.1180476945999995,-8.7708912403,230
124761,185421,233643,-0.0167497582,-4.1910287839,-8.831908216599999,231
124529,185324,233628,-0.12083754129999999,-4.1970108404,-8.752945070800001,232
124387,185406,233564,-0.0526420972,-4.1060835816,-8.859425676499999,233
124239,185369,233586,-0.0538385085,-4.1479579771,-8.8797646686,234
124155,185398,233595,-0.031106693799999998,-4.1587256788,-8.7720876516,235
124173,185337,233594,-0.011964113,-4.1120656381,-8.8127656358,236
124134,185345,233545,-0.011964113,-4.0546378957,-8.8486579748,237
124146,185365,233627,0.0287138712,-4.151547211,-8.859425676499999,238
124151,185360,233592,-0.045463629400000004,-4.0953158799,-8.8785682573,239
124160,185361,233644,0.022731814700000002,-4.1659041466,-8.8510507974,240
124236,185370,233563,-0.1112662509,-4.126422573699999,-8.8127656358,241
124268,185362,233589,0.0071784678,-4.2269211229,-8.8139620471,242
124350,185342,233559,-0.131605243,-4.1443687432,-8.748159425599999,243
124443,185409,233615,-0.0765703232,-4.0570307183,-8.819944103600001,244
124533,185395,233544,-0.09690931529999999,-4.030709669699999,-8.8223369262,245
124587,185385,233619,-0.0897308475,-4.2520457602,-8.6871424493,246
124638,185395,233650,-0.0167497582,-4.18743955,-8.9048893059,247
124755,185428,233600,-0.0897308475,-4.0390845488,-8.8390866844,248
124836,185373,233643,-0.1040877831,-4.0498522505,-8.7888374098,249
124924,185366,233600,-0.09092725880000001,-4.1623149127,-8.8366938618,250
124926,185388,233584,-0.0921236701,-4.0749768878,-8.6584285781,251
125061,185386,233644,0.0681954441,-4.223331889,-8.7876409985,252
125038,185343,233591,-0.1112662509,-4.0618163635,-8.7505522482,253
124899,185329,233572,-0.0394815729,-4.0570307183,-8.7134634979,254
124525,185321,233567,-0.2452643165,-4.1120656381,-8.8510507974,255
124272,185321,233510,-0.0981057266,-4.0785661217,-8.7361953126,256
123957,185278,233558,0.010767701699999998,-4.1802610821999995,-8.7864445872,257
123668,185255,233508,0.0323031051,-4.18743955,-8.7708912403,258
123434,185245,233528,-0.0167497582,-4.1599220901,-8.85344362,259
123336,185226,233498,0.022731814700000002,-4.0654055974,-8.943174467499999,260
123298,185265,233550,0.047856452,-4.2209390664,-8.817551281,261
123266,185178,233527,-0.04307080679999999,-4.1922251952,-8.7589271273,262
123266,185212,233524,-0.022731814700000002,-4.092923057299999,-8.7505522482,263
123134,185217,233465,-0.08374879099999999,-4.18743955,-8.7302132561,264
123194,185247,233529,-0.0466600407,-4.2053857195,-8.8510507974,265
123173,185252,233513,-0.0921236701,-4.1359938641000005,-8.7565343047,266
123090,185235,233498,-0.011964113,-4.0869410008000004,-8.7517486595,267
122887,185173,233495,-0.031106693799999998,-4.0414773714,-8.774480474199999,268
122598,185170,233479,-0.1148554848,-4.3561335433,-8.8043907567,269
122514,185155,233516,-0.0741775006,-4.2149570099,-8.7469630143,270
122469,185153,233515,-0.0574277424,-4.139583098,-8.7804625307,271
122510,185149,233464,0.09690931529999999,-4.1694933805000005,-8.7601235386,272
122562,185201,233572,-0.0299102825,-4.2819560427,-8.8139620471,273
122554,185101,233513,0.0370887503,-4.1826539048,-8.805587167999999,274
122613,185149,233504,0.020338992099999998,-4.1168512833,-8.7601235386,275
122595,185128,233517,-0.0789631458,-4.1024943476999995,-8.721838377,276
122579,185151,233465,0.0346959277,-4.1383866867,-8.748159425599999,277
122657,185179,233477,-0.0981057266,-4.175475436999999,-8.7302132561,278
122802,185189,233489,0.0095712904,-4.2616170506,-8.831908216599999,279
122872,185169,233567,0.0023928226,-4.3740797127999995,-8.8486579748,280
122962,185245,233529,-0.0191425808,-4.1084764042,-8.7912302324,281
123081,185183,233558,0.1088734283,-4.140779509300001,-8.7924266437,282
123084,185169,233575,-0.0574277424,-4.2364924133,-8.7314096674,283
123243,185188,233529,-0.1974078645,-4.0725840652,-8.793623055,284
123370,185211,233508,-0.08374879099999999,-4.1682969692,-8.7625163612,285
123452,185216,233511,-0.045463629400000004,-4.0606199522,-8.7912302324,286
123552,185130,233546,-0.031106693799999998,-4.2041893082,-8.805587167999999,287
123654,185223,233518,0.059820565,-4.2687955184,-8.818747692299999,288
123778,185293,233581,0.0071784678,-4.092923057299999,-8.6823568041,289
123797,185205,233568,0.0047856452,-4.1539400336,-8.7888374098,290
123999,185220,233574,-0.12083754129999999,-4.2747775749,-8.7708912403,291
124097,185221,233578,-0.0299102825,-4.1491543884,-8.7062850301,292
124235,185247,233587,0.071784678,-4.18743955,-8.8558364426,293
124302,185221,233606,0.0167497582,-4.030709669699999,-8.8127656358,294
124380,185253,233544,-0.045463629400000004,-4.1958144290999995,-8.781658942,295
124489,185276,233533,-0.0765703232,-4.092923057299999,-8.819944103600001,296
124381,185225,233524,0.035892339,-4.2197426551,-8.7134634979,297
124058,185177,233545,0.0047856452,-4.1623149127,-8.8905323703,298
123704,185168,233492,-0.0921236701,-4.0989051138,-8.7158563205,299
123205,185138,233506,-0.08135596839999999,-4.199403663,-8.8510507974,300
122869,185187,233525,0.0346959277,-4.1611185014,-8.7661055951,301
122544,185090,233495,0.020338992099999998,-4.2508493489,-8.8510507974,302
122273,185087,233427,-0.08135596839999999,-4.2065821308,-8.781658942,303
122182,184981,233450,-0.0765703232,-4.1012979364,-8.748159425599999,304
122214,185108,233459,0.0646062102,-4.0953158799,-8.8570328539,305
122145,185083,233443,-0.1256231865,-4.1048871703,-8.841479506999999,306
122128,185077,233476,0.0167497582,-4.1347974528,-8.8343010392,307
122119,185137,233473,-0.040677984199999996,-4.1300118076,-8.761319949899999,308
122161,185094,233438,-0.010767701699999998,-4.1228333398,-8.7673020064,309
122228,185087,233378,-0.011964113,-4.0881374121,-8.8749790234,310
122281,185115,233457,-0.0287138712,-4.1886359613,-8.829515394,311
122375,185061,233467,0.0191425808,-4.1910287839,-8.7852481759,312
122530,185154,233479,-0.0191425808,-4.0881374121,-8.7302132561,313
122589,185124,233470,-0.0275174599,-4.0833517669,-8.7349989013,314
122744,185140,233487,-0.062213387599999996,-4.0857445895,-8.8103728132,315
122862,185146,233470,-0.021535403399999997,-4.0881374121,-8.7290168448,316
122988,185158,233488,-0.0287138712,-4.1228333398,-8.8043907567,317
123123,185160,233509,0.0023928226,-4.0283168471,-8.7673020064,318
123236,185182,233474,0.0047856452,-4.1671005579,-8.831908216599999,319
123368,185191,233519,-0.059820565,-4.1288153963,-8.7768732968,320
123437,185170,233553,-0.0382851616,-4.2400816472,-8.8606220878,321
123654,185163,233541,0.0370887503,-4.175475436999999,-8.819944103600001,322
123644,185169,233521,0.0466600407,-4.1503507997,-8.8151584584,323
123886,185219,233535,-0.08135596839999999,-4.1802610821999995,-8.7601235386,324
124032,185209,233501,-0.0059820565,-4.2209390664,-8.9228354754,325
123981,185171,233506,-0.0047856452,-4.1527436223,-8.8247297488,326
123797,185174,233513,0.0035892339,-4.0821553556,-8.7984087002,327
123417,185113,233498,0.1387837108,-4.1647077353,-8.8510507974,328
123183,185151,233439,-0.0873380249,-4.0845481781999995,-8.8127656358,329
122856,185086,233467,-0.0023928226,-4.1072799929,-8.806783579300001,330
122588,184993,233444,-0.0095712904,-4.2161534212,-8.8031943454,331
122397,185026,233408,-0.04307080679999999,-3.9852460403000003,-8.7266240222,332
122312,185045,233435,-0.1172483074,-4.127618985,-8.8366938618,333
122288,185066,233344,-0.1100698396,-4.18743955,-8.8127656358,334
122342,184990,233401,0.0191425808,-4.115654872,-8.7984087002,335
122341,185025,233412,0.0586241537,-4.1491543884,-8.8223369262,336
122354,185008,233465,0.0023928226,-4.0522450731,-8.8223369262,337
122406,185031,233448,0.0370887503,-4.1742790257,-8.774480474199999,338
122430,185019,233422,-0.0550349198,-4.175475436999999,-8.846265152199999,339
122514,185015,233414,-0.0646062102,-4.079762533,-8.8582292652,340
122504,185040,233470,-0.021535403399999997,-4.2305103568,-8.8438723296,341
122688,185047,233372,0.0275174599,-4.18743955,-8.7158563205,342
122793,185014,233415,-0.1160518961,-4.1443687432,-8.865407733,343
122902,185005,233408,-0.023928226,-4.1491543884,-8.7505522482,344
122984,185014,233397,-0.011964113,-4.2675991071,-8.8366938618,345
123094,185012,233391,0.020338992099999998,-4.1587256788,-8.8438723296,346
123176,184986,233441,0.0083748791,-4.2077785421,-8.8223369262,347
123306,185019,233357,-0.11964113,-4.1312082188999995,-8.7553378934,348
123428,185042,233456,0.0394815729,-4.2484565263,-8.708677852700001,349
123540,185036,233421,0.0323031051,-4.1001015251,-8.7768732968,350
123665,184990,233412,-0.0179461695,-4.1898323726,-8.7756768855,351
123802,185084,233445,-0.0550349198,-4.199403663,-8.7517486595,352
123756,185045,233416,-0.021535403399999997,-4.199403663,-8.7768732968,353
123593,184996,233426,-0.0801595571,-4.199403663,-8.6751783363,354
123331,184922,233371,-0.0741775006,-4.2077785421,-8.7888374098,355
123098,184956,233376,-0.0466600407,-4.2041893082,-8.8008015228,356
122835,184948,233344,-0.035892339,-4.113262049399999,-8.8606220878,357
122650,184931,233356,-0.1292124204,-4.1850467274,-8.889335959,358
122512,184920,233301,-0.0646062102,-4.1060835816,-8.7290168448,359
122474,184960,233320,0.022731814700000002,-4.2185462438,-8.7589271273,360
122512,184890,233366,0.011964113,-4.1431723319,-8.7541414821,361
122487,184893,233349,0.0167497582,-4.175475436999999,-8.7673020064,362
122492,184890,233313,-0.010767701699999998,-4.1443687432,-8.7302132561,363
122470,184911,233320,-0.0131605243,-4.092923057299999,-8.8151584584,364
122526,184909,233337,0.031106693799999998,-4.0941194686,-8.761319949899999,365
122605,184910,233359,0.0466600407,-4.2161534212,-8.8366938618,366
122723,184906,233323,-0.0873380249,-4.1192441059,-8.7984087002,367
122807,184902,233313,-0.023928226,-4.2257247116,-8.9228354754,368
122909,184898,233368,-0.08135596839999999,-4.1192441059,-8.7014993849,369
123021,184926,233346,-0.04307080679999999,-4.139583098,-8.8929251929,370
123131,185004,233331,0.020338992099999998,-4.1359938641000005,-8.73380249,371
123229,184912,233325,-0.0011964113,-4.2041893082,-8.7062850301,372
123333,184945,233330,-0.011964113,-4.1228333398,-8.7912302324,373
123454,184946,233342,0.0047856452,-4.2544385828,-8.7553378934,374
123588,184994,233302,-0.0789631458,-4.223331889,-8.819944103600001,375
123699,184984,233304,0.06340979890000001,-4.1587256788,-8.8343010392,376
123742,184981,233388,-0.1052841944,-4.2329031794,-8.7732840629,377
123649,184946,233325,-0.0777667345,-4.2329031794,-8.7888374098,378
123433,184944,233359,-0.0323031051,-4.1730826144,-8.7888374098,379
123235,184915,233312,-0.0681954441,-4.1611185014,-8.761319949899999,380
122997,184842,233295,-0.0729810893,-4.1587256788,-8.7182491431,381
122836,184897,233327,-0.0167497582,-4.1982072517,-8.877371846,382
122734,184908,233322,0.0095712904,-4.2041893082,-8.721838377,383
122645,184865,233255,-0.0059820565,-4.1347974528,-8.7924266437,384
122712,184868,233285,-0.0789631458,-4.1312082188999995,-8.764909183799999,385
122773,184900,233296,-0.13758729949999998,-4.1694933805000005,-8.8474615635,386
122814,184896,233310,-0.11964113,-4.2185462438,-8.7984087002,387
122887,184898,233308,-0.1112662509,-4.140779509300001,-8.8343010392,388
122924,184879,233251,-0.0765703232,-4.0570307183,-8.769694829,389
123011,184879,233310,-0.09930213789999999,-4.199403663,-8.8941216042,390
123117,184938,233307,0.1531406464,-4.175475436999999,-8.8474615635,391
123213,184912,233311,0.0167497582,-4.2053857195,-8.819944103600001,392
123395,184912,233311,0.0466600407,-4.1647077353,-8.764909183799999,393
123523,184926,233326,-0.1483550012,-4.271188340999999,-8.6799639815,394
123672,185027,233289,0.022731814700000002,-4.1192441059,-8.7768732968,395
123795,184908,233290,-0.0167497582,-4.2484565263,-8.6847496267,396
123945,184980,233334,-0.1363908882,-4.1946180178,-8.841479506999999,397
124081,184976,233342,-0.0490528633,-4.1012979364,-8.8163548697,398
124220,184970,233321,-0.0334995164,-4.2675991071,-8.6321075295,399
124353,185000,233343,-0.0071784678,-4.1252261624,-8.7792661194,400
124476,184990,233371,-0.1339980656,-4.0785661217,-8.8366938618,401
124658,185020,233369,-0.011964113,-4.1659041466,-8.7565343047,402
124799,184983,233305,-0.0646062102,-4.126422573699999,-8.829515394,403
124970,185049,233368,-0.0131605243,-4.2329031794,-8.8307118053,404
125078,185029,233384,0.0251246373,-4.1503507997,-8.7421773691,405
125213,185020,233383,0.0059820565,-4.0881374121,-8.764909183799999,406
125394,185041,233392,-0.031106693799999998,-4.1982072517,-8.7984087002,407
125485,185036,233382,-0.0323031051,-4.0091742663,-8.7984087002,408
125651,185032,233355,-0.047856452,-4.1120656381,-8.877371846,409
125741,185052,233363,0.0275174599,-4.2364924133,-8.8749790234,410
125820,185068,233392,-0.1280160091,-4.1096728155,-8.8247297488,411
125764,185036,233336,-0.0550349198,-4.163511324,-8.6572321668,412
125636,185015,233374,0.0382851616,-4.092923057299999,-8.781658942,413
125390,184995,233362,-0.0382851616,-4.0175491454,-8.7708912403,414
125262,185010,233339,-0.0179461695,-4.1336010414999995,-8.749355836900001,415
125015,184945,233371,-0.010767701699999998,-4.1838503161,-8.8223369262,416
124941,184975,233346,-0.0933200814,-4.2891345105,-8.901300072,417
124866,184960,233327,0.0047856452,-4.1682969692,-8.7553378934,418
124859,184949,233282,0.010767701699999998,-4.211367776,-8.7984087002,419
124892,185013,233308,-0.0873380249,-4.2687955184,-8.793623055,420
124902,184923,233316,-0.022731814700000002,-4.1240297511,-8.831908216599999,421
124996,184967,233283,0.059820565,-4.0881374121,-8.7565343047,422
124995,184959,233342,0.0394815729,-4.2652062845000005,-8.6656070459,423
125045,184991,233298,0.0035892339,-4.1587256788,-8.7984087002,424
125120,185032,233242,0.0143569356,-4.208974953399999,-8.774480474199999,425
125209,184977,233307,-0.0933200814,-4.0666020087,-8.7960158776,426
125316,184994,233318,-0.1052841944,-4.18743955,-8.8618184991,427
125305,184978,233258,-0.18783657410000001,-4.242474469799999,-8.7409809578,428
125506,184987,233286,0.056231331100000004,-4.1778682596,-8.8151584584,429
125614,185058,233269,-0.0526420972,-4.2568314054,-8.8139620471,430
125747,184943,233314,-0.1304088317,-4.2687955184,-8.8366938618,431
125825,185024,233316,0.0323031051,-4.0761732991,-8.9072821285,432
125921,185018,233272,-0.0047856452,-4.1551364449,-8.7732840629,433
126043,185020,233340,-0.09930213789999999,-4.1347974528,-8.641678819900001,434
126097,185012,233253,-0.045463629400000004,-4.0426737827,-8.805587167999999,435
126267,185097,233348,0.0526420972,-4.1982072517,-8.7684984177,436
126362,185016,233297,0.0083748791,-4.1922251952,-8.7553378934,437
126454,185039,233322,-0.0047856452,-4.1946180178,-8.7912302324,438
126596,184984,233267,-0.12083754129999999,-4.199403663,-8.7864445872,439
126754,185063,233306,-0.1543370577,-4.2053857195,-8.757730716,440
126687,184991,233262,-0.0849452023,-4.1192441059,-8.7421773691,441
126625,185023,233278,-0.045463629400000004,-4.1730826144,-8.8031943454,442
126398,184958,233242,0.0095712904,-4.1730826144,-8.7254276109,443
126272,184979,233252,-0.08853443620000001,-4.1479579771,-8.749355836900001,444
126156,184972,233205,-0.0167497582,-4.354937132,-8.7684984177,445
125858,184968,233227,-0.11246266220000001,-4.1706897918,-8.7804625307,446
125831,184937,233251,-0.0490528633,-4.2137605985999995,-8.757730716,447
125810,184921,233215,-0.0035892339,-4.0498522505,-8.805587167999999,448
125819,184944,233223,-0.062213387599999996,-4.0594235409,-8.8905323703,449
125809,184911,233224,0.031106693799999998,-4.1048871703,-8.8211405149,450
125807,184950,233170,-0.045463629400000004,-4.18743955,-8.8151584584,451
125819,184956,233202,-0.08853443620000001,-4.0618163635,-8.8127656358,452
125812,184956,233225,-0.031106693799999998,-4.1359938641000005,-8.9192462415,453
125858,184915,233221,0.0275174599,-4.1563328562,-8.7230347883,454
125865,184979,233169,0.0586241537,-4.0965122912,-8.748159425599999,455
125978,184942,233251,-0.0251246373,-4.242474469799999,-8.7756768855,456
126053,184984,233214,-0.035892339,-4.1359938641000005,-8.7864445872,457
126115,184949,233161,0.0191425808,-4.1611185014,-8.7984087002,458
126141,184945,233217,-0.0921236701,-4.242474469799999,-8.7541414821,459
126290,184994,233203,-0.0071784678,-4.2041893082,-8.7038922075,460
126363,184966,233203,-0.1710868159,-4.3058842687,-8.7373917239,461
126466,184989,233216,-0.0287138712,-4.175475436999999,-8.8498543861,462
126568,184988,233196,-0.011964113,-3.9996029759000002,-8.7254276109,463
126571,184993,233157,-0.1100698396,-4.127618985,-8.6656070459,464
126471,185019,233195,-0.1088734283,-4.1826539048,-8.865407733,465
126300,184861,233183,-0.010767701699999998,-4.2640098732,-8.8869431364,466
126095,184958,233180,-0.1292124204,-4.0713876539,-8.7960158776,467
125798,184924,233163,0.0035892339,-4.2185462438,-8.7601235386,468
125655,184946,233162,0.0382851616,-4.115654872,-8.774480474199999,469
125538,184920,233160,-0.023928226,-4.1312082188999995,-8.6644106346,470
125468,184928,233134,-0.0179461695,-4.2628134618999995,-8.7960158776,471
125457,184932,233174,-0.040677984199999996,-4.3417766077,-8.7433737804,472
125408,184909,233151,-0.10648060570000001,-4.1982072517,-8.6991065623,473
125372,184905,233125,-0.1004985492,-4.3058842687,-8.7972122889,474
125376,184910,233093,-0.1304088317,-4.1934216065,-8.7517486595,475
125426,184931,233115,-0.11246266220000001,-4.199403663,-8.7242311996,476
125453,184951,233112,-0.0777667345,-4.2221354777,-8.7912302324,477
125372,184895,233173,-0.0777667345,-4.1383866867,-8.7888374098,478
125507,184912,233143,-0.056231331100000004,-4.211367776,-8.8271225714,479
125569,184897,233077,-0.0263210486,-4.1479579771,-8.7038922075,480
125560,184920,233061,-0.0095712904,-4.1347974528,-8.6907316832,481
125731,184903,233100,-0.0382851616,-4.2245283003,-8.8821574912,482
125792,184915,233136,0.0167497582,-4.1491543884,-8.7553378934,483
125882,184955,233109,-0.0981057266,-4.1682969692,-8.7361953126,484
125933,184962,233131,0.0873380249,-4.2460637037,-8.7182491431,485
126047,184944,233142,-0.035892339,-4.1970108404,-8.8354974505,486
126027,184956,233178,-0.143569356,-4.0821553556,-8.774480474199999,487
126223,184943,233092,-0.0658026215,-4.0785661217,-8.793623055,488
126294,184990,233152,0.0777667345,-4.092923057299999,-8.7134634979,489
126398,184974,233144,-0.0095712904,-4.2879380992,-8.8678005556,490
126491,185031,233171,-0.1052841944,-4.1682969692,-8.7684984177,491
126574,184957,233156,-0.0610169763,-4.2065821308,-8.8953180155,492
126637,185053,233144,0.0777667345,-4.3058842687,-8.8510507974,493
126572,184976,233117,-0.0586241537,-4.1814574935,-8.749355836900001,494
126331,184950,233053,-0.041874395499999995,-4.211367776,-8.8151584584,495
125976,184935,233115,-0.023928226,-4.1599220901,-8.7732840629,496
125789,184979,233134,-0.056231331100000004,-4.0546378957,-8.819944103600001,497
125470,184905,233090,-0.010767701699999998,-4.1742790257,-8.7840517646,498
125086,184884,233062,0.035892339,-4.208974953399999,-8.8151584584,499
124935,184914,233078,0.047856452,-4.1682969692,-8.8845503138,500
124817,184947,233069,0.1292124204,-4.2305103568,-8.7134634979,501
124699,184870,233073,-0.035892339,-4.3106699139,-8.7158563205,502
124703,184893,233066,-0.0981057266,-4.1491543884,-8.7768732968,503
124673,184900,233079,-0.021535403399999997,-4.2340995907,-8.793623055,504
124629,184844,233073,-0.0275174599,-4.208974953399999,-8.7194455544,505
124663,184928,233110,-0.09930213789999999,-4.2640098732,-8.817551281,506
124650,184874,233064,-0.023928226,-4.1312082188999995,-8.6105721261,507
124686,184920,233108,-0.0693918554,-4.0953158799,-8.7708912403,508
124718,184912,233113,0.0346959277,-4.092923057299999,-8.7768732968,509
124771,184916,233107,-0.0047856452,-4.1862431387,-8.9108713624,510
124841,184922,233102,-0.059820565,-4.2185462438,-8.8390866844,511
124903,184947,233097,-0.0921236701,-4.2735811636,-8.8008015228,512
124991,184965,233095,-0.0382851616,-4.1108692268,-8.8366938618,513
124988,184951,233099,0.0346959277,-4.1347974528,-8.8151584584,514
125183,184963,233127,0.11844471869999999,-4.2185462438,-8.7421773691,515
125192,184970,233177,-0.059820565,-4.0989051138,-8.781658942,516
125287,184963,233111,-0.0741775006,-4.1671005579,-8.8402830957,517
125180,184971,233086,0.0586241537,-4.199403663,-8.7888374098,518
124902,184821,233073,-0.0981057266,-4.103690759,-8.7314096674,519
124637,184915,233078,-0.17706887240000002,-4.146761565799999,-8.7888374098,520
124194,184864,233045,0.020338992099999998,-4.1072799929,-8.7122670866,521
123941,184874,233011,-0.0095712904,-4.2221354777,-8.764909183799999,522
123646,184883,233036,-0.143569356,-4.2843488653,-8.7601235386,523
123446,184863,233028,-0.0059820565,-4.1671005579,-8.8343010392,524
123303,184849,233055,0.1112662509,-4.2484565263,-8.7517486595,525
123355,184824,233068,-0.1052841944,-4.2664026958,-8.819944103600001,526
123353,184858,233042,-0.062213387599999996,-4.247260115,-8.833104627900001,527
123322,184868,233055,-0.17587246110000002,-4.1383866867,-8.7421773691,528
123295,184843,233058,0.0047856452,-4.113262049399999,-8.7984087002,529
123245,184830,233103,-0.1004985492,-4.2795632201,-8.7445701917,530
123322,184825,233051,0.0011964113,-4.0546378957,-8.7960158776,531
123381,184826,233023,-0.1004985492,-4.2185462438,-8.8881395477,532
123433,184840,233038,-0.09930213789999999,-4.2448672924,-8.6799639815,533
123567,184879,233045,0.0131605243,-4.0893338234,-8.781658942,534
123615,184835,233057,-0.0981057266,-4.18743955,-8.8019979341,535
123679,184881,233058,0.0011964113,-4.1240297511,-8.7960158776,536
123763,184854,233045,-0.09092725880000001,-4.2185462438,-8.7026957962,537
123837,184888,233069,0.10169496049999999,-4.2185462438,-8.805587167999999,538
124003,184892,233083,-0.0669990328,-4.1946180178,-8.7373917239,539
124052,184901,233064,-0.1806581063,-4.1623149127,-8.745766603,540
124168,184878,233039,0.0011964113,-4.1288153963,-8.7278204335,541
124214,184919,233118,-0.131605243,-4.1383866867,-8.7505522482,542
124403,184893,233056,-0.1411765334,-4.1216369285,-8.769694829,543
124380,184889,233088,0.0299102825,-4.1371902754,-8.7038922075,544
124580,184888,233065,-0.0526420972,-4.2652062845000005,-8.7541414821,545
124636,184876,233088,0.041874395499999995,-4.1790646709,-8.8247297488,546
124763,184909,233069,-0.0323031051,-4.2903309218,-8.8079799906,547
124664,184891,233072,-0.047856452,-4.1180476945999995,-8.739784546500001,548
124486,184903,233046,-0.023928226,-4.127618985,-8.7732840629,549
124138,184846,233040,-0.1519442351,-4.2017964856,-8.8307118053,550
123821,184816,233022,-0.1256231865,-4.2903309218,-8.8438723296,551
123530,184825,233009,-0.0825523797,-4.211367776,-8.757730716,552
123221,184793,233012,-0.1040877831,-4.0785661217,-8.8223369262,553
122978,184766,232994,-0.1363908882,-4.1647077353,-8.7589271273,554
122938,184781,232979,-0.0897308475,-4.1922251952,-8.8390866844,555
122870,184771,232992,-0.0741775006,-4.3034914461,-8.8558364426,556
122913,184788,233026,-0.11246266220000001,-4.1491543884,-8.7565343047,557
122831,184759,232954,-0.10289137179999999,-4.1563328562,-8.8307118053,558
122812,184761,232945,-0.1004985492,-4.199403663,-8.8378902731,559
122815,184686,233042,0.0011964113,-4.127618985,-8.781658942,560
122877,184795,232997,-0.0263210486,-4.2448672924,-8.831908216599999,561
122912,184793,232979,0.040677984199999996,-4.1180476945999995,-8.7445701917,562
122956,184816,233010,0.1088734283,-4.2329031794,-8.8151584584,563
123024,184806,233007,0.0275174599,-4.1336010414999995,-8.7182491431,564
123062,184766,233014,-0.08374879099999999,-4.2448672924,-8.846265152199999,565
123205,184872,233018,-0.1543370577,-4.1072799929,-8.8031943454,566
123314,184803,233050,-0.0131605243,-4.2329031794,-8.721838377,567
123416,184821,233030,-0.09092725880000001,-4.2149570099,-8.7828553533,568
123464,184855,233058,-0.09092725880000001,-4.1922251952,-8.745766603,569
123575,184796,233031,0.011964113,-4.0833517669,-8.877371846,570
123618,184814,233066,-0.059820565,-4.1826539048,-8.8103728132,571
123414,184813,233043,-0.0646062102,-4.2281175342,-8.764909183799999,572
123149,184745,232959,0.020338992099999998,-4.2329031794,-8.8031943454,573
122831,184760,233033,-0.023928226,-4.097708702499999,-8.7469630143,574
122564,184750,232955,0.0263210486,-4.2029928969000006,-8.793623055,575
122299,184715,232951,-0.0669990328,-4.2029928969000006,-8.8031943454,576
122084,184752,232956,0.0251246373,-4.2484565263,-8.7373917239,577
122006,184637,232992,0.1040877831,-4.1383866867,-8.7601235386,578
122050,184770,232951,-0.1052841944,-4.1611185014,-8.7373917239,579
122089,184700,233048,-0.09690931529999999,-4.1730826144,-8.9108713624,580
122126,184727,232945,-0.059820565,-4.1898323726,-8.7433737804,581
122039,184721,232994,-0.0777667345,-4.1850467274,-8.7517486595,582
122179,184745,232971,-0.0382851616,-4.0953158799,-8.8941216042,583
122215,184710,233004,0.0538385085,-4.126422573699999,-8.7421773691,584
122358,184771,232990,0.0299102825,-4.1922251952,-8.7182491431,585
122501,184759,233022,-0.107677017,-4.1682969692,-8.7912302324,586
122545,184770,233018,-0.1351944769,-4.1587256788,-8.7840517646,587
122734,184787,233079,-0.21415762270000002,-4.2508493489,-8.7780697081,588
122855,184786,233006,-0.1004985492,-4.1766718483,-8.841479506999999,589
122935,184763,233060,-0.04307080679999999,-4.1599220901,-8.739784546500001,590
123115,184780,233042,-0.12442677519999999,-4.1826539048,-8.8558364426,591
123189,184806,233053,-0.040677984199999996,-4.1347974528,-8.7361953126,592
123376,184798,233044,-0.11246266220000001,-4.2843488653,-8.774480474199999,593
123495,184823,233090,-0.155533469,-4.1443687432,-8.7182491431,594
123643,184875,233072,-0.1339980656,-4.1371902754,-8.7601235386,595
123804,184768,233101,-0.0741775006,-4.0426737827,-8.761319949899999,596
123937,184829,233050,-0.0394815729,-4.1108692268,-8.7433737804,597
124055,184813,233098,0.044267218100000005,-4.1563328562,-8.8247297488,598
124139,184853,233127,0.0167497582,-4.2161534212,-8.7840517646,599
124365,184918,233064,-0.16869399329999998,-4.2281175342,-8.7888374098,600
124521,184867,233059,0.0023928226,-4.235296002,-8.7948194663,601
124549,184852,233084,-0.09690931529999999,-4.1742790257,-8.7565343047,602
124399,184835,233115,0.0251246373,-4.2556349941,-8.7242311996,603
124182,184852,233050,-0.1052841944,-4.223331889,-8.7840517646,604
123862,184778,233041,0.09690931529999999,-4.2065821308,-8.8749790234,605
123596,184760,233027,0.0705882667,-4.1862431387,-8.7062850301,606
123352,184693,233039,-0.0346959277,-4.2041893082,-8.7792661194,607
123146,184753,233016,0.0693918554,-4.2340995907,-8.8127656358,608
122988,184778,233012,0.0275174599,-4.2041893082,-8.7625163612,609
123037,184763,232972,-0.11844471869999999,-4.1300118076,-8.8235333375,610
123088,184752,232976,0.0059820565,-4.1611185014,-8.841479506999999,611
123105,184786,233027,0.12442677519999999,-4.1048871703,-8.8271225714,612
123151,184720,232961,0.1148554848,-4.1539400336,-8.7876409985,613
123219,184763,233022,0.023928226,-4.1910287839,-8.831908216599999,614
123223,184747,233054,0.1280160091,-4.208974953399999,-8.85344362,615
123389,184833,233064,0.0921236701,-4.0953158799,-8.7601235386,616
123496,184753,233061,-0.1399801221,-4.1922251952,-8.8103728132,617
123614,184782,233073,-0.0143569356,-4.1252261624,-8.7158563205,618
123638,184764,233082,-0.0334995164,-4.1312082188999995,-8.8881395477,619
123846,184792,233055,-0.0071784678,-4.2029928969000006,-8.7541414821,620
123977,184802,233122,-0.0729810893,-4.1563328562,-8.877371846,621
124088,184795,233091,0.0490528633,-4.2257247116,-8.7768732968,622
124230,184808,233077,-0.0669990328,-4.1072799929,-8.7302132561,623
124339,184810,233043,0.0346959277,-4.2687955184,-8.7230347883,624
124536,184852,233068,-0.1256231865,-4.1659041466,-8.8845503138,625
124554,184803,233018,-0.107677017,-4.1491543884,-8.7720876516,626
124547,184856,233046,-0.08135596839999999,-4.0474594279,-8.8223369262,627
124363,184756,233070,-0.04307080679999999,-4.1563328562,-8.7553378934,628
124129,184770,233057,-0.1292124204,-4.0618163635,-8.846265152199999,629
123934,184801,233083,-0.0538385085,-4.2855452766,-8.8103728132,630
123725,184708,232995,-0.0801595571,-4.199403663,-8.8570328539,631
123595,184705,233011,0.0466600407,-4.1503507997,-8.7661055951,632
123513,184744,232988,-0.0299102825,-4.1814574935,-8.7912302324,633
123530,184707,233032,-0.0047856452,-4.271188340999999,-8.7505522482,634
123571,184716,232978,-0.031106693799999998,-4.1682969692,-8.749355836900001,635
123660,184709,233008,-0.08135596839999999,-4.0761732991,-8.7433737804,636
123706,184738,233010,-0.045463629400000004,-4.1611185014,-8.7984087002,637
123767,184665,232985,-0.1351944769,-4.242474469799999,-8.7433737804,638
123828,184743,233029,0.0681954441,-4.1850467274,-8.7469630143,639
123938,184756,233035,0.0825523797,-4.1371902754,-8.7984087002,640
124034,184725,232969,-0.04307080679999999,-4.1682969692,-8.739784546500001,641
124155,184729,233043,-0.041874395499999995,-4.1108692268,-8.7625163612,642
124259,184746,233015,-0.0538385085,-4.1096728155,-8.7517486595,643
124413,184616,232984,0.0981057266,-4.1347974528,-8.841479506999999,644
124510,184776,233064,-0.0741775006,-4.140779509300001,-8.8151584584,645
124585,184739,233037,-0.0933200814,-4.1802610821999995,-8.7565343047,646
124793,184796,233033,-0.08614161359999999,-4.1312082188999995,-8.8833539025,647
124813,184738,233022,-0.1519442351,-4.2101713647,-8.761319949899999,648
125027,184789,233073,-0.0071784678,-4.1611185014,-8.8953180155,649
125157,184772,233048,-0.0550349198,-4.1587256788,-8.774480474199999,650
125258,184733,233052,0.0729810893,-4.146761565799999,-8.793623055,651
125428,184791,233037,-0.040677984199999996,-4.06779842,-8.7804625307,652
125535,184745,233048,-0.0765703232,-4.1479579771,-8.764909183799999,653
125646,184775,233017,-0.12083754129999999,-4.2532421715,-8.8366938618,654
125722,184807,233041,0.0263210486,-4.2915273330999995,-8.8630149104,655
125897,184789,233073,-0.023928226,-4.1946180178,-8.7385881352,656
126023,184792,232995,-0.031106693799999998,-4.2556349941,-8.8223369262,657
126156,184832,233073,0.021535403399999997,-4.0737804765,-8.9120677737,658
126266,184791,233084,0.023928226,-4.1192441059,-8.8438723296,659
126236,184783,233012,-0.047856452,-4.2041893082,-8.673981925,660
126108,184773,233034,0.0275174599,-4.2053857195,-8.8247297488,661
125931,184760,232996,0.1411765334,-4.259224228,-8.8223369262,662
125729,184723,233015,-0.023928226,-4.1120656381,-8.8438723296,663
125572,184755,232993,0.051445685899999996,-4.0654055974,-8.7984087002,664
125452,184711,232973,-0.11246266220000001,-4.1826539048,-8.769694829,665
125345,184700,232961,-0.0741775006,-4.1802610821999995,-8.8785682573,666
125355,184736,232966,0.0023928226,-4.237688824599999,-8.8031943454,667
125378,184761,232978,-0.1100698396,-4.2843488653,-8.846265152199999,668
125407,184742,233000,-0.0550349198,-4.1623149127,-8.7924266437,669
125450,184756,232979,-0.0334995164,-4.2137605985999995,-8.7553378934,670
125468,184635,233036,-0.09690931529999999,-4.163511324,-8.7684984177,671
125502,184725,232963,0.0921236701,-4.0594235409,-8.7194455544,672
125613,184735,233019,-0.0646062102,-4.1300118076,-8.8630149104,673
125678,184682,233002,-0.0933200814,-4.0833517669,-8.7792661194,674
125766,184787,233006,-0.1172483074,-4.1587256788,-8.8941216042,675
125886,184788,232994,-0.0334995164,-4.1491543884,-8.7254276109,676
125966,184810,233023,0.015553346899999999,-4.1144584607,-8.761319949899999,677
126065,184775,233000,-0.0789631458,-4.1359938641000005,-8.831908216599999,678
126159,184768,232996,-0.107677017,-4.2496529376,-8.761319949899999,679
126248,184804,233012,-0.0933200814,-4.1108692268,-8.8151584584,680
126343,184801,232981,-0.0873380249,-4.1216369285,-8.745766603,681
126441,184842,233028,0.0059820565,-4.1826539048,-8.7421773691,682
126517,184809,232987,-0.011964113,-4.1084764042,-8.8031943454,683
126664,184824,232996,0.10169496049999999,-4.1300118076,-8.8833539025,684
126728,184792,233039,-0.045463629400000004,-4.1611185014,-8.7768732968,685
126692,184847,233011,-0.0981057266,-4.2903309218,-8.7960158776,686
126534,184723,232989,-0.0921236701,-4.2065821308,-8.748159425599999,687
126376,184788,232981,-0.0334995164,-4.1706897918,-8.8235333375,688
126236,184809,232996,-0.131605243,-4.175475436999999,-8.6177505939,689
125939,184782,232945,-0.0981057266,-4.126422573699999,-8.769694829,690
125839,184773,233023,-0.022731814700000002,-4.2496529376,-8.8223369262,691
125746,184760,232943,-0.0011964113,-4.2400816472,-8.7984087002,692
125638,184769,233003,0.0083748791,-4.0378881375,-8.761319949899999,693
125772,184828,232974,0.0753739119,-4.1850467274,-8.7840517646,694
125813,184781,232957,0.06340979890000001,-4.2436708811,-8.7792661194,695
125851,184837,233008,-0.0143569356,-4.2065821308,-8.8008015228,696
125892,184705,232958,-0.11246266220000001,-4.2448672924,-8.8008015228,697
125942,184853,232936,-0.143569356,-4.0546378957,-8.8785682573,698
125999,184803,232966,0.0059820565,-4.1431723319,-8.829515394,699
126075,184829,232955,-0.0777667345,-4.271188340999999,-8.73380249,700
126221,184832,232985,0.0777667345,-4.2185462438,-8.708677852700001,701
126206,184805,232977,-0.10648060570000001,-4.247260115,-8.7409809578,702
126344,184888,232963,-0.15672988029999999,-4.2281175342,-8.769694829,703
126376,184789,233007,-0.044267218100000005,-4.2879380992,-8.7242311996,704
126574,184832,232959,-0.12323036389999999,-4.1503507997,-8.769694829,705
126650,184783,232960,0.0251246373,-4.2125641873,-8.817551281,706
126776,184818,232945,-0.0705882667,-4.06779842,-8.805587167999999,707
126878,184865,232977,-0.08135596839999999,-4.0713876539,-8.7565343047,708
126968,184838,232953,-0.0167497582,-4.2137605985999995,-8.8247297488,709
127063,184849,232979,0.0131605243,-4.2616170506,-8.7302132561,710
127110,184877,233048,-0.0658026215,-4.0965122912,-8.8079799906,711
127305,184924,232987,0.022731814700000002,-4.1671005579,-8.7732840629,712
127397,184902,233034,-0.1387837108,-4.2257247116,-8.8271225714,713
127495,184887,232974,-0.09092725880000001,-4.1826539048,-8.817551281,714
127471,184837,233014,-0.023928226,-4.1790646709,-8.8845503138,715
127504,184880,232922,-0.0981057266,-4.1587256788,-8.8689969669,716
127357,184800,232957,-0.143569356,-4.1587256788,-8.7266240222,717
127148,184837,232950,-0.08135596839999999,-4.1443687432,-8.748159425599999,718
126878,184828,232965,-0.1052841944,-4.3022950348,-8.752945070800001,719
126696,184715,232921,-0.1830509289,-4.2329031794,-8.8103728132,720
126490,184870,232899,0.0179461695,-4.2699919297,-8.748159425599999,721
126254,184770,232883,-0.09690931529999999,-4.1587256788,-8.793623055,722
126246,184786,232917,-0.06340979890000001,-4.235296002,-8.7792661194,723
126268,184824,232920,-0.0526420972,-4.0570307183,-8.8151584584,724
126156,184781,232874,-0.0765703232,-4.1814574935,-8.7828553533,725
126214,184782,232900,0.0346959277,-4.175475436999999,-8.865407733,726
126219,184771,232925,0.1220339526,-4.2640098732,-8.8354974505,727
126267,184799,232909,-0.0179461695,-4.1192441059,-8.7625163612,728
126225,184781,232909,-0.023928226,-4.151547211,-8.8606220878,729
126323,184794,232852,0.0011964113,-4.0965122912,-8.7110706753,730
126390,184792,232853,-0.0753739119,-4.1228333398,-8.6871424493,731
126438,184836,232861,-0.0526420972,-4.2077785421,-8.8008015228,732
126504,184772,232827,-0.0011964113,-4.259224228,-8.8486579748,733
126556,184788,232914,-0.0334995164,-4.0809589443,-8.7242311996,734
126618,184793,232850,-0.1220339526,-4.2329031794,-8.7290168448,735
126727,184830,232890,-0.0765703232,-4.1922251952,-8.7661055951,736
126732,184816,232905,-0.011964113,-4.295116567,-8.8606220878,737
126881,184815,232897,-0.0023928226,-4.097708702499999,-8.8929251929,738
126791,184811,232892,-0.095712904,-4.0893338234,-8.748159425599999,739
126715,184810,232870,-0.0550349198,-4.1898323726,-8.7888374098,740
126481,184757,232860,-0.0705882667,-4.1742790257,-8.7673020064,741
126210,184713,232875,-0.051445685899999996,-4.1826539048,-8.8941216042,742
126015,184794,232812,-0.1950150419,-4.0283168471,-8.769694829,743
125712,184738,232879,-0.0586241537,-4.1491543884,-8.774480474199999,744
125650,184714,232826,-0.1148554848,-4.1790646709,-8.8079799906,745
125574,184723,232837,-0.1507478238,-4.2041893082,-8.8749790234,746
125672,184729,232827,-0.0490528633,-4.2927237444,-8.7792661194,747
125644,184730,232797,-0.0705882667,-4.2388852359,-8.721838377,748
125646,184724,232815,-0.0323031051,-4.2065821308,-8.8354974505,749
125614,184722,232814,-0.0981057266,-4.1898323726,-8.781658942,750
125624,184740,232869,-0.0143569356,-4.1694933805000005,-8.8223369262,751
125661,184641,232823,-0.0873380249,-4.1730826144,-8.752945070800001,752
125719,184750,232815,-0.11844471869999999,-4.1611185014,-8.7469630143,753
125836,184735,232789,-0.0550349198,-4.1694933805000005,-8.8139620471,754
125860,184722,232816,-0.0933200814,-4.146761565799999,-8.749355836900001,755
125925,184751,232836,-0.020338992099999998,-4.1431723319,-8.7314096674,756
125997,184746,232866,-0.095712904,-4.3058842687,-8.6823568041,757
126112,184742,232840,-0.045463629400000004,-4.2305103568,-8.8031943454,758
126176,184735,232860,-0.0251246373,-4.1180476945999995,-8.7708912403,759
126270,184738,232805,-0.0897308475,-4.163511324,-8.7349989013,760
126349,184722,232771,0.023928226,-4.1455651545,-8.7014993849,761
126369,184739,232832,-0.15672988029999999,-4.1431723319,-8.8390866844,762
126530,184748,232820,-0.1411765334,-4.1611185014,-8.7900338211,763
126642,184741,232816,0.0370887503,-4.1862431387,-8.7469630143,764
126733,184775,232810,-0.0933200814,-4.1288153963,-8.8127656358,765
126855,184786,232825,-0.1351944769,-4.2604206393,-8.7625163612,766
126856,184742,232857,0.071784678,-4.271188340999999,-8.7840517646,767
126863,184769,232795,-0.035892339,-4.103690759,-8.793623055,768
126654,184756,232822,0.010767701699999998,-4.1682969692,-8.819944103600001,769
126294,184730,232849,-0.0382851616,-4.1730826144,-8.831908216599999,770
126115,184731,232800,0.0095712904,-4.208974953399999,-8.774480474199999,771
125853,184666,232772,-0.1004985492,-4.1826539048,-8.6967137397,772
125594,184685,232817,-0.2117648001,-4.2317067681000005,-8.7314096674,773
125398,184692,232742,-0.0669990328,-4.18743955,-8.8701933782,774
125286,184678,232776,-0.0646062102,-4.139583098,-8.7254276109,775
125279,184605,232754,-0.08135596839999999,-4.1958144290999995,-8.8558364426,776
125261,184729,232825,-0.1160518961,-4.1958144290999995,-8.8869431364,777
125261,184746,232792,-0.0191425808,-4.1084764042,-8.8713897895,778
125137,184702,232760,-0.2009970984,-4.2257247116,-8.8008015228,779
125216,184677,232777,-0.095712904,-4.126422573699999,-8.8031943454,780
125287,184703,232756,-0.0382851616,-4.1240297511,-8.7864445872,781
125329,184686,232759,-0.020338992099999998,-4.2006000743,-8.721838377,782
125402,184729,232811,-0.022731814700000002,-4.1336010414999995,-8.7996051115,783
125367,184719,232761,0.0035892339,-4.1647077353,-8.7960158776,784
125454,184728,232789,-0.155533469,-3.9900316855,-8.8558364426,785
125518,184688,232775,-0.0191425808,-4.031906081,-8.817551281,786
125602,184721,232795,0.0263210486,-4.0785661217,-8.781658942,787
125770,184706,232797,-0.044267218100000005,-4.1611185014,-8.7314096674,788
125854,184725,232773,-0.062213387599999996,-4.1970108404,-8.764909183799999,789
125934,184706,232794,0.0143569356,-4.2161534212,-8.764909183799999,790
126013,184731,232809,-0.08374879099999999,-4.1850467274,-8.8079799906,791
125937,184716,232764,-0.047856452,-4.1898323726,-8.720641965699999,792
125734,184644,232771,-0.1507478238,-4.2269211229,-8.8343010392,793
125467,184690,232711,0.051445685899999996,-4.1539400336,-8.9407816449,794
125183,184633,232769,-0.1351944769,-4.271188340999999,-8.8821574912,795
124891,184658,232729,-0.0669990328,-4.211367776,-8.8474615635,796
124650,184609,232757,-0.143569356,-4.1814574935,-8.7984087002,797
124475,184683,232715,-0.047856452,-4.0905302347,-8.7505522482,798
124336,184659,232727,-0.071784678,-4.1180476945999995,-8.8079799906,799
124405,184633,232732,-0.021535403399999997,-4.1048871703,-8.8151584584,800
124418,184636,232723,-0.299102825,-4.139583098,-8.7385881352,801
124439,184721,232759,-0.1100698396,-4.1563328562,-8.7433737804,802
124444,184709,232753,-0.09092725880000001,-4.237688824599999,-8.831908216599999,803
124462,184645,232736,0.0035892339,-4.2520457602,-8.7912302324,804
124556,184674,232712,-0.1100698396,-4.1563328562,-8.8390866844,805
124561,184657,232718,-0.0490528633,-4.2532421715,-8.8558364426,806
124697,184692,232711,-0.0646062102,-4.235296002,-8.7589271273,807
124676,184650,232754,-0.0681954441,-4.1192441059,-8.925228298,808
124852,184669,232721,0.044267218100000005,-4.1551364449,-8.7254276109,809
124954,184626,232798,0.0,-4.2400816472,-8.831908216599999,810
125104,184688,232741,-0.1100698396,-4.1826539048,-8.7792661194,811
125079,184683,232714,-0.095712904,-4.146761565799999,-8.7230347883,812
125214,184672,232764,-0.1495514125,-4.1192441059,-8.7912302324,813
125355,184698,232756,0.0,-4.1312082188999995,-8.7038922075,814
125465,184687,232727,-0.107677017,-4.0486558392,-8.7804625307,815
125551,184614,232758,-0.0610169763,-4.2795632201,-8.7756768855,816
125656,184729,232747,-0.1220339526,-4.1443687432,-8.7673020064,817
125754,184729,232759,-0.0801595571,-4.211367776,-8.8008015228,818
125856,184692,232773,-0.20458633229999998,-4.2041893082,-8.8271225714,819
125958,184694,232761,-0.1004985492,-4.2735811636,-8.7505522482,820
126072,184703,232782,-0.0933200814,-4.1048871703,-8.8103728132,821
126136,184707,232767,-0.1543370577,-4.1682969692,-8.748159425599999,822
126216,184721,232727,-0.1148554848,-4.223331889,-8.781658942,823
126132,184713,232736,-0.0873380249,-4.1455651545,-8.709874264,824
125921,184637,232735,0.0095712904,-4.175475436999999,-8.7625163612,825
125615,184670,232759,0.0047856452,-4.1970108404,-8.8079799906,826
125306,184620,232665,-0.0370887503,-4.1024943476999995,-8.7960158776,827
124982,184649,232670,-0.0574277424,-4.1694933805000005,-8.757730716,828
124718,184641,232655,-0.020338992099999998,-4.0905302347,-8.7984087002,829
124548,184597,232685,-0.051445685899999996,-4.2006000743,-8.805587167999999,830
124451,184612,232693,-0.0981057266,-4.2185462438,-8.7565343047,831
124392,184591,232629,-0.0323031051,-4.2795632201,-8.829515394,832
124402,184651,232682,-0.09930213789999999,-4.2065821308,-8.781658942,833
124376,184602,232666,-0.010767701699999998,-4.1563328562,-8.8797646686,834
124339,184593,232643,-0.0071784678,-4.127618985,-8.73380249,835
124311,184571,232684,0.047856452,-4.1443687432,-8.819944103600001,836
124234,184591,232692,0.015553346899999999,-4.199403663,-8.7038922075,837
124344,184589,232678,-0.0945164927,-4.1826539048,-8.8127656358,838
124434,184604,232683,-0.0729810893,-4.1898323726,-8.7840517646,839
124467,184614,232659,-0.1052841944,-4.0809589443,-8.8498543861,840
124514,184611,232699,-0.10289137179999999,-4.1479579771,-8.6656070459,841
124593,184554,232650,-0.0526420972,-4.1682969692,-8.7421773691,842
124704,184663,232694,-0.0646062102,-4.3058842687,-8.8354974505,843
124737,184628,232683,-0.10289137179999999,-4.2281175342,-8.817551281,844
124815,184576,232648,-0.0526420972,-4.2281175342,-8.7840517646,845
124907,184679,232650,-0.0131605243,-4.1048871703,-8.7888374098,846
124928,184544,232652,0.051445685899999996,-4.2675991071,-8.8797646686,847
124828,184610,232671,0.0346959277,-4.3154555591,-8.764909183799999,848
124564,184602,232628,-0.1459621786,-4.2269211229,-8.7589271273,849
124334,184621,232650,-0.1172483074,-4.2496529376,-8.745766603,850
123993,184537,232644,-0.1387837108,-4.1886359613,-8.831908216599999,851
123878,184588,232608,0.0370887503,-4.2508493489,-8.7014993849,852
123493,184527,232616,-0.0981057266,-4.2041893082,-8.7948194663,853
123484,184542,232611,-0.1280160091,-4.2687955184,-8.7158563205,854
123447,184577,232603,-0.1004985492,-4.163511324,-8.7637127725,855
123440,184561,232625,0.0035892339,-4.1790646709,-8.8402830957,856
123450,184544,232642,-0.0083748791,-4.2185462438,-8.7373917239,857
123442,184583,232639,-0.0095712904,-4.1347974528,-8.717052731799999,858
123434,184509,232633,-0.16271193679999998,-4.1024943476999995,-8.817551281,859
123461,184579,232631,-0.09690931529999999,-4.2305103568,-8.769694829,860
123512,184548,232618,-0.0550349198,-4.1240297511,-8.7673020064,861
123600,184588,232663,-0.0765703232,-4.1850467274,-8.7732840629,862
123622,184564,232632,-0.0370887503,-4.1359938641000005,-8.793623055,863
123753,184579,232649,-0.0035892339,-4.1802610821999995,-8.8103728132,864
123767,184582,232646,-0.0370887503,-4.2879380992,-8.7589271273,865
123897,184631,232638,-0.0011964113,-4.151547211,-8.8151584584,866
123975,184583,232639,-0.0059820565,-4.175475436999999,-8.7960158776,867
124097,184613,232614,-0.09092725880000001,-4.223331889,-8.8247297488,868
124083,184629,232605,-0.041874395499999995,-4.127618985,-8.7038922075,869
124317,184617,232680,-0.0765703232,-4.2652062845000005,-8.831908216599999,870
124313,184613,232638,-0.1112662509,-4.1946180178,-8.873782612100001,871
124481,184636,232623,-0.0131605243,-4.1575292675,-8.7720876516,872
124600,184651,232687,-0.155533469,-4.2185462438,-8.8366938618,873
124683,184624,232616,-0.0131605243,-4.175475436999999,-8.7349989013,874
124800,184629,232641,-0.1100698396,-4.2137605985999995,-8.8127656358,875
124898,184691,232680,-0.107677017,-4.1838503161,-8.913264185,876
125002,184547,232651,-0.0023928226,-4.1563328562,-8.8582292652,877
125032,184685,232614,-0.1950150419,-4.2041893082,-8.8079799906,878
124793,184615,232631,-0.0777667345,-4.2041893082,-8.6823568041,879
124465,184633,232611,-0.04307080679999999,-4.1623149127,-8.817551281,880
124137,184495,232623,-0.041874395499999995,-4.2400816472,-8.8558364426,881
123838,184617,232595,-0.08374879099999999,-4.0689948312999995,-8.7625163612,882
123459,184577,232582,-0.0382851616,-4.1024943476999995,-8.7361953126,883
123186,184539,232574,-0.10648060570000001,-4.1324046302,-8.7828553533,884
123009,184601,232555,-0.14476576730000001,-4.208974953399999,-8.73380249,885
122960,184442,232543,-0.0669990328,-4.2185462438,-8.7565343047,886
122908,184564,232601,-0.015553346899999999,-4.115654872,-8.7565343047,887
122808,184582,232564,0.056231331100000004,-4.151547211,-8.7768732968,888
122838,184540,232540,-0.11964113,-4.1886359613,-8.8271225714,889
122829,184557,232548,-0.0669990328,-4.2137605985999995,-8.805587167999999,890
122726,184584,232549,0.0526420972,-4.2640098732,-8.7948194663,891
122906,184583,232592,-0.2380858487,-4.208974953399999,-8.7852481759,892
122943,184591,232543,0.0789631458,-4.1300118076,-8.7361953126,893
122970,184557,232599,-0.0394815729,-4.1300118076,-8.8247297488,894
123080,184631,232577,-0.0550349198,-4.1682969692,-8.7553378934,895
123153,184608,232580,-0.0023928226,-4.0498522505,-8.793623055,896
123231,184632,232564,-0.031106693799999998,-4.2544385828,-8.7984087002,897
123299,184595,232561,0.0035892339,-4.140779509300001,-8.7708912403,898
123386,184612,232587,-0.059820565,-4.0905302347,-8.7888374098,899
123483,184626,232582,-0.2021935097,-4.2065821308,-8.7134634979,900
123602,184628,232619,-0.023928226,-4.0773697104,-8.694320917099999,901
123694,184610,232620,0.0047856452,-4.1096728155,-8.7673020064,902
123786,184635,232605,-0.0705882667,-4.163511324,-8.7768732968,903
123844,184659,232600,-0.155533469,-4.0354953148999995,-8.8008015228,904
123988,184629,232626,0.0083748791,-4.0845481781999995,-8.8701933782,905
124028,184627,232621,0.0251246373,-4.2305103568,-8.7780697081,906
123899,184590,232644,0.0143569356,-4.1898323726,-8.7110706753,907
123609,184608,232603,-0.023928226,-4.0510486617999995,-8.8917287816,908
123261,184592,232558,-0.051445685899999996,-4.2484565263,-8.8151584584,909
122905,184591,232544,-0.059820565,-4.103690759,-8.7134634979,910
122605,184510,232535,-0.0370887503,-4.1742790257,-8.7912302324,911
122256,184477,232548,-0.131605243,-4.2305103568,-8.805587167999999,912
122034,184494,232547,-0.0765703232,-4.2652062845000005,-8.7768732968,913
122048,184525,232553,-0.0382851616,-4.1539400336,-8.7768732968,914
122042,184511,232556,-0.1483550012,-4.1778682596,-8.817551281,915
122007,184524,232519,0.0179461695,-4.2305103568,-8.7948194663,916
122001,184502,232616,0.0466600407,-4.1862431387,-8.7912302324,917
121992,184476,232588,-0.0550349198,-4.0989051138,-8.8091764019,918
122006,184498,232604,-0.17706887240000002,-4.2987058009,-8.7852481759,919
122069,184507,232577,-0.044267218100000005,-4.1659041466,-8.7433737804,920
122143,184525,232542,-0.0741775006,-4.2137605985999995,-8.8247297488,921
122192,184507,232564,0.107677017,-4.1790646709,-8.831908216599999,922
122281,184511,232515,0.0394815729,-4.2041893082,-8.7792661194,923
122354,184526,232564,0.0083748791,-4.223331889,-8.8510507974,924
122431,184552,232576,-0.010767701699999998,-4.1012979364,-8.8031943454,925
122554,184526,232560,-0.020338992099999998,-4.092923057299999,-8.7601235386,926
122655,184516,232565,-0.08374879099999999,-4.0378881375,-8.9072821285,927
122732,184466,232567,-0.0167497582,-4.1168512833,-8.8390866844,928
122822,184565,232580,-0.0370887503,-4.2041893082,-8.8390866844,929
122945,184526,232597,-0.0550349198,-4.1970108404,-8.85344362,930
123041,184554,232654,-0.12323036389999999,-4.126422573699999,-8.7792661194,931
123132,184559,232615,-0.0382851616,-4.1120656381,-8.9228354754,932
123176,184596,232580,-0.0370887503,-4.2412780585,-8.8079799906,933
123030,184446,232586,-0.0382851616,-4.1563328562,-8.7110706753,934
122729,184501,232537,-0.0933200814,-4.237688824599999,-8.8031943454,935
122395,184490,232513,0.0035892339,-4.208974953399999,-8.764909183799999,936
122064,184457,232503,-0.08853443620000001,-4.2329031794,-8.8701933782,937
121802,184379,232495,-0.0095712904,-4.146761565799999,-8.739784546500001,938
121571,184471,232486,-0.0933200814,-4.2257247116,-8.7014993849,939
121471,184414,232516,-0.0981057266,-4.1898323726,-8.7912302324,940
121446,184446,232498,-0.031106693799999998,-4.1718862031,-8.828318982699999,941
121483,184350,232526,-0.0550349198,-4.1766718483,-8.7840517646,942
121482,184420,232538,-0.0669990328,-4.2257247116,-8.8510507974,943
121438,184440,232563,-0.14476576730000001,-4.2137605985999995,-8.7038922075,944
121482,184451,232524,-0.0071784678,-4.3214376156,-8.831908216599999,945
121494,184420,232503,0.0143569356,-4.1084764042,-8.8498543861,946
121578,184410,232590,-0.12323036389999999,-4.1718862031,-8.8498543861,947
121663,184427,232557,-0.1052841944,-4.1934216065,-8.7421773691,948
121767,184422,232515,-0.0586241537,-4.1671005579,-8.8606220878,949
121833,184452,232564,-0.0299102825,-4.0845481781999995,-8.8845503138,950
121922,184457,232560,-0.107677017,-4.0486558392,-8.757730716,951
122035,184464,232543,0.021535403399999997,-4.1120656381,-8.7050886188,952
122015,184466,232618,-0.0466600407,-4.2544385828,-8.8378902731,953
122244,184448,232542,-0.1004985492,-4.3633120111,-8.7314096674,954
122333,184472,232564,0.0071784678,-4.0666020087,-8.8151584584,955
122483,184506,232567,-0.1256231865,-4.2305103568,-8.7768732968,956
122608,184481,232578,0.0705882667,-4.1108692268,-8.7852481759,957
122713,184487,232596,-0.1172483074,-4.2652062845000005,-8.8127656358,958
122794,184493,232592,-0.155533469,-4.0965122912,-8.7720876516,959
122934,184481,232615,-0.0550349198,-4.1551364449,-8.8043907567,960
123050,184488,232634,-0.0323031051,-4.2185462438,-8.7601235386,961
123163,184495,232590,-0.0945164927,-4.3298124947,-8.7038922075,962
123258,184537,232620,0.051445685899999996,-4.1503507997,-8.8008015228,963
123398,184520,232595,-0.0346959277,-4.3369909625,-8.805587167999999,964
123502,184546,232634,0.0370887503,-4.2077785421,-8.8223369262,965
123603,184504,232580,-0.155533469,-4.2281175342,-8.8821574912,966
123469,184534,232563,-0.1339980656,-4.2041893082,-8.7589271273,967
123211,184360,232581,0.0741775006,-4.1347974528,-8.7864445872,968
122921,184422,232571,-0.0275174599,-4.0833517669,-8.8630149104,969
122692,184435,232545,-0.1806581063,-4.2197426551,-8.7661055951,970
122363,184439,232523,-0.023928226,-4.1694933805000005,-8.805587167999999,971
122166,184399,232577,-0.0526420972,-4.1383866867,-8.7517486595,972
122022,184455,232531,-0.051445685899999996,-4.097708702499999,-8.7768732968,973
122000,184370,232576,-0.0023928226,-4.1228333398,-8.7302132561,974
122027,184440,232582,0.0873380249,-4.1946180178,-8.876175434699999,975
122007,184407,232535,-0.1100698396,-4.2412780585,-8.8678005556,976
122050,184418,232587,-0.059820565,-4.2855452766,-8.8259261601,977
122070,184416,232557,-0.08374879099999999,-4.2687955184,-8.7254276109,978
122118,184444,232574,-0.0610169763,-4.2640098732,-8.8008015228,979
122190,184407,232534,-0.08374879099999999,-4.1479579771,-8.8127656358,980
122274,184417,232562,-0.041874395499999995,-4.2448672924,-8.8247297488,981
122350,184456,232561,-0.1052841944,-4.1682969692,-8.7110706753,982
122364,184458,232544,-0.11964113,-4.175475436999999,-8.805587167999999,983
122557,184476,232557,-0.021535403399999997,-4.18743955,-8.8247297488,984
122680,184462,232605,-0.0095712904,-4.0881374121,-8.7864445872,985
122772,184509,232541,-0.0897308475,-4.1718862031,-8.8079799906,986
122898,184424,232613,-0.1339980656,-4.2161534212,-8.9216390641,987
123028,184452,232610,0.0143569356,-4.1706897918,-8.7517486595,988
123134,184500,232629,-0.021535403399999997,-4.2687955184,-8.865407733,989
123286,184476,232565,0.0287138712,-4.163511324,-8.819944103600001,990
123352,184477,232642,-0.0011964113,-4.2460637037,-8.8247297488,991
123491,184506,232594,-0.1148554848,-4.1970108404,-8.7014993849,992
123638,184501,232636,-0.04307080679999999,-4.18743955,-8.872586200799999,993
123780,184537,232633,-0.08853443620000001,-4.3393837851,-8.769694829,994
123897,184585,232603,0.0251246373,-4.2879380992,-8.865407733,995
123840,184523,232594,-0.071784678,-4.2987058009,-8.819944103600001,996
123740,184452,232579,-0.1172483074,-4.2460637037,-8.8845503138,997
123569,184495,232557,-0.16271193679999998,-4.2520457602,-8.7517486595,998
123322,184474,232587,-0.0095712904,-4.247260115,-8.769694829,999
123109,184442,232568,-0.1292124204,-4.2520457602,-8.8115692245,1000
122887,184411,232563,-0.04307080679999999,-4.2975093896,-8.7984087002,1001
122755,184399,232561,0.044267218100000005,-4.259224228,-8.7792661194,1002
122548,184419,232630,-0.0801595571,-4.1180476945999995,-8.7433737804,1003
122614,184420,232553,-0.1866401628,-4.3034914461,-8.8701933782,1004
122633,184440,232527,-0.0646062102,-4.1539400336,-8.8343010392,1005
122688,184430,232557,0.0275174599,-4.1096728155,-8.757730716,1006
122683,184343,232556,-0.0693918554,-4.2484565263,-8.7840517646,1007
122718,184357,232585,-0.12681959780000002,-4.2317067681000005,-8.7684984177,1008
122830,184446,232583,-0.0574277424,-4.211367776,-8.757730716,1009
122853,184445,232564,-0.0334995164,-4.271188340999999,-8.761319949899999,1010
122867,184439,232577,-0.0693918554,-4.1048871703,-8.7565343047,1011
123052,184394,232597,-0.0083748791,-4.1587256788,-8.85344362,1012
123161,184346,232507,-0.107677017,-4.2699919297,-8.7900338211,1013
123266,184460,232570,-0.040677984199999996,-4.3298124947,-8.7553378934,1014
123369,184469,232610,-0.1052841944,-4.242474469799999,-8.764909183799999,1015
123478,184445,232565,-0.06340979890000001,-4.1216369285,-8.7828553533,1016
123616,184459,232608,-0.0646062102,-4.211367776,-8.85344362,1017
123614,184481,232584,-0.1004985492,-4.1108692268,-8.7589271273,1018
123790,184459,232598,-0.08853443620000001,-4.151547211,-8.7110706753,1019
123934,184447,232547,-0.0693918554,-4.2939201557,-8.7684984177,1020
123967,184439,232574,-0.1926222193,-4.1563328562,-8.7601235386,1021
123860,184431,232557,-0.056231331100000004,-4.1371902754,-8.6775711589,1022
123594,184392,232531,-0.1100698396,-4.2855452766,-8.846265152199999,1023
123394,184369,232524,-0.0765703232,-4.2257247116,-8.8366938618,1024
123198,184399,232518,-0.1926222193,-4.0666020087,-8.817551281,1025
123015,184281,232520,0.031106693799999998,-4.199403663,-8.841479506999999,1026
122857,184297,232551,-0.0143569356,-4.175475436999999,-8.7984087002,1027
122866,184355,232530,0.0323031051,-4.1718862031,-8.8833539025,1028
122810,184361,232527,-0.12323036389999999,-4.151547211,-8.8031943454,1029
122837,184354,232553,-0.1483550012,-4.1946180178,-8.8307118053,1030
122819,184359,232505,-0.10648060570000001,-4.30708068,-8.7661055951,1031
122842,184371,232561,-0.1471585899,-4.0031922098,-8.7984087002,1032
122773,184349,232523,-0.0382851616,-4.1312082188999995,-8.8558364426,1033
122915,184386,232551,-0.0526420972,-4.2017964856,-8.721838377,1034
122852,184372,232506,-0.0658026215,-4.1359938641000005,-8.7720876516,1035
122973,184349,232515,0.0143569356,-4.163511324,-8.8247297488,1036
123083,184382,232503,-0.06340979890000001,-3.9912280968,-8.7673020064,1037
123178,184377,232476,-0.0023928226,-4.235296002,-8.8211405149,1038
123304,184386,232538,0.022731814700000002,-4.0773697104,-8.7385881352,1039
123460,184412,232549,-0.08374879099999999,-4.2173498325,-8.793623055,1040
123519,184345,232511,-0.041874395499999995,-4.1240297511,-8.8031943454,1041
123663,184384,232566,-0.015553346899999999,-4.0570307183,-8.8929251929,1042
123688,184375,232544,-0.1220339526,-4.1539400336,-8.7278204335,1043
123820,184407,232501,-0.10289137179999999,-4.1802610821999995,-8.8869431364,1044
123931,184374,232531,0.0251246373,-4.2568314054,-8.769694829,1045
124035,184377,232569,-0.09690931529999999,-4.092923057299999,-8.8797646686,1046
124135,184429,232553,-0.0765703232,-4.2041893082,-8.781658942,1047
124266,184417,232546,-0.09092725880000001,-4.1359938641000005,-8.8701933782,1048
124290,184427,232594,-0.044267218100000005,-4.382454591899999,-8.7708912403,1049
124469,184403,232562,-0.1172483074,-4.1611185014,-8.8008015228,1050
124570,184443,232591,-0.1854437515,-4.1838503161,-8.829515394,1051
124547,184440,232594,-0.0502492746,-4.1802610821999995,-8.8127656358,1052
124734,184474,232537,-0.0669990328,-4.1982072517,-8.7517486595,1053
124636,184405,232552,-0.0825523797,-4.1012979364,-8.6847496267,1054
124407,184387,232567,0.035892339,-4.1539400336,-8.8271225714,1055
124175,184417,232568,-0.0646062102,-4.0989051138,-8.7864445872,1056
123944,184324,232489,-0.0035892339,-4.1455651545,-8.721838377,1057
123708,184329,232502,-0.0789631458,-4.1706897918,-8.7421773691,1058
123425,184335,232482,-0.1112662509,-4.2017964856,-8.7972122889,1059
123347,184328,232516,0.051445685899999996,-4.1001015251,-8.7984087002,1060
123341,184316,232473,-0.071784678,-4.1431723319,-8.8618184991,1061
123313,184375,232501,-0.1148554848,-4.2017964856,-8.8079799906,1062
123320,184251,232486,-0.0658026215,-4.1288153963,-8.793623055,1063
123277,184355,232517,-0.0334995164,-4.1682969692,-8.8223369262,1064
123308,184343,232547,-0.0275174599,-4.2161534212,-8.876175434699999,1065
123336,184321,232541,-0.056231331100000004,-4.175475436999999,-8.7445701917,1066
123382,184345,232504,-0.051445685899999996,-4.1778682596,-8.748159425599999,1067
123433,184348,232513,-0.0777667345,-4.1252261624,-8.764909183799999,1068
123548,184357,232459,-0.059820565,-4.0941194686,-8.8031943454,1069
123594,184347,232495,0.0287138712,-4.0881374121,-8.8558364426,1070
123664,184323,232530,-0.1363908882,-4.2185462438,-8.7314096674,1071
123752,184361,232538,-0.0502492746,-4.113262049399999,-8.752945070800001,1072
123839,184360,232541,-0.16151552549999998,-4.1168512833,-8.8079799906,1073
123913,184365,232525,-0.2021935097,-4.175475436999999,-8.7960158776,1074
124041,184370,232524,-0.0263210486,-4.1455651545,-8.8570328539,1075
124078,184330,232511,-0.131605243,-4.1431723319,-8.769694829,1076
124216,184389,232518,-0.1100698396,-4.1527436223,-8.7601235386,1077
124322,184417,232557,-0.0981057266,-4.2735811636,-8.8343010392,1078
124432,184362,232549,-0.09092725880000001,-4.2221354777,-8.7038922075,1079
124552,184412,232519,-0.0287138712,-4.2891345105,-8.8103728132,1080
124625,184392,232540,-0.1363908882,-4.2460637037,-8.865407733,1081
124753,184446,232564,0.0729810893,-4.2017964856,-8.8366938618,1082
124836,184426,232578,-0.031106693799999998,-4.1575292675,-8.8809610799,1083
124952,184423,232554,-0.1052841944,-4.1563328562,-8.7876409985,1084
125003,184428,232543,0.015553346899999999,-4.2137605985999995,-8.8163548697,1085
124930,184415,232525,-0.0502492746,-4.1024943476999995,-8.745766603,1086
124709,184384,232539,0.0011964113,-4.1766718483,-8.8211405149,1087
124419,184375,232556,-0.0574277424,-4.1826539048,-8.8666041443,1088
124170,184326,232517,-0.17228322719999997,-4.0666020087,-8.7876409985,1089
123877,184360,232500,-0.09690931529999999,-4.223331889,-8.707481441399999,1090
123632,184329,232479,0.0334995164,-4.0953158799,-8.7505522482,1091
123309,184306,232523,-0.0873380249,-4.0737804765,-8.8211405149,1092
123258,184270,232469,-0.0933200814,-4.247260115,-8.7589271273,1093
123240,184326,232524,-0.1100698396,-4.2496529376,-8.7589271273,1094
123130,184289,232474,-0.0981057266,-4.0965122912,-8.8079799906,1095
123190,184306,232466,-0.0071784678,-4.0965122912,-8.7302132561,1096
123155,184284,232513,0.0263210486,-4.223331889,-8.7278204335,1097
123204,184345,232506,0.056231331100000004,-4.1371902754,-8.708677852700001,1098
123114,184353,232462,-0.08614161359999999,-4.3118663252,-8.793623055,1099
123213,184370,232456,0.022731814700000002,-4.237688824599999,-8.8247297488,1100
123262,184273,232508,0.0023928226,-4.1431723319,-8.7684984177,1101
123365,184330,232481,-0.11964113,-4.2305103568,-8.6847496267,1102
123397,184324,232555,-0.1112662509,-4.1144584607,-8.7230347883,1103
123435,184339,232528,-0.0873380249,-4.247260115,-8.8366938618,1104
123549,184319,232481,-0.0693918554,-4.2532421715,-8.7158563205,1105
123642,184331,232506,-0.12323036389999999,-4.115654872,-8.8343010392,1106
123639,184347,232509,0.0502492746,-4.242474469799999,-8.7768732968,1107
123802,184347,232508,0.0179461695,-4.199403663,-8.721838377,1108
123899,184379,232581,-0.1591227029,-4.247260115,-8.8486579748,1109
123984,184391,232496,-0.08614161359999999,-4.1192441059,-8.7720876516,1110
124046,184425,232556,0.0011964113,-4.2006000743,-8.829515394,1111
124164,184398,232552,0.0323031051,-4.2855452766,-8.819944103600001,1112
124213,184354,232569,-0.1004985492,-4.2281175342,-8.805587167999999,1113
124193,184351,232519,-0.08374879099999999,-4.2041893082,-8.7625163612,1114
123942,184325,232489,-0.0741775006,-4.1838503161,-8.769694829,1115
123648,184310,232489,-0.062213387599999996,-4.1898323726,-8.8606220878,1116
123360,184283,232463,0.0490528633,-4.1826539048,-8.8546400313,1117
123048,184217,232425,0.0526420972,-4.2137605985999995,-8.748159425599999,1118
122841,184251,232479,-0.0933200814,-4.1503507997,-8.7888374098,1119
122550,184227,232470,0.0143569356,-4.1060835816,-8.7134634979,1120
122463,184270,232466,-0.0550349198,-4.1455651545,-8.7768732968,1121
122430,184208,232444,-0.0251246373,-4.2508493489,-8.8008015228,1122
122409,184220,232413,-0.0801595571,-4.2460637037,-8.8630149104,1123
122368,184237,232442,-0.0370887503,-4.1826539048,-8.817551281,1124
122346,184229,232414,-0.0669990328,-4.127618985,-8.8031943454,1125
122332,184236,232425,-0.08853443620000001,-4.1216369285,-8.7314096674,1126
122362,184249,232429,0.0131605243,-4.1838503161,-8.757730716,1127
122402,184212,232422,-0.0777667345,-4.2257247116,-8.7684984177,1128
122459,184115,232458,-0.1052841944,-4.2568314054,-8.6345003521,1129
122515,184209,232481,-0.0693918554,-4.223331889,-8.793623055,1130
122598,184238,232447,-0.16749758199999998,-4.0905302347,-8.7421773691,1131
122649,184241,232436,-0.1387837108,-4.151547211,-8.865407733,1132
122766,184232,232469,-0.1004985492,-4.1814574935,-8.8366938618,1133
122800,184239,232489,-0.0825523797,-4.1898323726,-8.8151584584,1134
122934,184264,232481,0.020338992099999998,-4.1802610821999995,-8.819944103600001,1135
122983,184283,232461,0.0502492746,-4.1814574935,-8.7840517646,1136
123028,184182,232473,-0.0705882667,-4.2568314054,-8.9204426528,1137
122969,184258,232449,0.0251246373,-4.2209390664,-8.7182491431,1138
122649,184187,232476,-0.0382851616,-4.1802610821999995,-8.8941216042,1139
122356,184208,232435,-0.08374879099999999,-4.1001015251,-8.7996051115,1140
122058,184171,232369,-0.0263210486,-4.175475436999999,-8.7876409985,1141
121769,184061,232449,-0.020338992099999998,-4.1324046302,-8.8438723296,1142
121576,184161,232401,-0.0550349198,-4.259224228,-8.7230347883,1143
121412,184167,232408,-0.0550349198,-4.1599220901,-8.7349989013,1144
121393,184043,232442,0.0346959277,-4.223331889,-8.9623170483,1145
121407,184184,232437,-0.021535403399999997,-4.1288153963,-8.749355836900001,1146
121302,184117,232439,-0.1531406464,-4.3357945512,-8.7960158776,1147
121349,184115,232361,-0.04307080679999999,-4.223331889,-8.7912302324,1148
121407,184163,232429,-0.0131605243,-4.1659041466,-8.7864445872,1149
121429,184168,232371,-0.031106693799999998,-4.2664026958,-8.7290168448,1150
121497,184132,232398,-0.0825523797,-4.0450666053,-8.708677852700001,1151
121587,184115,232454,0.0526420972,-4.1611185014,-8.8127656358,1152
121657,184149,232469,-0.0023928226,-4.283152454,-8.841479506999999,1153
121762,184155,232458,-0.1160518961,-4.1144584607,-8.739784546500001,1154
121861,184166,232432,-0.062213387599999996,-4.1527436223,-8.8366938618,1155
121904,184178,232459,-0.06340979890000001,-4.2029928969000006,-8.7996051115,1156
122011,184212,232479,-0.0981057266,-4.0953158799,-8.6703926911,1157
122138,184200,232480,-0.0023928226,-4.0857445895,-8.7960158776,1158
122276,184190,232477,-0.0143569356,-4.1563328562,-8.8713897895,1159
122393,184204,232478,-0.09092725880000001,-4.1048871703,-8.7421773691,1160
122538,184204,232492,0.031106693799999998,-4.1778682596,-8.748159425599999,1161
122635,184237,232486,-0.0789631458,-4.1575292675,-8.748159425599999,1162
122772,184224,232453,-0.1459621786,-4.1694933805000005,-8.7768732968,1163
122893,184257,232535,-0.0323031051,-4.2281175342,-8.8785682573,1164
122971,184254,232579,-0.10289137179999999,-4.127618985,-8.831908216599999,1165
123090,184288,232513,0.011964113,-4.295116567,-8.7864445872,1166
123191,184267,232495,-0.0011964113,-4.1168512833,-8.761319949899999,1167
123183,184272,232471,-0.0191425808,-4.2053857195,-8.720641965699999,1168
122894,184257,232479,-0.0346959277,-4.1336010414999995,-8.6703926911,1169
122600,184230,232489,0.020338992099999998,-4.1527436223,-8.7828553533,1170
122260,184181,232404,-0.0251246373,-4.1503507997,-8.7780697081,1171
121926,184156,232455,-0.08135596839999999,-4.237688824599999,-8.8127656358,1172
121634,184158,232415,-0.0035892339,-4.2281175342,-8.7996051115,1173
121389,184175,232456,-0.1304088317,-4.18743955,-8.7888374098,1174
121217,184145,232361,0.0263210486,-4.0989051138,-8.745766603,1175
121171,184106,232364,-0.1172483074,-4.2640098732,-8.817551281,1176
121223,184173,232436,0.062213387599999996,-4.2939201557,-8.720641965699999,1177
121181,184122,232436,-0.035892339,-4.2209390664,-8.8510507974,1178
121196,184090,232394,-0.1292124204,-4.1850467274,-8.872586200799999,1179
121201,184087,232412,-0.1220339526,-4.1982072517,-8.7038922075,1180
121291,184161,232393,-0.08614161359999999,-4.3369909625,-8.761319949899999,1181
121231,184133,232389,-0.1854437515,-4.18743955,-8.8510507974,1182
121349,184121,232423,0.0765703232,-4.2412780585,-8.8151584584,1183
121478,184156,232474,-0.1411765334,-4.1898323726,-8.8881395477,1184
121580,184210,232444,-0.0873380249,-4.0821553556,-8.8343010392,1185
121683,184092,232462,0.0299102825,-4.1419759206,-8.663214223299999,1186
121791,184174,232473,-0.0526420972,-4.0618163635,-8.7768732968,1187
121863,184123,232471,-0.0191425808,-4.2041893082,-8.764909183799999,1188
122008,184189,232523,0.0346959277,-4.2185462438,-8.7038922075,1189
122123,184204,232414,-0.062213387599999996,-4.2807596314,-8.805587167999999,1190
122209,184161,232493,-0.0251246373,-4.320241204299999,-8.7278204335,1191
122350,184208,232471,0.0370887503,-4.2017964856,-8.7864445872,1192
122452,184185,232498,-0.0059820565,-4.1060835816,-8.708677852700001,1193
122637,184274,232489,-0.022731814700000002,-4.2939201557,-8.819944103600001,1194
122608,184275,232553,-0.12083754129999999,-4.1096728155,-8.8031943454,1195
122745,184244,232538,-0.095712904,-4.2293139454999995,-8.7792661194,1196
122721,184233,232506,-0.0693918554,-4.163511324,-8.7840517646,1197
122390,184176,232497,-0.16271193679999998,-4.1012979364,-8.7828553533,1198
122137,184175,232459,0.0011964113,-4.1347974528,-8.819944103600001,1199
121824,184132,232462,-0.0071784678,-3.9972101532999997,-8.8630149104,1200
121561,184123,232426,-0.0334995164,-4.1850467274,-8.7625163612,1201
121235,184100,232403,-0.1842473402,-4.1563328562,-8.6703926911,1202
121148,184068,232355,-0.04307080679999999,-4.2388852359,-8.8366938618,1203
121108,184058,232397,-0.0753739119,-4.2604206393,-8.7553378934,1204
121108,184137,232372,-0.1531406464,-4.1778682596,-8.819944103600001,1205
121122,183995,232417,-0.1040877831,-4.1300118076,-8.7469630143,1206
121137,184102,232444,-0.0646062102,-4.030709669699999,-8.7625163612,1207
121168,184039,232442,-0.0873380249,-4.0773697104,-8.7014993849,1208
121193,184152,232455,-0.1651047594,-4.140779509300001,-8.829515394,1209
121259,184085,232409,-0.04307080679999999,-4.2687955184,-8.7888374098,1210
121349,184103,232448,-0.1112662509,-4.1192441059,-8.7038922075,1211
121468,184129,232458,-0.0765703232,-4.1168512833,-8.8127656358,1212
121566,184135,232424,-0.040677984199999996,-4.1826539048,-8.7242311996,1213
121677,184094,232426,-0.0765703232,-4.2556349941,-8.819944103600001,1214
121833,184164,232501,0.0370887503,-4.1958144290999995,-8.8307118053,1215
121891,184150,232455,-0.10289137179999999,-4.2305103568,-8.8247297488,1216
122025,184138,232506,-0.1148554848,-4.2364924133,-8.7852481759,1217
122139,184198,232439,-0.0167497582,-4.1730826144,-8.831908216599999,1218
122168,184166,232461,-0.1483550012,-4.1886359613,-8.748159425599999,1219
122341,184177,232491,-0.0466600407,-4.235296002,-8.7553378934,1220
122496,184214,232476,-0.1603191142,-4.2257247116,-8.8091764019,1221
122628,184082,232496,-0.0646062102,-4.1778682596,-8.7601235386,1222
122758,184233,232514,-0.041874395499999995,-4.1587256788,-8.85344362,1223
122761,184164,232504,-0.059820565,-4.1288153963,-8.7541414821,1224
122510,184148,232521,-0.0083748791,-4.2807596314,-8.7864445872,1225
122291,184168,232509,-0.071784678,-4.2017964856,-8.8008015228,1226
122047,184108,232492,-0.0083748791,-4.0905302347,-8.8438723296,1227
121796,184079,232400,-0.011964113,-4.1288153963,-8.6608214007,1228
121562,184060,232469,0.0346959277,-4.1288153963,-8.9228354754,1229
121408,184065,232364,-0.1148554848,-4.1611185014,-8.7792661194,1230
121355,184068,232427,-0.051445685899999996,-4.2735811636,-8.761319949899999,1231
121389,184107,232436,-0.0346959277,-4.1898323726,-8.694320917099999,1232
121399,184097,232437,-0.08135596839999999,-4.208974953399999,-8.8235333375,1233
121413,184031,232456,-0.1040877831,-4.1922251952,-8.7984087002,1234
121366,184040,232442,-0.041874395499999995,-4.1240297511,-8.6871424493,1235
121451,184033,232457,-0.0741775006,-4.1970108404,-8.708677852700001,1236
121493,184046,232437,-0.1531406464,-4.30708068,-8.7433737804,1237
121511,184071,232419,-0.06340979890000001,-4.1503507997,-8.7517486595,1238
121674,184060,232480,-0.0251246373,-4.151547211,-8.8043907567,1239
121784,184081,232472,0.0777667345,-4.064209186099999,-8.829515394,1240
121879,184105,232462,-0.0083748791,-4.2400816472,-8.6883388606,1241
122008,184116,232487,-0.0275174599,-4.140779509300001,-8.8618184991,1242
122119,184093,232464,0.0095712904,-4.2412780585,-8.7984087002,1243
122227,184121,232491,-0.047856452,-4.223331889,-8.8031943454,1244
122385,184127,232457,-0.0023928226,-4.2329031794,-8.9001036607,1245
122411,184116,232483,0.08853443620000001,-4.1730826144,-8.6763747476,1246
122603,184133,232464,0.0023928226,-4.2125641873,-8.7780697081,1247
122706,184152,232513,-0.059820565,-4.2484565263,-8.7326060787,1248
122738,184143,232545,-0.0921236701,-4.2664026958,-8.757730716,1249
122963,184182,232553,0.0,-4.2604206393,-8.6823568041,1250
123093,184177,232559,0.0538385085,-3.9972101532999997,-8.829515394,1251
123254,184224,232506,-0.071784678,-4.2628134618999995,-8.7038922075,1252
123369,184266,232544,-0.0538385085,-4.208974953399999,-8.7792661194,1253
123518,184126,232597,-0.16271193679999998,-4.1491543884,-8.7517486595,1254
123640,184221,232528,-0.023928226,-4.2209390664,-8.8438723296,1255
123566,184220,232527,-0.0777667345,-4.2101713647,-8.7661055951,1256
123434,184178,232520,0.0,-4.2281175342,-8.757730716,1257
123119,184151,232471,-0.2021935097,-4.2161534212,-8.8366938618,1258
122900,184146,232467,-0.0526420972,-4.211367776,-8.745766603,1259
122642,184109,232471,-0.0275174599,-4.237688824599999,-8.8486579748,1260
122417,184144,232446,0.0047856452,-4.1886359613,-8.694320917099999,1261
122229,184052,232465,-0.0669990328,-4.0654055974,-8.8426759183,1262
122192,184103,232460,-0.16271193679999998,-4.2628134618999995,-8.7589271273,1263
122170,184089,232513,-0.1004985492,-4.2819560427,-8.708677852700001,1264
122213,184119,232494,-0.08374879099999999,-4.2329031794,-8.793623055,1265
122215,184100,232493,-0.0681954441,-4.1659041466,-8.8031943454,1266
122290,184090,232477,-0.0729810893,-4.1671005579,-8.7984087002,1267
122325,184129,232440,-0.0933200814,-4.2664026958,-8.8486579748,1268
122398,184108,232500,-0.0849452023,-4.1216369285,-8.7792661194,1269
122510,184156,232515,0.0646062102,-4.1838503161,-8.8402830957,1270
122618,184136,232524,-0.0981057266,-4.2041893082,-8.7278204335,1271
122730,184033,232538,-0.015553346899999999,-4.1850467274,-8.7984087002,1272
122850,184128,232546,-0.0849452023,-4.2400816472,-8.7840517646,1273
122871,184130,232516,0.0586241537,-4.1934216065,-8.7421773691,1274
123098,184123,232530,-0.1806581063,-4.247260115,-8.7852481759,1275
123232,184170,232531,-0.0765703232,-4.1288153963,-8.7110706753,1276
123341,184188,232556,-0.1304088317,-4.2388852359,-8.7984087002,1277
123475,184099,232529,-0.0789631458,-4.1539400336,-8.720641965699999,1278
123604,184188,232516,-0.045463629400000004,-4.271188340999999,-8.7385881352,1279
123735,184167,232582,-0.1004985492,-4.1527436223,-8.7840517646,1280
123879,184198,232559,-0.0897308475,-4.1706897918,-8.8031943454,1281
124056,184217,232599,-0.047856452,-4.2329031794,-8.8247297488,1282
124164,184250,232582,-0.071784678,-4.127618985,-8.764909183799999,1283
124290,184136,232619,-0.08614161359999999,-4.1168512833,-8.8905323703,1284
124420,184234,232575,-0.1411765334,-4.2807596314,-8.6608214007,1285
124572,184281,232586,-0.0765703232,-4.2448672924,-8.8343010392,1286
124647,184264,232594,0.0131605243,-4.283152454,-8.7158563205,1287
124836,184260,232556,-0.08853443620000001,-4.3381873738,-8.7433737804,1288
124966,184318,232657,-0.020338992099999998,-4.2137605985999995,-8.8019979341,1289
124772,184242,232603,-0.1280160091,-4.3214376156,-8.685946038,1290
124637,184254,232577,-0.08135596839999999,-4.1192441059,-8.6345003521,1291
124443,184233,232551,0.0741775006,-4.2891345105,-8.7601235386,1292
124177,184189,232569,-0.0538385085,-4.1958144290999995,-8.7972122889,1293
123943,184191,232560,-0.0334995164,-4.1192441059,-8.829515394,1294
123731,184140,232512,-0.08135596839999999,-4.1479579771,-8.7888374098,1295
123587,184155,232525,0.0538385085,-4.2616170506,-8.7840517646,1296
123438,184153,232537,-0.1052841944,-4.2305103568,-8.764909183799999,1297
123502,184188,232541,-0.10169496049999999,-4.127618985,-8.8546400313,1298
123490,184091,232500,-0.0083748791,-4.2855452766,-8.7792661194,1299
123573,184160,232513,0.0071784678,-4.235296002,-8.7864445872,1300
123453,184184,232581,-0.1100698396,-4.2017964856,-8.7792661194,1301
123576,184177,232547,-0.17228322719999997,-4.1048871703,-8.7409809578,1302
123618,184184,232547,-0.020338992099999998,-4.126422573699999,-8.7661055951,1303
123705,184183,232554,-0.06340979890000001,-4.1802610821999995,-8.6895352719,1304
123747,184174,232587,-0.1004985492,-4.1479579771,-8.774480474199999,1305
123908,184187,232575,-0.047856452,-4.1144584607,-8.7888374098,1306
124011,184186,232554,-0.131605243,-4.1228333398,-8.7888374098,1307
124107,184222,232567,-0.0610169763,-4.1431723319,-8.805587167999999,1308
124221,184200,232533,-0.08614161359999999,-4.18743955,-8.7409809578,1309
124296,184199,232569,-0.1040877831,-4.1898323726,-8.7122670866,1310
124410,184224,232551,-0.0095712904,-4.258027816699999,-8.7409809578,1311
124525,184231,232661,-0.107677017,-4.2269211229,-8.8091764019,1312
124612,184238,232579,-0.1292124204,-4.2664026958,-8.7254276109,1313
124692,184248,232584,-0.143569356,-4.2640098732,-8.8247297488,1314
124712,184204,232612,-0.041874395499999995,-4.1371902754,-8.8079799906,1315
124575,184226,232566,-0.0526420972,-4.2065821308,-8.7469630143,1316
124258,184192,232567,-0.044267218100000005,-4.247260115,-8.7230347883,1317
123926,184153,232545,-0.0646062102,-4.2855452766,-8.7984087002,1318
123690,184198,232494,-0.0299102825,-4.0833517669,-8.757730716,1319
123412,184111,232531,0.023928226,-4.2699919297,-8.8079799906,1320
123181,184127,232485,-0.0765703232,-4.3010986235,-8.8031943454,1321
123111,184104,232489,-0.1543370577,-4.208974953399999,-8.7469630143,1322
122975,184123,232499,-0.0275174599,-4.271188340999999,-8.8103728132,1323
123031,184093,232537,-0.107677017,-4.199403663,-8.9288175319,1324
123058,184115,232500,0.0382851616,-4.1144584607,-8.8091764019,1325
123053,184139,232497,-0.0789631458,-4.242474469799999,-8.7852481759,1326
123071,184037,232456,-0.056231331100000004,-4.2209390664,-8.7254276109,1327
123088,184140,232515,-0.0658026215,-4.146761565799999,-8.6991065623,1328
123179,184117,232480,-0.1292124204,-4.2065821308,-8.761319949899999,1329
123274,184128,232543,-0.0526420972,-4.1336010414999995,-8.7984087002,1330
123256,184129,232509,-0.0538385085,-4.18743955,-8.7421773691,1331
123410,184206,232490,-0.08614161359999999,-4.0570307183,-8.6823568041,1332
123499,184050,232512,-0.0179461695,-4.2257247116,-8.819944103600001,1333
123558,184175,232493,-0.08614161359999999,-4.1431723319,-8.739784546500001,1334
123643,184161,232478,-0.095712904,-4.2879380992,-8.8307118053,1335
123762,184183,232457,-0.0287138712,-4.2041893082,-8.7984087002,1336
123847,184147,232479,-0.12323036389999999,-4.2017964856,-8.806783579300001,1337
123956,184169,232519,-0.051445685899999996,-4.3573299546,-8.805587167999999,1338
124053,184154,232559,-0.1866401628,-4.0103706776,-8.7601235386,1339
124136,184201,232531,-0.071784678,-4.2520457602,-8.7601235386,1340
124252,184163,232504,-0.08374879099999999,-4.1192441059,-8.8869431364,1341
124313,184169,232500,-0.10169496049999999,-4.2269211229,-8.8749790234,1342
124433,184070,232470,-0.1531406464,-4.1120656381,-8.752945070800001,1343
124585,184190,232522,-0.11246266220000001,-4.1814574935,-8.748159425599999,1344
124514,184166,232534,-0.0945164927,-4.1718862031,-8.7409809578,1345
124688,184186,232502,-0.1746760498,-4.139583098,-8.7864445872,1346
124807,184099,232573,0.0131605243,-4.055834307,-8.709874264,1347
124912,184234,232493,-0.11844471869999999,-4.2664026958,-8.8008015228,1348
124959,184184,232528,0.022731814700000002,-4.2759739861999995,-8.7924266437,1349
124910,184168,232452,-0.1890329854,-4.1611185014,-8.7278204335,1350
124706,184163,232513,-0.0131605243,-4.2305103568,-8.7661055951,1351
124424,184129,232482,-0.08374879099999999,-4.2771703975,-8.7517486595,1352
124129,184134,232502,-0.041874395499999995,-4.0761732991,-8.7792661194,1353
123830,184113,232459,-0.17228322719999997,-4.0953158799,-8.7361953126,1354
123567,184107,232429,-0.11246266220000001,-4.247260115,-8.7158563205,1355
123392,184072,232456,-0.011964113,-4.3417766077,-8.805587167999999,1356
123334,184107,232400,-0.010767701699999998,-4.2448672924,-8.7960158776,1357
123157,184099,232433,-0.2297109696,-4.247260115,-8.6991065623,1358
123198,184084,232479,0.0275174599,-4.1359938641000005,-8.769694829,1359
123152,184057,232469,-0.051445685899999996,-4.2759739861999995,-8.7565343047,1360
123154,184056,232461,-0.0777667345,-4.2017964856,-8.7469630143,1361
123161,184084,232458,-0.10289137179999999,-4.1814574935,-8.7278204335,1362
123094,184056,232403,0.011964113,-4.1850467274,-8.757730716,1363
123183,184053,232441,0.0394815729,-4.2400816472,-8.805587167999999,1364
123202,184059,232448,0.041874395499999995,-4.1503507997,-8.8426759183,1365
123268,184075,232450,-0.1339980656,-4.2185462438,-8.7888374098,1366
123310,184065,232444,-0.1363908882,-4.1838503161,-8.748159425599999,1367
123379,184108,232476,-0.1100698396,-4.1001015251,-8.8977108381,1368
123416,184113,232394,-0.0693918554,-4.1934216065,-8.749355836900001,1369
123569,184116,232450,-0.1328016543,-4.199403663,-8.819944103600001,1370
123489,184139,232459,-0.071784678,-4.2125641873,-8.745766603,1371
123645,184086,232461,-0.0394815729,-4.2173498325,-8.757730716,1372
123743,184104,232427,-0.045463629400000004,-4.247260115,-8.7050886188,1373
123811,184126,232422,-0.09092725880000001,-4.18743955,-8.6871424493,1374
123906,184131,232499,-0.0143569356,-4.1970108404,-8.831908216599999,1375
123956,184102,232469,-0.14476576730000001,-4.1838503161,-8.819944103600001,1376
123802,184095,232469,-0.25363919560000003,-4.211367776,-8.8378902731,1377
123511,184090,232470,-0.0669990328,-4.2400816472,-8.846265152199999,1378
123198,184121,232343,-0.0287138712,-4.259224228,-8.7050886188,1379
122850,184034,232387,0.0502492746,-4.2257247116,-8.7421773691,1380
122547,184051,232323,-0.1507478238,-4.2675991071,-8.7625163612,1381
122274,183986,232370,-0.11246266220000001,-4.1922251952,-8.7864445872,1382
122093,183978,232345,-0.04307080679999999,-4.1371902754,-8.7230347883,1383
122007,184006,232375,-0.2117648001,-4.1359938641000005,-8.764909183799999,1384
122020,184024,232397,-0.0933200814,-4.1982072517,-8.805587167999999,1385
122003,184044,232340,0.0,-4.2687955184,-8.7409809578,1386
121977,183941,232406,-0.0610169763,-4.2257247116,-8.7517486595,1387
122051,184080,232403,-0.0933200814,-4.163511324,-8.7385881352,1388
121954,184052,232379,-0.047856452,-4.1312082188999995,-8.7278204335,1389
122111,184003,232372,-0.107677017,-4.2735811636,-8.761319949899999,1390
122128,184020,232402,-0.0263210486,-4.2101713647,-8.7888374098,1391
122194,184034,232381,-0.11246266220000001,-4.0785661217,-8.8474615635,1392
122224,184046,232384,-0.09690931529999999,-4.2879380992,-8.8031943454,1393
122309,184020,232397,0.0011964113,-4.2675991071,-8.7254276109,1394
122385,184061,232398,0.0035892339,-4.1503507997,-8.6727855137,1395
122469,183988,232416,-0.1052841944,-4.1742790257,-8.7720876516,1396
122569,184080,232441,-0.0741775006,-4.2520457602,-8.7960158776,1397
122639,184070,232406,-0.2009970984,-4.1886359613,-8.7960158776,1398
122736,183998,232387,-0.0789631458,-4.1611185014,-8.8366938618,1399
122848,184072,232428,-0.021535403399999997,-4.0570307183,-8.6919280945,1400
122960,184076,232376,-0.155533469,-4.295116567,-8.85344362,1401
123061,184063,232433,0.010767701699999998,-4.2568314054,-8.817551281,1402
123182,184076,232391,-0.062213387599999996,-4.1288153963,-8.6991065623,1403
123301,184095,232460,-0.0179461695,-4.2245283003,-8.7996051115,1404
123414,184085,232461,-0.2572284295,-4.1587256788,-8.7158563205,1405
123503,184092,232454,-0.1423729447,-4.211367776,-8.6823568041,1406
123592,184094,232427,0.0035892339,-4.1671005579,-8.8582292652,1407
123629,184116,232398,-0.0873380249,-4.1371902754,-8.7864445872,1408
123592,184079,232447,-0.0981057266,-4.2101713647,-8.739784546500001,1409
123324,184016,232419,0.021535403399999997,-4.2269211229,-8.721838377,1410
122939,184009,232375,-0.11246266220000001,-4.1383866867,-8.8701933782,1411
122572,183998,232378,-0.0825523797,-4.2819560427,-8.8366938618,1412
122131,183979,232360,-0.0765703232,-4.1910287839,-8.7194455544,1413
121814,183967,232355,-0.131605243,-4.2460637037,-8.7110706753,1414
121506,183952,232324,0.0346959277,-4.1288153963,-8.774480474199999,1415
121364,183954,232377,-0.1507478238,-4.2867416879,-8.7385881352,1416
121382,183993,232385,-0.045463629400000004,-4.223331889,-8.7900338211,1417
121423,183989,232412,-0.1339980656,-4.0713876539,-8.7768732968,1418
121499,184061,232421,-0.1148554848,-4.199403663,-8.7361953126,1419
121561,183993,232353,-0.0287138712,-4.2041893082,-8.764909183799999,1420
121611,184056,232406,-0.1292124204,-4.1946180178,-8.7541414821,1421
121681,183980,232388,-0.0849452023,-4.1324046302,-8.8127656358,1422
121784,184030,232352,-0.12323036389999999,-4.3118663252,-8.8821574912,1423
121829,184013,232420,-0.0610169763,-4.2687955184,-8.6847496267,1424
121954,184071,232416,-0.0011964113,-4.1850467274,-8.7014993849,1425
121975,184044,232405,-0.035892339,-4.2185462438,-8.7469630143,1426
122144,184111,232427,-0.0981057266,-4.2532421715,-8.8953180155,1427
122239,184060,232406,-0.0586241537,-4.1455651545,-8.8749790234,1428
122326,184044,232434,-0.0023928226,-4.1778682596,-8.7864445872,1429
122417,184063,232437,-0.1842473402,-4.0402809601,-8.8008015228,1430
122508,184039,232503,-0.08135596839999999,-4.1120656381,-8.833104627900001,1431
122568,184029,232425,-0.0658026215,-4.199403663,-8.8390866844,1432
122732,184065,232486,-0.1220339526,-4.2843488653,-8.8366938618,1433
122781,184044,232474,-0.17228322719999997,-4.2448672924,-8.9192462415,1434
122675,184081,232431,-0.1148554848,-4.319044793,-8.7122670866,1435
122328,183956,232421,0.0143569356,-4.1826539048,-8.7146599092,1436
121965,183937,232353,-0.1363908882,-4.2687955184,-8.8271225714,1437
121608,183949,232382,-0.11964113,-4.208974953399999,-8.720641965699999,1438
121289,183944,232330,-0.1698904046,-4.1671005579,-8.626125473,1439
120933,183920,232356,-0.1734796385,-4.2496529376,-8.8558364426,1440
120811,183951,232377,-0.11844471869999999,-4.1096728155,-8.7601235386,1441
120695,183964,232390,-0.11964113,-4.258027816699999,-8.7505522482,1442
120839,183872,232393,-0.1363908882,-4.2137605985999995,-8.7541414821,1443
120844,183953,232396,-0.1172483074,-4.2939201557,-8.6656070459,1444
120789,183932,232386,-0.143569356,-4.151547211,-8.7792661194,1445
120946,183948,232367,-0.0550349198,-4.1898323726,-8.721838377,1446
121018,183951,232446,-0.131605243,-4.1563328562,-8.7984087002,1447
121106,183959,232424,-0.021535403399999997,-4.1718862031,-8.8402830957,1448
121207,183970,232394,-0.0167497582,-4.1252261624,-8.8103728132,1449
121328,183958,232432,0.041874395499999995,-4.2329031794,-8.7792661194,1450
121448,183965,232397,-0.1591227029,-4.331008906,-8.764909183799999,1451
121570,183989,232397,-0.1866401628,-4.3082770913,-8.7864445872,1452
121729,184019,232420,-0.1052841944,-4.2927237444,-8.7768732968,1453
121833,183999,232450,-0.1387837108,-4.1850467274,-8.7637127725,1454
122005,184026,232458,-0.215354034,-4.2065821308,-8.7409809578,1455
122089,183888,232468,-0.1004985492,-4.2077785421,-8.7302132561,1456
122263,184047,232421,-0.11964113,-4.247260115,-8.769694829,1457
122396,184014,232479,-0.071784678,-4.2496529376,-8.7661055951,1458
122506,183982,232477,-0.0059820565,-4.2807596314,-8.748159425599999,1459
122637,184036,232462,-0.1639083481,-4.211367776,-8.8151584584,1460
122734,184020,232448,-0.09930213789999999,-4.1216369285,-8.7864445872,1461
122892,184049,232455,-0.0143569356,-4.2532421715,-8.7326060787,1462
123005,184088,232474,-0.24287149389999999,-4.3453658416,-8.7996051115,1463
123076,184064,232519,-0.035892339,-4.1898323726,-8.817551281,1464
123257,184036,232459,-0.056231331100000004,-4.2460637037,-8.745766603,1465
123378,184045,232470,-0.12681959780000002,-4.1168512833,-8.745766603,1466
123505,184091,232495,-0.1220339526,-4.1503507997,-8.653642932899999,1467
123603,184057,232477,-0.21296121140000002,-4.2759739861999995,-8.721838377,1468
123671,184052,232502,0.0035892339,-4.2819560427,-8.7278204335,1469
123831,184110,232469,-0.1974078645,-4.2520457602,-8.7840517646,1470
123857,184106,232463,-0.12083754129999999,-4.1455651545,-8.8366938618,1471
123666,184064,232501,-0.25363919560000003,-4.126422573699999,-8.720641965699999,1472
123325,184072,232430,-0.0574277424,-4.2544385828,-8.6775711589,1473
123005,183916,232468,-0.1411765334,-4.3058842687,-8.819944103600001,1474
122608,184001,232450,-0.0035892339,-4.1491543884,-8.7326060787,1475
122358,184031,232433,-0.0741775006,-4.1922251952,-8.7804625307,1476
122137,183947,232383,-0.1603191142,-4.2400816472,-8.7876409985,1477
122044,183958,232487,-0.0789631458,-4.2640098732,-8.7960158776,1478
122044,183855,232386,-0.0550349198,-4.1826539048,-8.817551281,1479
122067,183978,232473,-0.045463629400000004,-4.0965122912,-8.7708912403,1480
122078,183963,232455,-0.1256231865,-4.2269211229,-8.8008015228,1481
122088,183916,232474,0.0071784678,-4.1623149127,-8.7014993849,1482
122108,184010,232438,-0.071784678,-4.1922251952,-8.8438723296,1483
122170,183956,232449,0.0179461695,-4.0606199522,-8.7469630143,1484
122255,183946,232451,-0.08135596839999999,-4.2281175342,-8.757730716,1485
122320,183976,232437,-0.0873380249,-4.2041893082,-8.8618184991,1486
122442,184033,232387,-0.1004985492,-4.2065821308,-8.8343010392,1487
122506,183985,232457,-0.0777667345,-4.2999022122,-8.8008015228,1488
122636,183994,232422,-0.0526420972,-4.140779509300001,-8.6847496267,1489
122741,183987,232486,-0.1220339526,-4.1024943476999995,-8.7625163612,1490
122796,183988,232445,-0.0370887503,-4.2735811636,-8.7792661194,1491
122953,184036,232465,-0.022731814700000002,-4.1802610821999995,-8.7888374098,1492
123057,184018,232470,-0.08853443620000001,-4.2496529376,-8.769694829,1493
123201,184019,232492,-0.16869399329999998,-4.1443687432,-8.7242311996,1494
123306,184004,232457,-0.0466600407,-4.1838503161,-8.7792661194,1495
123431,184075,232496,-0.1220339526,-4.247260115,-8.8678005556,1496
123507,184049,232511,0.0179461695,-4.1922251952,-8.8008015228,1497
123454,184022,232510,-0.1304088317,-4.0857445895,-8.7409809578,1498
123087,183987,232421,-0.0131605243,-4.1240297511,-8.805587167999999,1499
122861,184010,232442,-0.0095712904,-4.2400816472,-8.846265152199999,1500
122563,183958,232395,-0.12681959780000002,-4.1659041466,-8.8438723296,1501
122321,183933,232407,-0.044267218100000005,-4.2867416879,-8.833104627900001,1502
122109,183903,232405,-0.0059820565,-4.259224228,-8.748159425599999,1503
121865,183934,232396,-0.031106693799999998,-4.1192441059,-8.7768732968,1504
121922,183922,232413,-0.020338992099999998,-4.199403663,-8.7996051115,1505
122000,183921,232405,-0.13758729949999998,-4.1587256788,-8.8127656358,1506
122059,183922,232427,-0.062213387599999996,-4.2664026958,-8.7804625307,1507
122106,183925,232455,-0.1974078645,-4.1898323726,-8.7314096674,1508
122178,183974,232439,-0.0777667345,-4.2568314054,-8.745766603,1509
122238,183878,232429,-0.18185451760000002,-4.2544385828,-8.7278204335,1510
122334,183985,232435,-0.0490528633,-4.1455651545,-8.8019979341,1511
122335,183948,232450,-0.13758729949999998,-4.2101713647,-8.7984087002,1512
122593,183958,232461,-0.107677017,-4.2448672924,-8.8103728132,1513
122694,183964,232438,-0.095712904,-4.2281175342,-8.819944103600001,1514
122851,183946,232480,-0.0287138712,-4.2305103568,-8.781658942,1515
122902,184001,232481,-0.071784678,-4.2496529376,-8.7888374098,1516
123076,184056,232438,0.0059820565,-4.055834307,-8.774480474199999,1517
123207,183981,232447,-0.1351944769,-4.1419759206,-8.697910151,1518
