green,red,IR,acc_x,acc_y,acc_z,sample_index
112405,210686,265288,4.8346980633,-8.3688970435,1.9238293703999998,1
112576,210693,265259,4.7533420949,-8.3449688175,2.0386848552,2
112792,210722,265309,4.9136612091,-8.1367932513,1.9896319919,3
113019,210774,265364,4.9962135888,-8.3318082932,2.0051853388,4
113110,210775,265344,4.9722853628,-8.0793655089,2.0805592507,5
112577,210599,265288,4.857429878,-8.207381518,1.9764714676,6
111472,210493,265170,4.8191447164,-8.1846497033,2.0662023151,7
110525,210343,265037,4.9196432655999995,-8.236095389199999,2.0231315083,8
110088,210307,264981,4.8634119345,-8.25523797,2.0961125976,9
109948,210263,264964,4.9818566531999995,-8.2025958728,2.0757736055,10
109869,210265,264961,4.8717868136,-8.2037922841,2.0901305410999997,11
109971,210234,264991,4.8909293944,-8.2169528084,2.0195422744,12
110045,210280,264991,4.8203411277,-8.3940216808,2.0015961049,13
110243,210281,265002,4.8765724588,-8.1786676468,2.0386848552,14
110372,210311,265027,4.8239303616,-8.350950873999999,2.0243279196,15
110427,210287,264997,5.0093741131,-8.3497544627,1.9716858223999998,16
110516,210332,265071,5.0751767346,-8.2504523248,2.0949161863,17
110626,210272,265040,4.9663033062999995,-8.25523797,1.9154544913,18
110859,210395,265047,5.1050870171,-8.231309744,2.0051853388,19
110982,210409,265112,4.9328037898999995,-8.3114693011,1.9573288867999998,20
111247,210450,265054,4.8957150396,-8.2348989779,1.9334006607999998,21
111458,210443,265134,4.7868416113,-8.2169528084,2.0147566292,22
111615,210506,265156,4.7724846757,-8.2600236152,2.0518453795,23
111769,210527,265151,4.8287160068,-8.2205420423,2.0805592507,24
111921,210585,265162,4.9710889515,-8.1942209937,1.9094724347999998,25
112027,210599,265219,4.9196432655999995,-8.2037922841,2.0291135648000003,26
112301,210653,265180,4.8191447164,-8.1212399044,2.0757736055,27
112570,210642,265255,4.9340002012,-8.2995051881,2.0327027987,28
112585,210671,265198,5.036891573,-8.236095389199999,2.0386848552,29
111797,210581,265129,5.0620162103,-8.226524098799999,2.0231315083,30
110783,210357,265048,5.0333023391000005,-8.2600236152,2.0003996936,31
109807,210234,264952,4.990231532299999,-8.1750784129,1.9908284031999999,32
109422,210153,264931,4.857429878,-8.2875410751,2.0183458631,33
109171,210116,264927,4.9674997176,-8.0422767586,2.105683888,34
109156,210134,264858,4.961517661099999,-8.1511501869,1.9334006607999998,35
109324,210151,264938,4.8753760475,-8.3653078096,2.0051853388,36
109479,210140,264950,4.9722853628,-8.2923267203,2.081755662,37
109620,210161,264933,4.7868416113,-8.3018980107,2.0243279196,38
109755,210184,264915,4.9854458871,-8.2600236152,2.057827436,39
109782,210254,264991,4.9328037898999995,-8.2217384536,2.0482561456,40
109973,210243,264979,4.953142782,-8.2983087768,2.0147566292,41
110054,210274,265052,4.9567320159,-8.155935832099999,1.9477575963999998,42
110260,210284,265103,5.0512485086,-8.1511501869,2.0434705004000002,43
110448,210326,265090,4.9328037898999995,-8.279166196,2.1104695332,44
110594,210315,265078,4.8239303616,-8.3413795836,2.0327027987,45
110846,210403,265163,4.9244289108,-8.169096356399999,1.9776678789,46
111118,210423,265175,4.8275195955,-8.3365939384,1.9429719511999999,47
111262,210489,265151,4.782055966100001,-8.1272219609,2.1092731219,48
111457,210502,265204,4.9328037898999995,-8.3318082932,2.0386848552,49
111725,210540,265199,4.8059841921,-8.1403824852,2.1667008643,50
111798,210561,265213,4.6827538282,-8.236095389199999,2.1284157027,51
112020,210629,265221,4.9471607255,-8.4119678503,2.0566310246999997,52
112101,210634,265272,4.8969114509,-8.099704501,2.0721843716,53
111770,210544,265237,4.7760739096,-8.1547394208,2.0805592507,54
110720,210406,265103,4.7760739096,-8.303094422,2.0051853388,55
109700,210206,265002,4.929214556,-8.3318082932,1.9908284031999999,56
109113,210129,264980,5.0955157266999995,-8.1930245824,2.03389921,57
108991,210123,264963,4.7916272565,-8.171489179,2.0386848552,58
108935,210122,264986,4.8299124181,-8.2648092604,2.009970984,59
109119,210127,264987,4.6528435457,-8.1655071225,1.9860427579999997,60
109248,210153,264992,4.9196432655999995,-8.2169528084,2.0327027987,61
109423,210157,265024,4.8765724588,-8.1523465982,2.1008982428,62
109434,210159,265015,4.8287160068,-8.25523797,2.0961125976,63
109640,210179,265043,4.809573426,-8.2648092604,2.081755662,64
109643,210177,265056,4.7760739096,-8.2456666796,2.0853448959,65
109755,210186,265050,4.8000021356,-8.2468630909,1.9345970721,66
109977,210230,265094,4.8945186283,-8.2743805508,2.0530417908,67
110132,210252,265147,5.0811587911,-8.155935832099999,2.0614166699,68
110403,210319,265171,4.9758745967,-8.1655071225,2.0757736055,69
110563,210336,265167,4.9340002012,-8.170292767700001,1.9812571127999998,70
110747,210339,265207,4.9148576204,-8.116454259200001,2.081755662,71
110818,210379,265198,5.152943469099999,-8.2169528084,2.0530417908,72
111015,210410,265258,4.8681975797,-8.2217384536,1.9250257817,73
111139,210447,265240,4.857429878,-8.279166196,2.0195422744,74
111284,210447,265241,4.6325045536000005,-8.2169528084,1.9860427579999997,75
111501,210515,265293,4.9579284272,-8.279166196,1.9250257817,76
111461,210516,265209,4.9962135888,-8.183453292,2.129612114,77
110872,210378,265140,4.7940200791,-8.2600236152,2.0147566292,78
109650,210207,265076,4.8670011684,-8.236095389199999,2.0327027987,79
108780,210052,264954,4.7904308452,-8.3832539791,2.0626130812,80
108445,209979,264940,4.7916272565,-8.25523797,2.0673987264,81
108243,209955,264902,4.8622155232,-8.240881034400001,2.0147566292,82
108237,209940,264931,4.8299124181,-8.2731841395,1.9334006607999998,83
108403,209935,264978,4.9495535481,-8.155935832099999,2.0530417908,84
108641,210002,265014,4.734199514099999,-8.240881034400001,2.0051853388,85
108739,209977,264974,4.9399822577,-8.350950873999999,1.962114532,86
108911,210008,264932,4.7940200791,-8.2743805508,2.081755662,87
108873,210013,265047,5.0811587911,-8.2025958728,1.9190437251999999,88
109073,210038,265061,4.961517661099999,-8.1882389372,1.9800607015,89
109193,210012,265055,4.7916272565,-8.170292767700001,1.9860427579999997,90
109370,210090,265099,4.9674997176,-8.1846497033,1.9298114269,91
109544,210082,265062,4.8514478215,-8.3318082932,2.0482561456,92
109813,210114,265103,4.9866422984,-8.280362607299999,1.9585252981,93
109970,210168,265133,4.9160540317,-8.1798640581,1.9992032822999999,94
110162,210200,265108,4.8681975797,-8.3222370028,1.9525432416,95
110417,210244,265139,4.9340002012,-8.3497544627,2.03389921,96
110576,210259,265175,4.8203411277,-8.231309744,2.0614166699,97
110804,210315,265162,4.9471607255,-8.2827554299,1.9561324755,98
110978,210365,265220,4.9280181447,-8.2516487361,2.0243279196,99
110939,210282,265193,4.9435714916,-8.2169528084,2.0470597343,100
109922,210175,265067,4.9519463707,-8.240881034400001,1.9812571127999998,101
108818,209996,264960,4.9148576204,-8.1846497033,2.0195422744,102
108137,209844,264913,4.9148576204,-8.294719542900001,2.1475582835,103
107952,209823,264934,5.0668018555,-8.1176506705,1.9812571127999998,104
107719,209787,264911,4.8622155232,-8.1547394208,2.0374884439,105
107753,209807,264918,4.8670011684,-8.226524098799999,1.9094724347999998,106
107938,209784,264886,4.9340002012,-8.3078800672,1.9573288867999998,107
108260,209826,264925,4.8526442328,-8.155935832099999,2.0195422744,108
108466,209843,264944,4.9148576204,-8.2037922841,1.9956140484,109
108445,209757,264962,4.9100719752,-8.2217384536,2.0518453795,110
108557,209917,264916,5.0141597583,-8.3688970435,2.0470597343,111
108717,209871,265003,4.9674997176,-8.3401831723,1.9956140484,112
108922,209960,264983,4.8909293944,-8.159525066,2.0721843716,113
109091,209926,265000,4.8909293944,-8.2743805508,1.8951154991999999,114
109300,209977,265031,5.0536413312,-8.0901332106,1.9908284031999999,115
109535,209996,265076,4.9232324995,-8.3413795836,1.9848463467,116
109784,210057,265112,4.90528633,-8.3318082932,1.938186306,117
109982,210131,265130,4.9998028226999995,-8.3653078096,1.9106688461,118
110130,210171,265152,4.8000021356,-8.1930245824,2.0386848552,119
110482,210209,265186,4.9854458871,-8.183453292,2.0386848552,120
110677,210228,265177,4.8777688701,-8.2839518412,1.9477575963999998,121
110878,210284,265216,4.990231532299999,-8.236095389199999,2.0051853388,122
110850,210273,265165,4.990231532299999,-8.236095389199999,2.0051853388,123
110125,210109,265111,4.990231532299999,-8.236095389199999,2.0051853388,124
109006,209953,265032,4.990231532299999,-8.236095389199999,2.0051853388,125
108343,209845,264913,4.990231532299999,-8.236095389199999,2.0051853388,126
108110,209788,264899,4.990231532299999,-8.236095389199999,2.0051853388,127
108059,209797,264928,4.990231532299999,-8.236095389199999,2.0051853388,128
108120,209830,264905,4.990231532299999,-8.236095389199999,2.0051853388,129
108333,209861,264971,4.990231532299999,-8.236095389199999,2.0051853388,130
108570,209889,264944,4.990231532299999,-8.236095389199999,2.0051853388,131
108742,209888,264987,4.990231532299999,-8.236095389199999,2.0051853388,132
108892,209924,264991,4.990231532299999,-8.236095389199999,2.0051853388,133
109058,209961,264995,4.990231532299999,-8.236095389199999,2.0051853388,134
109223,209993,265009,4.990231532299999,-8.236095389199999,2.0051853388,135
109340,209991,264991,4.990231532299999,-8.236095389199999,2.0051853388,136
109593,210008,265059,4.990231532299999,-8.236095389199999,2.0051853388,137
109840,210109,265103,4.990231532299999,-8.236095389199999,2.0051853388,138
110081,210119,265073,4.990231532299999,-8.236095389199999,2.0051853388,139
110319,210168,265140,4.990231532299999,-8.236095389199999,2.0051853388,140
110543,210199,265169,4.990231532299999,-8.236095389199999,2.0051853388,141
110771,210233,265173,4.990231532299999,-8.236095389199999,2.0051853388,142
111002,210264,265235,4.990231532299999,-8.236095389199999,2.0051853388,143
111258,210308,265181,4.990231532299999,-8.236095389199999,2.0051853388,144
111494,210364,265239,4.990231532299999,-8.236095389199999,2.0051853388,145
111553,210421,265230,4.990231532299999,-8.236095389199999,2.0051853388,146
111186,210321,265205,4.990231532299999,-8.236095389199999,2.0051853388,147
110093,210178,265073,4.990231532299999,-8.236095389199999,2.0051853388,148
109278,210051,265028,4.990231532299999,-8.236095389199999,2.0051853388,149
108960,209979,264982,4.990231532299999,-8.236095389199999,2.0051853388,150
108903,209980,265010,4.990231532299999,-8.236095389199999,2.0051853388,151
108985,209990,264950,4.990231532299999,-8.236095389199999,2.0051853388,152
109217,210043,264959,4.990231532299999,-8.236095389199999,2.0051853388,153
109438,210060,265025,4.990231532299999,-8.236095389199999,2.0051853388,154
109536,210062,265027,4.990231532299999,-8.236095389199999,2.0051853388,155
109679,210094,265032,4.990231532299999,-8.236095389199999,2.0051853388,156
109785,210097,265032,4.990231532299999,-8.236095389199999,2.0051853388,157
109914,210137,265070,4.990231532299999,-8.236095389199999,2.0051853388,158
110095,210173,265060,4.990231532299999,-8.236095389199999,2.0051853388,159
110303,210192,265108,4.990231532299999,-8.236095389199999,2.0051853388,160
110493,210200,265125,4.990231532299999,-8.236095389199999,2.0051853388,161
110731,210267,265154,4.990231532299999,-8.236095389199999,2.0051853388,162
110952,210284,265103,4.990231532299999,-8.236095389199999,2.0051853388,163
109719,210166,265048,4.7617169740000005,-8.2588272039,2.0530417908,164
109852,210149,265076,4.7617169740000005,-8.2588272039,2.0530417908,165
110027,210142,265065,4.7617169740000005,-8.2588272039,2.0530417908,166
110129,210187,265076,4.7617169740000005,-8.2588272039,2.0530417908,167
110317,210207,265109,4.7617169740000005,-8.2588272039,2.0530417908,168
110515,210250,265102,4.7617169740000005,-8.2588272039,2.0530417908,169
110671,210294,265128,4.7617169740000005,-8.2588272039,2.0530417908,170
110955,210335,265149,4.7617169740000005,-8.2588272039,2.0530417908,171
111193,210382,265229,4.7617169740000005,-8.2588272039,2.0530417908,172
111382,210439,265234,4.7617169740000005,-8.2588272039,2.0530417908,173
111631,210407,265247,4.7617169740000005,-8.2588272039,2.0530417908,174
111799,210531,265254,4.7617169740000005,-8.2588272039,2.0530417908,175
111988,210531,265251,4.7617169740000005,-8.2588272039,2.0530417908,176
112203,210592,265297,4.7617169740000005,-8.2588272039,2.0530417908,177
112417,210640,265318,4.7617169740000005,-8.2588272039,2.0530417908,178
112403,210644,265342,4.7617169740000005,-8.2588272039,2.0530417908,179
111614,210477,265198,4.7617169740000005,-8.2588272039,2.0530417908,180
110451,210318,265118,4.7617169740000005,-8.2588272039,2.0530417908,181
109738,210214,264987,4.7617169740000005,-8.2588272039,2.0530417908,182
109478,210171,265032,4.7617169740000005,-8.2588272039,2.0530417908,183
109425,210181,265047,4.7617169740000005,-8.2588272039,2.0530417908,184
109523,210197,265043,4.7617169740000005,-8.2588272039,2.0530417908,185
109715,210241,265072,4.7617169740000005,-8.2588272039,2.0530417908,186
109977,210254,265057,4.7617169740000005,-8.2588272039,2.0530417908,187
110277,210316,265163,4.7617169740000005,-8.2588272039,2.0530417908,188
110345,210314,265179,4.7617169740000005,-8.2588272039,2.0530417908,189
110483,210378,265136,4.7617169740000005,-8.2588272039,2.0530417908,190
110629,210376,265183,4.7617169740000005,-8.2588272039,2.0530417908,191
110782,210430,265201,4.7617169740000005,-8.2588272039,2.0530417908,192
110957,210426,265240,4.7617169740000005,-8.2588272039,2.0530417908,193
111203,210508,265306,4.7617169740000005,-8.2588272039,2.0530417908,194
111424,210499,265266,4.7617169740000005,-8.2588272039,2.0530417908,195
111647,210527,265281,4.7617169740000005,-8.2588272039,2.0530417908,196
111834,210608,265322,4.7617169740000005,-8.2588272039,2.0530417908,197
112103,210622,265376,4.7617169740000005,-8.2588272039,2.0530417908,198
112329,210659,265384,4.7617169740000005,-8.2588272039,2.0530417908,199
112518,210701,265341,4.7617169740000005,-8.2588272039,2.0530417908,200
112748,210748,265407,4.7617169740000005,-8.2588272039,2.0530417908,201
112969,210770,265406,4.7617169740000005,-8.2588272039,2.0530417908,202
113088,210826,265396,4.7617169740000005,-8.2588272039,2.0530417908,203
112781,210770,265398,4.7617169740000005,-8.2588272039,2.0530417908,204
111700,210595,265291,4.7617169740000005,-8.2588272039,2.0530417908,205
108948,210224,265097,4.9280181447,-8.2851482525,1.9573288867999998,206
108965,210238,265037,4.9280181447,-8.2851482525,1.9573288867999998,207
109158,210238,265115,4.9280181447,-8.2851482525,1.9573288867999998,208
109342,210271,265090,4.9280181447,-8.2851482525,1.9573288867999998,209
109513,210273,265126,4.9280181447,-8.2851482525,1.9573288867999998,210
109745,210346,265146,4.9280181447,-8.2851482525,1.9573288867999998,211
109884,210321,265180,4.9280181447,-8.2851482525,1.9573288867999998,212
109963,210346,265153,4.9280181447,-8.2851482525,1.9573288867999998,213
110110,210390,265192,4.9280181447,-8.2851482525,1.9573288867999998,214
110310,210389,265190,4.9280181447,-8.2851482525,1.9573288867999998,215
110465,210430,265166,4.9280181447,-8.2851482525,1.9573288867999998,216
110718,210448,265249,4.9280181447,-8.2851482525,1.9573288867999998,217
110913,210509,265322,4.9280181447,-8.2851482525,1.9573288867999998,218
111105,210503,265301,4.9280181447,-8.2851482525,1.9573288867999998,219
111383,210545,265318,4.9280181447,-8.2851482525,1.9573288867999998,220
111516,210628,265368,4.9280181447,-8.2851482525,1.9573288867999998,221
111767,210691,265384,4.9280181447,-8.2851482525,1.9573288867999998,222
112003,210675,265385,4.9280181447,-8.2851482525,1.9573288867999998,223
112068,210722,265368,4.9280181447,-8.2851482525,1.9573288867999998,224
111430,210603,265299,4.9280181447,-8.2851482525,1.9573288867999998,225
110307,210456,265207,4.9280181447,-8.2851482525,1.9573288867999998,226
109526,210359,265147,4.9280181447,-8.2851482525,1.9573288867999998,227
109209,210289,265099,4.9280181447,-8.2851482525,1.9573288867999998,228
109148,210246,265085,4.9280181447,-8.2851482525,1.9573288867999998,229
109208,210270,265098,4.9280181447,-8.2851482525,1.9573288867999998,230
109439,210302,265184,4.9280181447,-8.2851482525,1.9573288867999998,231
109725,210341,265136,4.9280181447,-8.2851482525,1.9573288867999998,232
109912,210371,265171,4.9280181447,-8.2851482525,1.9573288867999998,233
110059,210394,265193,4.9280181447,-8.2851482525,1.9573288867999998,234
110157,210410,265187,4.9280181447,-8.2851482525,1.9573288867999998,235
110277,210446,265208,4.9280181447,-8.2851482525,1.9573288867999998,236
110433,210479,265269,4.9280181447,-8.2851482525,1.9573288867999998,237
110622,210473,265263,4.9280181447,-8.2851482525,1.9573288867999998,238
110880,210524,265305,4.9280181447,-8.2851482525,1.9573288867999998,239
111095,210546,265309,4.9280181447,-8.2851482525,1.9573288867999998,240
111338,210653,265352,4.9280181447,-8.2851482525,1.9573288867999998,241
111582,210630,265361,4.9280181447,-8.2851482525,1.9573288867999998,242
111788,210669,265329,4.9280181447,-8.2851482525,1.9573288867999998,243
112011,210767,265346,4.9280181447,-8.2851482525,1.9573288867999998,244
112233,210786,265396,4.9280181447,-8.2851482525,1.9573288867999998,245
112463,210813,265484,4.9280181447,-8.2851482525,1.9573288867999998,246
112642,210834,265450,4.9280181447,-8.2851482525,1.9573288867999998,247
111793,210743,265368,4.9232324995,-8.249255913499999,2.0470597343,248
112014,210745,265374,4.9232324995,-8.249255913499999,2.0470597343,249
112227,210787,265350,4.9232324995,-8.249255913499999,2.0470597343,250
112473,210805,265387,4.9232324995,-8.249255913499999,2.0470597343,251
112646,210836,265451,4.9232324995,-8.249255913499999,2.0470597343,252
112915,210855,265424,4.9232324995,-8.249255913499999,2.0470597343,253
113053,210899,265425,4.9232324995,-8.249255913499999,2.0470597343,254
113108,210893,265479,4.9232324995,-8.249255913499999,2.0470597343,255
112262,210807,265336,4.9232324995,-8.249255913499999,2.0470597343,256
111101,210607,265237,4.9232324995,-8.249255913499999,2.0470597343,257
110396,210490,265170,4.9232324995,-8.249255913499999,2.0470597343,258
110167,210480,265156,4.9232324995,-8.249255913499999,2.0470597343,259
110127,210485,265162,4.9232324995,-8.249255913499999,2.0470597343,260
110206,210454,265149,4.9232324995,-8.249255913499999,2.0470597343,261
110391,210462,265148,4.9232324995,-8.249255913499999,2.0470597343,262
110632,210494,265249,4.9232324995,-8.249255913499999,2.0470597343,263
110801,210537,265224,4.9232324995,-8.249255913499999,2.0470597343,264
110949,210552,265214,4.9232324995,-8.249255913499999,2.0470597343,265
111048,210571,265245,4.9232324995,-8.249255913499999,2.0470597343,266
111099,210579,265243,4.9232324995,-8.249255913499999,2.0470597343,267
111351,210615,265247,4.9232324995,-8.249255913499999,2.0470597343,268
111548,210623,265262,4.9232324995,-8.249255913499999,2.0470597343,269
111755,210680,265288,4.9232324995,-8.249255913499999,2.0470597343,270
111962,210722,265313,4.9232324995,-8.249255913499999,2.0470597343,271
112186,210717,265291,4.9232324995,-8.249255913499999,2.0470597343,272
112399,210790,265305,4.9232324995,-8.249255913499999,2.0470597343,273
112614,210803,265392,4.9232324995,-8.249255913499999,2.0470597343,274
112791,210814,265401,4.9232324995,-8.249255913499999,2.0470597343,275
113003,210899,265414,4.9232324995,-8.249255913499999,2.0470597343,276
113232,210913,265418,4.9232324995,-8.249255913499999,2.0470597343,277
113343,210915,265425,4.9232324995,-8.249255913499999,2.0470597343,278
112916,210896,265427,4.9232324995,-8.249255913499999,2.0470597343,279
111818,210701,265234,4.9232324995,-8.249255913499999,2.0470597343,280
110907,210570,265207,4.9232324995,-8.249255913499999,2.0470597343,281
110477,210508,265180,4.9232324995,-8.249255913499999,2.0470597343,282
110355,210478,265100,4.9232324995,-8.249255913499999,2.0470597343,283
110347,210489,265104,4.9232324995,-8.249255913499999,2.0470597343,284
110466,210475,265147,4.9232324995,-8.249255913499999,2.0470597343,285
110648,210503,265195,4.9232324995,-8.249255913499999,2.0470597343,286
110861,210514,265143,4.9232324995,-8.249255913499999,2.0470597343,287
111003,210519,265213,4.9232324995,-8.249255913499999,2.0470597343,288
111067,210565,265208,4.9232324995,-8.249255913499999,2.0470597343,289
110637,210519,265195,4.9519463707,-8.3653078096,2.0961125976,290
110894,210524,265239,4.9519463707,-8.3653078096,2.0961125976,291
111027,210565,265214,4.9519463707,-8.3653078096,2.0961125976,292
111159,210572,265243,4.9519463707,-8.3653078096,2.0961125976,293
111400,210626,265281,4.9519463707,-8.3653078096,2.0961125976,294
111602,210637,265273,4.9519463707,-8.3653078096,2.0961125976,295
111711,210677,265272,4.9519463707,-8.3653078096,2.0961125976,296
111976,210705,265274,4.9519463707,-8.3653078096,2.0961125976,297
112116,210739,265327,4.9519463707,-8.3653078096,2.0961125976,298
112297,210779,265350,4.9519463707,-8.3653078096,2.0961125976,299
112570,210828,265351,4.9519463707,-8.3653078096,2.0961125976,300
112554,210806,265361,4.9519463707,-8.3653078096,2.0961125976,301
111833,210685,265299,4.9519463707,-8.3653078096,2.0961125976,302
110611,210563,265167,4.9519463707,-8.3653078096,2.0961125976,303
109824,210412,265062,4.9519463707,-8.3653078096,2.0961125976,304
109345,210312,265091,4.9519463707,-8.3653078096,2.0961125976,305
109201,210311,265075,4.9519463707,-8.3653078096,2.0961125976,306
109216,210289,265046,4.9519463707,-8.3653078096,2.0961125976,307
109344,210317,265045,4.9519463707,-8.3653078096,2.0961125976,308
109558,210343,265088,4.9519463707,-8.3653078096,2.0961125976,309
109753,210332,265118,4.9519463707,-8.3653078096,2.0961125976,310
109856,210384,265104,4.9519463707,-8.3653078096,2.0961125976,311
109983,210419,265076,4.9519463707,-8.3653078096,2.0961125976,312
110107,210394,265114,4.9519463707,-8.3653078096,2.0961125976,313
110275,210437,265164,4.9519463707,-8.3653078096,2.0961125976,314
110459,210468,265189,4.9519463707,-8.3653078096,2.0961125976,315
110642,210476,265193,4.9519463707,-8.3653078096,2.0961125976,316
110869,210553,265223,4.9519463707,-8.3653078096,2.0961125976,317
111084,210549,265246,4.9519463707,-8.3653078096,2.0961125976,318
111319,210630,265264,4.9519463707,-8.3653078096,2.0961125976,319
111528,210671,265277,4.9519463707,-8.3653078096,2.0961125976,320
111672,210668,265301,4.9519463707,-8.3653078096,2.0961125976,321
111939,210704,265311,4.9519463707,-8.3653078096,2.0961125976,322
112171,210734,265343,4.9519463707,-8.3653078096,2.0961125976,323
112383,210806,265349,4.9519463707,-8.3653078096,2.0961125976,324
112283,210744,265375,4.9519463707,-8.3653078096,2.0961125976,325
111419,210651,265226,4.9519463707,-8.3653078096,2.0961125976,326
110350,210456,265135,4.9519463707,-8.3653078096,2.0961125976,327
109728,210367,265090,4.9519463707,-8.3653078096,2.0961125976,328
109494,210364,265102,4.9519463707,-8.3653078096,2.0961125976,329
109489,210331,265090,4.9519463707,-8.3653078096,2.0961125976,330
109547,210343,265097,4.9519463707,-8.3653078096,2.0961125976,331
113186,210863,265426,4.7988057243,-8.1643107112,2.009970984,332
113274,210874,265446,4.7988057243,-8.1643107112,2.009970984,333
112498,210773,265383,4.7988057243,-8.1643107112,2.009970984,334
111516,210614,265304,4.7988057243,-8.1643107112,2.009970984,335
110943,210540,265207,4.7988057243,-8.1643107112,2.009970984,336
110691,210509,265170,4.7988057243,-8.1643107112,2.009970984,337
110684,210449,265182,4.7988057243,-8.1643107112,2.009970984,338
110864,210501,265188,4.7988057243,-8.1643107112,2.009970984,339
111017,210530,265203,4.7988057243,-8.1643107112,2.009970984,340
111260,210577,265188,4.7988057243,-8.1643107112,2.009970984,341
111292,210585,265239,4.7988057243,-8.1643107112,2.009970984,342
111382,210572,265263,4.7988057243,-8.1643107112,2.009970984,343
111452,210553,265288,4.7988057243,-8.1643107112,2.009970984,344
111573,210639,265223,4.7988057243,-8.1643107112,2.009970984,345
111738,210638,265291,4.7988057243,-8.1643107112,2.009970984,346
111927,210652,265361,4.7988057243,-8.1643107112,2.009970984,347
112123,210703,265333,4.7988057243,-8.1643107112,2.009970984,348
112336,210709,265342,4.7988057243,-8.1643107112,2.009970984,349
112541,210750,265358,4.7988057243,-8.1643107112,2.009970984,350
112714,210790,265364,4.7988057243,-8.1643107112,2.009970984,351
112887,210804,265380,4.7988057243,-8.1643107112,2.009970984,352
113094,210839,265403,4.7988057243,-8.1643107112,2.009970984,353
113310,210859,265377,4.7988057243,-8.1643107112,2.009970984,354
113502,210891,265453,4.7988057243,-8.1643107112,2.009970984,355
113458,210868,265429,4.7988057243,-8.1643107112,2.009970984,356
112694,210780,265284,4.7988057243,-8.1643107112,2.009970984,357
111621,210613,265231,4.7988057243,-8.1643107112,2.009970984,358
110912,210485,265153,4.7988057243,-8.1643107112,2.009970984,359
110620,210433,265110,4.7988057243,-8.1643107112,2.009970984,360
110516,210456,265141,4.7988057243,-8.1643107112,2.009970984,361
110592,210409,265149,4.7988057243,-8.1643107112,2.009970984,362
110782,210422,265160,4.7988057243,-8.1643107112,2.009970984,363
110963,210470,265163,4.7988057243,-8.1643107112,2.009970984,364
111097,210498,265134,4.7988057243,-8.1643107112,2.009970984,365
111197,210507,265187,4.7988057243,-8.1643107112,2.009970984,366
111291,210473,265198,4.7988057243,-8.1643107112,2.009970984,367
111420,210569,265216,4.7988057243,-8.1643107112,2.009970984,368
111561,210566,265203,4.7988057243,-8.1643107112,2.009970984,369
111801,210573,265300,4.7988057243,-8.1643107112,2.009970984,370
112075,210602,265259,4.7988057243,-8.1643107112,2.009970984,371
112191,210636,265331,4.7988057243,-8.1643107112,2.009970984,372
112424,210684,265343,4.7988057243,-8.1643107112,2.009970984,373
112123,210608,265360,4.953142782,-8.3306118819,2.009970984,374
112329,210611,265361,4.953142782,-8.3306118819,2.009970984,375
112538,210680,265371,4.953142782,-8.3306118819,2.009970984,376
112332,210640,265356,4.953142782,-8.3306118819,2.009970984,377
111443,210477,265252,4.953142782,-8.3306118819,2.009970984,378
110346,210330,265113,4.953142782,-8.3306118819,2.009970984,379
109611,210192,265078,4.953142782,-8.3306118819,2.009970984,380
109460,210196,265055,4.953142782,-8.3306118819,2.009970984,381
109393,210132,265077,4.953142782,-8.3306118819,2.009970984,382
109383,210196,265078,4.953142782,-8.3306118819,2.009970984,383
109617,210178,265120,4.953142782,-8.3306118819,2.009970984,384
109654,210221,265038,4.953142782,-8.3306118819,2.009970984,385
109786,210238,265105,4.953142782,-8.3306118819,2.009970984,386
109959,210263,265139,4.953142782,-8.3306118819,2.009970984,387
110012,210210,265115,4.953142782,-8.3306118819,2.009970984,388
110091,210251,265136,4.953142782,-8.3306118819,2.009970984,389
110209,210269,265146,4.953142782,-8.3306118819,2.009970984,390
110445,210344,265174,4.953142782,-8.3306118819,2.009970984,391
110625,210342,265203,4.953142782,-8.3306118819,2.009970984,392
110792,210347,265209,4.953142782,-8.3306118819,2.009970984,393
111019,210411,265256,4.953142782,-8.3306118819,2.009970984,394
111186,210436,265219,4.953142782,-8.3306118819,2.009970984,395
111365,210465,265275,4.953142782,-8.3306118819,2.009970984,396
111583,210509,265286,4.953142782,-8.3306118819,2.009970984,397
111790,210562,265236,4.953142782,-8.3306118819,2.009970984,398
111633,210508,265223,4.953142782,-8.3306118819,2.009970984,399
110679,210345,265179,4.953142782,-8.3306118819,2.009970984,400
109533,210132,265077,4.953142782,-8.3306118819,2.009970984,401
108858,210035,264962,4.953142782,-8.3306118819,2.009970984,402
108535,210002,264969,4.953142782,-8.3306118819,2.009970984,403
108431,209954,264956,4.953142782,-8.3306118819,2.009970984,404
108427,209930,264972,4.953142782,-8.3306118819,2.009970984,405
108580,209937,264962,4.953142782,-8.3306118819,2.009970984,406
108769,210025,265007,4.953142782,-8.3306118819,2.009970984,407
108905,210003,265024,4.953142782,-8.3306118819,2.009970984,408
109025,209989,265032,4.953142782,-8.3306118819,2.009970984,409
109097,210046,265003,4.953142782,-8.3306118819,2.009970984,410
109258,210066,265075,4.953142782,-8.3306118819,2.009970984,411
109423,210094,265069,4.953142782,-8.3306118819,2.009970984,412
109629,210094,265075,4.953142782,-8.3306118819,2.009970984,413
109841,210137,265070,4.953142782,-8.3306118819,2.009970984,414
110061,210217,265141,4.953142782,-8.3306118819,2.009970984,415
109050,209983,265039,4.833501652,-8.2325061553,1.9728822337,416
109283,210015,265084,4.833501652,-8.2325061553,1.9728822337,417
109462,210038,265084,4.833501652,-8.2325061553,1.9728822337,418
109692,210068,265097,4.833501652,-8.2325061553,1.9728822337,419
109846,210132,265150,4.833501652,-8.2325061553,1.9728822337,420
110122,210151,265170,4.833501652,-8.2325061553,1.9728822337,421
110422,210172,265147,4.833501652,-8.2325061553,1.9728822337,422
110597,210220,265230,4.833501652,-8.2325061553,1.9728822337,423
110849,210248,265217,4.833501652,-8.2325061553,1.9728822337,424
111143,210312,265273,4.833501652,-8.2325061553,1.9728822337,425
111400,210358,265256,4.833501652,-8.2325061553,1.9728822337,426
111593,210423,265266,4.833501652,-8.2325061553,1.9728822337,427
111498,210381,265281,4.833501652,-8.2325061553,1.9728822337,428
110779,210231,265174,4.7665026192,-8.1942209937,2.009970984,429
109736,210082,265080,4.7665026192,-8.1942209937,2.009970984,430
109220,210000,265072,4.7665026192,-8.1942209937,2.009970984,431
109043,209967,265076,4.7665026192,-8.1942209937,2.009970984,432
109054,210004,265071,4.7665026192,-8.1942209937,2.009970984,433
109341,209981,265076,4.7665026192,-8.1942209937,2.009970984,434
109517,209983,265086,4.7665026192,-8.1942209937,2.009970984,435
109704,210004,265047,4.7665026192,-8.1942209937,2.009970984,436
109848,210058,265100,4.7665026192,-8.1942209937,2.009970984,437
109971,210071,265073,4.7665026192,-8.1942209937,2.009970984,438
110084,210114,265127,4.7665026192,-8.1942209937,2.009970984,439
110257,210097,265137,4.7665026192,-8.1942209937,2.009970984,440
110451,210182,265130,4.7665026192,-8.1942209937,2.009970984,441
110675,210194,265158,4.7665026192,-8.1942209937,2.009970984,442
110910,210185,265169,4.7665026192,-8.1942209937,2.009970984,443
111145,210263,265196,4.7665026192,-8.1942209937,2.009970984,444
111361,210301,265266,4.7665026192,-8.1942209937,2.009970984,445
111667,210340,265287,4.7665026192,-8.1942209937,2.009970984,446
111826,210399,265255,4.7665026192,-8.1942209937,2.009970984,447
111992,210431,265300,4.9435714916,-8.3413795836,2.0195422744,448
112281,210420,265352,4.9435714916,-8.3413795836,2.0195422744,449
112412,210460,265318,4.9435714916,-8.3413795836,2.0195422744,450
112077,210393,265311,4.9435714916,-8.3413795836,2.0195422744,451
111036,210229,265152,4.9914279436,-8.207381518,1.9680965885,452
110229,210047,265087,4.9375894351,-8.3138621237,2.1332013479,453
109782,210028,265061,4.881358104,-8.2121671632,2.0853448959,454
109747,210001,265022,4.8670011684,-8.2648092604,2.0626130812,455
109689,210011,265064,4.9471607255,-8.2085779293,2.0386848552,456
109907,210013,265117,4.9148576204,-8.240881034400001,1.9764714676,457
110170,210121,265076,4.7521456836,-8.240881034400001,1.9298114269,458
110294,210072,265099,4.90528633,-8.1272219609,2.0949161863,459
110475,210087,265067,4.8717868136,-8.2002030502,2.0195422744,460
110522,210108,265165,4.8909293944,-8.2600236152,2.0327027987,461
110637,210147,265132,4.953142782,-8.0650085733,2.0470597343,462
110799,210129,265123,4.8059841921,-8.1798640581,1.9573288867999998,463
111019,210193,265144,4.9005006848,-8.226524098799999,2.0721843716,464
111327,210222,265147,4.7808595548,-8.3832539791,2.057827436,465
111538,210229,265204,5.0273202826,-8.2121671632,2.0470597343,466
111719,210252,265223,4.9998028226999995,-8.1044901462,2.0195422744,467
111977,210317,265207,4.9519463707,-7.9609207902,2.0003996936,468
112126,210335,265270,4.8370908858999995,-8.169096356399999,2.03389921,469
112311,210379,265272,4.9435714916,-8.236095389199999,1.91425808,470
112606,210424,265320,4.7102712880999995,-8.1942209937,2.0231315083,471
112792,210477,265346,5.0237310487,-8.3078800672,2.0087745727,472
112900,210519,265311,4.8909293944,-8.2695949056,1.9956140484,473
112500,210409,265266,4.9962135888,-8.1942209937,2.0231315083,474
111528,210228,265127,4.9962135888,-8.1942209937,2.0231315083,475
110601,210112,265096,4.9962135888,-8.1942209937,2.0231315083,476
110189,210022,265059,4.9962135888,-8.1942209937,2.0231315083,477
109993,209997,265038,4.9962135888,-8.1942209937,2.0231315083,478
109913,209999,265013,4.9962135888,-8.1942209937,2.0231315083,479
110176,209971,265042,4.9567320159,-8.2217384536,1.9812571127999998,480
110240,210000,265063,4.9567320159,-8.2217384536,1.9812571127999998,481
110453,210039,265083,4.9998028226999995,-8.2839518412,2.0434705004000002,482
110572,210079,265110,4.9627140724,-8.1894353485,2.0614166699,483
110640,210078,265095,4.7676990305,-8.2133635745,2.0386848552,484
110756,210106,265117,4.7246282237,-8.1367932513,2.0003996936,485
110910,210153,265090,4.9196432655999995,-8.3353975271,2.0757736055,486
111103,210177,265096,5.0464628634,-8.2169528084,1.9908284031999999,487
111325,210230,265193,4.90528633,-8.2983087768,2.0195422744,488
111596,210244,265204,4.809573426,-8.2612200265,2.0662023151,489
111830,210279,265199,4.8765724588,-8.2636128491,2.0051853388,490
112011,210353,265217,4.833501652,-8.2205420423,2.1104695332,491
112316,210369,265289,4.9471607255,-8.280362607299999,2.0051853388,492
112492,210408,265276,5.072783911999999,-8.2504523248,2.1284157027,493
112788,210456,265341,4.9280181447,-8.1655071225,1.9764714676,494
112969,210490,265340,4.9471607255,-8.2648092604,1.9812571127999998,495
113179,210547,265380,4.857429878,-8.1224363157,2.0003996936,496
113070,210517,265347,4.857429878,-8.1224363157,2.0003996936,497
112255,210346,265261,4.857429878,-8.1224363157,2.0003996936,498
111174,210213,265170,4.857429878,-8.1224363157,2.0003996936,499
110520,210114,265100,4.857429878,-8.1224363157,2.0003996936,500
110205,210035,265080,4.857429878,-8.1224363157,2.0003996936,501
110116,210046,265072,4.857429878,-8.1224363157,2.0003996936,502
110175,210064,265130,4.857429878,-8.1224363157,2.0003996936,503
110344,210092,265124,4.857429878,-8.1224363157,2.0003996936,504
110521,210128,265205,4.857429878,-8.1224363157,2.0003996936,505
110644,210136,265157,4.857429878,-8.1224363157,2.0003996936,506
110722,210145,265151,4.857429878,-8.1224363157,2.0003996936,507
110791,210125,265140,4.857429878,-8.1224363157,2.0003996936,508
110937,210168,265209,4.857429878,-8.1224363157,2.0003996936,509
111090,210213,265214,4.857429878,-8.1224363157,2.0003996936,510
111241,210245,265203,4.857429878,-8.1224363157,2.0003996936,511
111451,210240,265267,4.857429878,-8.1224363157,2.0003996936,512
111638,210330,265259,4.857429878,-8.1224363157,2.0003996936,513
111821,210355,265293,4.857429878,-8.1224363157,2.0003996936,514
112005,210369,265320,4.857429878,-8.1224363157,2.0003996936,515
112155,210397,265328,4.857429878,-8.1224363157,2.0003996936,516
112347,210448,265334,4.857429878,-8.1224363157,2.0003996936,517
112516,210453,265333,4.857429878,-8.1224363157,2.0003996936,518
112707,210488,265346,4.857429878,-8.1224363157,2.0003996936,519
112608,210514,265347,4.857429878,-8.1224363157,2.0003996936,520
111734,210347,265267,4.857429878,-8.1224363157,2.0003996936,521
110630,210155,265136,4.857429878,-8.1224363157,2.0003996936,522
109909,210045,265052,4.857429878,-8.1224363157,2.0003996936,523
109567,210006,265099,4.857429878,-8.1224363157,2.0003996936,524
109460,209963,265083,4.9579284272,-8.2025958728,1.9573288867999998,525
109468,210012,265051,4.9579284272,-8.2025958728,1.9573288867999998,526
109634,210029,265046,4.9579284272,-8.2025958728,1.9573288867999998,527
109786,210061,265116,4.9579284272,-8.2025958728,1.9573288867999998,528
109967,210084,265128,4.9579284272,-8.2025958728,1.9573288867999998,529
109997,210067,265105,4.9579284272,-8.2025958728,1.9573288867999998,530
110102,210076,265126,4.9579284272,-8.2025958728,1.9573288867999998,531
110254,210110,265127,4.9579284272,-8.2025958728,1.9573288867999998,532
110406,210126,265143,4.9579284272,-8.2025958728,1.9573288867999998,533
110591,210167,265190,4.9579284272,-8.2025958728,1.9573288867999998,534
110798,210204,265167,4.9579284272,-8.2025958728,1.9573288867999998,535
110941,210245,265174,4.9579284272,-8.2025958728,1.9573288867999998,536
111152,210288,265253,4.9579284272,-8.2025958728,1.9573288867999998,537
111317,210319,265225,5.000999234,-8.3126657124,2.0721843716,538
111488,210363,265285,5.000999234,-8.3126657124,2.0721843716,539
111796,210356,265293,5.000999234,-8.3126657124,2.0721843716,540
111910,210434,265363,5.000999234,-8.3126657124,2.0721843716,541
111848,210419,265298,5.000999234,-8.3126657124,2.0721843716,542
111054,210280,265182,5.000999234,-8.3126657124,2.0721843716,543
109879,210105,265100,5.000999234,-8.3126657124,2.0721843716,544
109087,209955,265016,5.000999234,-8.3126657124,2.0721843716,545
108743,209922,264995,5.000999234,-8.3126657124,2.0721843716,546
108569,209899,264945,5.000999234,-8.3126657124,2.0721843716,547
108559,209909,264963,5.000999234,-8.3126657124,2.0721843716,548
108677,209929,264989,5.000999234,-8.3126657124,2.0721843716,549
108922,209943,265024,5.000999234,-8.3126657124,2.0721843716,550
109094,209952,265009,5.000999234,-8.3126657124,2.0721843716,551
109234,209943,265102,5.000999234,-8.3126657124,2.0721843716,552
109351,209998,265027,5.000999234,-8.3126657124,2.0721843716,553
109470,209994,265103,5.000999234,-8.3126657124,2.0721843716,554
109652,210057,265111,5.000999234,-8.3126657124,2.0721843716,555
109853,210118,265113,5.000999234,-8.3126657124,2.0721843716,556
110100,210151,265096,5.000999234,-8.3126657124,2.0721843716,557
110311,210190,265115,5.000999234,-8.3126657124,2.0721843716,558
110560,210205,265129,5.000999234,-8.3126657124,2.0721843716,559
110764,210278,265197,5.000999234,-8.3126657124,2.0721843716,560
111050,210279,265169,5.000999234,-8.3126657124,2.0721843716,561
111178,210308,265231,5.000999234,-8.3126657124,2.0721843716,562
111412,210391,265287,5.000999234,-8.3126657124,2.0721843716,563
111605,210424,265293,4.8323052407,-8.303094422,2.0470597343,564
111544,210378,265272,4.8323052407,-8.303094422,2.0470597343,565
110594,210256,265187,4.8323052407,-8.303094422,2.0470597343,566
109628,210088,265077,4.8323052407,-8.303094422,2.0470597343,567
109067,209954,265049,4.8323052407,-8.303094422,2.0470597343,568
108798,209949,264956,4.8323052407,-8.303094422,2.0470597343,569
108779,209937,264993,4.8323052407,-8.303094422,2.0470597343,570
108837,209959,265017,4.8323052407,-8.303094422,2.0470597343,571
109103,209995,265001,4.8323052407,-8.303094422,2.0470597343,572
109302,209996,265086,4.8323052407,-8.303094422,2.0470597343,573
109484,210001,265057,4.8323052407,-8.303094422,2.0470597343,574
109627,210095,265024,4.8323052407,-8.303094422,2.0470597343,575
109759,210075,265091,4.8323052407,-8.303094422,2.0470597343,576
109939,210099,265095,4.8323052407,-8.303094422,2.0470597343,577
110152,210167,265110,4.8323052407,-8.303094422,2.0470597343,578
110375,210173,265172,4.8323052407,-8.303094422,2.0470597343,579
110648,210218,265144,4.8323052407,-8.303094422,2.0470597343,580
110913,210259,265198,4.8323052407,-8.303094422,2.0470597343,581
111153,210343,265193,4.8323052407,-8.303094422,2.0470597343,582
111375,210344,265288,4.8323052407,-8.303094422,2.0470597343,583
111628,210390,265227,4.8323052407,-8.303094422,2.0470597343,584
111858,210439,265308,4.8323052407,-8.303094422,2.0470597343,585
112108,210473,265324,4.8323052407,-8.303094422,2.0470597343,586
112359,210537,265332,4.8323052407,-8.303094422,2.0470597343,587
112412,210487,265340,4.8323052407,-8.303094422,2.0470597343,588
111792,210387,265236,4.8323052407,-8.303094422,2.0470597343,589
110796,210275,265139,4.8323052407,-8.303094422,2.0470597343,590
110150,210157,265072,4.8323052407,-8.303094422,2.0470597343,591
109918,210107,265078,4.8323052407,-8.303094422,2.0470597343,592
109899,210110,265085,4.8323052407,-8.303094422,2.0470597343,593
110030,210130,265074,4.8323052407,-8.303094422,2.0470597343,594
110244,210149,265103,4.8323052407,-8.303094422,2.0470597343,595
110513,210190,265004,4.6636112473999995,-8.051848049,2.0721843716,596
110548,210180,265113,4.6636112473999995,-8.051848049,2.0721843716,597
110647,210209,265116,4.6636112473999995,-8.051848049,2.0721843716,598
110791,210208,265105,4.6636112473999995,-8.051848049,2.0721843716,599
110930,210261,265069,4.6636112473999995,-8.051848049,2.0721843716,600
111069,210300,265194,4.6636112473999995,-8.051848049,2.0721843716,601
111340,210327,265123,4.6636112473999995,-8.051848049,2.0721843716,602
111512,210336,265182,4.6636112473999995,-8.051848049,2.0721843716,603
111743,210378,265187,4.6636112473999995,-8.051848049,2.0721843716,604
111947,210439,265212,4.6636112473999995,-8.051848049,2.0721843716,605
112118,210458,265238,4.6636112473999995,-8.051848049,2.0721843716,606
112396,210496,265267,4.6636112473999995,-8.051848049,2.0721843716,607
112603,210549,265283,4.6636112473999995,-8.051848049,2.0721843716,608
112824,210522,265259,4.6636112473999995,-8.051848049,2.0721843716,609
113014,210592,265265,4.6636112473999995,-8.051848049,2.0721843716,610
112771,210547,265292,4.6636112473999995,-8.051848049,2.0721843716,611
111876,210349,265125,4.6636112473999995,-8.051848049,2.0721843716,612
110977,210243,265062,4.6636112473999995,-8.051848049,2.0721843716,613
110521,210160,265003,4.6636112473999995,-8.051848049,2.0721843716,614
110378,210145,264999,4.6636112473999995,-8.051848049,2.0721843716,615
110361,210158,265008,4.6636112473999995,-8.051848049,2.0721843716,616
110474,210132,265000,4.6636112473999995,-8.051848049,2.0721843716,617
110673,210198,265003,4.6636112473999995,-8.051848049,2.0721843716,618
110861,210266,264983,4.6636112473999995,-8.051848049,2.0721843716,619
111009,210225,265052,4.6636112473999995,-8.051848049,2.0721843716,620
111104,210226,265027,4.6636112473999995,-8.051848049,2.0721843716,621
111222,210266,265097,4.6636112473999995,-8.051848049,2.0721843716,622
111392,210291,265050,4.6636112473999995,-8.051848049,2.0721843716,623
111599,210313,265104,4.6636112473999995,-8.051848049,2.0721843716,624
111806,210355,265097,4.6636112473999995,-8.051848049,2.0721843716,625
112028,210356,265159,4.6636112473999995,-8.051848049,2.0721843716,626
112238,210433,265098,4.6636112473999995,-8.051848049,2.0721843716,627
112469,210471,265116,4.6636112473999995,-8.051848049,2.0721843716,628
112734,210434,265188,4.6636112473999995,-8.051848049,2.0721843716,629
112883,210522,265205,4.6636112473999995,-8.051848049,2.0721843716,630
113129,210541,265228,4.6636112473999995,-8.051848049,2.0721843716,631
113345,210571,265255,4.6636112473999995,-8.051848049,2.0721843716,632
113541,210656,265243,4.6636112473999995,-8.051848049,2.0721843716,633
113245,210555,265210,4.6636112473999995,-8.051848049,2.0721843716,634
112353,210441,265064,4.6636112473999995,-8.051848049,2.0721843716,635
111465,210274,264986,4.6636112473999995,-8.051848049,2.0721843716,636
110979,210186,264967,4.6636112473999995,-8.051848049,2.0721843716,637
113449,210638,265209,4.7904308452,-8.1894353485,2.0195422744,638
113584,210630,265248,4.7904308452,-8.1894353485,2.0195422744,639
113795,210668,265234,4.7904308452,-8.1894353485,2.0195422744,640
113538,210592,265236,4.7904308452,-8.1894353485,2.0195422744,641
112624,210507,265124,4.7904308452,-8.1894353485,2.0195422744,642
111757,210305,265028,4.7904308452,-8.1894353485,2.0195422744,643
111194,210288,264957,4.7904308452,-8.1894353485,2.0195422744,644
110949,210218,264929,4.7904308452,-8.1894353485,2.0195422744,645
110838,210209,264979,4.7904308452,-8.1894353485,2.0195422744,646
110940,210243,264990,4.7904308452,-8.1894353485,2.0195422744,647
111125,210245,264976,4.7904308452,-8.1894353485,2.0195422744,648
111286,210281,265013,4.7904308452,-8.1894353485,2.0195422744,649
111364,210277,264987,4.7904308452,-8.1894353485,2.0195422744,650
111436,210313,265041,4.7904308452,-8.1894353485,2.0195422744,651
111520,210331,265076,4.7904308452,-8.1894353485,2.0195422744,652
111646,210331,265081,4.7904308452,-8.1894353485,2.0195422744,653
111801,210346,265062,4.7904308452,-8.1894353485,2.0195422744,654
111992,210386,265147,4.7904308452,-8.1894353485,2.0195422744,655
112191,210404,265130,4.7904308452,-8.1894353485,2.0195422744,656
112407,210498,265167,4.9627140724,-8.1990066389,2.0434705004000002,657
112583,210517,265174,4.9627140724,-8.1990066389,2.0434705004000002,658
112760,210551,265203,4.9627140724,-8.1990066389,2.0434705004000002,659
112923,210555,265247,4.9627140724,-8.1990066389,2.0434705004000002,660
113161,210602,265285,4.9627140724,-8.1990066389,2.0434705004000002,661
113359,210634,265269,4.9627140724,-8.1990066389,2.0434705004000002,662
113370,210635,265261,4.9627140724,-8.1990066389,2.0434705004000002,663
112758,210527,265145,4.9627140724,-8.1990066389,2.0434705004000002,664
111622,210374,265057,4.9627140724,-8.1990066389,2.0434705004000002,665
110782,210221,264993,4.9627140724,-8.1990066389,2.0434705004000002,666
110344,210205,264909,4.9627140724,-8.1990066389,2.0434705004000002,667
110154,210157,264955,4.9627140724,-8.1990066389,2.0434705004000002,668
110135,210143,264925,4.9627140724,-8.1990066389,2.0434705004000002,669
110246,210179,264957,4.9627140724,-8.1990066389,2.0434705004000002,670
110390,210186,264988,4.9627140724,-8.1990066389,2.0434705004000002,671
110480,210173,264960,4.9627140724,-8.1990066389,2.0434705004000002,672
110507,210171,265006,4.9627140724,-8.1990066389,2.0434705004000002,673
110530,210192,265038,4.9627140724,-8.1990066389,2.0434705004000002,674
110626,210197,265003,4.9627140724,-8.1990066389,2.0434705004000002,675
110828,210244,265067,4.9627140724,-8.1990066389,2.0434705004000002,676
110973,210259,265095,4.9627140724,-8.1990066389,2.0434705004000002,677
111152,210257,265082,4.9627140724,-8.1990066389,2.0434705004000002,678
111335,210314,265101,4.9627140724,-8.1990066389,2.0434705004000002,679
111497,210329,265137,4.9627140724,-8.1990066389,2.0434705004000002,680
111659,210417,265058,4.9627140724,-8.1990066389,2.0434705004000002,681
111891,210403,265155,4.9627140724,-8.1990066389,2.0434705004000002,682
112022,210465,265194,4.9627140724,-8.1990066389,2.0434705004000002,683
112166,210471,265172,4.9627140724,-8.1990066389,2.0434705004000002,684
112050,210457,265157,4.9627140724,-8.1990066389,2.0434705004000002,685
111174,210284,265080,4.9627140724,-8.1990066389,2.0434705004000002,686
110036,210139,264972,4.9627140724,-8.1990066389,2.0434705004000002,687
109288,210003,264935,4.9627140724,-8.1990066389,2.0434705004000002,688
108944,209938,264893,4.9627140724,-8.1990066389,2.0434705004000002,689
108806,209889,264840,4.9627140724,-8.1990066389,2.0434705004000002,690
108797,209931,264879,4.9627140724,-8.1990066389,2.0434705004000002,691
108999,209922,264866,4.9627140724,-8.1990066389,2.0434705004000002,692
109092,209969,264898,4.9627140724,-8.1990066389,2.0434705004000002,693
109227,209980,264962,4.9627140724,-8.1990066389,2.0434705004000002,694
109300,209972,264953,4.9627140724,-8.1990066389,2.0434705004000002,695
109398,209964,264957,4.9627140724,-8.1990066389,2.0434705004000002,696
109542,209982,264980,4.9627140724,-8.1990066389,2.0434705004000002,697
109730,210032,265064,4.9627140724,-8.1990066389,2.0434705004000002,698
111687,210291,265239,4.9722853628,-8.1547394208,1.9860427579999997,699
111850,210373,265221,4.9722853628,-8.1547394208,1.9860427579999997,700
112178,210400,265232,4.9722853628,-8.1547394208,1.9860427579999997,701
112449,210441,265273,4.9722853628,-8.1547394208,1.9860427579999997,702
112535,210488,265232,4.9722853628,-8.1547394208,1.9860427579999997,703
112395,210424,265264,4.9722853628,-8.1547394208,1.9860427579999997,704
111470,210305,265162,4.9722853628,-8.1547394208,1.9860427579999997,705
110574,210127,265150,4.9722853628,-8.1547394208,1.9860427579999997,706
110128,210111,264968,4.9722853628,-8.1547394208,1.9860427579999997,707
110083,210055,265001,4.9722853628,-8.1547394208,1.9860427579999997,708
110145,210055,265023,4.9722853628,-8.1547394208,1.9860427579999997,709
110443,210062,265018,4.9722853628,-8.1547394208,1.9860427579999997,710
110505,210112,265040,4.9722853628,-8.1547394208,1.9860427579999997,711
110748,210122,265079,4.9722853628,-8.1547394208,1.9860427579999997,712
110888,210158,265077,4.9722853628,-8.1547394208,1.9860427579999997,713
110953,210169,265082,4.9722853628,-8.1547394208,1.9860427579999997,714
111034,210198,265094,5.032105927799999,-8.2217384536,2.0147566292,715
111302,210222,265133,5.032105927799999,-8.2217384536,2.0147566292,716
111511,210236,265117,5.032105927799999,-8.2217384536,2.0147566292,717
111742,210287,265155,4.9758745967,-8.111668614,1.9956140484,718
112016,210316,265169,4.9758745967,-8.111668614,1.9956140484,719
112180,210335,265210,4.9758745967,-8.111668614,1.9956140484,720
112426,210411,265198,4.9758745967,-8.111668614,1.9956140484,721
112664,210402,265231,4.9758745967,-8.111668614,1.9956140484,722
112880,210467,265261,4.9758745967,-8.111668614,1.9956140484,723
113115,210496,265231,4.9758745967,-8.111668614,1.9956140484,724
113295,210522,265283,4.9758745967,-8.111668614,1.9956140484,725
113269,210505,265250,4.9758745967,-8.111668614,1.9956140484,726
112567,210367,265125,4.9758745967,-8.111668614,1.9956140484,727
111605,210214,265075,4.9758745967,-8.111668614,1.9956140484,728
111004,210121,264971,4.9758745967,-8.111668614,1.9956140484,729
110744,210092,264983,4.9758745967,-8.111668614,1.9956140484,730
110647,210071,264948,4.9758745967,-8.111668614,1.9956140484,731
110715,210088,264937,4.9758745967,-8.111668614,1.9956140484,732
110855,210089,265010,4.9758745967,-8.111668614,1.9956140484,733
111078,210160,265025,4.9758745967,-8.111668614,1.9956140484,734
111247,210135,265027,4.9758745967,-8.111668614,1.9956140484,735
111361,210170,265092,4.9758745967,-8.111668614,1.9956140484,736
111462,210190,265077,4.9519463707,-8.2887374864,2.0279171535,737
111623,210240,265096,4.9519463707,-8.2887374864,2.0279171535,738
111785,210248,265050,4.9519463707,-8.2887374864,2.0279171535,739
112004,210283,265118,4.9519463707,-8.2887374864,2.0279171535,740
112228,210312,265168,4.9519463707,-8.2887374864,2.0279171535,741
112438,210397,265171,4.9519463707,-8.2887374864,2.0279171535,742
112657,210372,265214,4.9519463707,-8.2887374864,2.0279171535,743
112873,210389,265212,4.9519463707,-8.2887374864,2.0279171535,744
113054,210476,265173,4.9519463707,-8.2887374864,2.0279171535,745
113265,210485,265177,4.9519463707,-8.2887374864,2.0279171535,746
113494,210537,265221,4.9519463707,-8.2887374864,2.0279171535,747
113694,210594,265315,4.9519463707,-8.2887374864,2.0279171535,748
113613,210571,265232,4.9519463707,-8.2887374864,2.0279171535,749
112940,210459,265166,4.9519463707,-8.2887374864,2.0279171535,750
111942,210274,265030,4.9519463707,-8.2887374864,2.0279171535,751
111336,210167,265026,4.9519463707,-8.2887374864,2.0279171535,752
111058,210159,264973,4.9519463707,-8.2887374864,2.0279171535,753
110938,210138,265038,4.9519463707,-8.2887374864,2.0279171535,754
110951,210106,264953,4.9519463707,-8.2887374864,2.0279171535,755
111100,210181,264989,4.9519463707,-8.2887374864,2.0279171535,756
111285,210191,265024,4.7784667322,-8.2325061553,2.0949161863,757
111500,210220,265047,4.7784667322,-8.2325061553,2.0949161863,758
111627,210254,265040,4.7784667322,-8.2325061553,2.0949161863,759
111711,210263,265066,4.7784667322,-8.2325061553,2.0949161863,760
111778,210297,265103,4.7784667322,-8.2325061553,2.0949161863,761
111954,210285,265155,4.7784667322,-8.2325061553,2.0949161863,762
112072,210352,265098,4.7784667322,-8.2325061553,2.0949161863,763
112401,210352,265152,4.7784667322,-8.2325061553,2.0949161863,764
112511,210393,265180,4.7784667322,-8.2325061553,2.0949161863,765
112728,210439,265174,4.7784667322,-8.2325061553,2.0949161863,766
112923,210514,265243,4.7784667322,-8.2325061553,2.0949161863,767
113120,210493,265206,4.7784667322,-8.2325061553,2.0949161863,768
113648,210595,265282,4.8909293944,-8.1786676468,1.9716858223999998,769
113808,210613,265297,4.8909293944,-8.1786676468,1.9716858223999998,770
113814,210642,265291,4.8909293944,-8.1786676468,1.9716858223999998,771
113328,210547,265213,4.8909293944,-8.1786676468,1.9716858223999998,772
112301,210403,265163,4.8909293944,-8.1786676468,1.9716858223999998,773
111421,210272,265037,4.8909293944,-8.1786676468,1.9716858223999998,774
110979,210195,265034,4.8909293944,-8.1786676468,1.9716858223999998,775
110873,210203,264998,4.8909293944,-8.1786676468,1.9716858223999998,776
110831,210210,265016,4.8909293944,-8.1786676468,1.9716858223999998,777
110964,210196,265034,4.8909293944,-8.1786676468,1.9716858223999998,778
111115,210201,265059,4.8909293944,-8.1786676468,1.9716858223999998,779
111200,210244,265040,4.8909293944,-8.1786676468,1.9716858223999998,780
111279,210244,265045,4.8909293944,-8.1786676468,1.9716858223999998,781
111298,210275,265085,4.8909293944,-8.1786676468,1.9716858223999998,782
111398,210252,265076,4.8909293944,-8.1786676468,1.9716858223999998,783
111525,210292,265119,4.8909293944,-8.1786676468,1.9716858223999998,784
111679,210326,265160,4.8909293944,-8.1786676468,1.9716858223999998,785
111864,210397,265132,4.8909293944,-8.1786676468,1.9716858223999998,786
112033,210411,265151,4.8909293944,-8.1786676468,1.9716858223999998,787
112208,210406,265184,4.8909293944,-8.1786676468,1.9716858223999998,788
112362,210418,265212,4.8909293944,-8.1786676468,1.9716858223999998,789
112509,210459,265195,4.8909293944,-8.1786676468,1.9716858223999998,790
112649,210498,265188,4.8909293944,-8.1786676468,1.9716858223999998,791
112816,210506,265229,4.8909293944,-8.1786676468,1.9716858223999998,792
113004,210591,265229,4.8909293944,-8.1786676468,1.9716858223999998,793
112926,210536,265196,4.8909293944,-8.1786676468,1.9716858223999998,794
112112,210440,265158,4.8909293944,-8.1786676468,1.9716858223999998,795
110955,210231,265024,4.8909293944,-8.1786676468,1.9716858223999998,796
110118,210114,264945,4.8909293944,-8.1786676468,1.9716858223999998,797
109740,210066,264941,4.8909293944,-8.1786676468,1.9716858223999998,798
109596,209996,264941,4.8909293944,-8.1786676468,1.9716858223999998,799
109581,210004,264963,4.8909293944,-8.1786676468,1.9716858223999998,800
109713,210012,264936,4.8909293944,-8.1786676468,1.9716858223999998,801
109871,210051,265026,4.8909293944,-8.1786676468,1.9716858223999998,802
109983,210034,264919,4.8909293944,-8.1786676468,1.9716858223999998,803
110027,210084,265007,4.8909293944,-8.1786676468,1.9716858223999998,804
110105,210073,265028,4.8909293944,-8.1786676468,1.9716858223999998,805
110238,210112,265030,4.8909293944,-8.1786676468,1.9716858223999998,806
110400,210123,265064,4.8909293944,-8.1786676468,1.9716858223999998,807
110589,210138,265110,4.8909293944,-8.1786676468,1.9716858223999998,808
110805,210229,265127,4.8909293944,-8.1786676468,1.9716858223999998,809
111009,210255,265163,4.8909293944,-8.1786676468,1.9716858223999998,810
109399,209954,265023,5.0333023391000005,-8.3078800672,1.9058832009,811
109483,209948,265057,5.0333023391000005,-8.3078800672,1.9058832009,812
109839,209987,265095,5.0333023391000005,-8.3078800672,1.9058832009,813
109886,210058,265101,5.0333023391000005,-8.3078800672,1.9058832009,814
110208,210038,265080,5.0333023391000005,-8.3078800672,1.9058832009,815
110417,210097,265162,5.0333023391000005,-8.3078800672,1.9058832009,816
110596,210169,265131,5.0333023391000005,-8.3078800672,1.9058832009,817
110891,210172,265155,5.0333023391000005,-8.3078800672,1.9058832009,818
111091,210218,265218,5.0333023391000005,-8.3078800672,1.9058832009,819
111363,210282,265242,5.0333023391000005,-8.3078800672,1.9058832009,820
111606,210300,265237,5.0333023391000005,-8.3078800672,1.9058832009,821
111789,210377,265250,5.0333023391000005,-8.3078800672,1.9058832009,822
112006,210387,265235,5.0333023391000005,-8.3078800672,1.9058832009,823
111858,210334,265299,5.0333023391000005,-8.3078800672,1.9058832009,824
110998,210251,265205,5.0333023391000005,-8.3078800672,1.9058832009,825
110001,210079,265071,5.0333023391000005,-8.3078800672,1.9058832009,826
109436,209998,265040,5.0333023391000005,-8.3078800672,1.9058832009,827
109274,209944,265048,5.0333023391000005,-8.3078800672,1.9058832009,828
109281,209942,265011,5.0333023391000005,-8.3078800672,1.9058832009,829
109435,209959,265076,5.0333023391000005,-8.3078800672,1.9058832009,830
109662,210001,265058,5.0333023391000005,-8.3078800672,1.9058832009,831
109876,210004,265119,5.0333023391000005,-8.3078800672,1.9058832009,832
110029,210067,265130,5.0333023391000005,-8.3078800672,1.9058832009,833
110144,210056,265165,5.0333023391000005,-8.3078800672,1.9058832009,834
110240,210085,265140,5.0333023391000005,-8.3078800672,1.9058832009,835
110473,210129,265181,5.0333023391000005,-8.3078800672,1.9058832009,836
110666,210147,265195,5.0333023391000005,-8.3078800672,1.9058832009,837
110927,210214,265188,5.0333023391000005,-8.3078800672,1.9058832009,838
111170,210239,265248,5.0333023391000005,-8.3078800672,1.9058832009,839
111429,210293,265256,5.0333023391000005,-8.3078800672,1.9058832009,840
111642,210336,265253,5.0333023391000005,-8.3078800672,1.9058832009,841
111871,210370,265306,5.0333023391000005,-8.3078800672,1.9058832009,842
112085,210416,265312,5.0333023391000005,-8.3078800672,1.9058832009,843
112322,210491,265365,5.0333023391000005,-8.3078800672,1.9058832009,844
112526,210496,265364,5.0333023391000005,-8.3078800672,1.9058832009,845
112587,210470,265398,5.0333023391000005,-8.3078800672,1.9058832009,846
112011,210401,265316,5.0333023391000005,-8.3078800672,1.9058832009,847
110996,210223,265145,5.0333023391000005,-8.3078800672,1.9058832009,848
110285,210131,265117,5.0333023391000005,-8.3078800672,1.9058832009,849
110107,210083,265102,5.0333023391000005,-8.3078800672,1.9058832009,850
109989,210083,265102,5.0333023391000005,-8.3078800672,1.9058832009,851
110092,210093,265098,5.0333023391000005,-8.3078800672,1.9058832009,852
113307,210646,265365,4.8430729424,-8.1272219609,2.0434705004000002,853
113579,210662,265450,4.8430729424,-8.1272219609,2.0434705004000002,854
113854,210712,265411,4.8430729424,-8.1272219609,2.0434705004000002,855
113915,210743,265429,4.8430729424,-8.1272219609,2.0434705004000002,856
113633,210639,265337,4.8430729424,-8.1272219609,2.0434705004000002,857
112640,210539,265267,4.8430729424,-8.1272219609,2.0434705004000002,858
111789,210443,265211,4.8430729424,-8.1272219609,2.0434705004000002,859
111289,210377,265166,4.8430729424,-8.1272219609,2.0434705004000002,860
111131,210344,265128,4.8430729424,-8.1272219609,2.0434705004000002,861
111085,210378,265132,4.8430729424,-8.1272219609,2.0434705004000002,862
111355,210397,265147,4.8430729424,-8.1272219609,2.0434705004000002,863
111573,210389,265220,4.8430729424,-8.1272219609,2.0434705004000002,864
111830,210468,265244,4.8430729424,-8.1272219609,2.0434705004000002,865
111982,210455,265285,4.8430729424,-8.1272219609,2.0434705004000002,866
112042,210489,265250,4.8430729424,-8.1272219609,2.0434705004000002,867
112166,210497,265304,4.8430729424,-8.1272219609,2.0434705004000002,868
112326,210523,265292,4.8430729424,-8.1272219609,2.0434705004000002,869
112530,210550,265327,4.8430729424,-8.1272219609,2.0434705004000002,870
112748,210556,265356,4.8430729424,-8.1272219609,2.0434705004000002,871
112968,210618,265376,4.8430729424,-8.1272219609,2.0434705004000002,872
113215,210699,265408,4.8430729424,-8.1272219609,2.0434705004000002,873
113426,210730,265379,4.8430729424,-8.1272219609,2.0434705004000002,874
113655,210753,265419,4.8430729424,-8.1272219609,2.0434705004000002,875
113851,210822,265425,4.8430729424,-8.1272219609,2.0434705004000002,876
114082,210829,265426,4.8430729424,-8.1272219609,2.0434705004000002,877
114322,210866,265502,4.8430729424,-8.1272219609,2.0434705004000002,878
114514,210876,265549,4.8430729424,-8.1272219609,2.0434705004000002,879
114421,210859,265504,4.8430729424,-8.1272219609,2.0434705004000002,880
113580,210763,265413,4.8430729424,-8.1272219609,2.0434705004000002,881
112483,210627,265316,4.8430729424,-8.1272219609,2.0434705004000002,882
111760,210515,265267,4.8430729424,-8.1272219609,2.0434705004000002,883
111459,210478,265270,4.8430729424,-8.1272219609,2.0434705004000002,884
111444,210494,265242,4.8430729424,-8.1272219609,2.0434705004000002,885
111568,210516,265251,4.8430729424,-8.1272219609,2.0434705004000002,886
111804,210523,265273,4.8430729424,-8.1272219609,2.0434705004000002,887
112066,210558,265312,4.8430729424,-8.1272219609,2.0434705004000002,888
112065,210604,265305,4.8430729424,-8.1272219609,2.0434705004000002,889
112117,210574,265305,4.8430729424,-8.1272219609,2.0434705004000002,890
112167,210587,265352,4.8430729424,-8.1272219609,2.0434705004000002,891
112266,210582,265295,4.8430729424,-8.1272219609,2.0434705004000002,892
112399,210572,265351,4.8430729424,-8.1272219609,2.0434705004000002,893
112570,210677,265359,4.8430729424,-8.1272219609,2.0434705004000002,894
113238,210755,265489,4.782055966100001,-8.25523797,1.9812571127999998,895
113476,210781,265440,4.782055966100001,-8.25523797,1.9812571127999998,896
113606,210849,265456,4.782055966100001,-8.25523797,1.9812571127999998,897
113847,210854,265448,4.782055966100001,-8.25523797,1.9812571127999998,898
113988,210898,265476,4.782055966100001,-8.25523797,1.9812571127999998,899
113742,210893,265475,4.782055966100001,-8.25523797,1.9812571127999998,900
112717,210709,265248,4.782055966100001,-8.25523797,1.9812571127999998,901
111450,210513,265279,4.782055966100001,-8.25523797,1.9812571127999998,902
110728,210424,265191,4.782055966100001,-8.25523797,1.9812571127999998,903
110447,210391,265157,4.782055966100001,-8.25523797,1.9812571127999998,904
110375,210365,265131,4.782055966100001,-8.25523797,1.9812571127999998,905
110461,210395,265153,4.782055966100001,-8.25523797,1.9812571127999998,906
110639,210379,265186,4.782055966100001,-8.25523797,1.9812571127999998,907
110849,210416,265244,4.782055966100001,-8.25523797,1.9812571127999998,908
110964,210418,265216,4.782055966100001,-8.25523797,1.9812571127999998,909
111002,210403,265236,4.782055966100001,-8.25523797,1.9812571127999998,910
111111,210430,265232,4.782055966100001,-8.25523797,1.9812571127999998,911
111238,210451,265253,4.782055966100001,-8.25523797,1.9812571127999998,912
111387,210504,265261,4.782055966100001,-8.25523797,1.9812571127999998,913
111596,210538,265279,4.782055966100001,-8.25523797,1.9812571127999998,914
111787,210553,265318,4.782055966100001,-8.25523797,1.9812571127999998,915
111994,210564,265318,4.782055966100001,-8.25523797,1.9812571127999998,916
112188,210642,265323,4.782055966100001,-8.25523797,1.9812571127999998,917
112336,210667,265402,4.782055966100001,-8.25523797,1.9812571127999998,918
112521,210666,265393,4.782055966100001,-8.25523797,1.9812571127999998,919
112697,210710,265331,4.782055966100001,-8.25523797,1.9812571127999998,920
112906,210743,265455,4.782055966100001,-8.25523797,1.9812571127999998,921
113098,210749,265417,4.782055966100001,-8.25523797,1.9812571127999998,922
113027,210783,265421,4.782055966100001,-8.25523797,1.9812571127999998,923
112156,210618,265339,4.782055966100001,-8.25523797,1.9812571127999998,924
110898,210422,265204,4.782055966100001,-8.25523797,1.9812571127999998,925
110058,210338,265157,4.782055966100001,-8.25523797,1.9812571127999998,926
109704,210281,265137,4.782055966100001,-8.25523797,1.9812571127999998,927
109682,210239,265133,4.782055966100001,-8.25523797,1.9812571127999998,928
109626,210222,265139,4.782055966100001,-8.25523797,1.9812571127999998,929
109814,210208,265121,4.782055966100001,-8.25523797,1.9812571127999998,930
110019,210264,265191,4.782055966100001,-8.25523797,1.9812571127999998,931
110184,210303,265211,4.782055966100001,-8.25523797,1.9812571127999998,932
110288,210306,265188,4.782055966100001,-8.25523797,1.9812571127999998,933
110379,210306,265179,4.782055966100001,-8.25523797,1.9812571127999998,934
110463,210356,265269,4.782055966100001,-8.25523797,1.9812571127999998,935
110674,210340,265236,4.782055966100001,-8.25523797,1.9812571127999998,936
111583,210497,265325,4.9471607255,-8.3593257531,1.9908284031999999,937
111785,210532,265294,4.9471607255,-8.3593257531,1.9908284031999999,938
112010,210575,265374,4.9471607255,-8.3593257531,1.9908284031999999,939
112105,210638,265342,4.9471607255,-8.3593257531,1.9908284031999999,940
112275,210672,265385,4.9471607255,-8.3593257531,1.9908284031999999,941
112573,210677,265406,4.9471607255,-8.3593257531,1.9908284031999999,942
112675,210709,265450,4.9471607255,-8.3593257531,1.9908284031999999,943
112717,210758,265437,4.9471607255,-8.3593257531,1.9908284031999999,944
112116,210615,265355,4.9471607255,-8.3593257531,1.9908284031999999,945
110908,210483,265269,4.9471607255,-8.3593257531,1.9908284031999999,946
110078,210321,265165,4.9471607255,-8.3593257531,1.9908284031999999,947
109736,210311,265153,4.9471607255,-8.3593257531,1.9908284031999999,948
109697,210339,265182,4.9471607255,-8.3593257531,1.9908284031999999,949
109635,210334,265140,4.9471607255,-8.3593257531,1.9908284031999999,950
109831,210299,265194,4.9471607255,-8.3593257531,1.9908284031999999,951
110168,210386,265221,4.9471607255,-8.3593257531,1.9908284031999999,952
110291,210397,265306,4.9471607255,-8.3593257531,1.9908284031999999,953
110521,210384,265254,4.9471607255,-8.3593257531,1.9908284031999999,954
110478,210443,265248,4.9471607255,-8.3593257531,1.9908284031999999,955
110640,210492,265257,4.9471607255,-8.3593257531,1.9908284031999999,956
110811,210490,265315,4.9471607255,-8.3593257531,1.9908284031999999,957
110997,210528,265383,4.9471607255,-8.3593257531,1.9908284031999999,958
111201,210551,265301,4.9471607255,-8.3593257531,1.9908284031999999,959
111390,210574,265386,4.9471607255,-8.3593257531,1.9908284031999999,960
111564,210583,265357,4.9471607255,-8.3593257531,1.9908284031999999,961
111672,210608,265392,4.9471607255,-8.3593257531,1.9908284031999999,962
111840,210653,265384,4.9471607255,-8.3593257531,1.9908284031999999,963
112089,210693,265397,4.9471607255,-8.3593257531,1.9908284031999999,964
112324,210728,265445,4.9471607255,-8.3593257531,1.9908284031999999,965
112352,210734,265388,4.9471607255,-8.3593257531,1.9908284031999999,966
111617,210619,265371,4.9471607255,-8.3593257531,1.9908284031999999,967
110429,210434,265232,4.9471607255,-8.3593257531,1.9908284031999999,968
109680,210386,265195,4.9471607255,-8.3593257531,1.9908284031999999,969
109428,210322,265144,4.9471607255,-8.3593257531,1.9908284031999999,970
109437,210388,265170,4.9471607255,-8.3593257531,1.9908284031999999,971
109587,210350,265200,4.9471607255,-8.3593257531,1.9908284031999999,972
109859,210376,265259,4.9471607255,-8.3593257531,1.9908284031999999,973
110120,210430,265276,4.9471607255,-8.3593257531,1.9908284031999999,974
110344,210467,265336,4.9471607255,-8.3593257531,1.9908284031999999,975
110460,210458,265300,4.9471607255,-8.3593257531,1.9908284031999999,976
110563,210502,265306,4.9471607255,-8.3593257531,1.9908284031999999,977
110735,210490,265340,4.9471607255,-8.3593257531,1.9908284031999999,978
112343,210855,265548,4.7772703209000005,-8.279166196,1.9764714676,979
112574,210848,265615,4.7772703209000005,-8.279166196,1.9764714676,980
112850,210921,265525,4.7772703209000005,-8.279166196,1.9764714676,981
112966,210916,265558,4.7772703209000005,-8.279166196,1.9764714676,982
113290,210951,265563,4.7772703209000005,-8.279166196,1.9764714676,983
113505,210979,265636,4.7772703209000005,-8.279166196,1.9764714676,984
113677,211055,265535,4.7772703209000005,-8.279166196,1.9764714676,985
113784,211030,265606,4.7772703209000005,-8.279166196,1.9764714676,986
113334,210967,265560,4.7772703209000005,-8.279166196,1.9764714676,987
112244,210801,265483,4.7772703209000005,-8.279166196,1.9764714676,988
111330,210665,265394,4.7772703209000005,-8.279166196,1.9764714676,989
110972,210651,265322,4.7772703209000005,-8.279166196,1.9764714676,990
110967,210626,265350,4.7772703209000005,-8.279166196,1.9764714676,991
110997,210590,265337,4.7772703209000005,-8.279166196,1.9764714676,992
111154,210662,265404,4.7772703209000005,-8.279166196,1.9764714676,993
111466,210681,265393,4.7772703209000005,-8.279166196,1.9764714676,994
111692,210691,265403,4.7772703209000005,-8.279166196,1.9764714676,995
111819,210706,265426,4.7772703209000005,-8.279166196,1.9764714676,996
111961,210730,265398,4.7772703209000005,-8.279166196,1.9764714676,997
112088,210712,265478,4.7772703209000005,-8.279166196,1.9764714676,998
112264,210757,265449,4.7772703209000005,-8.279166196,1.9764714676,999
112448,210821,265548,4.7772703209000005,-8.279166196,1.9764714676,1000
112670,210796,265489,4.7772703209000005,-8.279166196,1.9764714676,1001
112882,210830,265509,4.7772703209000005,-8.279166196,1.9764714676,1002
113082,210937,265536,4.7772703209000005,-8.279166196,1.9764714676,1003
113291,210912,265564,4.7772703209000005,-8.279166196,1.9764714676,1004
113464,210922,265578,4.7772703209000005,-8.279166196,1.9764714676,1005
113681,210994,265538,4.7772703209000005,-8.279166196,1.9764714676,1006
113865,210997,265654,4.7772703209000005,-8.279166196,1.9764714676,1007
113806,210995,265581,4.7772703209000005,-8.279166196,1.9764714676,1008
112970,210868,265478,4.7772703209000005,-8.279166196,1.9764714676,1009
111895,210708,265434,4.7772703209000005,-8.279166196,1.9764714676,1010
111202,210604,265331,4.7772703209000005,-8.279166196,1.9764714676,1011
110929,210609,265363,4.7772703209000005,-8.279166196,1.9764714676,1012
110844,210517,265284,4.7772703209000005,-8.279166196,1.9764714676,1013
110918,210572,265309,4.7772703209000005,-8.279166196,1.9764714676,1014
111118,210592,265357,4.7772703209000005,-8.279166196,1.9764714676,1015
111343,210625,265340,4.7772703209000005,-8.279166196,1.9764714676,1016
111481,210621,265405,4.7772703209000005,-8.279166196,1.9764714676,1017
111624,210610,265386,4.7772703209000005,-8.279166196,1.9764714676,1018
111740,210664,265429,4.7772703209000005,-8.279166196,1.9764714676,1019
111851,210643,265441,4.7772703209000005,-8.279166196,1.9764714676,1020
113446,210791,265507,4.7964129017,-8.2456666796,2.0003996936,1021
113644,210828,265569,4.7964129017,-8.2456666796,2.0003996936,1022
113913,210852,265574,4.7964129017,-8.2456666796,2.0003996936,1023
114015,210851,265555,4.7964129017,-8.2456666796,2.0003996936,1024
113947,210821,265527,4.7964129017,-8.2456666796,2.0003996936,1025
113191,210734,265470,4.7964129017,-8.2456666796,2.0003996936,1026
112031,210588,265395,4.7964129017,-8.2456666796,2.0003996936,1027
111494,210488,265290,4.7964129017,-8.2456666796,2.0003996936,1028
111207,210407,265273,4.7964129017,-8.2456666796,2.0003996936,1029
111035,210378,265274,4.7964129017,-8.2456666796,2.0003996936,1030
111152,210455,265270,4.7964129017,-8.2456666796,2.0003996936,1031
111399,210440,265291,4.7964129017,-8.2456666796,2.0003996936,1032
111598,210450,265298,4.7964129017,-8.2456666796,2.0003996936,1033
111709,210465,265265,4.7964129017,-8.2456666796,2.0003996936,1034
111879,210466,265308,4.7964129017,-8.2456666796,2.0003996936,1035
111912,210491,265310,4.7964129017,-8.2456666796,2.0003996936,1036
111965,210519,265321,4.7964129017,-8.2456666796,2.0003996936,1037
112231,210540,265351,4.7964129017,-8.2456666796,2.0003996936,1038
112428,210552,265318,4.7964129017,-8.2456666796,2.0003996936,1039
112634,210579,265358,4.7964129017,-8.2456666796,2.0003996936,1040
112909,210634,265379,4.7964129017,-8.2456666796,2.0003996936,1041
113030,210705,265407,5.0285166938999994,-8.3198441802,2.0386848552,1042
113176,210693,265441,5.0285166938999994,-8.3198441802,2.0386848552,1043
113372,210709,265472,5.0285166938999994,-8.3198441802,2.0386848552,1044
113639,210763,265407,5.0285166938999994,-8.3198441802,2.0386848552,1045
113754,210809,265449,5.0285166938999994,-8.3198441802,2.0386848552,1046
113992,210887,265502,5.0285166938999994,-8.3198441802,2.0386848552,1047
114146,210875,265478,5.0285166938999994,-8.3198441802,2.0386848552,1048
114026,210832,265502,5.0285166938999994,-8.3198441802,2.0386848552,1049
113119,210672,265357,5.0285166938999994,-8.3198441802,2.0386848552,1050
111984,210513,265269,5.0285166938999994,-8.3198441802,2.0386848552,1051
111232,210362,265176,5.0285166938999994,-8.3198441802,2.0386848552,1052
110840,210301,265152,5.0285166938999994,-8.3198441802,2.0386848552,1053
110735,210326,265163,5.012963347,-8.1511501869,2.0291135648000003,1054
110694,210299,265128,5.012963347,-8.1511501869,2.0291135648000003,1055
110821,210345,265155,5.012963347,-8.1511501869,2.0291135648000003,1056
110974,210328,265158,5.012963347,-8.1511501869,2.0291135648000003,1057
111082,210373,265146,5.012963347,-8.1511501869,2.0291135648000003,1058
111150,210359,265186,5.012963347,-8.1511501869,2.0291135648000003,1059
111227,210382,265174,5.012963347,-8.1511501869,2.0291135648000003,1060
111334,210365,265236,5.012963347,-8.1511501869,2.0291135648000003,1061
111480,210410,265221,5.012963347,-8.1511501869,2.0291135648000003,1062
111665,210464,265231,5.012963347,-8.1511501869,2.0291135648000003,1063
111859,210512,265259,5.012963347,-8.1511501869,2.0291135648000003,1064
112061,210530,265293,5.012963347,-8.1511501869,2.0291135648000003,1065
112222,210520,265340,5.012963347,-8.1511501869,2.0291135648000003,1066
112421,210541,265297,5.012963347,-8.1511501869,2.0291135648000003,1067
112630,210589,265328,5.012963347,-8.1511501869,2.0291135648000003,1068
112805,210621,265335,5.012963347,-8.1511501869,2.0291135648000003,1069
112960,210668,265320,5.012963347,-8.1511501869,2.0291135648000003,1070
113165,210692,265375,5.012963347,-8.1511501869,2.0291135648000003,1071
113340,210727,265392,5.012963347,-8.1511501869,2.0291135648000003,1072
113097,210678,265314,5.012963347,-8.1511501869,2.0291135648000003,1073
112118,210514,265240,5.012963347,-8.1511501869,2.0291135648000003,1074
110935,210336,265088,5.012963347,-8.1511501869,2.0291135648000003,1075
110183,210214,265062,5.012963347,-8.1511501869,2.0291135648000003,1076
109847,210177,265069,5.012963347,-8.1511501869,2.0291135648000003,1077
109708,210120,265044,5.012963347,-8.1511501869,2.0291135648000003,1078
109728,210142,264992,5.012963347,-8.1511501869,2.0291135648000003,1079
109873,210186,265038,5.012963347,-8.1511501869,2.0291135648000003,1080
110040,210189,265074,5.012963347,-8.1511501869,2.0291135648000003,1081
110128,210181,265098,5.012963347,-8.1511501869,2.0291135648000003,1082
110185,210206,265066,5.012963347,-8.1511501869,2.0291135648000003,1083
110296,210229,265061,5.012963347,-8.1511501869,2.0291135648000003,1084
110419,210259,265096,5.012963347,-8.1511501869,2.0291135648000003,1085
110602,210273,265135,5.012963347,-8.1511501869,2.0291135648000003,1086
110791,210312,265160,5.012963347,-8.1511501869,2.0291135648000003,1087
110993,210341,265181,5.012963347,-8.1511501869,2.0291135648000003,1088
111230,210391,265146,5.012963347,-8.1511501869,2.0291135648000003,1089
111408,210427,265260,5.012963347,-8.1511501869,2.0291135648000003,1090
111639,210416,265270,5.012963347,-8.1511501869,2.0291135648000003,1091
111797,210453,265247,5.012963347,-8.1511501869,2.0291135648000003,1092
112006,210491,265287,5.012963347,-8.1511501869,2.0291135648000003,1093
112268,210563,265353,5.012963347,-8.1511501869,2.0291135648000003,1094
112442,210599,265316,5.012963347,-8.1511501869,2.0291135648000003,1095
109937,210170,264998,4.9064827413000005,-8.2695949056,2.0709879603,1096
109475,210090,265033,4.9064827413000005,-8.2695949056,2.0709879603,1097
109258,210064,264999,4.9064827413000005,-8.2695949056,2.0709879603,1098
109345,210059,265022,4.9064827413000005,-8.2695949056,2.0709879603,1099
109491,210066,264997,4.9064827413000005,-8.2695949056,2.0709879603,1100
109698,210114,265007,4.9064827413000005,-8.2695949056,2.0709879603,1101
109838,210114,265047,4.9064827413000005,-8.2695949056,2.0709879603,1102
109829,210129,265046,4.9064827413000005,-8.2695949056,2.0709879603,1103
109916,210129,265101,4.9064827413000005,-8.2695949056,2.0709879603,1104
110014,210186,265124,4.9064827413000005,-8.2695949056,2.0709879603,1105
110159,210237,265097,4.9064827413000005,-8.2695949056,2.0709879603,1106
110331,210203,265122,4.9064827413000005,-8.2695949056,2.0709879603,1107
110518,210198,265181,4.9064827413000005,-8.2695949056,2.0709879603,1108
110702,210251,265149,4.9064827413000005,-8.2695949056,2.0709879603,1109
110930,210293,265227,4.9064827413000005,-8.2695949056,2.0709879603,1110
111109,210330,265225,4.9064827413000005,-8.2695949056,2.0709879603,1111
111269,210357,265219,4.9064827413000005,-8.2695949056,2.0709879603,1112
111426,210399,265237,4.9064827413000005,-8.2695949056,2.0709879603,1113
111589,210414,265238,4.9064827413000005,-8.2695949056,2.0709879603,1114
111795,210469,265250,4.9064827413000005,-8.2695949056,2.0709879603,1115
111760,210454,265253,4.9064827413000005,-8.2695949056,2.0709879603,1116
111040,210323,265156,4.9064827413000005,-8.2695949056,2.0709879603,1117
109900,210153,265077,4.9064827413000005,-8.2695949056,2.0709879603,1118
109157,209986,264973,4.9064827413000005,-8.2695949056,2.0709879603,1119
108769,209955,264942,4.9064827413000005,-8.2695949056,2.0709879603,1120
108706,209945,264902,4.9064827413000005,-8.2695949056,2.0709879603,1121
108801,209906,264985,4.9064827413000005,-8.2695949056,2.0709879603,1122
108987,209963,264958,4.9064827413000005,-8.2695949056,2.0709879603,1123
109192,209988,265033,4.9064827413000005,-8.2695949056,2.0709879603,1124
109305,209976,265026,4.9064827413000005,-8.2695949056,2.0709879603,1125
109378,209960,265027,4.9064827413000005,-8.2695949056,2.0709879603,1126
109486,210000,265001,4.9064827413000005,-8.2695949056,2.0709879603,1127
109611,210037,265003,4.9064827413000005,-8.2695949056,2.0709879603,1128
109760,210079,264986,4.9064827413000005,-8.2695949056,2.0709879603,1129
109989,210065,265070,4.9064827413000005,-8.2695949056,2.0709879603,1130
110192,210163,265081,4.9064827413000005,-8.2695949056,2.0709879603,1131
110395,210177,265111,4.9064827413000005,-8.2695949056,2.0709879603,1132
110624,210203,265121,4.9064827413000005,-8.2695949056,2.0709879603,1133
110809,210238,265067,4.9064827413000005,-8.2695949056,2.0709879603,1134
110995,210238,265139,4.9064827413000005,-8.2695949056,2.0709879603,1135
111195,210318,265152,4.9064827413000005,-8.2695949056,2.0709879603,1136
111417,210311,265189,4.9064827413000005,-8.2695949056,2.0709879603,1137
109958,210031,265021,4.8861437492,-8.1990066389,1.91425808,1138
110299,210093,265052,4.8861437492,-8.1990066389,1.91425808,1139
110444,210123,265083,4.8861437492,-8.1990066389,1.91425808,1140
110690,210164,265134,4.8861437492,-8.1990066389,1.91425808,1141
110976,210222,265154,4.8861437492,-8.1990066389,1.91425808,1142
111134,210265,265173,4.8861437492,-8.1990066389,1.91425808,1143
111351,210274,265187,4.8861437492,-8.1990066389,1.91425808,1144
111658,210317,265148,4.8861437492,-8.1990066389,1.91425808,1145
111940,210374,265206,4.8861437492,-8.1990066389,1.91425808,1146
111985,210378,265204,4.8861437492,-8.1990066389,1.91425808,1147
111267,210274,265125,4.8861437492,-8.1990066389,1.91425808,1148
110229,210089,265047,4.8861437492,-8.1990066389,1.91425808,1149
109532,209989,264996,4.8861437492,-8.1990066389,1.91425808,1150
109247,209998,264923,4.8861437492,-8.1990066389,1.91425808,1151
109221,209906,264990,4.8861437492,-8.1990066389,1.91425808,1152
109272,209944,264960,4.8861437492,-8.1990066389,1.91425808,1153
109488,209942,264997,4.8861437492,-8.1990066389,1.91425808,1154
109778,209980,265028,4.8861437492,-8.1990066389,1.91425808,1155
109957,210008,264983,4.8861437492,-8.1990066389,1.91425808,1156
110130,210033,265065,4.8861437492,-8.1990066389,1.91425808,1157
110192,210071,265040,4.8861437492,-8.1990066389,1.91425808,1158
110334,210089,265013,4.8861437492,-8.1990066389,1.91425808,1159
110510,210126,265076,4.8861437492,-8.1990066389,1.91425808,1160
110743,210168,265123,4.8861437492,-8.1990066389,1.91425808,1161
110970,210219,265087,4.8861437492,-8.1990066389,1.91425808,1162
111248,210238,265114,4.8861437492,-8.1990066389,1.91425808,1163
111479,210272,265165,4.8861437492,-8.1990066389,1.91425808,1164
111724,210319,265215,4.8861437492,-8.1990066389,1.91425808,1165
112044,210315,265188,4.8861437492,-8.1990066389,1.91425808,1166
112154,210378,265281,4.8861437492,-8.1990066389,1.91425808,1167
112389,210449,265258,4.8861437492,-8.1990066389,1.91425808,1168
112635,210453,265285,4.8861437492,-8.1990066389,1.91425808,1169
112689,210496,265257,4.8861437492,-8.1990066389,1.91425808,1170
112088,210335,265190,4.8861437492,-8.1990066389,1.91425808,1171
111090,210189,265112,4.8861437492,-8.1990066389,1.91425808,1172
110363,210135,264994,4.8861437492,-8.1990066389,1.91425808,1173
110116,210060,265034,4.8861437492,-8.1990066389,1.91425808,1174
110081,210038,265038,4.8861437492,-8.1990066389,1.91425808,1175
110176,210071,265011,4.8861437492,-8.1990066389,1.91425808,1176
110386,210093,265031,4.8861437492,-8.1990066389,1.91425808,1177
110612,210118,265041,4.8861437492,-8.1990066389,1.91425808,1178
110732,210159,265071,4.8861437492,-8.1990066389,1.91425808,1179
109730,209997,265076,4.7676990305,-8.2468630909,1.9429719511999999,1180
109969,210011,265079,4.7676990305,-8.2468630909,1.9429719511999999,1181
110079,210014,265090,4.7676990305,-8.2468630909,1.9429719511999999,1182
110176,210051,265113,4.7676990305,-8.2468630909,1.9429719511999999,1183
110347,210068,265120,4.7676990305,-8.2468630909,1.9429719511999999,1184
110658,210118,265146,4.7676990305,-8.2468630909,1.9429719511999999,1185
110809,210197,265204,4.7676990305,-8.2468630909,1.9429719511999999,1186
111063,210189,265190,4.7676990305,-8.2468630909,1.9429719511999999,1187
111354,210245,265182,4.7676990305,-8.2468630909,1.9429719511999999,1188
111531,210254,265278,4.7676990305,-8.2468630909,1.9429719511999999,1189
111734,210305,265256,4.7676990305,-8.2468630909,1.9429719511999999,1190
111989,210341,265276,4.7676990305,-8.2468630909,1.9429719511999999,1191
112271,210423,265346,4.7676990305,-8.2468630909,1.9429719511999999,1192
112456,210401,265355,4.7676990305,-8.2468630909,1.9429719511999999,1193
112596,210436,265385,4.7676990305,-8.2468630909,1.9429719511999999,1194
112847,210489,265350,4.7676990305,-8.2468630909,1.9429719511999999,1195
112632,210419,265309,4.7676990305,-8.2468630909,1.9429719511999999,1196
111499,210287,265186,4.7676990305,-8.2468630909,1.9429719511999999,1197
110586,210090,265126,4.7676990305,-8.2468630909,1.9429719511999999,1198
110023,210085,265112,4.7676990305,-8.2468630909,1.9429719511999999,1199
109818,210018,265033,4.7676990305,-8.2468630909,1.9429719511999999,1200
109837,210016,265077,4.7676990305,-8.2468630909,1.9429719511999999,1201
109950,210008,265113,4.7676990305,-8.2468630909,1.9429719511999999,1202
110133,210036,265101,4.7676990305,-8.2468630909,1.9429719511999999,1203
110353,210084,265121,4.7676990305,-8.2468630909,1.9429719511999999,1204
110511,210104,265161,4.7676990305,-8.2468630909,1.9429719511999999,1205
110627,210126,265149,4.7676990305,-8.2468630909,1.9429719511999999,1206
110739,210130,265171,4.7676990305,-8.2468630909,1.9429719511999999,1207
110925,210156,265212,4.7676990305,-8.2468630909,1.9429719511999999,1208
111120,210208,265177,4.7676990305,-8.2468630909,1.9429719511999999,1209
111304,210230,265201,4.7676990305,-8.2468630909,1.9429719511999999,1210
111562,210291,265258,4.7676990305,-8.2468630909,1.9429719511999999,1211
111790,210300,265238,4.7676990305,-8.2468630909,1.9429719511999999,1212
112008,210302,265288,4.7676990305,-8.2468630909,1.9429719511999999,1213
112230,210399,265347,4.7676990305,-8.2468630909,1.9429719511999999,1214
112459,210417,265343,4.7676990305,-8.2468630909,1.9429719511999999,1215
112653,210436,265385,4.7676990305,-8.2468630909,1.9429719511999999,1216
112871,210506,265342,4.7676990305,-8.2468630909,1.9429719511999999,1217
113081,210548,265420,4.7676990305,-8.2468630909,1.9429719511999999,1218
113286,210588,265431,4.7676990305,-8.2468630909,1.9429719511999999,1219
113408,210569,265452,4.7676990305,-8.2468630909,1.9429719511999999,1220
112964,210497,265353,4.7676990305,-8.2468630909,1.9429719511999999,1221
112184,210355,265310,4.881358104,-8.1427753078,2.0003996936,1222
112371,210393,265294,4.881358104,-8.1427753078,2.0003996936,1223
112546,210454,265313,4.881358104,-8.1427753078,2.0003996936,1224
112729,210467,265337,4.881358104,-8.1427753078,2.0003996936,1225
112896,210469,265318,4.881358104,-8.1427753078,2.0003996936,1226
113095,210516,265380,4.881358104,-8.1427753078,2.0003996936,1227
113087,210526,265322,4.881358104,-8.1427753078,2.0003996936,1228
112381,210387,265287,4.881358104,-8.1427753078,2.0003996936,1229
111161,210199,265175,4.881358104,-8.1427753078,2.0003996936,1230
110294,210080,265092,4.881358104,-8.1427753078,2.0003996936,1231
109787,210002,264990,4.881358104,-8.1427753078,2.0003996936,1232
109580,209950,264989,4.881358104,-8.1427753078,2.0003996936,1233
109509,209929,265069,4.881358104,-8.1427753078,2.0003996936,1234
109598,209960,265054,4.881358104,-8.1427753078,2.0003996936,1235
109766,209971,265059,4.881358104,-8.1427753078,2.0003996936,1236
109948,209984,265071,4.881358104,-8.1427753078,2.0003996936,1237
110025,210041,265031,4.881358104,-8.1427753078,2.0003996936,1238
110098,210049,265087,4.881358104,-8.1427753078,2.0003996936,1239
110205,210072,265051,4.881358104,-8.1427753078,2.0003996936,1240
110312,210053,265126,4.881358104,-8.1427753078,2.0003996936,1241
110486,210079,265081,4.881358104,-8.1427753078,2.0003996936,1242
110680,210099,265140,4.881358104,-8.1427753078,2.0003996936,1243
110894,210186,265138,4.881358104,-8.1427753078,2.0003996936,1244
111110,210220,265208,4.881358104,-8.1427753078,2.0003996936,1245
111291,210255,265268,4.881358104,-8.1427753078,2.0003996936,1246
111585,210268,265264,4.881358104,-8.1427753078,2.0003996936,1247
111682,210281,265228,4.881358104,-8.1427753078,2.0003996936,1248
111841,210326,265234,4.881358104,-8.1427753078,2.0003996936,1249
112035,210372,265321,4.881358104,-8.1427753078,2.0003996936,1250
112242,210437,265318,4.881358104,-8.1427753078,2.0003996936,1251
112328,210400,265319,4.881358104,-8.1427753078,2.0003996936,1252
111888,210325,265228,4.881358104,-8.1427753078,2.0003996936,1253
110727,210137,265151,4.881358104,-8.1427753078,2.0003996936,1254
109653,210034,265059,4.881358104,-8.1427753078,2.0003996936,1255
109087,209910,265019,4.881358104,-8.1427753078,2.0003996936,1256
108854,209873,265028,4.881358104,-8.1427753078,2.0003996936,1257
108813,209844,265009,4.881358104,-8.1427753078,2.0003996936,1258
108899,209829,265006,4.881358104,-8.1427753078,2.0003996936,1259
109144,209903,265046,4.881358104,-8.1427753078,2.0003996936,1260
109289,209910,265034,4.881358104,-8.1427753078,2.0003996936,1261
109408,209919,265076,4.881358104,-8.1427753078,2.0003996936,1262
109523,209905,265053,4.881358104,-8.1427753078,2.0003996936,1263
109307,209652,265004,4.9998028226999995,-8.2025958728,2.0327027987,1264
109431,209651,265023,4.9998028226999995,-8.2025958728,2.0327027987,1265
109587,209710,264986,4.9998028226999995,-8.2025958728,2.0327027987,1266
109744,209743,265074,4.9998028226999995,-8.2025958728,2.0327027987,1267
109976,209801,265110,4.9998028226999995,-8.2025958728,2.0327027987,1268
110158,209802,265082,4.9998028226999995,-8.2025958728,2.0327027987,1269
110348,209812,265041,4.9998028226999995,-8.2025958728,2.0327027987,1270
110496,209857,265161,4.9998028226999995,-8.2025958728,2.0327027987,1271
110800,209891,265150,4.9998028226999995,-8.2025958728,2.0327027987,1272
110899,209928,265127,4.9998028226999995,-8.2025958728,2.0327027987,1273
110333,209823,265055,4.9998028226999995,-8.2025958728,2.0327027987,1274
109308,209633,264938,4.9998028226999995,-8.2025958728,2.0327027987,1275
108298,209486,264903,4.9998028226999995,-8.2025958728,2.0327027987,1276
107840,209369,264870,4.9998028226999995,-8.2025958728,2.0327027987,1277
107580,209342,264834,4.9998028226999995,-8.2025958728,2.0327027987,1278
107505,209353,264798,4.9998028226999995,-8.2025958728,2.0327027987,1279
107693,209356,264838,4.9998028226999995,-8.2025958728,2.0327027987,1280
107841,209381,264852,4.9998028226999995,-8.2025958728,2.0327027987,1281
108030,209396,264862,4.9998028226999995,-8.2025958728,2.0327027987,1282
108128,209464,264926,4.9998028226999995,-8.2025958728,2.0327027987,1283
108346,209440,264935,4.9998028226999995,-8.2025958728,2.0327027987,1284
108391,209431,264917,4.9998028226999995,-8.2025958728,2.0327027987,1285
108568,209485,264915,4.9998028226999995,-8.2025958728,2.0327027987,1286
108779,209507,264952,4.9998028226999995,-8.2025958728,2.0327027987,1287
108933,209572,264971,4.9998028226999995,-8.2025958728,2.0327027987,1288
109170,209567,265023,4.9998028226999995,-8.2025958728,2.0327027987,1289
109386,209637,265079,4.9998028226999995,-8.2025958728,2.0327027987,1290
109588,209669,264997,4.9998028226999995,-8.2025958728,2.0327027987,1291
109771,209696,265072,4.9998028226999995,-8.2025958728,2.0327027987,1292
110019,209755,265136,4.9998028226999995,-8.2025958728,2.0327027987,1293
110210,209784,265143,4.9998028226999995,-8.2025958728,2.0327027987,1294
110393,209796,265139,4.9998028226999995,-8.2025958728,2.0327027987,1295
110175,209789,265076,4.9998028226999995,-8.2025958728,2.0327027987,1296
109229,209652,265028,4.9998028226999995,-8.2025958728,2.0327027987,1297
108243,209453,264862,4.9998028226999995,-8.2025958728,2.0327027987,1298
107700,209348,264865,4.9998028226999995,-8.2025958728,2.0327027987,1299
107435,209345,264834,4.9998028226999995,-8.2025958728,2.0327027987,1300
107373,209292,264787,4.9998028226999995,-8.2025958728,2.0327027987,1301
107422,209323,264811,4.9998028226999995,-8.2025958728,2.0327027987,1302
107649,209361,264802,4.9998028226999995,-8.2025958728,2.0327027987,1303
107866,209382,264871,4.9998028226999995,-8.2025958728,2.0327027987,1304
108032,209421,264859,4.9998028226999995,-8.2025958728,2.0327027987,1305
108732,209501,265014,4.8478585876,-8.254041558700001,2.0530417908,1306
108896,209531,264992,4.8478585876,-8.254041558700001,2.0530417908,1307
109172,209595,264985,4.8478585876,-8.254041558700001,2.0530417908,1308
109312,209657,265027,4.8478585876,-8.254041558700001,2.0530417908,1309
109549,209629,265106,4.8478585876,-8.254041558700001,2.0530417908,1310
109790,209726,265093,4.8478585876,-8.254041558700001,2.0530417908,1311
109932,209788,265130,4.8478585876,-8.254041558700001,2.0530417908,1312
110207,209832,265168,4.8478585876,-8.254041558700001,2.0530417908,1313
110417,209868,265179,4.8478585876,-8.254041558700001,2.0530417908,1314
110369,209837,265162,4.8478585876,-8.254041558700001,2.0530417908,1315
109597,209731,265074,4.8478585876,-8.254041558700001,2.0530417908,1316
108536,209533,264979,4.8478585876,-8.254041558700001,2.0530417908,1317
107946,209461,264949,4.8478585876,-8.254041558700001,2.0530417908,1318
107756,209422,264873,4.8478585876,-8.254041558700001,2.0530417908,1319
107727,209458,264909,4.8478585876,-8.254041558700001,2.0530417908,1320
107823,209431,264895,4.8478585876,-8.254041558700001,2.0530417908,1321
108033,209447,264908,4.8478585876,-8.254041558700001,2.0530417908,1322
108206,209470,264994,4.8478585876,-8.254041558700001,2.0530417908,1323
108311,209493,264973,4.8478585876,-8.254041558700001,2.0530417908,1324
108419,209511,264949,4.8478585876,-8.254041558700001,2.0530417908,1325
108552,209520,264981,4.8478585876,-8.254041558700001,2.0530417908,1326
108699,209599,265038,4.8478585876,-8.254041558700001,2.0530417908,1327
108930,209602,265037,4.8478585876,-8.254041558700001,2.0530417908,1328
109178,209647,265040,4.8478585876,-8.254041558700001,2.0530417908,1329
109378,209661,265104,4.8478585876,-8.254041558700001,2.0530417908,1330
109611,209717,265099,4.8478585876,-8.254041558700001,2.0530417908,1331
109789,209777,265107,4.8478585876,-8.254041558700001,2.0530417908,1332
110010,209811,265120,4.8478585876,-8.254041558700001,2.0530417908,1333
110213,209843,265171,4.8478585876,-8.254041558700001,2.0530417908,1334
110441,209894,265184,4.8478585876,-8.254041558700001,2.0530417908,1335
110730,209936,265295,4.8478585876,-8.254041558700001,2.0530417908,1336
110730,209922,265196,4.8478585876,-8.254041558700001,2.0530417908,1337
110013,209839,265154,4.8478585876,-8.254041558700001,2.0530417908,1338
108930,209676,264979,4.8478585876,-8.254041558700001,2.0530417908,1339
108277,209529,264952,4.8478585876,-8.254041558700001,2.0530417908,1340
108002,209525,264947,4.8478585876,-8.254041558700001,2.0530417908,1341
107908,209495,264940,4.8478585876,-8.254041558700001,2.0530417908,1342
107980,209505,264906,4.8478585876,-8.254041558700001,2.0530417908,1343
108201,209497,264920,4.8478585876,-8.254041558700001,2.0530417908,1344
108510,209523,264974,4.8478585876,-8.254041558700001,2.0530417908,1345
108726,209568,264966,4.8478585876,-8.254041558700001,2.0530417908,1346
108921,209619,265047,4.8478585876,-8.254041558700001,2.0530417908,1347
110916,210385,265197,4.9758745967,-8.2636128491,2.03389921,1348
111048,210385,265269,4.9758745967,-8.2636128491,2.03389921,1349
111091,210377,265264,4.9758745967,-8.2636128491,2.03389921,1350
111361,210376,265264,4.9758745967,-8.2636128491,2.03389921,1351
111498,210404,265317,4.9758745967,-8.2636128491,2.03389921,1352
111770,210459,265357,4.9758745967,-8.2636128491,2.03389921,1353
111898,210476,265347,4.9758745967,-8.2636128491,2.03389921,1354
112113,210508,265342,4.9758745967,-8.2636128491,2.03389921,1355
112311,210544,265385,4.9758745967,-8.2636128491,2.03389921,1356
112470,210622,265376,4.9758745967,-8.2636128491,2.03389921,1357
112670,210631,265384,4.9758745967,-8.2636128491,2.03389921,1358
112878,210634,265416,4.9758745967,-8.2636128491,2.03389921,1359
113000,210684,265424,4.9758745967,-8.2636128491,2.03389921,1360
113261,210771,265473,4.9758745967,-8.2636128491,2.03389921,1361
113168,210746,265439,4.9758745967,-8.2636128491,2.03389921,1362
112307,210595,265320,4.9758745967,-8.2636128491,2.03389921,1363
111028,210420,265215,4.9758745967,-8.2636128491,2.03389921,1364
110210,210280,265166,4.9758745967,-8.2636128491,2.03389921,1365
109918,210270,265161,4.9758745967,-8.2636128491,2.03389921,1366
109854,210240,265136,4.9758745967,-8.2636128491,2.03389921,1367
109908,210251,265124,4.9758745967,-8.2636128491,2.03389921,1368
110166,210268,265166,4.9758745967,-8.2636128491,2.03389921,1369
110393,210312,265177,4.9758745967,-8.2636128491,2.03389921,1370
110553,210346,265243,4.9758745967,-8.2636128491,2.03389921,1371
110646,210333,265254,4.9758745967,-8.2636128491,2.03389921,1372
110768,210369,265248,4.9758745967,-8.2636128491,2.03389921,1373
110905,210374,265253,4.9758745967,-8.2636128491,2.03389921,1374
111088,210437,265311,4.9758745967,-8.2636128491,2.03389921,1375
111253,210468,265333,4.9758745967,-8.2636128491,2.03389921,1376
111500,210489,265355,4.9758745967,-8.2636128491,2.03389921,1377
111727,210537,265325,4.9758745967,-8.2636128491,2.03389921,1378
111953,210587,265379,4.9758745967,-8.2636128491,2.03389921,1379
112158,210642,265370,4.9758745967,-8.2636128491,2.03389921,1380
112406,210654,265442,4.9758745967,-8.2636128491,2.03389921,1381
112617,210699,265461,4.9758745967,-8.2636128491,2.03389921,1382
112838,210744,265482,4.9758745967,-8.2636128491,2.03389921,1383
113054,210756,265505,4.9758745967,-8.2636128491,2.03389921,1384
113280,210803,265519,4.9758745967,-8.2636128491,2.03389921,1385
113307,210800,265513,4.9758745967,-8.2636128491,2.03389921,1386
112701,210702,265493,4.9758745967,-8.2636128491,2.03389921,1387
111530,210528,265287,4.9758745967,-8.2636128491,2.03389921,1388
110710,210383,265312,4.9758745967,-8.2636128491,2.03389921,1389
110685,210318,265185,4.9244289108,-8.1930245824,2.0003996936,1390
110811,210328,265186,4.9244289108,-8.1930245824,2.0003996936,1391
110987,210394,265219,4.9244289108,-8.1930245824,2.0003996936,1392
111173,210402,265210,4.9244289108,-8.1930245824,2.0003996936,1393
111313,210411,265172,4.9244289108,-8.1930245824,2.0003996936,1394
111394,210421,265186,4.9244289108,-8.1930245824,2.0003996936,1395
111510,210437,265213,4.9244289108,-8.1930245824,2.0003996936,1396
111696,210470,265266,4.9244289108,-8.1930245824,2.0003996936,1397
111977,210535,265268,4.9244289108,-8.1930245824,2.0003996936,1398
112056,210540,265289,4.9244289108,-8.1930245824,2.0003996936,1399
112343,210581,265325,4.9244289108,-8.1930245824,2.0003996936,1400
112547,210598,265367,4.9244289108,-8.1930245824,2.0003996936,1401
112797,210607,265336,4.9244289108,-8.1930245824,2.0003996936,1402
113012,210644,265377,4.9244289108,-8.1930245824,2.0003996936,1403
113202,210693,265379,4.9244289108,-8.1930245824,2.0003996936,1404
113392,210750,265395,4.9244289108,-8.1930245824,2.0003996936,1405
113685,210788,265476,4.9244289108,-8.1930245824,2.0003996936,1406
113857,210808,265423,4.9244289108,-8.1930245824,2.0003996936,1407
113577,210720,265436,4.9244289108,-8.1930245824,2.0003996936,1408
112671,210602,265282,4.9244289108,-8.1930245824,2.0003996936,1409
111702,210470,265209,4.9244289108,-8.1930245824,2.0003996936,1410
111182,210390,265148,4.9244289108,-8.1930245824,2.0003996936,1411
110998,210369,265169,4.9244289108,-8.1930245824,2.0003996936,1412
110982,210340,265145,4.9244289108,-8.1930245824,2.0003996936,1413
111124,210341,265186,4.9244289108,-8.1930245824,2.0003996936,1414
111328,210405,265170,4.9244289108,-8.1930245824,2.0003996936,1415
111491,210426,265166,4.9244289108,-8.1930245824,2.0003996936,1416
111601,210448,265195,4.9244289108,-8.1930245824,2.0003996936,1417
111657,210463,265238,4.9244289108,-8.1930245824,2.0003996936,1418
111748,210438,265226,4.9244289108,-8.1930245824,2.0003996936,1419
111873,210448,265255,4.9244289108,-8.1930245824,2.0003996936,1420
112014,210505,265272,4.9244289108,-8.1930245824,2.0003996936,1421
112197,210536,265364,4.9244289108,-8.1930245824,2.0003996936,1422
112400,210573,265309,4.9244289108,-8.1930245824,2.0003996936,1423
112567,210583,265329,4.9244289108,-8.1930245824,2.0003996936,1424
112741,210595,265315,4.9244289108,-8.1930245824,2.0003996936,1425
112929,210585,265341,4.9244289108,-8.1930245824,2.0003996936,1426
113096,210652,265372,4.9244289108,-8.1930245824,2.0003996936,1427
113259,210731,265414,4.9244289108,-8.1930245824,2.0003996936,1428
113432,210718,265414,4.9244289108,-8.1930245824,2.0003996936,1429
113559,210727,265397,4.9244289108,-8.1930245824,2.0003996936,1430
113187,210630,265378,4.9244289108,-8.1930245824,2.0003996936,1431
111845,210248,265220,4.844269353700001,-8.1308111948,1.962114532,1432
110797,210081,265091,4.844269353700001,-8.1308111948,1.962114532,1433
110048,209966,265029,4.844269353700001,-8.1308111948,1.962114532,1434
109716,209892,265030,4.844269353700001,-8.1308111948,1.962114532,1435
109660,209906,265004,4.844269353700001,-8.1308111948,1.962114532,1436
109673,209901,265015,4.844269353700001,-8.1308111948,1.962114532,1437
109822,209911,265057,4.844269353700001,-8.1308111948,1.962114532,1438
110019,209986,265036,4.844269353700001,-8.1308111948,1.962114532,1439
110237,209953,265051,4.844269353700001,-8.1308111948,1.962114532,1440
110232,209972,265069,4.844269353700001,-8.1308111948,1.962114532,1441
110301,209973,265081,4.844269353700001,-8.1308111948,1.962114532,1442
110433,210013,265092,4.844269353700001,-8.1308111948,1.962114532,1443
110633,210023,265095,4.844269353700001,-8.1308111948,1.962114532,1444
110777,210047,265147,4.844269353700001,-8.1308111948,1.962114532,1445
110995,210075,265149,4.844269353700001,-8.1308111948,1.962114532,1446
111104,210118,265167,4.844269353700001,-8.1308111948,1.962114532,1447
111215,210111,265211,4.844269353700001,-8.1308111948,1.962114532,1448
111493,210169,265207,4.844269353700001,-8.1308111948,1.962114532,1449
111667,210208,265223,4.844269353700001,-8.1308111948,1.962114532,1450
111886,210245,265187,4.844269353700001,-8.1308111948,1.962114532,1451
111985,210244,265265,4.844269353700001,-8.1308111948,1.962114532,1452
111903,210233,265252,4.844269353700001,-8.1308111948,1.962114532,1453
111162,210101,265177,4.844269353700001,-8.1308111948,1.962114532,1454
110123,209929,265016,4.844269353700001,-8.1308111948,1.962114532,1455
109395,209813,264983,4.844269353700001,-8.1308111948,1.962114532,1456
109066,209748,264934,4.844269353700001,-8.1308111948,1.962114532,1457
108971,209694,264968,4.844269353700001,-8.1308111948,1.962114532,1458
108941,209699,264932,4.844269353700001,-8.1308111948,1.962114532,1459
109075,209734,264942,4.844269353700001,-8.1308111948,1.962114532,1460
109268,209747,264971,4.844269353700001,-8.1308111948,1.962114532,1461
109393,209747,265019,4.844269353700001,-8.1308111948,1.962114532,1462
109478,209797,264956,4.844269353700001,-8.1308111948,1.962114532,1463
109562,209783,264988,4.844269353700001,-8.1308111948,1.962114532,1464
109705,209819,264980,4.844269353700001,-8.1308111948,1.962114532,1465
109842,209838,265031,4.844269353700001,-8.1308111948,1.962114532,1466
110031,209868,265087,4.844269353700001,-8.1308111948,1.962114532,1467
110263,209903,265108,4.844269353700001,-8.1308111948,1.962114532,1468
110414,209925,265101,4.844269353700001,-8.1308111948,1.962114532,1469
110614,209990,265092,4.844269353700001,-8.1308111948,1.962114532,1470
110776,210013,265138,4.844269353700001,-8.1308111948,1.962114532,1471
110978,210046,265134,4.844269353700001,-8.1308111948,1.962114532,1472
111175,210096,265196,4.844269353700001,-8.1308111948,1.962114532,1473
108880,209823,265120,5.0632126216,-8.1978102276,2.0183458631,1474
109127,209851,265179,5.0632126216,-8.1978102276,2.0183458631,1475
109408,209900,265153,5.0632126216,-8.1978102276,2.0183458631,1476
109534,209931,265234,5.0632126216,-8.1978102276,2.0183458631,1477
109755,209994,265218,5.0632126216,-8.1978102276,2.0183458631,1478
109937,210005,265296,5.0632126216,-8.1978102276,2.0183458631,1479
110144,210062,265238,5.0632126216,-8.1978102276,2.0183458631,1480
110529,210070,265340,5.0632126216,-8.1978102276,2.0183458631,1481
110716,210150,265316,5.0632126216,-8.1978102276,2.0183458631,1482
111099,210204,265307,5.0632126216,-8.1978102276,2.0183458631,1483
111276,210213,265381,5.0632126216,-8.1978102276,2.0183458631,1484
111576,210280,265420,5.0632126216,-8.1978102276,2.0183458631,1485
111799,210327,265436,5.0632126216,-8.1978102276,2.0183458631,1486
112004,210385,265450,5.0632126216,-8.1978102276,2.0183458631,1487
112385,210424,265429,5.0632126216,-8.1978102276,2.0183458631,1488
112553,210449,265464,5.0632126216,-8.1978102276,2.0183458631,1489
112384,210437,265470,5.0632126216,-8.1978102276,2.0183458631,1490
111406,210291,265368,5.0632126216,-8.1978102276,2.0183458631,1491
110481,210170,265285,5.0632126216,-8.1978102276,2.0183458631,1492
110149,210105,265260,5.0632126216,-8.1978102276,2.0183458631,1493
109899,210079,265260,5.0632126216,-8.1978102276,2.0183458631,1494
109976,210107,265261,5.0632126216,-8.1978102276,2.0183458631,1495
110175,210130,265308,5.0632126216,-8.1978102276,2.0183458631,1496
110500,210202,265337,5.0632126216,-8.1978102276,2.0183458631,1497
110799,210208,265356,5.0632126216,-8.1978102276,2.0183458631,1498
111010,210258,265354,5.0632126216,-8.1978102276,2.0183458631,1499
111199,210271,265311,5.0632126216,-8.1978102276,2.0183458631,1500
111371,210339,265325,5.0632126216,-8.1978102276,2.0183458631,1501
111598,210340,265385,5.0632126216,-8.1978102276,2.0183458631,1502
111824,210377,265435,5.0632126216,-8.1978102276,2.0183458631,1503
112065,210428,265419,5.0632126216,-8.1978102276,2.0183458631,1504
112387,210496,265527,5.0632126216,-8.1978102276,2.0183458631,1505
112662,210507,265558,5.0632126216,-8.1978102276,2.0183458631,1506
112947,210582,265516,5.0632126216,-8.1978102276,2.0183458631,1507
113212,210630,265558,5.0632126216,-8.1978102276,2.0183458631,1508
113477,210672,265583,5.0632126216,-8.1978102276,2.0183458631,1509
113717,210711,265599,5.0632126216,-8.1978102276,2.0183458631,1510
113945,210752,265646,5.0632126216,-8.1978102276,2.0183458631,1511
114226,210835,265676,5.0632126216,-8.1978102276,2.0183458631,1512
114482,210880,265644,5.0632126216,-8.1978102276,2.0183458631,1513
114592,210876,265705,5.0632126216,-8.1978102276,2.0183458631,1514
114083,210828,265616,5.0632126216,-8.1978102276,2.0183458631,1515
112188,210719,265497,4.9064827413000005,-8.2133635745,2.0303099761,1516
112498,210730,265497,4.9064827413000005,-8.2133635745,2.0303099761,1517
112610,210782,265513,4.9064827413000005,-8.2133635745,2.0303099761,1518
112650,210799,265551,4.9064827413000005,-8.2133635745,2.0303099761,1519
112716,210759,265603,4.9064827413000005,-8.2133635745,2.0303099761,1520
112833,210808,265586,4.9064827413000005,-8.2133635745,2.0303099761,1521
112893,210835,265596,4.9064827413000005,-8.2133635745,2.0303099761,1522
113029,210865,265599,4.9064827413000005,-8.2133635745,2.0303099761,1523
113229,210881,265677,4.9064827413000005,-8.2133635745,2.0303099761,1524
113429,210905,265624,4.9064827413000005,-8.2133635745,2.0303099761,1525
113623,210961,265627,4.9064827413000005,-8.2133635745,2.0303099761,1526
113803,210958,265698,4.9064827413000005,-8.2133635745,2.0303099761,1527
114031,210977,265693,4.9064827413000005,-8.2133635745,2.0303099761,1528
114171,211024,265705,4.9064827413000005,-8.2133635745,2.0303099761,1529
114371,211085,265732,4.9064827413000005,-8.2133635745,2.0303099761,1530
114510,211091,265737,4.9064827413000005,-8.2133635745,2.0303099761,1531
114698,211141,265741,4.9064827413000005,-8.2133635745,2.0303099761,1532
114879,211148,265746,4.9064827413000005,-8.2133635745,2.0303099761,1533
114768,211134,265765,4.9064827413000005,-8.2133635745,2.0303099761,1534
113745,211006,265590,4.9064827413000005,-8.2133635745,2.0303099761,1535
112351,210806,265530,4.9064827413000005,-8.2133635745,2.0303099761,1536
111383,210697,265471,4.9064827413000005,-8.2133635745,2.0303099761,1537
110920,210616,265472,4.9064827413000005,-8.2133635745,2.0303099761,1538
110754,210600,265403,4.9064827413000005,-8.2133635745,2.0303099761,1539
110738,210582,265404,4.9064827413000005,-8.2133635745,2.0303099761,1540
110881,210639,265431,4.9064827413000005,-8.2133635745,2.0303099761,1541
111086,210633,265457,4.9064827413000005,-8.2133635745,2.0303099761,1542
111219,210682,265396,4.9064827413000005,-8.2133635745,2.0303099761,1543
111300,210667,265515,4.9064827413000005,-8.2133635745,2.0303099761,1544
111347,210665,265505,4.9064827413000005,-8.2133635745,2.0303099761,1545
111440,210638,265503,4.9064827413000005,-8.2133635745,2.0303099761,1546
111599,210657,265478,4.9064827413000005,-8.2133635745,2.0303099761,1547
111761,210740,265535,4.9064827413000005,-8.2133635745,2.0303099761,1548
112008,210747,265601,4.9064827413000005,-8.2133635745,2.0303099761,1549
112191,210835,265564,4.9064827413000005,-8.2133635745,2.0303099761,1550
112434,210864,265572,4.9064827413000005,-8.2133635745,2.0303099761,1551
