green,red,IR,acc_x,acc_y,acc_z,sample_index
92722,182137,220572,-0.8291130308999999,8.3808611565,5.0344987504,1
92900,182137,220580,-0.9140582332,8.484948939599999,5.1780681064,2
93135,182180,220646,-0.9343972253,8.4658063588,5.072783911999999,3
93215,182196,220637,-0.8434699665000001,8.551947972399999,5.0823552024,4
93285,182165,220645,-0.9702895642999999,8.556733617599999,5.1062834284,5
93004,182135,220600,-1.0001998468,8.4095750277,5.152943469099999,6
92209,181963,220540,-1.0085747259,8.584251077500001,5.1110690735999995,7
91324,181955,220499,-1.0480562988,8.4550386571,5.192425042,8
90659,181912,220430,-0.9188438784,8.3892360356,5.0823552024,9
90294,181822,220402,-1.0097711372,8.2516487361,5.1768716951,10
90190,181828,220396,-0.9631110964999999,8.574679787100001,5.1589255256,11
90340,181785,220469,-1.0001998468,8.4610207136,5.1912286306999995,12
90629,181809,220479,-0.9714859755999999,8.5052879317,5.0153561695999995,13
90959,181822,220485,-0.9475577495999999,8.5806618436,5.182853751600001,14
91251,181878,220468,-0.8865407733,8.4550386571,5.1218367753,15
91436,181889,220543,-0.8530412569000001,8.4083786164,5.010570524399999,16
91453,181928,220592,-0.6723831506,8.4131642616,5.0763731459,17
91681,181932,220552,-0.8374879099999999,8.4981094639,5.000999234,18
91792,181959,220647,-1.0420742423,8.4933238187,5.1541398804,19
91927,181965,220647,-0.9200402897,8.5100735769,5.120640364,20
92039,182021,220655,-0.8374879099999999,8.636893174699999,5.1768716951,21
92220,181993,220641,-0.9487541609,8.551947972399999,5.0632126216,22
92419,181984,220655,-1.0719845248,8.4083786164,5.0979085493,23
92566,182045,220685,-0.8949156524,8.4143606729,5.0919264928,24
92617,182068,220643,-0.8470592004,8.398807326,5.1014977832,25
92247,181981,220622,-0.8374879099999999,8.5220376899,5.1014977832,26
91381,181901,220527,-0.8183453291999999,8.3665042209,5.0679982668,27
90579,181800,220506,-0.8422735552,8.4693955927,5.1421757674,28
90039,181730,220448,-0.7752745223999999,8.49452023,5.1158547188000005,29
89801,181713,220445,-0.8949156524,8.5316089803,5.072783911999999,30
89848,181711,220448,-0.6185446421,8.3425759949,5.0919264928,31
90125,181747,220542,-0.7130611348,8.398807326,5.0333023391000005,32
90488,181763,220557,-0.8805587168,8.4370924876,5.0201418148,33
90839,181796,220605,-0.9128618219,8.427521197199999,5.1158547188000005,34
91113,181868,220611,-0.8518448456000001,8.3617185757,5.0931229041,35
91307,181861,220678,-0.909272588,8.4131642616,5.0476592747,36
91431,181844,220673,-1.0336993632,8.3712898661,5.1720860499,37
91547,181944,220681,-1.0181460163,8.5040915204,5.1194439527,38
91673,181943,220715,-0.9511469834999999,8.3892360356,4.9914279436,39
91805,181950,220734,-0.8638089586000001,8.2851482525,5.0021956453,40
91945,181983,220709,-0.9188438784,8.5232341012,5.1625147595,41
92125,181978,220716,-0.7908278692999999,8.4323068424,5.1637111708,42
92293,181950,220725,-0.7633104094,8.8043907567,5.114658307499999,43
92501,181989,220731,-0.8566304908000001,8.7804625307,4.9962135888,44
92467,182028,220754,-0.9188438784,8.422735552,4.90528633,45
91939,181912,220708,-1.0432706536,8.4071822051,5.120640364,46
91109,181845,220615,-0.9774680320999999,8.626125473,5.0213382261,47
90409,181775,220633,-0.9858429111999999,8.4658063588,5.010570524399999,48
90003,181716,220555,-0.8961120637,8.5938223679,5.010570524399999,49
89902,181649,220536,-1.0085747259,8.475377649199999,5.0679982668,50
89969,181691,220543,-0.8087740388,8.4789668831,5.072783911999999,51
90262,181659,220602,-0.7369893608,8.2767733734,5.000999234,52
90616,181740,220601,-0.7477570625,8.422735552,4.8622155232,53
90937,181745,220644,-0.9379864592,8.61416136,4.9196432655999995,54
91208,181801,220658,-0.9248259349,8.5136628108,5.0045884679,55
91381,181766,220732,-0.8051848049,8.471788415299999,5.2247281471,56
91554,181781,220711,-0.861416136,8.5986080131,5.058426976400001,57
91698,181712,220729,-0.8817551281,8.4741812379,4.953142782,58
91863,181854,220767,-1.1808579531,8.4035929712,5.044070040799999,59
92041,181860,220800,-0.95712904,8.422735552,4.9591248385,60
92251,181789,220827,-0.981057266,8.3078800672,5.029713105200001,61
92483,181933,220840,-0.8913264185,8.5998044244,5.0500520973,62
92725,181937,220823,-1.0660024683,8.5579300289,5.0596233877,63
92951,181979,220872,-1.1090732750999999,8.4514494232,5.0069812905,64
93127,181950,220902,-0.9607182739,8.391628858199999,4.8825545153,65
92915,181944,220846,-0.8291130308999999,8.4023965599,5.0823552024,66
92259,181792,220786,-0.8757730716000001,8.4382888989,5.0775695572,67
91504,181758,220737,-0.7668996433,8.3796647452,5.0668018555,68
90986,181706,220644,-1.0181460163,8.459824302300001,4.977071008,69
90747,181640,220658,-0.909272588,8.556733617599999,5.0081777018,70
90711,181599,220637,-0.9236295236,8.4370924876,5.010570524399999,71
90851,181652,220636,-0.8817551281,8.5938223679,4.9962135888,72
91184,181683,220678,-1.0504491214,8.5998044244,5.0919264928,73
91540,181714,220734,-0.8303094421999999,8.4382888989,5.0632126216,74
91904,181755,220763,-0.9248259349,8.4789668831,5.114658307499999,75
92115,181798,220747,-0.9188438784,8.3844503904,5.0668018555,76
92343,181771,220753,-1.0660024683,8.293523131599999,4.9579284272,77
92417,181818,220774,-0.7585247642,8.641678819900001,5.0943193154,78
92698,181803,220766,-0.9140582332,8.219345631,4.9914279436,79
92888,181838,220800,-0.8877371846000001,8.2971123655,5.4029934308,80
93095,181826,220882,-0.8578269021,8.3653078096,5.2175496793,81
93326,181872,220866,-0.7621139981,8.6452680538,4.9818566531999995,82
93519,181921,220866,-0.9296115801,8.5471623272,5.0476592747,83
93779,181892,220887,-0.9906285563999999,8.7278204335,4.953142782,84
93995,182005,220906,-0.861416136,8.638089586,4.9423750803,85
94146,181998,220869,-1.0277173067,8.5758761984,5.0201418148,86
93890,181851,220882,-0.9762716208,8.4167534955,5.114658307499999,87
93266,181842,220808,-0.981057266,8.5220376899,5.120640364,88
92533,181804,220767,-0.885344362,8.5399838594,4.9722853628,89
92179,181745,220710,-0.9702895642999999,8.5758761984,4.782055966100001,90
91946,181680,220685,-0.8183453291999999,8.5986080131,5.029713105200001,91
91917,181569,220724,-0.9954142015999999,8.4000037373,5.2677989539,92
92077,181721,220740,-1.1377871463,8.4837525283,5.312066172,93
92391,181748,220784,-1.1102696864,8.5579300289,5.1732824612,94
92721,181749,220757,-0.933200814,8.5555372063,4.9674997176,95
93022,181814,220850,-0.9236295236,8.4131642616,4.8753760475,96
93228,181811,220827,-0.933200814,8.3688970435,4.977071008,97
93406,181889,220782,-0.9427721043999999,8.279166196,5.1768716951,98
93606,181794,220809,-0.909272588,8.4358960763,5.2295137923,99
93777,181866,220847,-1.0097711372,8.5447695046,5.1170511301,100
93976,181890,220820,-0.9475577495999999,8.484948939599999,4.929214556,101
94163,181967,220896,-1.0241280728,8.5100735769,5.029713105200001,102
94442,181972,220933,-0.8195417405,8.518448456,5.010570524399999,103
94654,182009,220997,-0.8817551281,8.4562350684,5.1912286306999995,104
94926,182070,220961,-0.9954142015999999,8.445467366699999,4.9722853628,105
95141,182138,221025,-0.909272588,8.398807326,5.0476592747,106
95253,182108,221004,-0.8147560952999999,8.350950873999999,5.1062834284,107
95084,182059,220928,-1.0552347666,8.5794654323,5.1014977832,108
94521,181999,220927,-0.9320044027,8.6703926911,5.0691946781,109
93915,181949,220877,-0.9978070242,8.4370924876,5.0201418148,110
93356,181870,220858,-0.933200814,8.5136628108,5.0763731459,111
93054,181826,220802,-0.7980063370999999,8.4981094639,5.029713105200001,112
92988,181821,220797,-0.8099704500999999,8.5076807543,5.0632126216,113
93082,181847,220808,-0.9511469834999999,8.49452023,5.1158547188000005,114
93330,181872,220840,-0.7573283529,8.5040915204,5.1098726623,115
93649,181902,220851,-0.9607182739,8.3748791,5.152943469099999,116
93805,181930,220907,-0.7561319416,8.3282190593,5.044070040799999,117
93958,181924,220912,-0.9667003303999999,8.4562350684,4.9579284272,118
94077,181994,220922,-0.885344362,8.4514494232,5.071587500700001,119
94189,181977,220940,-0.9906285563999999,8.4335032537,4.9914279436,120
94302,182018,220891,-0.7106683122,8.3796647452,5.0823552024,121
94436,182033,220931,-0.8805587168,8.5088771656,5.0237310487,122
94553,182028,220971,-0.8721838377000001,8.5794654323,5.029713105200001,123
94686,182049,220933,-0.9511469834999999,8.5794654323,4.953142782,124
94891,182045,220960,-1.0384850084,8.5471623272,5.1637111708,125
95006,182048,220950,-0.8769694829,8.5076807543,5.0153561695999995,126
95158,182047,220970,-0.8207381518,8.5710905532,4.9196432655999995,127
95235,182074,220926,-0.909272588,8.5268233351,4.9519463707,128
94950,182009,220903,-0.9523433948,8.4885381735,5.1625147595,129
94281,181924,220881,-0.7992027483999999,8.4801632944,5.045266452099999,130
93501,181884,220765,-0.9523433948,8.427521197199999,4.833501652,131
92859,181782,220724,-0.8470592004,8.5507515611,4.9340002012,132
92455,181683,220717,-0.9427721043999999,8.4670027701,4.9974100001,133
92228,181759,220692,-0.9667003303999999,8.4909309961,5.096712138,134
92305,181712,220732,-1.2047861791,8.4610207136,5.096712138,135
92496,181682,220731,-1.07677017,8.3617185757,5.0823552024,136
92703,181733,220737,-0.933200814,8.5124663995,5.0536413312,137
92928,181760,220721,-0.7860422241,8.5148592221,5.0811587911,138
93016,181777,220783,-0.8769694829,8.4550386571,4.8945186283,139
93101,181773,220748,-0.8219345630999999,8.3796647452,4.9938207662,140
93213,181783,220721,-0.8937192411,8.4370924876,5.2630133087,141
93334,181810,220779,-0.9559326287,8.4167534955,5.1481578239,142
93471,181717,220798,-0.8027919822999999,8.5471623272,4.9160540317,143
93638,181880,220803,-0.9954142015999999,8.4095750277,4.9399822577,144
93810,181899,220877,-1.1437692028,8.6033936583,4.9148576204,145
93945,181928,220900,-1.2059825904,8.662017812,4.8873401605,146
94096,181954,220848,-1.1665010175000001,8.5854474888,5.1481578239,147
94242,181914,220885,-0.9906285563999999,8.5220376899,5.1218367753,148
94372,181940,220857,-0.7381857721,8.4430745441,4.9710889515,149
94558,181954,220864,-0.8231309743999999,8.470592004,4.8191447164,150
94501,181923,220844,-0.789631458,8.446663778,4.9471607255,151
93992,181869,220808,-0.6568298037,8.4083786164,4.9435714916,152
93110,181794,220752,-0.9559326287,8.3318082932,5.181657340299999,153
92291,181673,220719,-0.8195417405,8.49452023,5.0392843956,154
91661,181646,220681,-1.1102696864,8.566304908,5.1062834284,155
91351,181603,220656,-1.2095718243,8.5052879317,4.953142782,156
91244,181573,220654,-0.9439685157,8.5136628108,5.0811587911,157
91358,181575,220676,-0.9583254512999999,8.584251077500001,5.096712138,158
91664,181632,220688,-0.9152546444999999,8.638089586,5.0907300815,159
91937,181593,220733,-0.8673981925,8.49452023,4.9483571368,160
92153,181655,220749,-0.9667003303999999,8.3126657124,4.8287160068,161
92299,181648,220750,-0.9367900479,8.3796647452,4.961517661099999,162
92374,181637,220780,-1.0384850084,8.6225362391,5.210371211499999,163
92500,181577,220734,-0.5335994398,8.7230347883,5.2869415346999995,164
92593,181590,220733,-0.8745766603,8.5328053916,4.8059841921,165
92737,181642,220790,-0.8135596839999999,8.484948939599999,4.8909293944,166
92922,181702,220786,-0.8039883936,8.427521197199999,5.0201418148,167
93160,181730,220803,-0.9248259349,8.404789382499999,5.096712138,168
93350,181750,220835,-1.0564311779,8.6991065623,5.0153561695999995,169
93577,181782,220869,-1.0624132344,8.5232341012,4.8861437492,170
93739,181831,220898,-1.1006983959999999,8.484948939599999,5.0955157266999995,171
93930,181856,220957,-1.1473584366999998,8.5268233351,5.0344987504,172
94108,181872,220908,-0.9954142015999999,8.5411802707,5.087140847600001,173
94206,181845,220953,-1.0564311779,8.551947972399999,5.114658307499999,174
94039,181809,220913,-0.8841479507000001,8.475377649199999,5.0775695572,175
93392,181723,220850,-0.7238288365000001,8.470592004,5.044070040799999,176
92477,181584,220743,-1.004985492,8.628518295600001,4.9710889515,177
91724,181510,220666,-1.004985492,8.628518295600001,4.9710889515,178
91204,181404,220659,-1.004985492,8.628518295600001,4.9710889515,179
90955,181357,220654,-1.004985492,8.628518295600001,4.9710889515,180
90928,181376,220620,-1.004985492,8.628518295600001,4.9710889515,181
91124,181396,220698,-1.004985492,8.628518295600001,4.9710889515,182
91430,181457,220723,-1.004985492,8.628518295600001,4.9710889515,183
91764,181496,220732,-1.004985492,8.628518295600001,4.9710889515,184
91969,181520,220804,-1.004985492,8.628518295600001,4.9710889515,185
92136,181515,220843,-1.004985492,8.628518295600001,4.9710889515,186
92277,181551,220777,-1.004985492,8.628518295600001,4.9710889515,187
92398,181575,220877,-0.9475577495999999,8.584251077500001,4.9866422984,188
92566,181623,220876,-0.9475577495999999,8.584251077500001,4.9866422984,189
92778,181602,220916,-0.9475577495999999,8.584251077500001,4.9866422984,190
92962,181674,220954,-0.9475577495999999,8.584251077500001,4.9866422984,191
93155,181732,220942,-0.9475577495999999,8.584251077500001,4.9866422984,192
93388,181750,220976,-0.9475577495999999,8.584251077500001,4.9866422984,193
93590,181773,221002,-0.9475577495999999,8.584251077500001,4.9866422984,194
93826,181780,221009,-0.9475577495999999,8.584251077500001,4.9866422984,195
94038,181825,221014,-0.9475577495999999,8.584251077500001,4.9866422984,196
94263,181867,221090,-0.9475577495999999,8.584251077500001,4.9866422984,197
94466,181943,221065,-0.9475577495999999,8.584251077500001,4.9866422984,198
94608,181931,221118,-0.9475577495999999,8.584251077500001,4.9866422984,199
94421,181903,221094,-0.9475577495999999,8.584251077500001,4.9866422984,200
93805,181793,221073,-0.9475577495999999,8.584251077500001,4.9866422984,201
92972,181704,220997,-0.9475577495999999,8.584251077500001,4.9866422984,202
92316,181649,220924,-0.9475577495999999,8.584251077500001,4.9866422984,203
91920,181589,220887,-0.9475577495999999,8.584251077500001,4.9866422984,204
91760,181576,220874,-0.9475577495999999,8.584251077500001,4.9866422984,205
91837,181542,220924,-0.9475577495999999,8.584251077500001,4.9866422984,206
92072,181572,220952,-0.9475577495999999,8.584251077500001,4.9866422984,207
92343,181616,220928,-0.9475577495999999,8.584251077500001,4.9866422984,208
92589,181633,220965,-0.9475577495999999,8.584251077500001,4.9866422984,209
92744,181647,221034,-0.9475577495999999,8.584251077500001,4.9866422984,210
92847,181662,221023,-0.9475577495999999,8.584251077500001,4.9866422984,211
92944,181665,220972,-0.9475577495999999,8.584251077500001,4.9866422984,212
93011,181667,220982,-0.9475577495999999,8.584251077500001,4.9866422984,213
93102,181644,221018,-0.9475577495999999,8.584251077500001,4.9866422984,214
93246,181659,220991,-0.9475577495999999,8.584251077500001,4.9866422984,215
93397,181677,220974,-0.9475577495999999,8.584251077500001,4.9866422984,216
93543,181694,221034,-0.9475577495999999,8.584251077500001,4.9866422984,217
93708,181734,221032,-0.9475577495999999,8.584251077500001,4.9866422984,218
93903,181738,221033,-0.9475577495999999,8.584251077500001,4.9866422984,219
94096,181745,221106,-0.9475577495999999,8.584251077500001,4.9866422984,220
94255,181762,221088,-0.9475577495999999,8.584251077500001,4.9866422984,221
94418,181796,221108,-0.9475577495999999,8.584251077500001,4.9866422984,222
94543,181842,221134,-0.9475577495999999,8.584251077500001,4.9866422984,223
94406,181820,221097,-0.9475577495999999,8.584251077500001,4.9866422984,224
93833,181695,221051,-0.9475577495999999,8.584251077500001,4.9866422984,225
93072,181591,220963,-0.9475577495999999,8.584251077500001,4.9866422984,226
92373,181507,220906,-0.9475577495999999,8.584251077500001,4.9866422984,227
91983,181475,220892,-0.9475577495999999,8.584251077500001,4.9866422984,228
91725,181440,220928,-0.9475577495999999,8.584251077500001,4.9866422984,229
93680,181580,221005,-0.9906285563999999,8.4574314797,4.881358104,230
93849,181599,221061,-0.9906285563999999,8.4574314797,4.881358104,231
94017,181620,221027,-0.9906285563999999,8.4574314797,4.881358104,232
94191,181606,221060,-0.9906285563999999,8.4574314797,4.881358104,233
94373,181678,221054,-0.9906285563999999,8.4574314797,4.881358104,234
94556,181678,221069,-0.9906285563999999,8.4574314797,4.881358104,235
94717,181702,221071,-0.9906285563999999,8.4574314797,4.881358104,236
94924,181703,221104,-0.9906285563999999,8.4574314797,4.881358104,237
95085,181769,221128,-0.9906285563999999,8.4574314797,4.881358104,238
95219,181796,221133,-0.9906285563999999,8.4574314797,4.881358104,239
95260,181791,221105,-0.9906285563999999,8.4574314797,4.881358104,240
94935,181691,221072,-0.9906285563999999,8.4574314797,4.881358104,241
94230,181605,221080,-0.9906285563999999,8.4574314797,4.881358104,242
93520,181563,220977,-0.9906285563999999,8.4574314797,4.881358104,243
92927,181485,220950,-0.9906285563999999,8.4574314797,4.881358104,244
92531,181377,220909,-0.9906285563999999,8.4574314797,4.881358104,245
92373,181390,220923,-0.9906285563999999,8.4574314797,4.881358104,246
92387,181420,220912,-0.9906285563999999,8.4574314797,4.881358104,247
92540,181419,220951,-0.9906285563999999,8.4574314797,4.881358104,248
92784,181427,220944,-0.9906285563999999,8.4574314797,4.881358104,249
92986,181484,220979,-0.9906285563999999,8.4574314797,4.881358104,250
93125,181476,220995,-0.9906285563999999,8.4574314797,4.881358104,251
93228,181538,220995,-0.9906285563999999,8.4574314797,4.881358104,252
93372,181554,220988,-0.9906285563999999,8.4574314797,4.881358104,253
93458,181539,221015,-0.9906285563999999,8.4574314797,4.881358104,254
93591,181561,221031,-0.9906285563999999,8.4574314797,4.881358104,255
93751,181585,221020,-0.9906285563999999,8.4574314797,4.881358104,256
93901,181565,221079,-0.9906285563999999,8.4574314797,4.881358104,257
94095,181619,221050,-0.9906285563999999,8.4574314797,4.881358104,258
94281,181663,221129,-0.9906285563999999,8.4574314797,4.881358104,259
94502,181682,221093,-0.9906285563999999,8.4574314797,4.881358104,260
94680,181720,221155,-0.9906285563999999,8.4574314797,4.881358104,261
94874,181775,221180,-0.9906285563999999,8.4574314797,4.881358104,262
95092,181786,221179,-0.9906285563999999,8.4574314797,4.881358104,263
95264,181833,221196,-0.9906285563999999,8.4574314797,4.881358104,264
95442,181851,221193,-0.9906285563999999,8.4574314797,4.881358104,265
95629,181861,221202,-0.9906285563999999,8.4574314797,4.881358104,266
95733,181892,221242,-0.9906285563999999,8.4574314797,4.881358104,267
95621,181833,221208,-0.9906285563999999,8.4574314797,4.881358104,268
95089,181773,221182,-0.9906285563999999,8.4574314797,4.881358104,269
94371,181729,221113,-0.9906285563999999,8.4574314797,4.881358104,270
93717,181624,221037,-0.9906285563999999,8.4574314797,4.881358104,271
92131,181265,220789,-1.052841944,8.5938223679,5.0524449199,272
92319,181323,220785,-1.052841944,8.5938223679,5.0524449199,273
92453,181316,220774,-1.052841944,8.5938223679,5.0524449199,274
92556,181323,220790,-1.052841944,8.5938223679,5.0524449199,275
92644,181335,220860,-1.052841944,8.5938223679,5.0524449199,276
92717,181317,220850,-1.052841944,8.5938223679,5.0524449199,277
92842,181352,220865,-1.052841944,8.5938223679,5.0524449199,278
92998,181367,220864,-1.052841944,8.5938223679,5.0524449199,279
93154,181387,220883,-1.052841944,8.5938223679,5.0524449199,280
93316,181427,220900,-1.052841944,8.5938223679,5.0524449199,281
93482,181424,220901,-1.052841944,8.5938223679,5.0524449199,282
93652,181453,220967,-1.052841944,8.5938223679,5.0524449199,283
93823,181486,220972,-1.052841944,8.5938223679,5.0524449199,284
94003,181461,220995,-1.052841944,8.5938223679,5.0524449199,285
94173,181527,220993,-1.052841944,8.5938223679,5.0524449199,286
94333,181545,220989,-1.052841944,8.5938223679,5.0524449199,287
94481,181560,221009,-1.052841944,8.5938223679,5.0524449199,288
94646,181585,221018,-1.052841944,8.5938223679,5.0524449199,289
94691,181575,221017,-1.052841944,8.5938223679,5.0524449199,290
94325,181518,220947,-1.052841944,8.5938223679,5.0524449199,291
93628,181429,220916,-1.052841944,8.5938223679,5.0524449199,292
92857,181312,220872,-1.052841944,8.5938223679,5.0524449199,293
92203,181281,220774,-1.052841944,8.5938223679,5.0524449199,294
91780,181208,220739,-1.052841944,8.5938223679,5.0524449199,295
91554,181146,220736,-1.052841944,8.5938223679,5.0524449199,296
91523,181149,220815,-1.052841944,8.5938223679,5.0524449199,297
91656,181163,220778,-1.052841944,8.5938223679,5.0524449199,298
91860,181180,220804,-1.052841944,8.5938223679,5.0524449199,299
92058,181190,220775,-1.052841944,8.5938223679,5.0524449199,300
92175,181192,220820,-1.052841944,8.5938223679,5.0524449199,301
92279,181212,220800,-1.052841944,8.5938223679,5.0524449199,302
92358,181198,220794,-1.052841944,8.5938223679,5.0524449199,303
92481,181204,220842,-1.052841944,8.5938223679,5.0524449199,304
92605,181277,220823,-1.052841944,8.5938223679,5.0524449199,305
92733,181289,220860,-1.052841944,8.5938223679,5.0524449199,306
92881,181283,220859,-1.052841944,8.5938223679,5.0524449199,307
93052,181285,220862,-1.052841944,8.5938223679,5.0524449199,308
93241,181316,220851,-1.052841944,8.5938223679,5.0524449199,309
93408,181367,220909,-1.052841944,8.5938223679,5.0524449199,310
93600,181339,220960,-1.052841944,8.5938223679,5.0524449199,311
93799,181409,220984,-1.052841944,8.5938223679,5.0524449199,312
93937,181408,221012,-1.052841944,8.5938223679,5.0524449199,313
94255,181412,220938,-0.9714859755999999,8.49452023,5.0907300815,314
93588,181352,220954,-0.9714859755999999,8.49452023,5.0907300815,315
92833,181273,220872,-0.9714859755999999,8.49452023,5.0907300815,316
92228,181173,220812,-0.9714859755999999,8.49452023,5.0907300815,317
91809,181160,220812,-0.9714859755999999,8.49452023,5.0907300815,318
91619,181097,220836,-0.9714859755999999,8.49452023,5.0907300815,319
91577,181079,220818,-0.9714859755999999,8.49452023,5.0907300815,320
91731,181114,220784,-0.9714859755999999,8.49452023,5.0907300815,321
91965,181171,220847,-0.9714859755999999,8.49452023,5.0907300815,322
92169,181178,220858,-0.9714859755999999,8.49452023,5.0907300815,323
92333,181185,220878,-0.9714859755999999,8.49452023,5.0907300815,324
92467,181170,220885,-0.9714859755999999,8.49452023,5.0907300815,325
92580,181203,220927,-0.9714859755999999,8.49452023,5.0907300815,326
92664,181198,220919,-0.9714859755999999,8.49452023,5.0907300815,327
92821,181231,220966,-0.9714859755999999,8.49452023,5.0907300815,328
92953,181244,220938,-0.9714859755999999,8.49452023,5.0907300815,329
93134,181252,220981,-0.9714859755999999,8.49452023,5.0907300815,330
93311,181315,220942,-0.9714859755999999,8.49452023,5.0907300815,331
93536,181352,221025,-0.9714859755999999,8.49452023,5.0907300815,332
93733,181391,221004,-0.9714859755999999,8.49452023,5.0907300815,333
93935,181396,221032,-0.9714859755999999,8.49452023,5.0907300815,334
94129,181441,221087,-0.9714859755999999,8.49452023,5.0907300815,335
94322,181491,221066,-0.9714859755999999,8.49452023,5.0907300815,336
94526,181501,221087,-0.9714859755999999,8.49452023,5.0907300815,337
94713,181552,221158,-0.9714859755999999,8.49452023,5.0907300815,338
94893,181599,221111,-0.9714859755999999,8.49452023,5.0907300815,339
94940,181576,221112,-0.9714859755999999,8.49452023,5.0907300815,340
94619,181482,221102,-0.9714859755999999,8.49452023,5.0907300815,341
93959,181406,221035,-0.9714859755999999,8.49452023,5.0907300815,342
93260,181339,221022,-0.9714859755999999,8.49452023,5.0907300815,343
92750,181274,220958,-0.9714859755999999,8.49452023,5.0907300815,344
92393,181218,220939,-0.9714859755999999,8.49452023,5.0907300815,345
92243,181239,220933,-0.9714859755999999,8.49452023,5.0907300815,346
92286,181241,220955,-0.9714859755999999,8.49452023,5.0907300815,347
92472,181236,220980,-0.9714859755999999,8.49452023,5.0907300815,348
92689,181248,220966,-0.9714859755999999,8.49452023,5.0907300815,349
92863,181270,221003,-0.9714859755999999,8.49452023,5.0907300815,350
93003,181252,221014,-0.9714859755999999,8.49452023,5.0907300815,351
93082,181289,221033,-0.9714859755999999,8.49452023,5.0907300815,352
93151,181289,221061,-0.9714859755999999,8.49452023,5.0907300815,353
93238,181292,220955,-0.9714859755999999,8.49452023,5.0907300815,354
93300,181239,220934,-0.9714859755999999,8.49452023,5.0907300815,355
94564,181362,220996,-0.8434699665000001,8.4646099475,4.9399822577,356
94122,181317,220911,-0.8434699665000001,8.4646099475,4.9399822577,357
93384,181218,220890,-0.8434699665000001,8.4646099475,4.9399822577,358
92687,181111,220822,-0.8434699665000001,8.4646099475,4.9399822577,359
92160,181025,220838,-0.8434699665000001,8.4646099475,4.9399822577,360
91776,180992,220801,-0.8434699665000001,8.4646099475,4.9399822577,361
91594,180939,220748,-0.8434699665000001,8.4646099475,4.9399822577,362
91627,180967,220747,-0.8434699665000001,8.4646099475,4.9399822577,363
91785,181004,220772,-0.8434699665000001,8.4646099475,4.9399822577,364
92012,181034,220754,-0.8434699665000001,8.4646099475,4.9399822577,365
92203,181004,220778,-0.8434699665000001,8.4646099475,4.9399822577,366
92316,181040,220790,-0.8434699665000001,8.4646099475,4.9399822577,367
92438,181033,220768,-0.8434699665000001,8.4646099475,4.9399822577,368
92496,181023,220786,-0.8434699665000001,8.4646099475,4.9399822577,369
92634,181069,220789,-0.8434699665000001,8.4646099475,4.9399822577,370
92749,181083,220832,-0.8434699665000001,8.4646099475,4.9399822577,371
92902,181094,220844,-0.8434699665000001,8.4646099475,4.9399822577,372
93070,181109,220835,-0.8434699665000001,8.4646099475,4.9399822577,373
93252,181115,220883,-0.8434699665000001,8.4646099475,4.9399822577,374
93442,181130,220850,-0.8434699665000001,8.4646099475,4.9399822577,375
93628,181202,220903,-0.8434699665000001,8.4646099475,4.9399822577,376
93800,181225,220908,-0.8434699665000001,8.4646099475,4.9399822577,377
93996,181258,220875,-0.8434699665000001,8.4646099475,4.9399822577,378
94144,181266,220926,-0.8434699665000001,8.4646099475,4.9399822577,379
94334,181273,220936,-0.8434699665000001,8.4646099475,4.9399822577,380
94452,181302,220959,-0.8434699665000001,8.4646099475,4.9399822577,381
94468,181271,220967,-0.8434699665000001,8.4646099475,4.9399822577,382
94068,181236,220906,-0.9619146851999999,8.5411802707,5.0476592747,383
93336,181123,220859,-0.9619146851999999,8.5411802707,5.0476592747,384
92593,181047,220772,-0.9619146851999999,8.5411802707,5.0476592747,385
91990,180985,220727,-0.9619146851999999,8.5411802707,5.0476592747,386
91589,180876,220726,-0.9619146851999999,8.5411802707,5.0476592747,387
91340,180827,220689,-0.9619146851999999,8.5411802707,5.0476592747,388
91345,180833,220681,-0.9619146851999999,8.5411802707,5.0476592747,389
91483,180859,220715,-0.9619146851999999,8.5411802707,5.0476592747,390
91674,180893,220724,-0.9619146851999999,8.5411802707,5.0476592747,391
91873,180868,220757,-0.9619146851999999,8.5411802707,5.0476592747,392
92016,180894,220742,-0.9619146851999999,8.5411802707,5.0476592747,393
92105,180899,220688,-0.9619146851999999,8.5411802707,5.0476592747,394
92209,180892,220723,-0.9619146851999999,8.5411802707,5.0476592747,395
92314,180895,220722,-0.9619146851999999,8.5411802707,5.0476592747,396
92454,180905,220816,-0.9619146851999999,8.5411802707,5.0476592747,397
92599,180971,220755,-0.9619146851999999,8.5411802707,5.0476592747,398
92755,180969,220752,-0.9619146851999999,8.5411802707,5.0476592747,399
92945,181032,220826,-0.9619146851999999,8.5411802707,5.0476592747,400
93147,181019,220815,-0.9619146851999999,8.5411802707,5.0476592747,401
93314,181058,220831,-0.9619146851999999,8.5411802707,5.0476592747,402
93517,181048,220868,-0.9619146851999999,8.5411802707,5.0476592747,403
93693,181087,220834,-0.9619146851999999,8.5411802707,5.0476592747,404
93891,181121,220879,-0.9619146851999999,8.5411802707,5.0476592747,405
94084,181138,220888,-0.9619146851999999,8.5411802707,5.0476592747,406
94254,181158,220907,-0.9619146851999999,8.5411802707,5.0476592747,407
94339,181203,220907,-0.9619146851999999,8.5411802707,5.0476592747,408
94081,181119,220900,-0.9619146851999999,8.5411802707,5.0476592747,409
93444,180999,220832,-0.9619146851999999,8.5411802707,5.0476592747,410
92683,180923,220776,-0.9619146851999999,8.5411802707,5.0476592747,411
92064,180854,220766,-0.9619146851999999,8.5411802707,5.0476592747,412
91624,180776,220737,-0.9619146851999999,8.5411802707,5.0476592747,413
91366,180765,220722,-0.9619146851999999,8.5411802707,5.0476592747,414
91306,180740,220717,-0.9619146851999999,8.5411802707,5.0476592747,415
91447,180762,220742,-0.9619146851999999,8.5411802707,5.0476592747,416
91678,180798,220786,-0.9619146851999999,8.5411802707,5.0476592747,417
91909,180815,220739,-0.9619146851999999,8.5411802707,5.0476592747,418
92082,180824,220824,-0.9619146851999999,8.5411802707,5.0476592747,419
92226,180861,220765,-0.9619146851999999,8.5411802707,5.0476592747,420
92347,180860,220843,-0.9619146851999999,8.5411802707,5.0476592747,421
92493,180906,220783,-0.9619146851999999,8.5411802707,5.0476592747,422
92628,180916,220811,-0.9619146851999999,8.5411802707,5.0476592747,423
92824,180959,220821,-0.9619146851999999,8.5411802707,5.0476592747,424
93831,181048,220927,-0.9918249677,8.6081793035,4.9005006848,425
94056,181132,220929,-0.9918249677,8.6081793035,4.9005006848,426
94245,181146,220952,-0.9918249677,8.6081793035,4.9005006848,427
94448,181178,221000,-0.9918249677,8.6081793035,4.9005006848,428
94624,181217,220994,-0.9918249677,8.6081793035,4.9005006848,429
94729,181233,221010,-0.9918249677,8.6081793035,4.9005006848,430
94547,181183,221008,-0.9918249677,8.6081793035,4.9005006848,431
93969,181075,220941,-0.9918249677,8.6081793035,4.9005006848,432
93223,180999,220918,-0.9918249677,8.6081793035,4.9005006848,433
92595,180888,220913,-0.9918249677,8.6081793035,4.9005006848,434
92148,180892,220837,-0.9918249677,8.6081793035,4.9005006848,435
91887,180826,220783,-0.9918249677,8.6081793035,4.9005006848,436
91880,180837,220792,-0.9918249677,8.6081793035,4.9005006848,437
92010,180846,220824,-0.9918249677,8.6081793035,4.9005006848,438
92188,180826,220835,-0.9918249677,8.6081793035,4.9005006848,439
92374,180862,220854,-0.9918249677,8.6081793035,4.9005006848,440
92459,180822,220839,-0.9918249677,8.6081793035,4.9005006848,441
92536,180829,220757,-0.9918249677,8.6081793035,4.9005006848,442
92584,180828,220798,-0.9918249677,8.6081793035,4.9005006848,443
92670,180823,220782,-0.9918249677,8.6081793035,4.9005006848,444
92774,180818,220785,-0.9918249677,8.6081793035,4.9005006848,445
92926,180848,220799,-0.9918249677,8.6081793035,4.9005006848,446
93045,180858,220817,-0.9918249677,8.6081793035,4.9005006848,447
93228,180873,220810,-0.9918249677,8.6081793035,4.9005006848,448
93401,180909,220848,-0.9918249677,8.6081793035,4.9005006848,449
93575,180955,220879,-0.9918249677,8.6081793035,4.9005006848,450
93768,180926,220892,-0.9918249677,8.6081793035,4.9005006848,451
93943,180961,220913,-0.9918249677,8.6081793035,4.9005006848,452
94127,180994,220930,-0.9918249677,8.6081793035,4.9005006848,453
94327,181055,220917,-0.9918249677,8.6081793035,4.9005006848,454
94463,181048,220948,-0.9918249677,8.6081793035,4.9005006848,455
94388,181041,220932,-0.9918249677,8.6081793035,4.9005006848,456
93904,180945,220884,-0.9918249677,8.6081793035,4.9005006848,457
93142,180846,220824,-0.9918249677,8.6081793035,4.9005006848,458
92394,180734,220792,-0.9918249677,8.6081793035,4.9005006848,459
91812,180691,220725,-0.9918249677,8.6081793035,4.9005006848,460
91459,180654,220723,-0.9918249677,8.6081793035,4.9005006848,461
91263,180626,220649,-0.9918249677,8.6081793035,4.9005006848,462
91303,180646,220654,-0.9918249677,8.6081793035,4.9005006848,463
91467,180659,220698,-0.9427721043999999,8.5328053916,5.0380879843,464
91708,180673,220713,-0.9427721043999999,8.5328053916,5.0380879843,465
91928,180685,220737,-0.9427721043999999,8.5328053916,5.0380879843,466
92060,180701,220743,-0.9427721043999999,8.5328053916,5.0380879843,467
92178,180672,220714,-0.9427721043999999,8.5328053916,5.0380879843,468
92293,180719,220737,-0.9427721043999999,8.5328053916,5.0380879843,469
92406,180727,220770,-0.9427721043999999,8.5328053916,5.0380879843,470
92568,180704,220817,-0.9427721043999999,8.5328053916,5.0380879843,471
92749,180762,220789,-0.9427721043999999,8.5328053916,5.0380879843,472
92940,180808,220870,-0.9427721043999999,8.5328053916,5.0380879843,473
93105,180798,220793,-0.9427721043999999,8.5328053916,5.0380879843,474
93331,180844,220865,-0.9427721043999999,8.5328053916,5.0380879843,475
93507,180889,220911,-0.9427721043999999,8.5328053916,5.0380879843,476
93693,180885,220937,-0.9427721043999999,8.5328053916,5.0380879843,477
93885,180927,220959,-0.9427721043999999,8.5328053916,5.0380879843,478
94053,180941,220951,-0.9427721043999999,8.5328053916,5.0380879843,479
94228,180991,220986,-0.9427721043999999,8.5328053916,5.0380879843,480
94379,180971,220947,-0.9427721043999999,8.5328053916,5.0380879843,481
94303,180959,220920,-0.9427721043999999,8.5328053916,5.0380879843,482
93857,180888,220895,-0.9427721043999999,8.5328053916,5.0380879843,483
93063,180793,220814,-0.9427721043999999,8.5328053916,5.0380879843,484
92262,180685,220784,-0.9427721043999999,8.5328053916,5.0380879843,485
91691,180645,220718,-0.9427721043999999,8.5328053916,5.0380879843,486
91297,180588,220728,-0.9427721043999999,8.5328053916,5.0380879843,487
91141,180548,220666,-0.9427721043999999,8.5328053916,5.0380879843,488
91194,180516,220691,-0.9427721043999999,8.5328053916,5.0380879843,489
91367,180580,220692,-0.9427721043999999,8.5328053916,5.0380879843,490
91608,180581,220745,-0.9427721043999999,8.5328053916,5.0380879843,491
91817,180592,220733,-0.9427721043999999,8.5328053916,5.0380879843,492
91940,180610,220717,-0.9427721043999999,8.5328053916,5.0380879843,493
92035,180616,220707,-0.9427721043999999,8.5328053916,5.0380879843,494
92161,180656,220762,-0.9427721043999999,8.5328053916,5.0380879843,495
92307,180679,220746,-0.9427721043999999,8.5328053916,5.0380879843,496
92448,180725,220795,-0.9284151688,8.470592004,4.9627140724,497
92635,180688,220815,-0.9284151688,8.470592004,4.9627140724,498
92823,180736,220824,-0.9284151688,8.470592004,4.9627140724,499
93041,180721,220839,-0.9284151688,8.470592004,4.9627140724,500
93231,180774,220862,-0.9284151688,8.470592004,4.9627140724,501
93441,180799,220851,-0.9284151688,8.470592004,4.9627140724,502
93644,180811,220927,-0.9284151688,8.470592004,4.9627140724,503
93843,180858,220901,-0.9284151688,8.470592004,4.9627140724,504
94047,180894,220908,-0.9284151688,8.470592004,4.9627140724,505
94230,180935,220967,-0.9284151688,8.470592004,4.9627140724,506
94410,180962,221014,-0.9284151688,8.470592004,4.9627140724,507
94446,180920,220977,-0.9284151688,8.470592004,4.9627140724,508
94085,180872,220945,-0.9284151688,8.470592004,4.9627140724,509
93370,180820,220862,-0.9284151688,8.470592004,4.9627140724,510
92647,180709,220867,-0.9284151688,8.470592004,4.9627140724,511
92047,180697,220790,-0.9284151688,8.470592004,4.9627140724,512
91679,180631,220739,-0.9284151688,8.470592004,4.9627140724,513
91503,180598,220764,-0.9284151688,8.470592004,4.9627140724,514
91548,180615,220820,-0.9284151688,8.470592004,4.9627140724,515
91729,180625,220794,-0.9284151688,8.470592004,4.9627140724,516
91988,180672,220813,-0.9284151688,8.470592004,4.9627140724,517
92212,180677,220787,-0.9284151688,8.470592004,4.9627140724,518
92391,180691,220836,-0.9284151688,8.470592004,4.9627140724,519
92503,180722,220849,-0.9284151688,8.470592004,4.9627140724,520
92635,180713,220836,-0.9284151688,8.470592004,4.9627140724,521
92800,180712,220886,-0.9284151688,8.470592004,4.9627140724,522
92956,180761,220860,-0.9284151688,8.470592004,4.9627140724,523
93132,180812,220884,-0.9248259349,8.6081793035,4.899304273499999,524
93341,180852,220907,-0.9248259349,8.6081793035,4.899304273499999,525
93538,180857,220953,-0.9248259349,8.6081793035,4.899304273499999,526
93755,180875,220992,-0.9248259349,8.6081793035,4.899304273499999,527
93947,180930,220988,-1.0325029519,8.6033936583,4.9328037898999995,528
94181,180942,221019,-1.0325029519,8.6033936583,4.9328037898999995,529
94383,181001,221063,-0.7944171031999999,8.5938223679,4.9722853628,530
94584,180987,221033,-0.933200814,8.3928252695,4.9627140724,531
94769,181065,221060,-0.9427721043999999,8.61416136,4.8191447164,532
94940,181062,221108,-0.8578269021,8.6656070459,4.8765724588,533
94946,181024,221089,-0.9188438784,8.5280197464,4.9519463707,534
94525,180993,221027,-0.9475577495999999,8.3617185757,4.8861437492,535
93815,180896,220952,-0.8662017812,8.5220376899,4.9483571368,536
93077,180790,220901,-0.9188438784,8.685946038,4.9806602419,537
92494,180699,220873,-0.9427721043999999,8.484948939599999,4.9148576204,538
92096,180585,220783,-1.0133603711,8.5603228515,4.9184468543,539
91922,180639,220782,-0.9236295236,8.6045900696,4.9483571368,540
91911,180602,220753,-0.9236295236,8.6045900696,4.9483571368,541
92052,180622,220736,-0.9236295236,8.6045900696,4.9483571368,542
92267,180651,220760,-1.1198409768,8.7290168448,4.9663033062999995,543
92429,180666,220760,-1.1617153723,8.6560357555,4.90528633,544
92517,180646,220729,-0.9631110964999999,8.5471623272,5.0668018555,545
92630,180652,220766,-0.9583254512999999,8.6129649487,5.0093741131,546
92716,180691,220777,-1.0755737587,8.542376681999999,4.8526442328,547
92822,180664,220776,-1.0145567824000001,8.5005022865,4.8849473379,548
92956,180656,220799,-0.9583254512999999,8.574679787100001,5.085944436299999,549
93137,180717,220790,-0.9822536772999999,8.5890367227,4.9112683865,550
93301,180714,220806,-1.1282158559,8.4897345848,4.9244289108,551
93478,180743,220819,-1.1282158559,8.4897345848,4.9244289108,552
93658,180773,220892,-1.1282158559,8.4897345848,4.9244289108,553
93819,180797,220861,-1.1282158559,8.4897345848,4.9244289108,554
94019,180841,220915,-1.1282158559,8.4897345848,4.9244289108,555
94206,180832,220877,-1.1282158559,8.4897345848,4.9244289108,556
94381,180891,220917,-1.1282158559,8.4897345848,4.9244289108,557
94549,180902,220911,-1.1282158559,8.4897345848,4.9244289108,558
94640,180943,220943,-1.1282158559,8.4897345848,4.9244289108,559
94429,180867,220946,-1.1282158559,8.4897345848,4.9244289108,560
93850,180823,220908,-1.1282158559,8.4897345848,4.9244289108,561
93040,180667,220789,-1.1282158559,8.4897345848,4.9244289108,562
92333,180601,220708,-1.0061819033000001,8.5328053916,5.0189454035,563
91835,180549,220683,-1.0061819033000001,8.5328053916,5.0189454035,564
91670,180492,220647,-0.9296115801,8.5854474888,4.8382872972,565
91901,180532,220645,-0.95712904,8.4478601893,4.9627140724,566
92061,180528,220635,-0.9152546444999999,8.5316089803,5.0333023391000005,567
92167,180539,220674,-0.9379864592,8.543573093300001,4.9280181447,568
92299,180584,220679,-1.0085747259,8.5998044244,4.8143590712,569
92439,180619,220724,-0.8482556117000001,8.551947972399999,4.9148576204,570
92563,180584,220676,-0.8350950873999999,8.5603228515,4.9148576204,571
92728,180618,220721,-1.0205388389,8.4993058752,4.9244289108,572
92883,180624,220728,-0.9619146851999999,8.4897345848,4.9244289108,573
93082,180606,220722,-1.0193424276,8.5076807543,5.0189454035,574
93290,180726,220762,-0.8961120637,8.4514494232,4.8825545153,575
93467,180640,220750,-0.8709874264,8.641678819900001,4.8622155232,576
93654,180740,220823,-1.028913718,8.6751783363,4.8861437492,577
93904,180754,220788,-1.0719845248,8.5088771656,4.9196432655999995,578
94032,180782,220845,-0.9954142015999999,8.5854474888,4.9387858464,579
94218,180820,220839,-0.801595571,8.6177505939,4.995017177499999,580
94396,180856,220845,-0.9870393224999999,8.641678819900001,4.977071008,581
94535,180863,220839,-0.9248259349,8.590233134,5.071587500700001,582
94504,180867,220894,-0.9774680320999999,8.5758761984,5.0153561695999995,583
94074,180766,220823,-0.9523433948,8.49452023,4.9184468543,584
93325,180657,220767,-1.0624132344,8.4335032537,4.9328037898999995,585
92490,180603,220697,-0.9140582332,8.5076807543,4.8526442328,586
91955,180538,220676,-0.7764709337,8.556733617599999,4.9340002012,587
91567,180477,220637,-0.8865407733,8.5651084967,4.9387858464,588
91364,180360,220629,-1.0947163395,8.5100735769,4.9674997176,589
91357,180476,220651,-0.8805587168,8.4574314797,4.8430729424,590
91543,180456,220622,-0.9870393224999999,8.4993058752,5.0668018555,591
91775,180453,220646,-1.0241280728,8.5986080131,4.9340002012,592
91959,180473,220667,-0.909272588,8.7888374098,4.961517661099999,593
92092,180506,220687,-0.8913264185,8.5280197464,4.9818566531999995,594
92237,180534,220654,-1.1150553316,8.5232341012,4.990231532299999,595
92318,180454,220654,-0.9619146851999999,8.6033936583,4.9854458871,596
92456,180573,220662,-1.1186445655,8.470592004,4.9196432655999995,597
92607,180599,220715,-1.0336993632,8.5316089803,4.8909293944,598
92764,180610,220704,-0.9379864592,8.5615192628,4.929214556,599
92940,180562,220765,-0.9858429111999999,8.6560357555,4.8490549989,600
93134,180656,220799,-1.0671988796,8.4514494232,4.8430729424,601
93334,180700,220863,-0.9248259349,8.5938223679,4.9579284272,602
93548,180698,220811,-1.0612168231,8.518448456,4.857429878,603
93738,180758,220781,-1.0384850084,8.5794654323,4.8897329831,604
93939,180760,220858,-0.9822536772999999,8.5627156741,4.977071008,605
94086,180785,220878,-0.9954142015999999,8.542376681999999,4.9244289108,606
94327,180815,220921,-1.0911271056,8.6093757148,4.9005006848,607
94502,180821,220859,-1.0348957745,8.5758761984,4.833501652,608
94536,180849,220901,-1.1186445655,8.5316089803,4.9567320159,609
94187,180802,220908,-1.1234302107,8.3665042209,5.000999234,610
93465,180735,220847,-1.0061819033000001,8.4335032537,4.8765724588,611
92712,180626,220767,-1.0133603711,8.6476608764,4.8394837085,612
92077,180576,220762,-1.1090732750999999,8.5998044244,4.90528633,613
91648,180543,220688,-0.9583254512999999,8.398807326,4.9914279436,614
91447,180505,220712,-0.9248259349,8.5375910368,4.9579284272,615
91441,180491,220716,-0.9104689993,8.5806618436,4.7760739096,616
91617,180495,220711,-1.07677017,8.5531443837,4.9340002012,617
91851,180518,220778,-0.9714859755999999,8.5806618436,4.9627140724,618
92058,180574,220730,-0.9762716208,8.471788415299999,4.9005006848,619
92263,180561,220773,-1.0097711372,8.4670027701,4.929214556,620
92411,180556,220778,-0.8961120637,8.518448456,5.0763731459,621
92564,180591,220847,-1.0707881135,8.5124663995,5.1003013719000005,622
92693,180635,220801,-1.1473584366999998,8.5328053916,4.8777688701,623
92874,180670,220807,-1.0564311779,8.5005022865,4.9722853628,624
93027,180646,220843,-0.8865407733,8.518448456,4.9016970961,625
93203,180722,220897,-1.0755737587,8.5806618436,4.9674997176,626
93412,180771,220877,-1.0564311779,8.6512501103,4.857429878,627
93622,180768,220908,-0.9391828704999999,8.542376681999999,4.9016970961,628
93879,180777,220968,-0.9846464999,8.590233134,4.8825545153,629
94007,180812,220953,-0.8530412569000001,8.569894141899999,4.7533420949,630
94244,180857,221013,-0.9774680320999999,8.5328053916,5.0632126216,631
94425,180949,221034,-1.1856435983,8.5280197464,4.9998028226999995,632
94643,180924,220992,-1.07677017,8.5986080131,4.8191447164,633
94818,180940,221067,-0.7393821834000001,8.5280197464,4.9005006848,634
94839,180925,221018,-0.9391828704999999,8.5040915204,4.990231532299999,635
94497,180862,220967,-0.9487541609,8.5136628108,5.0153561695999995,636
93795,180779,220951,-0.8721838377000001,8.5363946255,4.9375894351,637
93053,180720,220888,-0.8817551281,8.6081793035,5.0620162103,638
92469,180655,220857,-0.9284151688,8.5232341012,4.9722853628,639
92098,180629,220836,-0.7956135145,8.3856468017,4.9196432655999995,640
91932,180580,220805,-0.8685946038000001,8.484948939599999,4.9148576204,641
91967,180612,220796,-0.933200814,8.5040915204,4.833501652,642
92119,180630,220835,-0.909272588,8.3808611565,4.8717868136,643
92339,180593,220809,-0.7812565789,8.470592004,4.953142782,644
92523,180649,220809,-0.8530412569000001,8.4789668831,4.9758745967,645
92641,180615,220821,-0.8997012976000001,8.4430745441,4.8490549989,646
92717,180589,220780,-0.9906285563999999,8.5280197464,4.977071008,647
92775,180626,220837,-0.8482556117000001,8.6273218843,4.8909293944,648
92894,180636,220803,-0.9463613382999999,8.6093757148,4.9196432655999995,649
92957,180620,220795,-1.0803594039,8.4670027701,5.0524449199,650
93079,180676,220801,-1.0660024683,8.419146318100001,4.929214556,651
93203,180662,220823,-1.0145567824000001,8.4801632944,5.0153561695999995,652
93342,180670,220833,-0.9236295236,8.475377649199999,4.881358104,653
93525,180697,220830,-0.9667003303999999,8.5806618436,4.8059841921,654
93672,180632,220889,-1.1617153723,8.6644106346,4.9005006848,655
93883,180770,220850,-0.9475577495999999,8.6045900696,4.995017177499999,656
94089,180767,220869,-0.9774680320999999,8.6177505939,5.0189454035,657
94198,180735,220851,-0.9391828704999999,8.518448456,4.8765724588,658
94368,180818,220900,-1.004985492,8.5244305125,4.9064827413000005,659
94465,180813,220887,-1.0181460163,8.3760755113,4.8670011684,660
94229,180783,220846,-0.8362914987,8.5052879317,5.010570524399999,661
93616,180685,220820,-1.0755737587,8.6321075295,4.977071008,662
92827,180545,220762,-0.8147560952999999,8.590233134,4.8777688701,663
92112,180530,220708,-0.9343972253,8.6045900696,5.0668018555,664
91596,180441,220650,-1.1569297271,8.574679787100001,4.953142782,665
91315,180368,220660,-1.1294122672,8.484948939599999,4.8203411277,666
91212,180429,220622,-1.0432706536,8.5136628108,5.0201418148,667
91297,180398,220652,-0.9798608547,8.4801632944,4.9244289108,668
91535,180400,220656,-1.1042876299,8.6081793035,4.881358104,669
91720,180446,220651,-1.0157531937,8.470592004,4.8203411277,670
91920,180491,220680,-0.9140582332,8.6524465216,4.953142782,671
92021,180450,220664,-0.8590233134,8.6129649487,4.9148576204,672
92151,180412,220673,-0.9870393224999999,8.6033936583,4.9184468543,673
92273,180485,220653,-0.9343972253,8.584251077500001,4.9244289108,674
92407,180500,220697,-0.9284151688,8.5005022865,4.953142782,675
92577,180479,220711,-1.0671988796,8.5052879317,4.9244289108,676
92754,180480,220736,-1.0671988796,8.6225362391,5.0045884679,677
92936,180537,220723,-0.8673981925,8.4670027701,4.9100719752,678
93127,180603,220783,-0.8997012976000001,8.538787448099999,5.0380879843,679
93322,180600,220762,-1.0001998468,8.551947972399999,4.9854458871,680
93488,180628,220763,-1.0995019847,8.566304908,4.8622155232,681
93699,180696,220799,-1.0803594039,8.4933238187,4.8861437492,682
93886,180674,220812,-1.0624132344,8.542376681999999,5.0428736295,683
94064,180683,220878,-1.0947163395,8.5507515611,4.857429878,684
94274,180700,220889,-0.9391828704999999,8.6560357555,4.809573426,685
94334,180763,220886,-0.9559326287,8.5651084967,4.9627140724,686
94072,180699,220845,-1.0085747259,8.5459659159,4.9196432655999995,687
93446,180617,220792,-1.0480562988,8.529216157699999,4.881358104,688
92650,180552,220717,-1.0205388389,8.4000037373,4.8191447164,689
91965,180440,220659,-1.1629117836,8.3904324469,4.8622155232,690
91460,180327,220592,-1.0001998468,8.6189470052,4.90528633,691
91185,180339,220587,-1.1473584366999998,8.5088771656,4.9998028226999995,692
91125,180315,220555,-1.004985492,8.4323068424,4.929214556,693
91206,180303,220604,-0.9762716208,8.4430745441,4.9148576204,694
91430,180345,220606,-1.0061819033000001,8.4622171249,4.9914279436,695
91645,180368,220631,-0.9667003303999999,8.6656070459,4.9579284272,696
91830,180410,220659,-0.9427721043999999,8.556733617599999,4.7772703209000005,697
91979,180310,220646,-0.9858429111999999,8.5555372063,4.8801616927,698
92104,180402,220667,-0.8673981925,8.4670027701,4.9435714916,699
92235,180378,220662,-1.1198409768,8.4622171249,4.9244289108,700
92366,180419,220670,-0.9667003303999999,8.484948939599999,4.833501652,701
92523,180496,220660,-0.9104689993,8.6225362391,4.990231532299999,702
92741,180475,220722,-0.9762716208,8.636893174699999,4.8897329831,703
92930,180481,220692,-1.0277173067,8.5040915204,4.8765724588,704
93121,180519,220768,-0.873380249,8.3844503904,4.8239303616,705
93304,180583,220750,-0.9870393224999999,8.4861453509,4.977071008,706
93515,180587,220793,-0.8003991597,8.4382888989,4.9663033062999995,707
93708,180613,220810,-1.0612168231,8.475377649199999,4.8382872972,708
93845,180645,220831,-0.9918249677,8.427521197199999,4.9579284272,709
94073,180685,220812,-0.8530412569000001,8.6321075295,4.9160540317,710
94274,180716,220836,-1.0851450490999999,8.5136628108,4.8382872972,711
94381,180711,220894,-1.0109675485,8.4873417622,4.9663033062999995,712
94236,180724,220863,-1.1042876299,8.5280197464,4.9579284272,713
93672,180623,220784,-0.8685946038000001,8.4957166413,4.8299124181,714
92898,180598,220725,-1.0157531937,8.518448456,4.961517661099999,715
92226,180446,220724,-1.0576275892,8.5770726097,4.8526442328,716
91668,180371,220665,-0.9296115801,8.475377649199999,4.9088755639,717
91372,180310,220630,-0.9284151688,8.4993058752,4.995017177499999,718
91292,180293,220659,-1.1377871463,8.4335032537,4.9854458871,719
91398,180342,220588,-1.0576275892,8.5280197464,4.8957150396,720
91610,180350,220666,-1.0384850084,8.5088771656,4.8287160068,721
91872,180267,220659,-0.9667003303999999,8.419146318100001,4.9244289108,722
92073,180437,220664,-0.9248259349,8.5890367227,4.8717868136,723
92267,180438,220703,-0.8673981925,8.636893174699999,4.9196432655999995,724
92382,180432,220689,-1.0241280728,8.5806618436,4.9471607255,725
92547,180480,220718,-0.9343972253,8.4993058752,4.8717868136,726
92690,180479,220746,-0.9008977089,8.4610207136,4.8000021356,727
92936,180515,220785,-1.0815558152,8.446663778,5.0045884679,728
93069,180567,220787,-0.8207381518,8.4897345848,4.8526442328,729
93268,180555,220831,-1.0851450490999999,8.4239319633,4.833501652,730
93465,180592,220812,-0.8626125473,8.5363946255,4.9005006848,731
93704,180598,220868,-0.9523433948,8.5328053916,4.9998028226999995,732
93873,180646,220877,-0.8769694829,8.5471623272,4.9758745967,733
94062,180626,220865,-0.885344362,8.5998044244,4.90528633,734
94281,180766,220868,-1.0181460163,8.5232341012,4.8622155232,735
94463,180743,220905,-1.0755737587,8.6129649487,4.9818566531999995,736
94672,180806,220940,-1.0109675485,8.5758761984,4.8478585876,737
94745,180804,221003,-0.9906285563999999,8.4370924876,4.8909293944,738
94730,180778,220953,-1.0612168231,8.4323068424,4.990231532299999,739
94234,180692,220931,-0.8961120637,8.6081793035,4.8921258057,740
93511,180618,220790,-0.8913264185,8.6668034572,4.8849473379,741
92797,180580,220817,-0.9954142015999999,8.7361953126,4.990231532299999,742
92311,180483,220756,-0.8721838377000001,8.5268233351,5.0201418148,743
92033,180438,220715,-0.9343972253,8.5411802707,4.9244289108,744
91922,180445,220727,-0.9140582332,8.475377649199999,4.9100719752,745
92010,180491,220709,-0.8817551281,8.551947972399999,4.8765724588,746
92239,180484,220741,-0.8482556117000001,8.5052879317,5.0380879843,747
92464,180506,220750,-0.9475577495999999,8.4323068424,4.9674997176,748
92634,180513,220788,-0.9870393224999999,8.542376681999999,4.9244289108,749
92792,180497,220792,-0.9523433948,8.542376681999999,4.9148576204,750
92918,180545,220732,-1.0372885971,8.6991065623,4.8861437492,751
93030,180582,220818,-0.8769694829,8.6452680538,4.977071008,752
93203,180556,220799,-1.0193424276,8.4418781328,4.8670011684,753
93346,180599,220801,-0.9762716208,8.5411802707,4.9591248385,754
93554,180603,220819,-0.8805587168,8.419146318100001,5.0045884679,755
93720,180628,220860,-0.9343972253,8.3377903497,5.0380879843,756
93900,180658,220806,-0.9906285563999999,8.5220376899,4.881358104,757
94036,180653,220902,-0.9655039191,8.4693955927,4.9375894351,758
94229,180684,220841,-0.8769694829,8.5280197464,4.9710889515,759
94303,180672,220813,-1.0037890807,8.5651084967,5.0811587911,760
94503,180663,220822,-0.9140582332,8.6177505939,5.0045884679,761
94636,180703,220809,-0.9667003303999999,8.463413536200001,4.8239303616,762
94722,180664,220873,-1.0241280728,8.5710905532,4.9005006848,763
94707,180688,220861,-0.861416136,8.5232341012,5.0093741131,764
94245,180648,220804,-0.9762716208,8.3796647452,5.0488556860000005,765
93501,180523,220735,-1.052841944,8.6225362391,5.000999234,766
92716,180383,220694,-0.9427721043999999,8.5531443837,4.9280181447,767
92126,180346,220565,-0.8626125473,8.641678819900001,4.7952164904,768
91731,180337,220578,-1.0157531937,8.6273218843,4.8622155232,769
91516,180292,220543,-1.0624132344,8.4993058752,4.9627140724,770
91546,180260,220526,-1.0193424276,8.5950187792,4.9483571368,771
91687,180292,220547,-0.8434699665000001,8.5615192628,4.8765724588,772
91910,180285,220564,-1.0097711372,8.5316089803,4.9435714916,773
92078,180296,220553,-0.9296115801,8.5710905532,4.9040899186999996,774
92227,180311,220639,-0.9631110964999999,8.5794654323,4.8670011684,775
92339,180313,220638,-1.0420742423,8.471788415299999,4.8957150396,776
92425,180367,220620,-0.8865407733,8.6763747476,5.000999234,777
92553,180376,220589,-1.0420742423,8.4000037373,4.9005006848,778
92697,180272,220630,-1.0085747259,8.5507515611,4.8957150396,779
92851,180418,220625,-0.9116654106,8.4813597057,4.9423750803,780
93046,180415,220697,-0.9284151688,8.4658063588,4.9519463707,781
93231,180458,220702,-0.9284151688,8.5136628108,4.9196432655999995,782
93389,180467,220676,-1.0480562988,8.4658063588,4.9627140724,783
93584,180548,220689,-0.9008977089,8.5531443837,4.9196432655999995,784
93786,180494,220773,-1.1282158559,8.5040915204,4.9471607255,785
93978,180511,220725,-1.0384850084,8.4430745441,4.8586262893,786
94145,180602,220794,-0.9248259349,8.717052731799999,4.9387858464,787
94331,180628,220771,-1.0911271056,8.6129649487,4.9806602419,788
94470,180622,220738,-0.9858429111999999,8.566304908,4.881358104,789
94381,180618,220816,-0.8709874264,8.5280197464,5.0141597583,790
93901,180511,220701,-0.95712904,8.4801632944,4.9818566531999995,791
93097,180350,220664,-1.0492527101,8.556733617599999,5.0285166938999994,792
92334,180326,220619,-1.0085747259,8.427521197199999,4.8861437492,793
91708,180231,220603,-0.9535398061,8.5603228515,4.90528633,794
91328,180244,220530,-1.0061819033000001,8.6656070459,4.9722853628,795
91130,180206,220545,-0.9343972253,8.446663778,4.9244289108,796
91156,180210,220538,-0.9535398061,8.6129649487,4.8957150396,797
91319,180236,220539,-1.0624132344,8.5806618436,5.057230565099999,798
91537,180229,220528,-0.981057266,8.4574314797,4.9375894351,799
91763,180230,220583,-1.1186445655,8.4550386571,4.9579284272,800
91926,180278,220562,-1.0384850084,8.4813597057,4.8765724588,801
92060,180293,220583,-0.8865407733,8.5854474888,4.9483571368,802
92256,180287,220579,-1.0719845248,8.542376681999999,4.990231532299999,803
92304,180311,220625,-1.0181460163,8.5603228515,5.0093741131,804
92489,180379,220686,-1.0181460163,8.5603228515,5.0093741131,805
92641,180312,220674,-1.0181460163,8.5603228515,5.0093741131,806
92819,180350,220649,-1.0181460163,8.5603228515,5.0093741131,807
92994,180408,220690,-1.0181460163,8.5603228515,5.0093741131,808
93202,180442,220695,-1.0181460163,8.5603228515,5.0093741131,809
93399,180442,220740,-0.9379864592,8.5040915204,4.9148576204,810
93575,180512,220779,-0.9379864592,8.5040915204,4.9148576204,811
93767,180539,220735,-1.0755737587,8.4514494232,4.9591248385,812
93985,180524,220783,-1.0719845248,8.5040915204,4.8107698373000005,813
94140,180610,220782,-1.0624132344,8.5280197464,4.8143590712,814
94294,180608,220821,-0.95712904,8.538787448099999,4.9627140724,815
94187,180601,220764,-1.0480562988,8.636893174699999,5.0189454035,816
93641,180488,220741,-1.0815558152,8.4574314797,5.1003013719000005,817
92863,180329,220708,-1.1473584366999998,8.5938223679,4.9280181447,818
92092,180355,220599,-1.0707881135,8.4514494232,4.7916272565,819
91556,180267,220609,-0.9104689993,8.5710905532,4.8909293944,820
91253,180167,220544,-1.0360921858,8.4993058752,4.9627140724,821
91081,180217,220565,-0.9391828704999999,8.4658063588,4.7760739096,822
91169,180233,220534,-1.2514462198,8.7146599092,4.9519463707,823
91400,180213,220577,-1.0624132344,8.641678819900001,4.7676990305,824
91661,180246,220611,-0.8961120637,8.5710905532,4.9196432655999995,825
91889,180294,220634,-0.9583254512999999,8.5710905532,4.9806602419,826
92079,180314,220658,-0.9583254512999999,8.5710905532,4.9806602419,827
92233,180301,220661,-0.9583254512999999,8.5710905532,4.9806602419,828
92386,180371,220634,-0.9583254512999999,8.5710905532,4.9806602419,829
92546,180375,220685,-0.9714859755999999,8.4574314797,4.8203411277,830
92722,180361,220711,-1.1054840412,8.5316089803,4.9196432655999995,831
92916,180421,220706,-1.0803594039,8.5280197464,4.8717868136,832
93102,180427,220770,-0.9714859755999999,8.4095750277,4.9663033062999995,833
93306,180445,220783,-1.0229316615,8.6428752312,4.9387858464,834
93519,180467,220798,-0.9918249677,8.5088771656,4.8346980633,835
93767,180529,220821,-1.0432706536,8.6177505939,4.9375894351,836
93949,180571,220869,-0.8243273857,8.5328053916,4.8107698373000005,837
94181,180591,220803,-1.0851450490999999,8.61416136,4.8825545153,838
94367,180670,220844,-1.1090732750999999,8.5555372063,4.990231532299999,839
94598,180656,220873,-0.9535398061,8.471788415299999,4.8909293944,840
94756,180697,220905,-0.9894321450999999,8.518448456,4.8622155232,841
94758,180669,220930,-0.9523433948,8.4430745441,4.9962135888,842
94317,180624,220865,-0.8147560952999999,8.4897345848,4.8622155232,843
93588,180549,220824,-0.9391828704999999,8.5040915204,4.9340002012,844
92872,180466,220744,-1.1186445655,8.4526458345,4.8717868136,845
92286,180407,220726,-1.1090732750999999,8.5854474888,4.8861437492,846
91988,180388,220653,-0.8159525066,8.4957166413,4.9519463707,847
91861,180186,220645,-0.9523433948,8.5890367227,4.9914279436,848
91897,180326,220676,-0.9284151688,8.6225362391,4.8251267729,849
92118,180343,220709,-1.0719845248,8.584251077500001,4.9100719752,850
92296,180334,220707,-1.0516455327,8.602197247,4.9674997176,851
92474,180353,220654,-0.9284151688,8.4323068424,4.9471607255,852
92608,180361,220676,-0.8099704500999999,8.4418781328,4.9962135888,853
92708,180233,220674,-0.8662017812,8.5890367227,5.0189454035,854
92788,180363,220657,-0.9475577495999999,8.4382888989,4.9196432655999995,855
92886,180363,220702,-1.0037890807,8.6356967634,5.1134618962,856
92955,180380,220704,-0.9104689993,8.4897345848,5.0524449199,857
93105,180376,220602,-0.9487541609,8.5088771656,4.8861437492,858
93248,180404,220691,-1.0516455327,8.5758761984,4.9567320159,859
93432,180362,220714,-1.1006983959999999,8.6225362391,4.7868416113,860
93575,180413,220714,-0.9762716208,8.551947972399999,4.9519463707,861
93746,180448,220709,-1.0432706536,8.6321075295,4.977071008,862
93917,180495,220750,-0.9619146851999999,8.4897345848,4.8753760475,863
94118,180465,220777,-0.9284151688,8.470592004,4.977071008,864
94273,180534,220760,-0.9858429111999999,8.556733617599999,4.990231532299999,865
94448,180538,220786,-1.0277173067,8.6081793035,4.809573426,866
94551,180566,220749,-0.8865407733,8.5280197464,4.9100719752,867
94312,180528,220720,-0.8817551281,8.5268233351,4.9435714916,868
93688,180459,220666,-1.0097711372,8.3653078096,4.9627140724,869
92977,180374,220594,-0.9667003303999999,8.4478601893,4.857429878,870
92257,180253,220535,-0.8925228298,8.590233134,4.9328037898999995,871
91789,180212,220516,-0.9439685157,8.551947972399999,4.9100719752,872
91503,180128,220475,-0.9008977089,8.6464644651,5.0428736295,873
91427,180137,220490,-1.028913718,8.6129649487,4.7916272565,874
91528,180164,220454,-0.9678967417,8.569894141899999,4.857429878,875
91739,180192,220489,-1.1473584366999998,8.5088771656,4.90528633,876
91943,180168,220501,-1.1569297271,8.49452023,4.9280181447,877
92143,180208,220571,-0.9475577495999999,8.3952180921,4.9818566531999995,878
92291,180230,220545,-1.0277173067,8.6560357555,5.0045884679,879
92415,180213,220533,-0.9475577495999999,8.5411802707,5.099104960599999,880
92532,180300,220544,-0.8961120637,8.641678819900001,4.9196432655999995,881
92677,180287,220561,-1.1234302107,8.5758761984,4.8909293944,882
92833,180307,220571,-1.0229316615,8.5794654323,4.8622155232,883
93001,180245,220600,-1.0061819033000001,8.590233134,4.9005006848,884
93176,180342,220611,-0.9379864592,8.5818582549,5.0141597583,885
93383,180337,220641,-1.0097711372,8.6225362391,4.9854458871,886
93597,180436,220636,-1.0719845248,8.5507515611,4.8478585876,887
93777,180422,220685,-0.9667003303999999,8.566304908,5.0201418148,888
93976,180449,220682,-0.8865407733,8.484948939599999,5.0428736295,889
94181,180492,220704,-0.9523433948,8.6225362391,4.8765724588,890
94353,180489,220708,-1.0109675485,8.5806618436,4.9758745967,891
94522,180544,220725,-0.8865407733,8.7708912403,4.990231532299999,892
94649,180536,220732,-1.0624132344,8.6273218843,5.1134618962,893
94380,180507,220677,-0.8303094421999999,8.5316089803,4.929214556,894
93798,180428,220696,-1.0911271056,8.5615192628,4.9304109673,895
93006,180364,220589,-1.0671988796,8.6464644651,4.8622155232,896
92289,180269,220542,-0.9104689993,8.6177505939,4.8945186283,897
91785,180181,220522,-1.0959127508,8.566304908,4.9148576204,898
91489,180155,220467,-1.0145567824000001,8.5938223679,4.9387858464,899
91400,180155,220470,-1.0815558152,8.5148592221,5.0093741131,900
91518,180092,220472,-1.1617153723,8.5088771656,4.9328037898999995,901
91736,180219,220495,-1.0277173067,8.6321075295,5.036891573,902
91970,180206,220549,-1.0133603711,8.5471623272,4.7904308452,903
92163,180235,220543,-0.9906285563999999,8.6129649487,4.9196432655999995,904
92334,180252,220562,-0.9487541609,8.6273218843,4.8861437492,905
92446,180238,220532,-0.8769694829,8.4658063588,4.8478585876,906
92578,180327,220592,-1.0001998468,8.6572321668,4.9483571368,907
92743,180326,220617,-0.8913264185,8.5280197464,4.961517661099999,908
92893,180345,220598,-1.1234302107,8.6129649487,4.8765724588,909
93092,180364,220645,-0.9188438784,8.556733617599999,4.9423750803,910
93248,180409,220609,-0.9906285563999999,8.5411802707,4.9567320159,911
93473,180398,220662,-1.0624132344,8.542376681999999,4.8478585876,912
93677,180426,220686,-0.9655039191,8.574679787100001,4.9387858464,913
93881,180485,220699,-0.9678967417,8.5890367227,4.9148576204,914
94075,180525,220752,-0.9248259349,8.6177505939,4.961517661099999,915
94276,180539,220744,-0.9667003303999999,8.5986080131,5.010570524399999,916
94472,180572,220792,-1.1054840412,8.602197247,4.9387858464,917
94628,180602,220823,-0.7824529901999999,8.5986080131,4.9519463707,918
94765,180610,220831,-0.849452023,8.4478601893,4.8909293944,919
94577,180580,220761,-1.0133603711,8.470592004,4.9663033062999995,920
93881,180474,220743,-0.8817551281,8.4909309961,4.977071008,921
93196,180431,220673,-0.9439685157,8.6703926911,4.9375894351,922
92516,180339,220574,-0.9762716208,8.5136628108,4.977071008,923
92044,180273,220617,-1.0097711372,8.4550386571,4.8287160068,924
91782,180232,220594,-1.0181460163,8.5280197464,4.9088755639,925
91741,180264,220548,-0.9475577495999999,8.636893174699999,4.8287160068,926
91862,180251,220564,-0.9906285563999999,8.4658063588,4.8765724588,927
92075,180262,220561,-0.8901300072,8.6237326504,4.9280181447,928
92282,180364,220592,-1.0671988796,8.4418781328,4.8897329831,929
92478,180328,220629,-1.0277173067,8.641678819900001,4.8777688701,930
92631,180372,220642,-0.8243273857,8.6033936583,4.8969114509,931
92754,180330,220639,-0.9511469834999999,8.4885381735,4.9519463707,932
92876,180364,220678,-0.9104689993,8.5136628108,4.9579284272,933
93012,180435,220680,-0.9152546444999999,8.4897345848,4.9627140724,934
93158,180374,220680,-0.9870393224999999,8.6596249894,4.9005006848,935
93307,180449,220676,-0.9619146851999999,8.3234334141,4.8394837085,936
93449,180441,220679,-0.8805587168,8.4287176085,4.8909293944,937
93603,180446,220672,-0.8255237969999999,8.569894141899999,5.0189454035,938
93744,180446,220704,-1.0193424276,8.4574314797,4.9579284272,939
93893,180474,220699,-0.9858429111999999,8.6356967634,4.9567320159,940
94046,180470,220707,-0.9200402897,8.5758761984,4.929214556,941
94172,180462,220704,-0.9164510558,8.6512501103,4.977071008,942
94335,180501,220717,-0.9068797654,8.5328053916,4.9196432655999995,943
94408,180570,220660,-0.9248259349,8.6309111182,4.9005006848,944
94198,180447,220642,-0.9104689993,8.5124663995,5.0285166938999994,945
93596,180402,220557,-0.95712904,8.5124663995,4.9256253221,946
92761,180293,220562,-1.0193424276,8.4981094639,4.782055966100001,947
92068,180207,220524,-0.9726823869,8.695517328400001,4.9244289108,948
91542,180112,220409,-0.9487541609,8.5806618436,5.0093741131,949
91258,180128,220397,-0.9726823869,8.5471623272,4.9196432655999995,950
91158,180093,220389,-0.9906285563999999,8.5603228515,4.9100719752,951
91284,180078,220383,-1.0851450490999999,8.6129649487,4.881358104,952
91488,180104,220416,-1.0001998468,8.708677852700001,4.9663033062999995,953
91730,180107,220429,-1.0516455327,8.5124663995,4.8143590712,954
91946,180132,220451,-0.8673981925,8.5854474888,4.9758745967,955
92034,180148,220407,-0.933200814,8.4000037373,4.9064827413000005,956
92153,180175,220468,-0.9678967417,8.6033936583,4.8143590712,957
92305,180201,220482,-1.0384850084,8.5363946255,4.8861437492,958
92428,180145,220472,-0.9427721043999999,8.566304908,4.9579284272,959
92595,180230,220515,-1.0755737587,8.5280197464,4.8729832249000005,960
92779,180239,220523,-0.9523433948,8.5938223679,4.9674997176,961
92945,180270,220537,-0.8817551281,8.5710905532,5.0093741131,962
93150,180283,220537,-1.0432706536,8.61416136,4.9627140724,963
93318,180311,220546,-0.9631110964999999,8.4478601893,4.8538406441,964
93498,180347,220571,-0.9786644433999999,8.584251077500001,4.8897329831,965
93697,180369,220526,-0.9403792818,8.6464644651,4.929214556,966
93882,180384,220572,-1.1186445655,8.4993058752,5.0524449199,967
94126,180407,220662,-0.9906285563999999,8.4897345848,5.127818831799999,968
94260,180423,220650,-0.9822536772999999,8.6799639815,4.8382872972,969
94443,180474,220690,-0.9188438784,8.6189470052,4.9040899186999996,970
94581,180516,220701,-0.9487541609,8.769694829,4.9387858464,971
94452,180432,220654,-1.0660024683,8.5280197464,4.9818566531999995,972
93916,180405,220561,-1.0145567824000001,8.4418781328,4.8526442328,973
93220,180295,220537,-0.9056833541,8.6464644651,4.9435714916,974
92602,180241,220502,-1.1150553316,8.5806618436,4.8825545153,975
92264,180230,220504,-0.9966106129000001,8.5232341012,4.7306102802,976
92158,180188,220495,-1.0384850084,8.5615192628,4.9100719752,977
92250,180214,220450,-1.0229316615,8.5040915204,4.9005006848,978
92446,180268,220569,-1.0348957745,8.5555372063,5.0093741131,979
92675,180232,220511,-1.0815558152,8.6177505939,4.9244289108,980
92833,180304,220494,-1.052841944,8.566304908,4.9064827413000005,981
92985,180275,220573,-1.0181460163,8.5998044244,4.8526442328,982
93041,180312,220530,-0.9966106129000001,8.5136628108,4.9519463707,983
93181,180329,220574,-1.0193424276,8.5100735769,4.9519463707,984
93279,180353,220559,-0.9104689993,8.5986080131,4.9244289108,985
93406,180288,220575,-1.0241280728,8.5232341012,4.9040899186999996,986
93575,180372,220583,-1.0432706536,8.717052731799999,4.8825545153,987
93777,180407,220597,-1.0612168231,8.5040915204,4.9100719752,988
93934,180433,220635,-1.0384850084,8.5136628108,4.9244289108,989
94096,180472,220696,-0.9906285563999999,8.628518295600001,4.734199514099999,990
94296,180522,220672,-0.8338986760999999,8.4801632944,4.8957150396,991
94481,180516,220697,-1.1712866627,8.6476608764,4.9100719752,992
94685,180561,220754,-1.1186445655,8.574679787100001,4.8143590712,993
94819,180550,220738,-1.0803594039,8.5806618436,4.8909293944,994
94525,180492,220702,-1.0085747259,8.3330047045,4.9686961289000005,995
93803,180424,220647,-1.0157531937,8.6093757148,4.9244289108,996
92874,180302,220600,-0.9140582332,8.5986080131,4.8849473379,997
92145,180238,220506,-0.9236295236,8.61416136,4.9758745967,998
91651,180179,220463,-1.0193424276,8.5100735769,4.8526442328,999
91484,180140,220471,-1.028913718,8.6093757148,5.0189454035,1000
91530,180150,220474,-1.1006983959999999,8.5710905532,4.9340002012,1001
91704,180163,220484,-1.0911271056,8.6321075295,4.8562334667,1002
91951,180222,220488,-1.0432706536,8.5040915204,4.9196432655999995,1003
92147,180242,220466,-0.9678967417,8.574679787100001,4.9005006848,1004
92324,180124,220498,-0.9762716208,8.4789668831,4.90528633,1005
92448,180253,220521,-0.8638089586000001,8.569894141899999,4.9005006848,1006
92576,180253,220514,-0.8566304908000001,8.566304908,4.8861437492,1007
92729,180289,220533,-0.9104689993,8.4765740605,4.9818566531999995,1008
92907,180318,220554,-0.885344362,8.5136628108,4.9100719752,1009
93054,180244,220574,-0.9152546444999999,8.5615192628,4.8203411277,1010
93249,180379,220605,-1.052841944,8.5890367227,5.010570524399999,1011
93439,180386,220588,-1.0097711372,8.475377649199999,5.0201418148,1012
93670,180432,220654,-0.7812565789,8.49452023,4.9758745967,1013
93884,180417,220686,-0.8434699665000001,8.518448456,4.8909293944,1014
94075,180491,220716,-0.9858429111999999,8.5603228515,4.9423750803,1015
94319,180513,220721,-0.8949156524,8.584251077500001,4.929214556,1016
94475,180527,220714,-1.1198409768,8.5232341012,4.857429878,1017
94700,180555,220753,-1.0480562988,8.551947972399999,4.782055966100001,1018
94812,180586,220732,-0.933200814,8.5603228515,4.9483571368,1019
94601,180541,220726,-0.9762716208,8.5651084967,5.0763731459,1020
93929,180426,220632,-0.9487541609,8.4993058752,5.010570524399999,1021
93124,180373,220620,-1.0420742423,8.4957166413,4.809573426,1022
92431,180280,220575,-0.9619146851999999,8.5328053916,4.6492543118,1023
91987,180197,220517,-0.9523433948,8.6931245058,4.9722853628,1024
91812,180228,220484,-1.0241280728,8.5088771656,5.0536413312,1025
91770,180195,220460,-0.933200814,8.5806618436,4.7629133853,1026
91939,180078,220477,-1.0803594039,8.61416136,4.9005006848,1027
92160,180216,220511,-0.9619146851999999,8.386843213,4.9722853628,1028
92331,180241,220518,-1.0336993632,8.5651084967,4.8897329831,1029
92481,180243,220486,-1.0001998468,8.5088771656,4.953142782,1030
92587,180259,220508,-0.9774680320999999,8.458627890999999,4.8526442328,1031
92693,180224,220486,-0.7764709337,8.5794654323,4.977071008,1032
92780,180225,220520,-1.052841944,8.5938223679,4.9340002012,1033
92808,180224,220465,-1.0037890807,8.6656070459,4.9435714916,1034
93033,180224,220504,-0.9667003303999999,8.6895352719,4.977071008,1035
93142,180253,220471,-0.9726823869,8.61416136,4.977071008,1036
93284,180267,220533,-1.0959127508,8.5005022865,4.8478585876,1037
93448,180303,220517,-1.0480562988,8.5651084967,4.8622155232,1038
93596,180295,220518,-0.9487541609,8.5854474888,4.9340002012,1039
93812,180337,220514,-1.0492527101,8.6321075295,5.0057848792,1040
93981,180346,220562,-0.981057266,8.602197247,4.9722853628,1041
94110,180361,220607,-0.9619146851999999,8.556733617599999,4.9471607255,1042
94307,180401,220535,-0.8590233134,8.6273218843,4.8430729424,1043
94311,180397,220541,-0.873380249,8.566304908,4.9579284272,1044
93808,180321,220524,-1.0336993632,8.4239319633,5.0823552024,1045
93000,180233,220450,-0.9044869428,8.5268233351,4.9579284272,1046
92191,180107,220395,-0.9990034355,8.419146318100001,4.8287160068,1047
91641,180076,220357,-1.0671988796,8.5411802707,4.8382872972,1048
91203,179987,220269,-1.0205388389,8.6045900696,4.9866422984,1049
91031,179969,220284,-0.7812565789,8.5950187792,4.9435714916,1050
91061,179938,220297,-1.0193424276,8.5471623272,4.8670011684,1051
91249,180002,220284,-0.9008977089,8.641678819900001,4.9005006848,1052
91441,179979,220321,-1.0671988796,8.4861453509,4.9244289108,1053
91635,179992,220281,-0.9535398061,8.4765740605,4.7533420949,1054
91873,180037,220320,-0.9583254512999999,8.584251077500001,4.9196432655999995,1055
92016,179992,220365,-0.9248259349,8.5758761984,4.8586262893,1056
92141,180079,220368,-1.1341979124,8.5938223679,4.8861437492,1057
92264,180080,220405,-0.9954142015999999,8.6177505939,4.9016970961,1058
92437,180088,220368,-0.9858429111999999,8.518448456,4.90528633,1059
92641,180094,220403,-1.0995019847,8.5531443837,4.8861437492,1060
92813,180114,220401,-1.0576275892,8.4514494232,5.0045884679,1061
93005,180149,220431,-1.1138589203,8.5005022865,4.9148576204,1062
93192,180173,220483,-1.1198409768,8.470592004,4.9519463707,1063
93398,180232,220477,-1.0145567824000001,8.6703926911,4.9040899186999996,1064
93576,180218,220474,-1.0851450490999999,8.590233134,4.9244289108,1065
93791,180267,220547,-1.052841944,8.5471623272,4.9962135888,1066
93969,180304,220553,-1.0241280728,8.6129649487,4.9100719752,1067
94183,180339,220545,-1.0707881135,8.4765740605,4.8622155232,1068
94364,180329,220598,-1.0348957745,8.542376681999999,4.9040899186999996,1069
94529,180379,220593,-1.0444670649,8.6093757148,4.8765724588,1070
94513,180366,220554,-1.0325029519,8.4993058752,4.9722853628,1071
94000,180353,220545,-1.0157531937,8.3425759949,4.9627140724,1072
93257,180236,220479,-1.0576275892,8.4897345848,5.085944436299999,1073
92546,180106,220381,-1.1377871463,8.574679787100001,4.9005006848,1074
92125,180083,220383,-0.9954142015999999,8.5196448673,4.8717868136,1075
91963,180075,220403,-0.9762716208,8.628518295600001,4.9471607255,1076
91981,180103,220400,-1.1006983959999999,8.569894141899999,4.9387858464,1077
92153,180141,220380,-0.981057266,8.5794654323,4.8143590712,1078
92412,180144,220457,-0.9846464999,8.6333039408,4.8909293944,1079
92615,180166,220475,-0.9631110964999999,8.5136628108,5.0811587911,1080
92800,180152,220479,-1.0480562988,8.6476608764,4.8825545153,1081
92925,180194,220446,-0.9954142015999999,8.5363946255,4.9435714916,1082
93033,180239,220495,-1.0468598875,8.5651084967,4.8777688701,1083
93178,180237,220487,-0.8997012976000001,8.6321075295,4.9196432655999995,1084
93305,180225,220545,-0.9044869428,8.49452023,4.9196432655999995,1085
93405,180272,220537,-1.1521440819,8.5986080131,4.8909293944,1086
93641,180295,220600,-0.9487541609,8.446663778,4.8538406441,1087
93805,180311,220604,-1.0707881135,8.5136628108,4.899304273499999,1088
93999,180351,220591,-0.8865407733,8.484948939599999,4.7473600384,1089
94181,180385,220607,-0.9379864592,8.5890367227,4.9340002012,1090
94346,180378,220678,-0.9667003303999999,8.584251077500001,4.9471607255,1091
94560,180472,220665,-0.9427721043999999,8.5471623272,4.9232324995,1092
94661,180509,220720,-1.0145567824000001,8.5328053916,4.995017177499999,1093
94382,180379,220638,-0.8255237969999999,8.484948939599999,5.0069812905,1094
93611,180307,220562,-0.9367900479,8.6129649487,4.8765724588,1095
92673,180184,220472,-0.9343972253,8.5710905532,4.8897329831,1096
91976,180144,220424,-1.0145567824000001,8.6273218843,4.8478585876,1097
91568,180110,220455,-0.8626125473,8.4430745441,4.9184468543,1098
91420,180002,220415,-1.0193424276,8.636893174699999,4.929214556,1099
91529,180059,220414,-1.0001998468,8.584251077500001,4.8622155232,1100
91735,180083,220388,-1.0325029519,8.4861453509,4.8191447164,1101
91989,180070,220413,-1.0336993632,8.542376681999999,5.0823552024,1102
92196,180176,220418,-0.8817551281,8.5040915204,4.9387858464,1103
92381,180075,220458,-1.0995019847,8.542376681999999,4.9806602419,1104
92519,180149,220465,-0.9619146851999999,8.6177505939,4.9196432655999995,1105
92667,180187,220431,-0.981057266,8.484948939599999,4.9483571368,1106
92815,180184,220480,-0.9475577495999999,8.4562350684,4.9914279436,1107
92974,180212,220481,-0.9678967417,8.5280197464,4.9387858464,1108
93170,180295,220539,-1.0325029519,8.5555372063,4.9148576204,1109
93334,180241,220548,-0.9475577495999999,8.470592004,4.9196432655999995,1110
93502,180260,220526,-1.0193424276,8.4418781328,4.9483571368,1111
93674,180267,220566,-0.8338986760999999,8.6835532154,4.8861437492,1112
93842,180251,220538,-0.9152546444999999,8.5328053916,4.9579284272,1113
93997,180295,220568,-1.2047861791,8.4909309961,4.9016970961,1114
94174,180313,220548,-0.9391828704999999,8.5986080131,5.029713105200001,1115
94284,180297,220545,-1.0097711372,8.7134634979,4.90528633,1116
94397,180304,220597,-1.0193424276,8.5052879317,4.8705904022999995,1117
94275,180261,220528,-0.9248259349,8.5411802707,4.8622155232,1118
93689,180232,220481,-1.004985492,8.628518295600001,4.9627140724,1119
92839,180107,220380,-1.1150553316,8.5028951091,4.9914279436,1120
92005,179952,220347,-0.9667003303999999,8.6656070459,4.7665026192,1121
91445,179957,220259,-0.9774680320999999,8.5615192628,4.8717868136,1122
91109,179900,220244,-1.004985492,8.542376681999999,4.8957150396,1123
91006,179894,220266,-1.004985492,8.542376681999999,4.8957150396,1124
91106,179867,220211,-1.004985492,8.542376681999999,4.8957150396,1125
91355,179904,220255,-1.004985492,8.542376681999999,4.8957150396,1126
91610,179917,220251,-1.004985492,8.542376681999999,4.8957150396,1127
91792,179912,220295,-1.004985492,8.542376681999999,4.8957150396,1128
91954,179938,220269,-1.004985492,8.542376681999999,4.8957150396,1129
92108,179959,220287,-1.004985492,8.542376681999999,4.8957150396,1130
92226,179949,220297,-1.004985492,8.542376681999999,4.8957150396,1131
92347,179960,220324,-1.004985492,8.542376681999999,4.8957150396,1132
92529,180015,220321,-1.004985492,8.542376681999999,4.8957150396,1133
92722,180022,220319,-1.004985492,8.542376681999999,4.8957150396,1134
92898,180067,220350,-1.004985492,8.542376681999999,4.8957150396,1135
93090,180075,220386,-1.004985492,8.542376681999999,4.8957150396,1136
93267,180102,220405,-1.004985492,8.542376681999999,4.8957150396,1137
93484,180138,220455,-1.004985492,8.542376681999999,4.8957150396,1138
93685,180147,220485,-1.004985492,8.542376681999999,4.8957150396,1139
93851,180176,220484,-1.004985492,8.542376681999999,4.8957150396,1140
94046,180255,220442,-1.004985492,8.542376681999999,4.8957150396,1141
94241,180236,220519,-1.004985492,8.542376681999999,4.8957150396,1142
94236,180264,220507,-1.004985492,8.542376681999999,4.8957150396,1143
93834,180173,220464,-1.004985492,8.542376681999999,4.8957150396,1144
93017,180083,220423,-1.004985492,8.542376681999999,4.8957150396,1145
92151,179978,220343,-1.004985492,8.542376681999999,4.8957150396,1146
91486,179898,220258,-1.004985492,8.542376681999999,4.8957150396,1147
91068,179848,220241,-1.004985492,8.542376681999999,4.8957150396,1148
90846,179804,220202,-1.004985492,8.542376681999999,4.8957150396,1149
90908,179822,220160,-1.004985492,8.542376681999999,4.8957150396,1150
91118,179831,220258,-1.004985492,8.542376681999999,4.8957150396,1151
91373,179861,220246,-1.004985492,8.542376681999999,4.8957150396,1152
91614,179861,220218,-0.9044869428,8.362914987,4.977071008,1153
91785,179872,220276,-0.9044869428,8.362914987,4.977071008,1154
91920,179909,220257,-0.9044869428,8.362914987,4.977071008,1155
92074,179951,220268,-0.9044869428,8.362914987,4.977071008,1156
92218,179907,220278,-0.9044869428,8.362914987,4.977071008,1157
92383,179946,220273,-0.9044869428,8.362914987,4.977071008,1158
92567,179961,220344,-0.9200402897,8.5615192628,4.90528633,1159
92774,179990,220315,-0.9200402897,8.5615192628,4.90528633,1160
92970,180045,220380,-0.9200402897,8.5615192628,4.90528633,1161
93159,180073,220408,-0.9200402897,8.5615192628,4.90528633,1162
93375,180063,220367,-0.9200402897,8.5615192628,4.90528633,1163
93573,180100,220405,-0.9200402897,8.5615192628,4.90528633,1164
93806,180169,220468,-0.9200402897,8.5615192628,4.90528633,1165
94008,180197,220498,-0.9200402897,8.5615192628,4.90528633,1166
94198,180217,220525,-0.9200402897,8.5615192628,4.90528633,1167
94454,180268,220562,-0.9200402897,8.5615192628,4.90528633,1168
94599,180329,220539,-0.9200402897,8.5615192628,4.90528633,1169
94754,180318,220531,-0.9200402897,8.5615192628,4.90528633,1170
94610,180283,220551,-0.9200402897,8.5615192628,4.90528633,1171
93991,180221,220531,-0.9200402897,8.5615192628,4.90528633,1172
93211,180133,220425,-1.0109675485,8.4646099475,4.9567320159,1173
92548,180070,220415,-1.0109675485,8.4646099475,4.9567320159,1174
92160,180014,220373,-1.0109675485,8.4646099475,4.9567320159,1175
92031,180006,220371,-1.0109675485,8.4646099475,4.9567320159,1176
92104,180014,220354,-1.0109675485,8.4646099475,4.9567320159,1177
92307,180050,220430,-1.0109675485,8.4646099475,4.9567320159,1178
92559,180091,220408,-0.9296115801,8.6512501103,4.9100719752,1179
92738,180106,220424,-0.9296115801,8.6512501103,4.9100719752,1180
92912,180093,220463,-0.9296115801,8.6512501103,4.9100719752,1181
93070,180143,220481,-0.9296115801,8.6512501103,4.9100719752,1182
93176,180174,220456,-0.9296115801,8.6512501103,4.9100719752,1183
93305,180199,220484,-0.9296115801,8.6512501103,4.9100719752,1184
93482,180207,220514,-0.9296115801,8.6512501103,4.9100719752,1185
93626,180229,220584,-0.9296115801,8.6512501103,4.9100719752,1186
93780,180232,220608,-0.9296115801,8.6512501103,4.9100719752,1187
93970,180267,220601,-0.9296115801,8.6512501103,4.9100719752,1188
94121,180290,220610,-0.9296115801,8.6512501103,4.9100719752,1189
94327,180306,220639,-0.9296115801,8.6512501103,4.9100719752,1190
94520,180351,220641,-0.9296115801,8.6512501103,4.9100719752,1191
94722,180350,220639,-0.9296115801,8.6512501103,4.9100719752,1192
94777,180406,220657,-0.9296115801,8.6512501103,4.9100719752,1193
94413,180345,220617,-0.9296115801,8.6512501103,4.9100719752,1194
93566,180244,220511,-0.9296115801,8.6512501103,4.9100719752,1195
92708,180108,220455,-0.9296115801,8.6512501103,4.9100719752,1196
92049,180045,220409,-0.9296115801,8.6512501103,4.9100719752,1197
91715,180019,220382,-0.9296115801,8.6512501103,4.9100719752,1198
91617,180000,220316,-1.0181460163,8.636893174699999,4.90528633,1199
91745,180032,220391,-1.0181460163,8.636893174699999,4.90528633,1200
91985,180014,220369,-1.0181460163,8.636893174699999,4.90528633,1201
92201,180025,220374,-1.0181460163,8.636893174699999,4.90528633,1202
92398,180078,220413,-1.0181460163,8.636893174699999,4.90528633,1203
92573,180107,220447,-1.0181460163,8.636893174699999,4.90528633,1204
92696,180093,220435,-1.0181460163,8.636893174699999,4.90528633,1205
92813,180115,220456,-1.0181460163,8.636893174699999,4.90528633,1206
92973,180125,220444,-1.0181460163,8.636893174699999,4.90528633,1207
93122,180160,220435,-1.0181460163,8.636893174699999,4.90528633,1208
93280,180169,220490,-1.0181460163,8.636893174699999,4.90528633,1209
93464,180151,220466,-1.0181460163,8.636893174699999,4.90528633,1210
93608,180137,220505,-1.0181460163,8.636893174699999,4.90528633,1211
93749,180228,220468,-1.0181460163,8.636893174699999,4.90528633,1212
93903,180195,220486,-1.0181460163,8.636893174699999,4.90528633,1213
94065,180186,220504,-1.0181460163,8.636893174699999,4.90528633,1214
94205,180254,220470,-1.0181460163,8.636893174699999,4.90528633,1215
94356,180248,220528,-1.0181460163,8.636893174699999,4.90528633,1216
94498,180271,220523,-1.0181460163,8.636893174699999,4.90528633,1217
94633,180263,220519,-1.0181460163,8.636893174699999,4.90528633,1218
94686,180261,220524,-0.9619146851999999,8.4957166413,4.9328037898999995,1219
94344,180244,220505,-0.9619146851999999,8.4957166413,4.9328037898999995,1220
93582,180115,220394,-0.9619146851999999,8.4957166413,4.9328037898999995,1221
92754,180046,220339,-0.9619146851999999,8.4957166413,4.9328037898999995,1222
92160,179993,220296,-0.9619146851999999,8.4957166413,4.9328037898999995,1223
91863,179952,220266,-0.9619146851999999,8.4957166413,4.9328037898999995,1224
91812,179953,220288,-0.9619146851999999,8.4957166413,4.9328037898999995,1225
91954,179948,220250,-0.9619146851999999,8.4957166413,4.9328037898999995,1226
92187,179970,220261,-0.9619146851999999,8.4957166413,4.9328037898999995,1227
92371,179958,220307,-0.9619146851999999,8.4957166413,4.9328037898999995,1228
92519,180010,220340,-0.9619146851999999,8.4957166413,4.9328037898999995,1229
92635,180002,220345,-0.9619146851999999,8.4957166413,4.9328037898999995,1230
92726,180041,220366,-0.9619146851999999,8.4957166413,4.9328037898999995,1231
92853,180052,220379,-0.9619146851999999,8.4957166413,4.9328037898999995,1232
92964,180057,220340,-0.9619146851999999,8.4957166413,4.9328037898999995,1233
93116,180075,220343,-0.9619146851999999,8.4957166413,4.9328037898999995,1234
93267,180085,220346,-0.9619146851999999,8.4957166413,4.9328037898999995,1235
93424,180127,220418,-0.9619146851999999,8.4957166413,4.9328037898999995,1236
93614,180142,220384,-0.9619146851999999,8.4957166413,4.9328037898999995,1237
93785,180158,220374,-0.9619146851999999,8.4957166413,4.9328037898999995,1238
93951,180174,220431,-0.9619146851999999,8.4957166413,4.9328037898999995,1239
94152,180222,220401,-0.9619146851999999,8.4957166413,4.9328037898999995,1240
94177,180197,220451,-0.9619146851999999,8.4957166413,4.9328037898999995,1241
93734,180174,220403,-0.9619146851999999,8.4957166413,4.9328037898999995,1242
92809,180045,220336,-0.9619146851999999,8.4957166413,4.9328037898999995,1243
91845,179910,220219,-0.9619146851999999,8.4957166413,4.9328037898999995,1244
91097,179852,220201,-0.9619146851999999,8.4957166413,4.9328037898999995,1245
90681,179801,220128,-0.9619146851999999,8.4957166413,4.9328037898999995,1246
90535,179740,220084,-0.9619146851999999,8.4957166413,4.9328037898999995,1247
90637,179758,220120,-0.9619146851999999,8.4957166413,4.9328037898999995,1248
90862,179797,220153,-0.9619146851999999,8.4957166413,4.9328037898999995,1249
91144,179819,220163,-0.9619146851999999,8.4957166413,4.9328037898999995,1250
91366,179794,220151,-0.9619146851999999,8.4957166413,4.9328037898999995,1251
91532,179821,220181,-1.0061819033000001,8.6560357555,4.9244289108,1252
91700,179839,220191,-1.0061819033000001,8.6560357555,4.9244289108,1253
91861,179851,220210,-1.0061819033000001,8.6560357555,4.9244289108,1254
92021,179873,220250,-1.0061819033000001,8.6560357555,4.9244289108,1255
92183,179878,220236,-1.0061819033000001,8.6560357555,4.9244289108,1256
92384,179912,220235,-1.0061819033000001,8.6560357555,4.9244289108,1257
92578,179943,220278,-1.0061819033000001,8.6560357555,4.9244289108,1258
92800,179954,220327,-1.0061819033000001,8.6560357555,4.9244289108,1259
93010,180003,220320,-1.0061819033000001,8.6560357555,4.9244289108,1260
93204,180044,220358,-1.0061819033000001,8.6560357555,4.9244289108,1261
93406,180072,220341,-1.0061819033000001,8.6560357555,4.9244289108,1262
93644,180080,220359,-1.0061819033000001,8.6560357555,4.9244289108,1263
93826,180125,220409,-1.0061819033000001,8.6560357555,4.9244289108,1264
94036,180163,220508,-1.0061819033000001,8.6560357555,4.9244289108,1265
94223,180164,220449,-1.0061819033000001,8.6560357555,4.9244289108,1266
94395,180193,220458,-1.0061819033000001,8.6560357555,4.9244289108,1267
94551,180229,220479,-1.0061819033000001,8.6560357555,4.9244289108,1268
94490,180200,220475,-1.0061819033000001,8.6560357555,4.9244289108,1269
93916,180144,220408,-1.0061819033000001,8.6560357555,4.9244289108,1270
93028,180055,220316,-1.0061819033000001,8.6560357555,4.9244289108,1271
92267,179939,220266,-1.0193424276,8.6464644651,4.9196432655999995,1272
91790,179896,220230,-1.0193424276,8.6464644651,4.9196432655999995,1273
91597,179860,220242,-1.0193424276,8.6464644651,4.9196432655999995,1274
91654,179895,220212,-0.9248259349,8.7278204335,4.9998028226999995,1275
91858,179914,220243,-1.0755737587,8.6069828922,4.9710889515,1276
92104,179927,220292,-0.9391828704999999,8.5040915204,4.9866422984,1277
92293,179941,220254,-1.0947163395,8.4993058752,4.9818566531999995,1278
92396,179945,220303,-0.8829515394,8.628518295600001,4.9710889515,1279
92527,179949,220271,-1.0193424276,8.569894141899999,4.9100719752,1280
92624,180043,220276,-1.0336993632,8.471788415299999,4.8801616927,1281
92761,179995,220333,-0.9355936366,8.5459659159,4.8478585876,1282
92904,180035,220317,-0.9427721043999999,8.6189470052,4.9196432655999995,1283
93037,180004,220323,-0.9152546444999999,8.4574314797,4.90528633,1284
93186,180042,220397,-1.0193424276,8.5375910368,5.0237310487,1285
93346,180062,220415,-0.9714859755999999,8.542376681999999,4.8478585876,1286
93511,180103,220371,-0.9702895642999999,8.7421773691,4.9435714916,1287
93703,180104,220425,-1.1294122672,8.5052879317,4.8275195955,1288
93881,180146,220434,-1.1294122672,8.5052879317,4.8275195955,1289
93892,180135,220374,-1.1294122672,8.5052879317,4.8275195955,1290
93386,180056,220369,-1.1294122672,8.5052879317,4.8275195955,1291
92446,179943,220299,-1.1294122672,8.5052879317,4.8275195955,1292
91525,179839,220241,-1.1294122672,8.5052879317,4.8275195955,1293
90852,179761,220142,-1.1294122672,8.5052879317,4.8275195955,1294
90530,179709,220104,-1.1294122672,8.5052879317,4.8275195955,1295
90458,179681,220117,-1.1294122672,8.5052879317,4.8275195955,1296
90626,179718,220103,-1.1294122672,8.5052879317,4.8275195955,1297
90884,179751,220142,-1.0803594039,8.5280197464,4.9148576204,1298
91175,179732,220156,-1.0803594039,8.5280197464,4.9148576204,1299
91394,179746,220168,-1.0241280728,8.5758761984,4.9375894351,1300
91557,179737,220176,-1.0241280728,8.5758761984,4.9375894351,1301
91706,179773,220222,-1.0241280728,8.5758761984,4.9375894351,1302
91880,179774,220223,-1.0241280728,8.5758761984,4.9375894351,1303
92025,179852,220268,-1.0241280728,8.5758761984,4.9375894351,1304
92209,179857,220285,-1.0241280728,8.5758761984,4.9375894351,1305
92378,179877,220290,-1.0241280728,8.5758761984,4.9375894351,1306
92576,179923,220313,-1.0241280728,8.5758761984,4.9375894351,1307
92705,179919,220341,-1.0241280728,8.5758761984,4.9375894351,1308
92693,179893,220342,-1.0241280728,8.5758761984,4.9375894351,1309
92637,179911,220350,-1.0241280728,8.5758761984,4.9375894351,1310
92611,179907,220333,-1.0241280728,8.5758761984,4.9375894351,1311
92732,179954,220384,-1.0241280728,8.5758761984,4.9375894351,1312
92978,179999,220415,-1.0241280728,8.5758761984,4.9375894351,1313
93248,179990,220466,-1.0241280728,8.5758761984,4.9375894351,1314
93496,180043,220453,-1.0241280728,8.5758761984,4.9375894351,1315
93716,180080,220492,-1.0241280728,8.5758761984,4.9375894351,1316
93869,180149,220451,-1.0241280728,8.5758761984,4.9375894351,1317
94054,180145,220531,-1.0241280728,8.5758761984,4.9375894351,1318
94194,180176,220549,-1.0241280728,8.5758761984,4.9375894351,1319
94359,180217,220531,-1.0241280728,8.5758761984,4.9375894351,1320
94502,180276,220569,-1.0241280728,8.5758761984,4.9375894351,1321
94645,180271,220601,-1.0241280728,8.5758761984,4.9375894351,1322
94802,180291,220594,-1.0241280728,8.5758761984,4.9375894351,1323
94953,180348,220598,-1.0241280728,8.5758761984,4.9375894351,1324
95094,180347,220648,-1.0241280728,8.5758761984,4.9375894351,1325
95224,180375,220675,-1.0241280728,8.5758761984,4.9375894351,1326
95346,180435,220662,-1.0241280728,8.5758761984,4.9375894351,1327
95482,180428,220709,-1.0241280728,8.5758761984,4.9375894351,1328
95587,180438,220680,-1.0241280728,8.5758761984,4.9375894351,1329
95729,180472,220651,-1.0241280728,8.5758761984,4.9375894351,1330
95811,180485,220681,-1.0241280728,8.5758761984,4.9375894351,1331
95920,180488,220675,-1.0241280728,8.5758761984,4.9375894351,1332
96003,180503,220711,-1.0241280728,8.5758761984,4.9375894351,1333
96098,180529,220704,-1.0241280728,8.5758761984,4.9375894351,1334
96202,180591,220733,-1.0241280728,8.5758761984,4.9375894351,1335
96169,180553,220673,-1.0241280728,8.5758761984,4.9375894351,1336
95650,180531,220678,-1.0241280728,8.5758761984,4.9375894351,1337
94614,180403,220596,-1.0241280728,8.5758761984,4.9375894351,1338
93438,180353,220507,-1.0241280728,8.5758761984,4.9375894351,1339
92486,180240,220445,-1.0241280728,8.5758761984,4.9375894351,1340
91901,180228,220460,-1.0241280728,8.5758761984,4.9375894351,1341
91814,180208,220463,-0.9248259349,8.694320917099999,4.9663033062999995,1342
91984,180210,220440,-0.9248259349,8.694320917099999,4.9663033062999995,1343
92165,180240,220445,-0.9248259349,8.694320917099999,4.9663033062999995,1344
92256,180261,220475,-0.9248259349,8.694320917099999,4.9663033062999995,1345
92336,180230,220450,-0.9248259349,8.694320917099999,4.9663033062999995,1346
92431,180259,220470,-0.9248259349,8.694320917099999,4.9663033062999995,1347
92500,180301,220500,-0.9248259349,8.694320917099999,4.9663033062999995,1348
92632,180308,220523,-0.9248259349,8.694320917099999,4.9663033062999995,1349
92739,180312,220497,-0.9248259349,8.694320917099999,4.9663033062999995,1350
92909,180294,220495,-0.9248259349,8.694320917099999,4.9663033062999995,1351
93075,180357,220570,-0.9248259349,8.694320917099999,4.9663033062999995,1352
93261,180401,220548,-0.9248259349,8.694320917099999,4.9663033062999995,1353
93461,180390,220582,-0.9248259349,8.694320917099999,4.9663033062999995,1354
93657,180435,220616,-0.9248259349,8.694320917099999,4.9663033062999995,1355
93832,180452,220595,-0.9248259349,8.694320917099999,4.9663033062999995,1356
94021,180478,220619,-0.9248259349,8.694320917099999,4.9663033062999995,1357
94218,180536,220648,-0.9248259349,8.694320917099999,4.9663033062999995,1358
94392,180545,220662,-0.9248259349,8.694320917099999,4.9663033062999995,1359
94578,180582,220715,-0.9248259349,8.694320917099999,4.9663033062999995,1360
94741,180604,220732,-0.9248259349,8.694320917099999,4.9663033062999995,1361
94884,180624,220768,-0.9248259349,8.694320917099999,4.9663033062999995,1362
95057,180649,220723,-0.9248259349,8.694320917099999,4.9663033062999995,1363
95206,180679,220810,-0.9248259349,8.694320917099999,4.9663033062999995,1364
95339,180709,220742,-0.9248259349,8.694320917099999,4.9663033062999995,1365
95507,180729,220694,-0.9248259349,8.694320917099999,4.9663033062999995,1366
95666,180712,220802,-0.9248259349,8.694320917099999,4.9663033062999995,1367
95810,180789,220824,-0.9284151688,8.628518295600001,4.90528633,1368
95972,180798,220765,-0.9284151688,8.628518295600001,4.90528633,1369
96111,180805,220808,-0.9284151688,8.628518295600001,4.90528633,1370
96255,180899,220872,-0.9284151688,8.628518295600001,4.90528633,1371
96413,180904,220873,-0.9284151688,8.628518295600001,4.90528633,1372
96544,180904,220865,-0.9284151688,8.628518295600001,4.90528633,1373
96704,180940,220891,-0.9284151688,8.628518295600001,4.90528633,1374
96832,180986,220904,-0.9284151688,8.628518295600001,4.90528633,1375
96981,181005,220920,-0.9284151688,8.628518295600001,4.90528633,1376
97119,181036,220967,-0.9284151688,8.628518295600001,4.90528633,1377
97252,181035,220936,-0.9284151688,8.628518295600001,4.90528633,1378
97289,181043,220906,-0.9284151688,8.628518295600001,4.90528633,1379
96937,181011,220948,-0.9284151688,8.628518295600001,4.90528633,1380
96005,180930,220818,-0.9284151688,8.628518295600001,4.90528633,1381
94869,180909,220788,-0.9284151688,8.628518295600001,4.90528633,1382
93806,180821,220700,-0.9284151688,8.628518295600001,4.90528633,1383
93054,180794,220661,-0.9284151688,8.628518295600001,4.90528633,1384
92681,180761,220674,-0.9284151688,8.628518295600001,4.90528633,1385
92593,180728,220694,-0.9284151688,8.628518295600001,4.90528633,1386
92732,180762,220710,-0.9284151688,8.628518295600001,4.90528633,1387
92940,180783,220723,-0.9284151688,8.628518295600001,4.90528633,1388
93169,180802,220727,-0.9284151688,8.628518295600001,4.90528633,1389
93313,180824,220706,-0.9284151688,8.628518295600001,4.90528633,1390
93432,180807,220772,-0.9284151688,8.628518295600001,4.90528633,1391
93496,180839,220756,-0.9284151688,8.628518295600001,4.90528633,1392
93578,180849,220760,-0.9284151688,8.628518295600001,4.90528633,1393
93670,180874,220803,-0.9284151688,8.628518295600001,4.90528633,1394
93762,180896,220786,-0.9284151688,8.628518295600001,4.90528633,1395
93910,180900,220794,-0.9284151688,8.628518295600001,4.90528633,1396
94080,180914,220832,-0.9284151688,8.628518295600001,4.90528633,1397
94234,180909,220837,-0.9284151688,8.628518295600001,4.90528633,1398
94412,180973,220874,-0.9284151688,8.628518295600001,4.90528633,1399
94583,180970,220867,-0.9284151688,8.628518295600001,4.90528633,1400
94765,181008,220897,-0.9284151688,8.628518295600001,4.90528633,1401
94925,180984,220903,-0.9284151688,8.628518295600001,4.90528633,1402
95117,181023,220881,-0.9284151688,8.628518295600001,4.90528633,1403
95300,181067,220927,-0.9284151688,8.628518295600001,4.90528633,1404
95450,181093,220936,-0.9284151688,8.628518295600001,4.90528633,1405
95578,181132,220964,-0.9284151688,8.628518295600001,4.90528633,1406
95762,181125,220984,-0.9284151688,8.628518295600001,4.90528633,1407
95899,181155,220995,-0.9284151688,8.628518295600001,4.90528633,1408
96071,181150,220953,-0.9284151688,8.628518295600001,4.90528633,1409
95674,181212,220871,-0.9750752094999999,8.5280197464,4.953142782,1410
95797,181231,220892,-0.9750752094999999,8.5280197464,4.953142782,1411
95911,181229,220911,-0.9750752094999999,8.5280197464,4.953142782,1412
96014,181254,220885,-0.9750752094999999,8.5280197464,4.953142782,1413
96163,181249,220891,-0.9750752094999999,8.5280197464,4.953142782,1414
96249,181309,220917,-0.9750752094999999,8.5280197464,4.953142782,1415
96388,181314,220945,-0.9750752094999999,8.5280197464,4.953142782,1416
96480,181308,220950,-0.9750752094999999,8.5280197464,4.953142782,1417
96440,181343,220939,-0.9750752094999999,8.5280197464,4.953142782,1418
95872,181213,220838,-0.9750752094999999,8.5280197464,4.953142782,1419
94565,181137,220774,-0.9750752094999999,8.5280197464,4.953142782,1420
93035,180991,220628,-0.9750752094999999,8.5280197464,4.953142782,1421
91781,180896,220606,-0.9750752094999999,8.5280197464,4.953142782,1422
91038,180792,220513,-0.9750752094999999,8.5280197464,4.953142782,1423
90725,180730,220459,-0.9750752094999999,8.5280197464,4.953142782,1424
90693,180738,220509,-0.9750752094999999,8.5280197464,4.953142782,1425
90907,180743,220487,-0.9750752094999999,8.5280197464,4.953142782,1426
91146,180729,220465,-0.9750752094999999,8.5280197464,4.953142782,1427
91390,180761,220509,-0.9750752094999999,8.5280197464,4.953142782,1428
91541,180748,220563,-0.9750752094999999,8.5280197464,4.953142782,1429
91658,180737,220630,-0.9750752094999999,8.5280197464,4.953142782,1430
91771,180760,220584,-0.9750752094999999,8.5280197464,4.953142782,1431
91850,180789,220542,-0.9750752094999999,8.5280197464,4.953142782,1432
91955,180767,220597,-0.9750752094999999,8.5280197464,4.953142782,1433
92110,180821,220604,-0.9750752094999999,8.5280197464,4.953142782,1434
92257,180794,220601,-0.9750752094999999,8.5280197464,4.953142782,1435
92405,180804,220624,-0.9750752094999999,8.5280197464,4.953142782,1436
92606,180848,220679,-0.9750752094999999,8.5280197464,4.953142782,1437
92825,180858,220625,-0.9750752094999999,8.5280197464,4.953142782,1438
93006,180864,220739,-0.9750752094999999,8.5280197464,4.953142782,1439
93204,180909,220722,-0.9750752094999999,8.5280197464,4.953142782,1440
93273,180914,220671,-0.9750752094999999,8.5280197464,4.953142782,1441
91750,180708,220595,-1.0193424276,8.475377649199999,4.9998028226999995,1442
90642,180593,220522,-1.0193424276,8.475377649199999,4.9998028226999995,1443
89927,180517,220475,-1.0193424276,8.475377649199999,4.9998028226999995,1444
89578,180448,220405,-1.0193424276,8.475377649199999,4.9998028226999995,1445
89538,180438,220395,-1.0193424276,8.475377649199999,4.9998028226999995,1446
89687,180398,220388,-1.0193424276,8.475377649199999,4.9998028226999995,1447
90064,180413,220401,-1.0193424276,8.475377649199999,4.9998028226999995,1448
90475,180422,220481,-1.0193424276,8.475377649199999,4.9998028226999995,1449
90828,180509,220494,-1.0193424276,8.475377649199999,4.9998028226999995,1450
91104,180493,220491,-1.0193424276,8.475377649199999,4.9998028226999995,1451
91295,180533,220576,-1.0193424276,8.475377649199999,4.9998028226999995,1452
91463,180526,220632,-1.0193424276,8.475377649199999,4.9998028226999995,1453
91623,180533,220603,-1.0193424276,8.475377649199999,4.9998028226999995,1454
91824,180564,220631,-1.0193424276,8.475377649199999,4.9998028226999995,1455
91997,180576,220674,-1.0193424276,8.475377649199999,4.9998028226999995,1456
92207,180579,220690,-1.0193424276,8.475377649199999,4.9998028226999995,1457
92391,180620,220710,-1.0193424276,8.475377649199999,4.9998028226999995,1458
92621,180666,220725,-1.0193424276,8.475377649199999,4.9998028226999995,1459
92833,180666,220764,-1.0193424276,8.475377649199999,4.9998028226999995,1460
93068,180695,220738,-1.0193424276,8.475377649199999,4.9998028226999995,1461
93244,180707,220803,-1.0193424276,8.475377649199999,4.9998028226999995,1462
93052,180653,220737,-1.0193424276,8.475377649199999,4.9998028226999995,1463
92276,180535,220645,-1.0193424276,8.475377649199999,4.9998028226999995,1464
91229,180407,220552,-1.0193424276,8.475377649199999,4.9998028226999995,1465
90447,180324,220467,-1.0193424276,8.475377649199999,4.9998028226999995,1466
90014,180231,220411,-1.0193424276,8.475377649199999,4.9998028226999995,1467
89893,180166,220413,-1.0193424276,8.475377649199999,4.9998028226999995,1468
89939,180133,220404,-1.0193424276,8.475377649199999,4.9998028226999995,1469
90248,180171,220431,-1.0193424276,8.475377649199999,4.9998028226999995,1470
90602,180189,220506,-1.0193424276,8.475377649199999,4.9998028226999995,1471
90953,180245,220481,-1.0193424276,8.475377649199999,4.9998028226999995,1472
91231,180251,220544,-1.0193424276,8.475377649199999,4.9998028226999995,1473
91442,180276,220543,-1.0193424276,8.475377649199999,4.9998028226999995,1474
91631,180278,220576,-1.0193424276,8.475377649199999,4.9998028226999995,1475
91815,180303,220573,-1.0193424276,8.475377649199999,4.9998028226999995,1476
92026,180346,220593,-1.0193424276,8.475377649199999,4.9998028226999995,1477
92240,180327,220623,-1.0193424276,8.475377649199999,4.9998028226999995,1478
92454,180394,220689,-1.0193424276,8.475377649199999,4.9998028226999995,1479
92673,180395,220673,-1.0193424276,8.475377649199999,4.9998028226999995,1480
92916,180423,220696,-1.0193424276,8.475377649199999,4.9998028226999995,1481
93148,180491,220723,-1.0193424276,8.475377649199999,4.9998028226999995,1482
93394,180517,220730,-1.0193424276,8.475377649199999,4.9998028226999995,1483
94274,180438,220714,-0.9296115801,8.6081793035,4.961517661099999,1484
93551,180350,220712,-0.9296115801,8.6081793035,4.961517661099999,1485
93013,180299,220682,-0.9296115801,8.6081793035,4.961517661099999,1486
92668,180184,220604,-0.9296115801,8.6081793035,4.961517661099999,1487
92519,180194,220578,-0.9296115801,8.6081793035,4.961517661099999,1488
92585,180151,220587,-0.9296115801,8.6081793035,4.961517661099999,1489
92794,180190,220629,-0.9296115801,8.6081793035,4.961517661099999,1490
93001,180238,220592,-0.9296115801,8.6081793035,4.961517661099999,1491
93228,180221,220674,-0.9296115801,8.6081793035,4.961517661099999,1492
93398,180234,220672,-0.9296115801,8.6081793035,4.961517661099999,1493
93564,180241,220652,-0.9296115801,8.6081793035,4.961517661099999,1494
93722,180285,220669,-0.9296115801,8.6081793035,4.961517661099999,1495
93839,180327,220672,-0.9296115801,8.6081793035,4.961517661099999,1496
94015,180303,220668,-0.9296115801,8.6081793035,4.961517661099999,1497
94174,180343,220760,-0.9296115801,8.6081793035,4.961517661099999,1498
94360,180321,220729,-0.9296115801,8.6081793035,4.961517661099999,1499
94566,180405,220751,-0.9296115801,8.6081793035,4.961517661099999,1500
94779,180423,220710,-0.9296115801,8.6081793035,4.961517661099999,1501
94965,180470,220801,-0.9296115801,8.6081793035,4.961517661099999,1502
95154,180478,220783,-0.9296115801,8.6081793035,4.961517661099999,1503
95353,180498,220798,-0.9296115801,8.6081793035,4.961517661099999,1504
95561,180512,220865,-0.9296115801,8.6081793035,4.961517661099999,1505
95756,180530,220831,-0.9296115801,8.6081793035,4.961517661099999,1506
95908,180576,220871,-0.9296115801,8.6081793035,4.961517661099999,1507
96077,180631,220868,-0.9296115801,8.6081793035,4.961517661099999,1508
96211,180637,220913,-0.9296115801,8.6081793035,4.961517661099999,1509
96152,180609,220886,-0.9296115801,8.6081793035,4.961517661099999,1510
95690,180556,220843,-0.9296115801,8.6081793035,4.961517661099999,1511
94937,180490,220800,-0.9296115801,8.6081793035,4.961517661099999,1512
94199,180384,220729,-0.9296115801,8.6081793035,4.961517661099999,1513
93592,180326,220695,-0.9296115801,8.6081793035,4.961517661099999,1514
93193,180269,220609,-0.9296115801,8.6081793035,4.961517661099999,1515
93007,180235,220607,-0.9296115801,8.6081793035,4.961517661099999,1516
92975,180257,220605,-0.9296115801,8.6081793035,4.961517661099999,1517
93160,180242,220626,-0.9296115801,8.6081793035,4.961517661099999,1518
93316,180276,220680,-0.9296115801,8.6081793035,4.961517661099999,1519
93441,180297,220669,-0.9296115801,8.6081793035,4.961517661099999,1520
93534,180283,220641,-0.9296115801,8.6081793035,4.961517661099999,1521
93648,180300,220659,-0.9296115801,8.6081793035,4.961517661099999,1522
93729,180313,220639,-0.9296115801,8.6081793035,4.961517661099999,1523
93838,180334,220656,-0.9296115801,8.6081793035,4.961517661099999,1524
93959,180334,220724,-0.9296115801,8.6081793035,4.961517661099999,1525
94793,180459,220764,-1.0863414604,8.584251077500001,5.0093741131,1526
94927,180456,220746,-1.0863414604,8.584251077500001,5.0093741131,1527
95100,180506,220784,-1.0863414604,8.584251077500001,5.0093741131,1528
95245,180520,220798,-1.0863414604,8.584251077500001,5.0093741131,1529
95400,180526,220788,-1.0863414604,8.584251077500001,5.0093741131,1530
95490,180568,220823,-1.0863414604,8.584251077500001,5.0093741131,1531
95450,180559,220751,-1.0863414604,8.584251077500001,5.0093741131,1532
94962,180465,220662,-1.0863414604,8.584251077500001,5.0093741131,1533
94089,180356,220610,-1.0863414604,8.584251077500001,5.0093741131,1534
93171,180288,220543,-1.0863414604,8.584251077500001,5.0093741131,1535
92445,180151,220491,-1.0863414604,8.584251077500001,5.0093741131,1536
91907,180115,220403,-1.0863414604,8.584251077500001,5.0093741131,1537
91613,180072,220439,-1.0863414604,8.584251077500001,5.0093741131,1538
91598,180053,220395,-1.0863414604,8.584251077500001,5.0093741131,1539
91715,180050,220463,-1.0863414604,8.584251077500001,5.0093741131,1540
91908,180073,220408,-1.0863414604,8.584251077500001,5.0093741131,1541
92050,180088,220456,-1.0863414604,8.584251077500001,5.0093741131,1542
92160,180085,220437,-1.0863414604,8.584251077500001,5.0093741131,1543
92243,180070,220398,-1.0863414604,8.584251077500001,5.0093741131,1544
92330,180082,220451,-1.0863414604,8.584251077500001,5.0093741131,1545
92433,180147,220444,-1.0863414604,8.584251077500001,5.0093741131,1546
92558,180146,220439,-1.0863414604,8.584251077500001,5.0093741131,1547
92717,180145,220491,-1.0863414604,8.584251077500001,5.0093741131,1548
92897,180178,220508,-1.0863414604,8.584251077500001,5.0093741131,1549
93048,180200,220475,-1.0863414604,8.584251077500001,5.0093741131,1550
93250,180208,220574,-1.0863414604,8.584251077500001,5.0093741131,1551
93420,180252,220551,-1.0863414604,8.584251077500001,5.0093741131,1552
93625,180287,220573,-1.0863414604,8.584251077500001,5.0093741131,1553
93775,180293,220587,-1.0863414604,8.584251077500001,5.0093741131,1554
93939,180321,220627,-1.0863414604,8.584251077500001,5.0093741131,1555
94108,180376,220604,-1.0863414604,8.584251077500001,5.0093741131,1556
94266,180375,220628,-1.0863414604,8.584251077500001,5.0093741131,1557
94426,180398,220607,-1.0863414604,8.584251077500001,5.0093741131,1558
94464,180413,220595,-1.0863414604,8.584251077500001,5.0093741131,1559
94089,180365,220596,-1.0863414604,8.584251077500001,5.0093741131,1560
93246,180221,220476,-1.0863414604,8.584251077500001,5.0093741131,1561
92255,180208,220484,-1.0863414604,8.584251077500001,5.0093741131,1562
