green,red,IR,acc_x,acc_y,acc_z,sample_index
104781,170090,210292,3.9469608787,7.6857461912,-4.671986126499999,1
104138,170046,210259,3.9098721283999995,7.5756763516,-4.637290198800001,2
103704,170006,210269,3.8249269261,7.7611201031,-4.737788748,3
103450,170008,210182,3.9625142255999997,7.7383882884,-4.6660040700000005,4
103427,170051,210200,4.0773697104,7.666603610399999,-4.618147618,5
103562,169998,210222,4.0139599115,7.829315547199999,-4.5332024157,6
103769,170028,210190,3.9768711611999996,7.908278693,-4.589433746799999,7
103949,170019,210219,4.1240297511,7.7001031268,-4.7844487887,8
104030,170032,210200,3.9338003543999998,7.775477038699999,-4.594219392,9
104195,170022,210195,3.9014972492999997,7.8711899427,-4.6193440293,10
104405,170051,210222,3.8297125713,7.6713892556,-4.689932296,11
104619,170044,210228,3.9684962821,7.6905318364,-4.637290198800001,12
104876,170075,210220,3.8907295476,7.6773713121,-4.689932296,13
105098,170082,210210,3.9816568063999997,7.7479595788,-4.6277189084,14
105341,170082,210233,4.0139599115,7.928617685100001,-4.6289153197,15
105571,170085,210218,3.9098721283999995,7.695317481599999,-4.6229332632,16
105786,170090,210187,4.0151563228,7.733602643199999,-4.6803610056,17
105803,170067,210228,3.9529429352,7.7611201031,-4.7090748768,18
105338,170104,210238,3.8715869668,7.8436724828,-4.6468614892,19
104745,170064,210242,4.0151563228,7.65703232,-4.6803610056,20
104151,170061,210225,3.9481572899999997,7.775477038699999,-4.6995035864000005,21
103758,170034,210206,3.8488551521,7.704888771999999,-4.5990050372,22
103513,170010,210164,4.0235312019,7.666603610399999,-4.689932296,23
103526,170019,210187,3.9565321691,7.7096744172000005,-4.6241296745,24
103728,170038,210154,3.9780675724999996,7.7240313528,-4.5523449965,25
103959,170055,210142,3.996013742,7.7958160308,-4.6516471344,26
104183,170048,210147,4.0283168471,7.6618179652,-4.637290198800001,27
104347,170071,210133,4.0295132584,7.637889739199999,-4.7090748768,28
104421,170039,210153,4.0295132584,7.791030385599999,-4.6660040700000005,29
104728,170106,210147,4.0151563228,7.752745224,-4.6755753604,30
104943,170106,210136,4.0247276132000005,7.6809605460000006,-4.7509492723,31
105157,170094,210144,3.9481572899999997,7.7958160308,-4.7760739096,32
105402,170102,210151,4.0235312019,7.819744256799999,-4.5858445129,33
105619,170114,210163,3.9003008379999997,7.8053873212000005,-4.6612184248,34
105852,170140,210136,4.0522450731,7.637889739199999,-4.642075844,35
106054,170144,210158,3.9014972492999997,7.8281191359,-4.7330031028,36
106204,170127,210141,4.0295132584,7.7192457076,-4.6755753604,37
106223,170125,210104,4.1192441059,7.7012995381,-4.7425743932,38
105809,170108,210180,4.0474594279,7.7946196195,-4.7222354011,39
105272,170089,210106,3.8919259589,7.8149586116,-4.5236311253,40
104725,170047,210098,4.019941968,7.7324062319,-4.6384866101,41
104452,170029,210080,4.0283168471,7.7156564737,-4.6325045536000005,42
104264,170044,210041,3.9134613623,7.7958160308,-4.5714875773,43
104316,170042,210069,3.9433716447999996,7.7324062319,-4.6516471344,44
104512,170047,210024,3.7591243046000002,7.7515488127,-4.642075844,45
104706,170058,210044,3.8907295476,7.7001031268,-4.7042892316,46
104838,170086,210064,3.9254254753,7.6630143765,-4.6564327796,47
104946,170067,210052,4.0187455567,7.77667345,-4.6803610056,48
105027,170050,210033,3.9385859996,7.7192457076,-4.6707897152,49
105261,170078,210002,3.9481572899999997,7.861618652300001,-4.6707897152,50
105464,170078,209979,3.996013742,7.7383882884,-4.5990050372,51
105618,170078,210025,4.1096728155,7.6713892556,-4.6564327796,52
105797,170105,210036,4.06779842,7.7383882884,-4.6612184248,53
105983,170061,210033,4.113262049399999,7.7324062319,-4.6755753604,54
106184,170091,210025,3.8715869668,7.7240313528,-4.6564327796,55
106364,170107,210049,3.9948173307,7.8807612331,-4.7712882644,56
106528,170105,210063,4.0151563228,7.7431739336,-4.6145583840999995,57
106449,170080,210060,3.9625142255999997,7.7228349415,-4.689932296,58
106025,170091,210056,3.8823546685,7.7419775223,-4.5655055207999995,59
105528,170047,210095,3.9864424516000003,7.7144600624,-4.5619162869,60
105074,170016,210020,3.9278182979,7.7515488127,-4.6289153197,61
104767,170027,210036,4.0007993872,7.7671021596,-4.5523449965,62
104632,170024,210078,3.9098721283999995,7.7001031268,-4.713860522,63
104732,170029,210060,3.8105699905,7.775477038699999,-4.6145583840999995,64
104937,170049,210081,3.9637106368999997,7.7479595788,-4.7186461672,65
105133,170067,210097,3.9876388629,7.6474610296,-4.6145583840999995,66
105289,170070,210128,4.0055850324,7.7958160308,-4.5619162869,67
105426,170110,210121,4.237688824599999,7.695317481599999,-4.6085763276,68
105610,170074,210110,3.7435709577,7.6749784895,-4.689932296,69
105759,170106,210149,4.0187455567,7.695317481599999,-4.7042892316,70
106015,170113,210093,4.0055850324,7.7419775223,-4.7330031028,71
106256,170129,210111,4.0570307183,7.908278693,-4.6145583840999995,72
106423,170103,210125,4.0666020087,7.6474610296,-4.7282174576000005,73
106656,170123,210164,4.0187455567,7.733602643199999,-4.5044885445,74
106855,170162,210119,4.113262049399999,7.6199435697,-4.6851466508,75
107058,170158,210114,3.9433716447999996,7.6809605460000006,-4.547559351299999,76
107099,170159,210141,4.0235312019,7.8281191359,-4.5092741897,77
106778,170159,210166,3.9290147091999996,7.7958160308,-4.6600220135,78
106173,170078,210156,4.1431723319,7.6713892556,-4.618147618,79
105560,170087,210116,3.9720855159999995,7.752745224,-4.6145583840999995,80
105020,170066,210131,3.9708891047,7.7718878047999995,-4.6803610056,81
104669,170067,210090,3.9397824109,7.6618179652,-4.6803610056,82
104509,170056,210072,3.9996029759000002,7.720442118899999,-4.7413779819,83
104572,170061,210041,4.0007993872,7.8137622003,-4.8000021356,84
104765,170089,210083,4.0007993872,7.7659057483,-4.5798624564,85
104942,170076,210108,3.9098721283999995,7.6965138929000005,-4.6995035864000005,86
105060,170073,210078,3.9672998708,7.7898339743,-4.6755753604,87
105205,170126,210095,4.091726646,7.7001031268,-4.7712882644,88
105343,170114,210129,3.9493537012999997,7.7706913935,-4.6660040700000005,89
105532,170111,210093,3.8679977328999997,7.6426753844,-4.6133619728,90
105712,170140,210079,3.8488551521,7.7659057483,-4.7461636271,91
105899,170149,210116,4.0283168471,7.7934232082,-4.6851466508,92
106103,170178,210116,3.936193177,7.8281191359,-4.6277189084,93
106327,170140,210131,4.0618163635,7.775477038699999,-4.6241296745,94
106561,170180,210132,3.9625142255999997,7.7156564737,-4.6516471344,95
106594,170170,210133,3.8715869668,7.752745224,-4.713860522,96
106515,170115,210179,4.0474594279,7.77667345,-4.7473600384,97
106000,170117,210178,4.1060835816,7.8233334907000005,-4.6755753604,98
105315,170100,210139,3.8823546685,7.6773713121,-4.6935215299,99
104704,170056,210074,3.9637106368999997,7.775477038699999,-4.609772738899999,100
104245,170064,210107,3.9720855159999995,7.6091758679999995,-4.6516471344,101
103951,170036,210075,3.9565321691,7.6761749007999995,-4.6612184248,102
103919,170032,210112,4.0953158799,7.5948189324,-4.6612184248,103
104085,170040,210082,3.9625142255999997,7.7431739336,-4.6612184248,104
104245,170064,210082,4.0055850324,7.7431739336,-4.6851466508,105
104469,170101,210096,4.0247276132000005,7.7515488127,-4.6468614892,106
104565,170093,210095,4.1096728155,7.718049296299999,-4.6289153197,107
104725,170088,210090,3.9433716447999996,7.7096744172000005,-4.6384866101,108
104864,170103,210090,4.0474594279,7.8149586116,-4.6995035864000005,109
105074,170080,210124,3.9290147091999996,7.7479595788,-4.6851466508,110
105277,170090,210124,3.9672998708,7.720442118899999,-4.6516471344,111
105527,170090,210139,3.9816568063999997,7.746763167499999,-4.6325045536000005,112
105705,170126,210127,3.8668013215999997,7.791030385599999,-4.5954158033,113
105951,170079,210117,3.9517465239000003,7.829315547199999,-4.594219392,114
106157,170121,210153,4.0953158799,7.737191877099999,-4.618147618,115
106241,170125,210153,4.0390845488,7.6761749007999995,-4.6468614892,116
105895,170105,210185,4.0283168471,7.8568330071,-4.7844487887,117
105214,170068,210165,3.8955151927999996,7.8891361122,-4.4997028993,118
104547,170031,210145,3.8823546685,7.7324062319,-4.609772738899999,119
103996,170003,210117,3.8727833781,7.6343005053,-4.6241296745,120
103633,170018,210133,3.9625142255999997,7.7192457076,-4.6085763276,121
103526,170029,210061,3.9912280968,7.8089765551,-4.7234318124,122
103642,170045,210048,3.8955151927999996,7.5637122386,-4.7473600384,123
103874,170051,210070,3.9349967657,7.8855468783,-4.7042892316,124
104060,170053,210081,3.996013742,7.860422240999999,-4.6576291909,125
104221,170049,210092,3.9625142255999997,7.7431739336,-4.737788748,126
104310,170070,210073,3.8727833781,7.7324062319,-4.6612184248,127
104545,170032,210091,4.0295132584,7.7671021596,-4.6743789491,128
104705,170072,210109,4.0857445895,7.6713892556,-4.6707897152,129
104908,170067,210065,4.0378881375,7.800601675999999,-4.5667019321,130
105128,170063,210066,3.9768711611999996,7.7671021596,-4.7042892316,131
105314,170085,210055,4.0151563228,7.6821569573,-4.7473600384,132
105527,170075,210051,3.9661034595,7.5960153436999995,-4.7282174576000005,133
105721,170111,210075,3.9565321691,7.8053873212000005,-4.6660040700000005,134
105883,170105,210080,3.9290147091999996,7.7802626839,-4.6564327796,135
105961,170090,210057,4.0139599115,7.733602643199999,-4.5427737061,136
105655,170089,210086,3.9720855159999995,7.791030385599999,-4.609772738899999,137
104973,170022,210071,4.0474594279,7.720442118899999,-4.6755753604,138
104342,170009,210035,3.9780675724999996,7.7383882884,-4.7413779819,139
103868,170016,210007,3.8428730956,7.8281191359,-4.6145583840999995,140
103611,170000,210031,3.9816568063999997,7.7814590952,-4.5415772948,141
103578,169995,209997,3.9385859996,7.7324062319,-4.7234318124,142
103754,169990,209989,3.9050864832,7.728816998,-4.6995035864000005,143
103980,169972,209942,4.0761732991,7.791030385599999,-4.7760739096,144
104123,170033,209967,3.9098721283999995,7.800601675999999,-4.618147618,145
104289,169988,209960,3.9948173307,7.718049296299999,-4.6145583840999995,146
104379,170026,209983,3.9864424516000003,7.7144600624,-4.6277189084,147
104513,169981,210011,4.0426737827,7.775477038699999,-4.7365923367,148
104687,169998,209975,4.0139599115,7.5529445369,-4.5750768112,149
104854,170009,209996,3.9445680561,7.737191877099999,-4.5714875773,150
105040,170037,209955,3.8811582571999996,7.6151579245,-4.7186461672,151
105209,169991,209972,3.9290147091999996,7.8472617167,-4.7700918531,152
105397,170000,209981,3.9062828945,7.6713892556,-4.6516471344,153
105611,170042,209963,3.9984065645999998,7.6857461912,-4.6947179412,154
105759,170008,209997,3.8871403137,7.667800021700001,-4.6612184248,155
105694,170013,209972,4.0809589443,7.8185478454999995,-4.6672004813,156
105200,170007,209958,4.0007993872,7.791030385599999,-4.7473600384,157
104550,169965,209961,3.9768711611999996,7.7934232082,-4.6480579005,158
103961,169946,209995,3.996013742,7.6618179652,-4.6660040700000005,159
103573,169923,209966,4.1192441059,7.7431739336,-4.643272255299999,160
103379,169940,210019,4.0091742663,7.6761749007999995,-4.6767717716999995,161
103489,169968,210011,3.9625142255999997,7.7515488127,-4.6815574169,162
103666,169954,210040,4.0283168471,7.6809605460000006,-4.6085763276,163
103959,169977,210024,3.9577285803999995,7.8472617167,-4.5619162869,164
104146,170012,210077,3.8213376922,7.8281191359,-4.5762732225,165
104302,169997,210092,4.019941968,7.7814590952,-4.6037906824000006,166
104502,169993,210078,4.0618163635,7.8101729664,-4.6516471344,167
104717,170056,210079,3.9517465239000003,7.6199435697,-4.7222354011,168
104952,170060,210078,3.8679977328999997,7.7431739336,-4.6755753604,169
105230,170056,210085,3.9816568063999997,7.7347990545,-4.5523449965,170
105413,170080,210084,3.9349967657,7.7946196195,-4.5810588676999995,171
105731,170072,210139,3.9613178143,7.7802626839,-4.6516471344,172
105954,170089,210145,3.9493537012999997,7.8185478454999995,-4.6277189084,173
106205,170124,210144,4.0809589443,7.819744256799999,-4.6564327796,174
106392,170089,210125,3.8297125713,7.733602643199999,-4.689932296,175
106249,170117,210156,3.9804603951,7.6857461912,-4.5990050372,176
105699,170081,210186,3.8871403137,7.7001031268,-4.6468614892,177
104968,170009,210168,4.0247276132000005,7.8436724828,-4.6289153197,178
104312,170032,210147,3.9182470075,7.733602643199999,-4.7102712880999995,179
103840,170003,210139,3.9373895883000003,7.6809605460000006,-4.6564327796,180
103571,169980,210109,4.0618163635,7.7563344578999995,-4.560719875599999,181
103541,170001,210102,3.9529429352,7.737191877099999,-4.5762732225,182
103746,170002,210109,3.9996029759000002,7.7383882884,-4.589433746799999,183
103969,170009,210120,3.9756747499,7.8664042975,-4.589433746799999,184
104145,170010,210092,3.9720855159999995,7.704888771999999,-4.6947179412,185
104308,170040,210135,4.0091742663,7.7994052647,-4.643272255299999,186
104459,170039,210136,4.0342989036,7.7324062319,-4.5379880609,187
104625,170062,210132,4.0055850324,7.728816998,-4.6193440293,188
104835,170040,210126,4.0666020087,7.8628150636,-4.7282174576000005,189
105068,170024,210131,4.0247276132000005,7.7563344578999995,-4.7844487887,190
105309,170056,210151,4.0390845488,7.7898339743,-4.5990050372,191
105536,170071,210159,4.1288153963,7.8628150636,-4.5846481016,192
105786,170070,210183,3.8380874503999998,7.737191877099999,-4.6660040700000005,193
106005,170097,210173,4.1001015251,7.6295148601000005,-4.6660040700000005,194
106166,170071,210195,3.9529429352,7.6618179652,-4.5667019321,195
105900,170011,210196,4.1671005579,7.7096744172000005,-4.6863430621,196
105260,170038,210209,4.0043886211,7.956135144999999,-4.6947179412,197
104521,169984,210164,4.1001015251,7.7862447404,-4.6564327796,198
103921,169956,210140,4.1108692268,7.6343005053,-4.6145583840999995,199
103549,169976,210126,4.0283168471,7.7575308692,-4.6085763276,200
103297,169971,210130,4.0187455567,7.6343005053,-4.6564327796,201
103347,169999,210128,3.9433716447999996,7.7671021596,-4.6516471344,202
103549,169980,210114,3.8919259589,7.8149586116,-4.6229332632,203
103733,169989,210119,4.0761732991,7.752745224,-4.5284167705,204
103851,169984,210133,4.0055850324,7.7383882884,-4.713860522,205
103958,169989,210125,4.0103706776,7.7108708285,-4.54636294,206
104119,169999,210136,4.1001015251,7.733602643199999,-4.7461636271,207
104329,170014,210188,3.9146577735999997,7.7671021596,-4.6851466508,208
104575,170015,210155,3.9050864832,7.8185478454999995,-4.6695933039,209
104742,170042,210134,4.1671005579,7.728816998,-4.7042892316,210
104946,170040,210171,3.8955151927999996,7.6869426025,-4.5846481016,211
105121,169975,210110,3.9158541848999997,7.695317481599999,-4.6851466508,212
105354,170038,210142,3.8548372086000002,7.704888771999999,-4.5714875773,213
105608,170053,210141,3.8620156764,7.752745224,-4.642075844,214
105681,170056,210175,4.127618985,7.7515488127,-4.594219392,215
105312,170038,210199,3.9290147091999996,7.9094751043,-4.6707897152,216
104644,170026,210208,4.1766718483,7.6905318364,-4.6564327796,217
104001,169998,210154,3.9338003543999998,7.666603610399999,-4.5858445129,218
103538,169995,210208,4.0618163635,7.752745224,-4.6624148361,219
103274,169983,210198,3.9290147091999996,7.65703232,-4.5906301581,220
103241,169996,210156,4.0151563228,7.7276205867,-4.6947179412,221
103503,170005,210172,3.9421752335,7.8376904263,-4.6337009649,222
103742,170029,210194,3.996013742,7.77667345,-4.7042892316,223
103866,170037,210196,3.9254254753,7.860422240999999,-4.6468614892,224
104125,170030,210185,4.06779842,7.7096744172000005,-4.6995035864000005,225
104290,170030,210211,4.0378881375,7.6283184488,-4.5810588676999995,226
104459,170039,210174,4.0666020087,7.7252277641000004,-4.6707897152,227
104679,170030,210214,4.0761732991,7.6139615132000005,-4.7030928203,228
104913,170079,210179,3.9146577735999997,7.6821569573,-4.7078784655,229
105121,170041,210191,3.8261233374,7.800601675999999,-4.7246282237,230
105363,170053,210238,3.9625142255999997,7.6438717957,-4.7246282237,231
105592,170052,210223,4.0091742663,7.824529902,-4.6037906824000006,232
105791,170080,210212,3.9804603951,7.7347990545,-4.7042892316,233
105971,170080,210203,3.9780675724999996,7.8233334907000005,-4.5762732225,234
105873,170066,210231,3.9589249917,7.6713892556,-4.594219392,235
105323,170027,210229,4.1479579771,7.7192457076,-4.6660040700000005,236
104635,169960,210212,4.0187455567,7.7659057483,-4.6384866101,237
104029,169987,210168,4.0103706776,7.7443703449,-4.6384866101,238
103568,169927,210134,4.0007993872,7.7192457076,-4.7653062079,239
103321,169935,210121,4.0103706776,7.733602643199999,-4.737788748,240
103373,169912,210109,4.0259240245,7.7862447404,-4.6564327796,241
103591,169915,210089,3.9625142255999997,7.762316514399999,-4.6660040700000005,242
103826,169960,210145,3.876372612,7.7898339743,-4.5954158033,243
104012,169968,210154,3.9672998708,7.7671021596,-4.6707897152,244
104189,169957,210147,3.9625142255999997,7.7383882884,-4.6564327796,245
104336,169977,210200,3.8584264425,7.7671021596,-4.618147618,246
104565,169968,210191,3.9613178143,7.718049296299999,-4.642075844,247
104772,169985,210192,3.9541393465,7.728816998,-4.6947179412,248
104972,169992,210163,4.0534414844,7.8089765551,-4.6660040700000005,249
105216,170021,210192,3.8859439023999998,7.785048329099999,-4.6325045536000005,250
105424,170044,210184,3.9158541848999997,7.8520473619,-4.5379880609,251
105666,170049,210215,3.9804603951,7.8101729664,-4.6468614892,252
105878,170039,210219,3.9720855159999995,7.708478005899999,-4.609772738899999,253
105920,170064,210219,3.9385859996,7.6199435697,-4.7665026192,254
105545,170012,210225,3.9625142255999997,7.7001031268,-4.6815574169,255
104902,169935,210218,4.0522450731,7.6522466748,-4.6648076587,256
104254,169949,210198,4.079762533,7.733602643199999,-4.6995035864000005,257
103842,169944,210199,3.9577285803999995,7.7240313528,-4.6528435457,258
103668,169959,210200,3.9062828945,7.762316514399999,-4.6002014485,259
103695,169948,210219,4.0247276132000005,7.6713892556,-4.7569313288,260
103969,169983,210255,4.0570307183,7.7144600624,-4.6947179412,261
104215,169985,210270,3.9194434188,7.7240313528,-4.6660040700000005,262
104439,169991,210273,4.0342989036,7.858029418399999,-4.6468614892,263
104689,170022,210302,3.9625142255999997,7.6187471584,-4.7282174576000005,264
104821,170025,210274,4.0953158799,7.6008009889000006,-4.6707897152,265
104981,170037,210290,4.1623149127,7.6713892556,-4.6839502395,266
105192,170029,210290,3.8823546685,7.746763167499999,-4.6516471344,267
105390,170041,210263,4.0761732991,7.639086150500001,-4.6337009649,268
105568,170066,210338,4.0115670889,7.7001031268,-4.6468614892,269
105664,170064,210300,3.9900316855,7.9094751043,-4.5714875773,270
105954,170061,210279,4.115654872,7.7192457076,-4.6145583840999995,271
106114,170065,210312,3.9230326527000003,7.6618179652,-4.689932296,272
106179,170042,210291,4.019941968,7.7479595788,-4.6803610056,273
105812,170020,210285,3.8536407972999998,7.720442118899999,-4.6672004813,274
105038,169998,210284,4.0941194686,7.6725856669,-4.7186461672,275
104238,169952,210253,4.0187455567,7.6905318364,-4.6564327796,276
103533,169935,210253,3.9529429352,7.7994052647,-4.7569313288,277
103072,169900,210229,3.9038900719000003,7.7431739336,-4.6803610056,278
102747,169901,210238,3.8811582571999996,7.633104094,-4.6277189084,279
102866,169897,210242,3.9110685397,7.819744256799999,-4.6767717716999995,280
103092,169940,210242,3.9146577735999997,7.7946196195,-4.6851466508,281
103296,169958,210230,3.9577285803999995,7.683353368600001,-4.589433746799999,282
103489,169951,210266,3.9050864832,7.7898339743,-4.7090748768,283
103634,169958,210261,3.9146577735999997,7.8951181687,-4.6624148361,284
103850,169972,210308,3.9672998708,7.7706913935,-4.570291166,285
104085,169964,210342,3.9996029759000002,7.6474610296,-4.6995035864000005,286
104347,169992,210341,3.9720855159999995,7.7419775223,-4.637290198800001,287
104606,170004,210347,3.8392838617,7.8149586116,-4.7042892316,288
104853,170033,210414,3.7722848289,7.7659057483,-4.6277189084,289
105123,170036,210351,4.0295132584,7.7802626839,-4.642075844,290
105389,170031,210414,3.9098721283999995,7.720442118899999,-4.5798624564,291
105617,170058,210367,3.9996029759000002,7.7240313528,-4.609772738899999,292
105560,170053,210417,3.9577285803999995,7.6426753844,-4.6851466508,293
104993,170013,210400,3.9864424516000003,7.752745224,-4.6289153197,294
104197,169992,210401,4.0522450731,7.7132636511,-4.6384866101,295
103458,169948,210384,3.876372612,7.8652078862,-4.6707897152,296
102917,169949,210381,4.019941968,7.8149586116,-4.6851466508,297
102592,169916,210374,4.0953158799,7.8137622003,-4.618147618,298
102575,169968,210356,4.0618163635,7.8149586116,-4.6468614892,299
102785,169932,210363,4.1144584607,7.746763167499999,-4.713860522,300
103083,169926,210363,4.0331024923,7.7144600624,-4.5954158033,301
103320,169985,210400,3.9672998708,7.9417782094,-4.5714875773,302
103467,169953,210390,3.9864424516000003,7.829315547199999,-4.7282174576000005,303
103651,169946,210375,4.1324046302,7.6857461912,-4.6851466508,304
103857,169959,210393,3.9720855159999995,7.6522466748,-4.5332024157,305
104088,169959,210413,4.0331024923,7.7994052647,-4.6660040700000005,306
104315,169954,210402,4.151547211,7.621139981,-4.7186461672,307
104571,169993,210410,4.0331024923,7.8795648218,-4.5667019321,308
104839,170028,210431,4.1108692268,7.718049296299999,-4.5332024157,309
105114,170019,210446,4.1431723319,7.77667345,-4.6468614892,310
105301,170048,210410,3.9672998708,7.6905318364,-4.609772738899999,311
105479,170064,210436,3.9003008379999997,7.7958160308,-4.6241296745,312
105061,170025,210472,4.0187455567,7.7240313528,-4.6133619728,313
104309,169955,210476,4.0570307183,7.737191877099999,-4.6660040700000005,314
103567,169944,210436,3.9672998708,7.8185478454999995,-4.5427737061,315
103013,169914,210431,3.9565321691,7.6713892556,-4.6612184248,316
102696,169892,210401,3.9996029759000002,7.7276205867,-4.5714875773,317
102625,169886,210416,4.0761732991,7.7802626839,-4.7126641107,318
102828,169925,210411,3.9290147091999996,7.7228349415,-4.6528435457,319
103123,169941,210408,3.9672998708,7.7383882884,-4.6576291909,320
103286,169935,210409,4.1001015251,7.7096744172000005,-4.7186461672,321
103501,169927,210432,3.9194434188,7.7718878047999995,-4.5810588676999995,322
103688,169939,210427,4.0055850324,7.7838519178,-4.642075844,323
103851,169969,210429,4.0331024923,7.7431739336,-4.6480579005,324
104079,169927,210409,4.0474594279,7.65703232,-4.6959143525,325
104314,169981,210408,4.0713876539,7.6857461912,-4.6612184248,326
104549,169985,210426,3.9900316855,7.6869426025,-4.7617169740000005,327
104779,170002,210473,3.9206398301,7.6965138929000005,-4.5487557626,328
105010,169994,210435,4.1060835816,7.8568330071,-4.689932296,329
105253,169997,210430,3.9613178143,7.728816998,-4.589433746799999,330
105466,170003,210466,3.9146577735999997,7.7240313528,-4.6325045536000005,331
105415,169978,210461,3.9290147091999996,7.785048329099999,-4.6995035864000005,332
104882,169959,210452,3.9625142255999997,7.7814590952,-4.6851466508,333
104121,169939,210477,4.0426737827,7.7898339743,-4.6564327796,334
103515,169893,210426,3.8967116041,7.6857461912,-4.689932296,335
103118,169886,210391,3.9003008379999997,7.733602643199999,-4.5762732225,336
102936,169878,210438,4.0761732991,7.785048329099999,-4.6205404406,337
103074,169858,210429,3.9433716447999996,7.728816998,-4.642075844,338
103357,169866,210384,3.9098721283999995,7.8568330071,-4.6085763276,339
103612,169910,210407,4.0043886211,7.77667345,-4.6624148361,340
103789,169936,210397,3.9816568063999997,7.7563344578999995,-4.7365923367,341
103916,169933,210378,3.8871403137,7.7383882884,-4.6468614892,342
104071,169921,210462,3.8620156764,7.7814590952,-4.570291166,343
104253,169913,210400,4.0139599115,7.7324062319,-4.6947179412,344
104457,169959,210407,4.043870194,7.6725856669,-4.7282174576000005,345
104739,169953,210406,3.9577285803999995,7.7946196195,-4.713860522,346
104887,169893,210385,4.0151563228,7.6438717957,-4.6612184248,347
105036,169945,210386,3.9577285803999995,7.8939217574,-4.689932296,348
105367,169965,210431,4.0283168471,7.728816998,-4.7090748768,349
105522,169972,210405,3.9708891047,7.7156564737,-4.6755753604,350
105531,169945,210459,4.0857445895,7.7431739336,-4.6660040700000005,351
105108,169949,210455,3.9565321691,7.775477038699999,-4.6755753604,352
104414,169935,210503,3.9098721283999995,7.7862447404,-4.5954158033,353
103824,169934,210513,3.9050864832,7.77667345,-4.5954158033,354
103374,169946,210548,4.0151563228,7.7252277641000004,-4.7042892316,355
103274,169937,210540,3.8679977328999997,7.7994052647,-4.5619162869,356
103320,169923,210494,4.0809589443,7.6857461912,-4.6133619728,357
103585,169898,210520,3.9050864832,7.7479595788,-4.7090748768,358
103857,169945,210521,4.127618985,7.7575308692,-4.6229332632,359
104041,169937,210572,4.0618163635,7.7718878047999995,-4.570291166,360
104193,169977,210557,4.0378881375,7.7036923607,-4.589433746799999,361
104361,169972,210562,3.9577285803999995,7.6905318364,-4.6707897152,362
104589,169934,210558,4.0091742663,7.7706913935,-4.589433746799999,363
104822,169967,210544,4.2137605985999995,7.7060851833,-4.7090748768,364
104996,170007,210522,4.0378881375,7.6857461912,-4.6624148361,365
105224,169968,210555,3.9720855159999995,7.8520473619,-4.7042892316,366
105479,169991,210548,4.0007993872,7.6713892556,-4.637290198800001,367
105718,169990,210561,4.0235312019,7.8472617167,-4.609772738899999,368
105911,170007,210582,4.001995798499999,7.7611201031,-4.5044885445,369
105936,169985,210588,3.9098721283999995,7.7946196195,-4.7270210463,370
105417,169980,210606,4.1814574935,7.7419775223,-4.7042892316,371
104572,169913,210624,3.8620156764,7.624729214899999,-4.5559342304,372
103805,169893,210564,4.1001015251,7.762316514399999,-4.7665026192,373
103102,169863,210521,4.2149570099,7.6857461912,-4.6755753604,374
102650,169838,210494,3.9158541848999997,7.800601675999999,-4.6145583840999995,375
102460,169837,210506,4.1371902754,7.5816584081,-4.737788748,376
102601,169858,210485,3.9206398301,7.7240313528,-4.6755753604,377
102692,169843,210485,4.0857445895,7.932206919,-4.7988057243,378
102995,169862,210512,3.9756747499,7.7539416353,-4.5906301581,379
103137,169893,210483,3.8907295476,7.861618652300001,-4.5667019321,380
103287,169877,210473,3.9206398301,7.7228349415,-4.6133619728,381
103454,169862,210520,4.0295132584,7.7946196195,-4.637290198800001,382
103621,169855,210495,4.0761732991,7.525427077,-4.6995035864000005,383
103991,169909,210651,4.1575292675,7.4787670363,-4.713860522,384
105023,170360,211271,3.8847474911,7.5649086499,-4.5678983434,385
106390,170831,211708,4.1084764042,7.6821569573,-4.6743789491,386
107645,171004,211867,4.1048871703,8.0004023631,-4.6971107638,387
108691,171152,212004,3.7674991837,7.4907311493,-4.438685923,388
109325,171252,212073,3.8476587407999996,7.824529902,-4.6815574169,389
109087,170999,211810,3.9038900719000003,7.7802626839,-4.5774696338,390
108093,170619,211399,3.9314075318,7.5804619967999995,-4.7186461672,391
106745,170331,211088,4.0283168471,7.718049296299999,-4.8035913695,392
105469,170210,210963,3.9577285803999995,7.7036923607,-4.7617169740000005,393
104419,170106,210766,3.9338003543999998,7.812565789,-4.6959143525,394
103702,170034,210687,3.9637106368999997,7.6713892556,-4.7282174576000005,395
103418,169952,210660,3.8344982165,7.6618179652,-4.7102712880999995,396
103322,169936,210588,3.8679977328999997,7.733602643199999,-4.857429878,397
103238,169908,210532,3.9290147091999996,7.8424760715,-4.737788748,398
103081,169856,210537,3.9290147091999996,7.5948189324,-4.7952164904,399
102957,169816,210497,3.8991044267,7.6773713121,-4.7808595548,400
102885,169786,210479,3.8847474911,7.737191877099999,-4.7186461672,401
102822,169753,210435,4.0570307183,7.6474610296,-4.7856452,402
102671,169640,210332,4.0570307183,7.6043902228,-4.738985159299999,403
102528,169565,210257,4.0953158799,7.6187471584,-4.8000021356,404
102431,169529,210171,3.8955151927999996,7.7036923607,-4.7425743932,405
102419,169451,210143,3.9278182979,7.8137622003,-4.8382872972,406
102388,169448,210126,3.8679977328999997,7.708478005899999,-4.7665026192,407
102277,169493,210113,3.9816568063999997,7.8424760715,-4.8239303616,408
101712,169453,210149,3.9206398301,7.543373246500001,-4.8191447164,409
100766,169406,210131,3.9433716447999996,7.733602643199999,-4.7760739096,410
99892,169356,210067,3.876372612,7.6426753844,-4.7090748768,411
99211,169263,210066,4.0522450731,7.585247642000001,-4.737788748,412
98766,169266,210053,4.0295132584,7.6725856669,-4.713860522,413
98578,169317,210061,3.9708891047,7.7324062319,-4.8179483051,414
98677,169249,210040,3.8811582571999996,7.7001031268,-4.7952164904,415
98866,169276,210016,4.0043886211,7.7994052647,-4.7665026192,416
99014,169250,210022,4.0821553556,7.6426753844,-4.8000021356,417
99123,169250,210012,3.9756747499,7.7419775223,-4.7282174576000005,418
99216,169225,210035,3.9672998708,7.6235328036,-4.7246282237,419
99401,169245,210047,3.9852460403000003,7.6283184488,-4.8143590712,420
99658,169278,210039,4.0570307183,7.6809605460000006,-4.7521456836,421
99857,169305,210030,4.0378881375,7.7419775223,-4.881358104,422
100117,169334,210058,3.9972101532999997,7.7228349415,-4.7868416113,423
100354,169274,210072,4.0522450731,7.65703232,-4.7533420949,424
100616,169306,210045,3.9625142255999997,7.7096744172000005,-4.9184468543,425
100868,169336,210054,3.9900316855,7.6761749007999995,-4.8717868136,426
100917,169326,210070,3.9385859996,7.5661050612,-4.8287160068,427
100406,169282,210109,3.9385859996,7.7611201031,-4.7952164904,428
99700,169223,210051,3.8823546685,7.7958160308,-4.7856452,429
99178,169211,210067,3.9421752335,7.5804619967999995,-4.8897329831,430
98891,169178,210108,3.8189448695999997,7.584051230699999,-4.748556449700001,431
98787,169185,210041,3.9720855159999995,7.785048329099999,-4.8275195955,432
98985,169219,210116,3.9613178143,7.7228349415,-4.8047877808,433
99329,169272,210145,4.127618985,7.633104094,-4.7437708044999995,434
99640,169281,210149,4.0857445895,7.485945504099999,-4.8047877808,435
99882,169263,210142,3.8907295476,7.6893354250999995,-4.8466621763,436
100105,169331,210199,4.0283168471,7.8891361122,-4.7724846757,437
100395,169414,210206,3.8620156764,7.5996045776,-4.8000021356,438
100664,169405,210177,3.8488551521,7.9944203065999995,-5.041677218199999,439
100883,169410,210196,3.9254254753,7.666603610399999,-4.7617169740000005,440
101058,169394,210142,3.8991044267,7.5996045776,-4.8287160068,441
101218,169393,210151,4.0713876539,7.633104094,-4.8287160068,442
101419,169370,210099,4.0223347905999995,7.733602643199999,-4.8059841921,443
101596,169348,210149,3.8392838617,7.622336392299999,-4.8717868136,444
101776,169388,210158,3.9421752335,7.505088084900001,-4.8909293944,445
101624,169365,210160,3.9996029759000002,7.6941210703,-4.6959143525,446
101004,169290,210156,3.8488551521,7.7324062319,-4.8059841921,447
100290,169288,210165,3.9804603951,7.6474610296,-4.8753760475,448
99706,169260,210167,3.9433716447999996,7.6426753844,-4.7964129017,449
99310,169245,210161,3.924229064,7.6426753844,-4.7916272565,450
99100,169223,210190,3.9385859996,7.5577301821,-4.8239303616,451
99172,169265,210198,3.8907295476,7.6761749007999995,-4.8047877808,452
99507,169282,210221,4.0139599115,7.746763167499999,-4.8382872972,453
99865,169337,210198,3.9433716447999996,7.5577301821,-4.8382872972,454
100129,169321,210196,3.9481572899999997,7.5194450205,-4.7437708044999995,455
100346,169368,210207,3.9182470075,7.6283184488,-4.738985159299999,456
100567,169354,210228,3.9146577735999997,7.7718878047999995,-4.7437708044999995,457
100829,169385,210214,4.0007993872,7.746763167499999,-4.8382872972,458
101103,169413,210258,3.8584264425,7.6235328036,-4.7772703209000005,459
101362,169402,210259,3.9302111204999997,7.6905318364,-4.7808595548,460
101641,169418,210250,3.8811582571999996,7.6091758679999995,-4.6911287073,461
101897,169419,210262,3.9385859996,7.6474610296,-4.6959143525,462
102141,169428,210262,3.9625142255999997,7.746763167499999,-4.8191447164,463
102345,169426,210268,3.9134613623,7.6761749007999995,-4.8275195955,464
102152,169419,210249,4.1048871703,7.746763167499999,-4.7294138689,465
101501,169377,210292,3.9278182979,7.633104094,-4.8191447164,466
100773,169351,210240,4.1300118076,7.7479595788,-4.7772703209000005,467
100139,169322,210258,3.8907295476,7.6474610296,-4.7844487887,468
99712,169290,210235,3.9493537012999997,7.7240313528,-4.8717868136,469
99383,169298,210227,3.7914274097,7.7276205867,-4.8047877808,470
99499,169321,210250,4.0426737827,7.6474610296,-4.8239303616,471
99796,169332,210280,3.9421752335,7.785048329099999,-4.857429878,472
100121,169323,210269,3.9421752335,7.5948189324,-4.7473600384,473
100388,169365,210269,3.9852460403000003,7.8233334907000005,-4.7724846757,474
100600,169367,210306,4.0331024923,7.5385876013,-4.9040899186999996,475
100816,169388,210297,3.9421752335,7.6091758679999995,-4.857429878,476
101052,169400,210300,3.9182470075,7.5996045776,-4.748556449700001,477
101343,169422,210295,3.9050864832,7.5804619967999995,-4.9005006848,478
101607,169433,210301,3.8189448695999997,7.6008009889000006,-4.857429878,479
101899,169419,210357,3.8524443859999997,7.65703232,-4.7533420949,480
102158,169438,210335,4.0043886211,7.718049296299999,-4.7856452,481
102421,169461,210330,3.9194434188,7.6139615132000005,-4.8526442328,482
102581,169484,210300,4.0426737827,7.6785677234,-4.7676990305,483
102339,169443,210340,4.0283168471,7.733602643199999,-4.748556449700001,484
101671,169402,210324,4.0378881375,7.6809605460000006,-4.8753760475,485
100941,169376,210316,4.0055850324,7.7264241754,-4.833501652,486
100397,169307,210322,3.8620156764,7.7611201031,-4.8526442328,487
99976,169294,210280,4.0043886211,7.5996045776,-4.7904308452,488
99771,169333,210284,3.9852460403000003,7.746763167499999,-4.8107698373000005,489
99925,169352,210261,3.9864424516000003,7.6941210703,-4.809573426,490
100261,169387,210286,4.1479579771,7.7001031268,-4.7006999977,491
100571,169363,210310,4.0342989036,7.6809605460000006,-4.809573426,492
100787,169383,210290,3.8584264425,7.7706913935,-4.8155554825,493
101003,169409,210294,4.0570307183,7.695317481599999,-4.8143590712,494
101197,169413,210288,3.8703905555,7.5242306657,-4.8658047571,495
101432,169437,210293,3.8524443859999997,7.6283184488,-4.738985159299999,496
101699,169447,210311,3.8668013215999997,7.775477038699999,-4.8382872972,497
101934,169445,210324,3.9756747499,7.679764134699999,-4.8526442328,498
102178,169480,210294,3.924229064,7.7001031268,-4.8143590712,499
102410,169482,210311,4.1240297511,7.737191877099999,-4.8227339503,500
102623,169475,210311,3.9014972492999997,7.570890706399999,-4.8430729424,501
102757,169431,210313,3.9912280968,7.495516794499999,-4.7964129017,502
102480,169437,210302,3.8584264425,7.6558359087,-4.7904308452,503
101819,169396,210276,3.9804603951,7.728816998,-4.6959143525,504
101198,169355,210293,3.8811582571999996,7.6031938115,-4.7964129017,505
100671,169365,210245,3.9062828945,7.5661050612,-4.809573426,506
100395,169333,210263,4.0055850324,7.624729214899999,-4.8191447164,507
100363,169315,210255,3.9385859996,7.633104094,-4.8107698373000005,508
100632,169383,210268,3.9996029759000002,7.6139615132000005,-4.8430729424,509
100921,169431,210274,3.9098721283999995,7.7001031268,-4.8239303616,510
101177,169408,210295,4.0247276132000005,7.7001031268,-4.9722853628,511
101375,169384,210323,3.8715869668,7.7802626839,-4.7114676994,512
101562,169417,210314,3.8201412809,7.570890706399999,-4.7724846757,513
101770,169445,210330,3.7579278933,7.6618179652,-4.881358104,514
102008,169461,210347,3.8859439023999998,7.5756763516,-4.8430729424,515
102280,169452,210350,4.0522450731,7.561319416,-4.7006999977,516
102529,169454,210344,3.9433716447999996,7.733602643199999,-4.7150569333,517
102785,169483,210364,4.0007993872,7.6857461912,-4.857429878,518
103028,169516,210361,3.9194434188,7.8089765551,-4.8478585876,519
103272,169521,210358,3.8392838617,7.7276205867,-4.7198425785,520
103324,169489,210323,4.0666020087,7.8233334907000005,-4.9148576204,521
102852,169500,210411,3.8991044267,7.7383882884,-4.7665026192,522
102077,169455,210389,3.8907295476,7.6474610296,-4.7629133853,523
101355,169392,210336,3.9672998708,7.6474610296,-4.705485642899999,524
100784,169386,210339,3.924229064,7.6522466748,-4.7617169740000005,525
100385,169386,210341,3.9098721283999995,7.6474610296,-4.8155554825,526
100246,169403,210352,3.9338003543999998,7.7192457076,-4.8287160068,527
100409,169438,210316,3.8967116041,7.6043902228,-4.8753760475,528
100695,169426,210311,3.7962130549,7.7706913935,-4.671986126499999,529
100924,169431,210308,3.9864424516000003,7.695317481599999,-4.738985159299999,530
101076,169432,210342,3.8823546685,7.6893354250999995,-4.671986126499999,531
101233,169474,210320,4.0666020087,7.746763167499999,-4.8670011684,532
101419,169500,210367,3.8009987001,7.7276205867,-4.6863430621,533
101638,169454,210342,3.9517465239000003,7.6522466748,-4.857429878,534
101903,169552,210371,4.1371902754,7.651050263499999,-4.857429878,535
102128,169500,210355,3.9672998708,7.7036923607,-4.8239303616,536
102300,169482,210368,4.0295132584,7.585247642000001,-4.748556449700001,537
102635,169541,210372,3.8536407972999998,7.666603610399999,-4.7629133853,538
102842,169537,210402,3.8967116041,7.6905318364,-4.7330031028,539
102937,169534,210371,4.163511324,7.5326055448,-4.8143590712,540
102518,169496,210392,4.0091742663,7.752745224,-4.6959143525,541
101734,169439,210391,3.9864424516000003,7.6558359087,-4.7760739096,542
100912,169430,210389,4.06779842,7.7419775223,-4.7808595548,543
100232,169404,210347,3.9900316855,7.718049296299999,-4.833501652,544
99690,169363,210322,3.8895331363000003,7.637889739199999,-4.7724846757,545
99480,169363,210341,3.8907295476,7.6941210703,-4.7856452,546
99506,169382,210359,3.9469608787,7.5816584081,-4.7246282237,547
99818,169388,210362,3.8955151927999996,7.6522466748,-4.8239303616,548
100121,169419,210366,3.9098721283999995,7.6654071991,-4.7006999977,549
100318,169427,210346,3.9804603951,7.7742806274,-4.7868416113,550
100497,169431,210344,3.9481572899999997,7.5517481256,-4.8059841921,551
100714,169455,210345,3.9098721283999995,7.5864440533,-4.748556449700001,552
100965,169466,210347,3.9900316855,7.7383882884,-4.7473600384,553
101237,169437,210378,3.8823546685,7.7898339743,-4.7629133853,554
101482,169488,210346,4.1192441059,7.6701928443,-4.8143590712,555
101737,169485,210328,4.1048871703,7.5996045776,-4.7150569333,556
101991,169453,210348,4.1240297511,7.6283184488,-4.9136612091,557
102236,169515,210369,4.0331024923,7.6654071991,-4.7808595548,558
102376,169493,210339,3.8045879339999997,7.5996045776,-4.7294138689,559
102191,169507,210353,3.9290147091999996,7.77667345,-4.9340002012,560
101583,169426,210348,4.0713876539,7.666603610399999,-4.899304273499999,561
100751,169414,210341,4.1192441059,7.6486574409,-4.738985159299999,562
100051,169356,210316,3.9708891047,7.6235328036,-4.8000021356,563
99540,169339,210289,3.8333018051999996,7.775477038699999,-4.857429878,564
99261,169369,210284,4.0043886211,7.6151579245,-4.7665026192,565
99280,169363,210289,3.8943187815,7.6881390138,-4.8430729424,566
99569,169375,210303,3.9996029759000002,7.695317481599999,-4.7808595548,567
99950,169406,210272,3.9529429352,7.5912296985,-4.8287160068,568
100168,169408,210276,3.9708891047,7.6618179652,-4.7186461672,569
100376,169424,210296,3.9661034595,7.762316514399999,-4.7617169740000005,570
100549,169401,210320,3.9912280968,7.6462646183,-4.9375894351,571
100818,169460,210300,3.9003008379999997,7.785048329099999,-4.7952164904,572
101069,169467,210301,3.8404802730000003,7.718049296299999,-4.7808595548,573
101335,169431,210284,3.8404802730000003,7.718049296299999,-4.7808595548,574
101589,169474,210295,3.8404802730000003,7.718049296299999,-4.7808595548,575
101854,169481,210323,3.8404802730000003,7.718049296299999,-4.7808595548,576
102104,169497,210351,3.8404802730000003,7.718049296299999,-4.7808595548,577
102318,169498,210308,3.8404802730000003,7.718049296299999,-4.7808595548,578
102202,169493,210299,3.8404802730000003,7.718049296299999,-4.7808595548,579
101604,169435,210319,3.8404802730000003,7.718049296299999,-4.7808595548,580
100927,169382,210298,3.8404802730000003,7.718049296299999,-4.7808595548,581
100368,169350,210305,3.8404802730000003,7.718049296299999,-4.7808595548,582
100002,169383,210279,3.8404802730000003,7.718049296299999,-4.7808595548,583
99824,169344,210255,3.8404802730000003,7.718049296299999,-4.7808595548,584
99863,169344,210191,3.8404802730000003,7.718049296299999,-4.7808595548,585
99957,169314,210173,3.8404802730000003,7.718049296299999,-4.7808595548,586
99965,169311,210131,3.7998022888,7.6941210703,-4.833501652,587
99936,169368,210103,3.7998022888,7.6941210703,-4.833501652,588
99992,169423,210134,3.7998022888,7.6941210703,-4.833501652,589
100080,169392,210129,3.7998022888,7.6941210703,-4.833501652,590
100283,169401,210129,3.7998022888,7.6941210703,-4.833501652,591
100525,169364,210144,3.7998022888,7.6941210703,-4.833501652,592
100792,169380,210152,3.7998022888,7.6941210703,-4.833501652,593
101083,169411,210159,3.7998022888,7.6941210703,-4.833501652,594
101352,169423,210205,3.7998022888,7.6941210703,-4.833501652,595
101641,169415,210187,3.7998022888,7.6941210703,-4.833501652,596
101789,169440,210176,3.7998022888,7.6941210703,-4.833501652,597
101585,169423,210181,3.7998022888,7.6941210703,-4.833501652,598
100975,169360,210177,3.7998022888,7.6941210703,-4.833501652,599
100284,169305,210186,3.7998022888,7.6941210703,-4.833501652,600
99725,169323,210166,3.7998022888,7.6941210703,-4.833501652,601
99343,169297,210163,3.7998022888,7.6941210703,-4.833501652,602
99183,169267,210132,3.7998022888,7.6941210703,-4.833501652,603
99310,169324,210185,3.7998022888,7.6941210703,-4.833501652,604
99662,169340,210183,3.7998022888,7.6941210703,-4.833501652,605
99974,169360,210173,3.7998022888,7.6941210703,-4.833501652,606
100218,169333,210187,3.7998022888,7.6941210703,-4.833501652,607
100432,169410,210199,3.7998022888,7.6941210703,-4.833501652,608
100633,169388,210192,3.7998022888,7.6941210703,-4.833501652,609
100920,169416,210207,3.7998022888,7.6941210703,-4.833501652,610
101204,169429,210214,3.7998022888,7.6941210703,-4.833501652,611
101467,169409,210212,3.9852460403000003,7.7659057483,-4.7629133853,612
101723,169470,210188,3.9852460403000003,7.7659057483,-4.7629133853,613
101983,169475,210226,3.9852460403000003,7.7659057483,-4.7629133853,614
102255,169489,210223,3.9852460403000003,7.7659057483,-4.7629133853,615
102412,169476,210232,3.9852460403000003,7.7659057483,-4.7629133853,616
102153,169429,210213,3.9852460403000003,7.7659057483,-4.7629133853,617
101459,169402,210243,3.9852460403000003,7.7659057483,-4.7629133853,618
100707,169377,210221,3.9852460403000003,7.7659057483,-4.7629133853,619
100049,169327,210229,3.9852460403000003,7.7659057483,-4.7629133853,620
99588,169324,210171,3.9852460403000003,7.7659057483,-4.7629133853,621
99355,169340,210169,3.9852460403000003,7.7659057483,-4.7629133853,622
99404,169327,210193,3.9852460403000003,7.7659057483,-4.7629133853,623
99740,169360,210174,3.9852460403000003,7.7659057483,-4.7629133853,624
100059,169378,210178,3.9852460403000003,7.7659057483,-4.7629133853,625
100305,169433,210149,3.9852460403000003,7.7659057483,-4.7629133853,626
100519,169437,210191,3.9852460403000003,7.7659057483,-4.7629133853,627
100735,169407,210193,3.9852460403000003,7.7659057483,-4.7629133853,628
100966,169464,210155,3.9852460403000003,7.7659057483,-4.7629133853,629
101214,169462,210203,3.9852460403000003,7.7659057483,-4.7629133853,630
101466,169477,210190,3.9852460403000003,7.7659057483,-4.7629133853,631
101728,169489,210222,3.9852460403000003,7.7659057483,-4.7629133853,632
101990,169463,210212,3.9852460403000003,7.7659057483,-4.7629133853,633
102216,169457,210194,3.9852460403000003,7.7659057483,-4.7629133853,634
102298,169487,210208,3.9852460403000003,7.7659057483,-4.7629133853,635
101906,169449,210174,3.9852460403000003,7.7659057483,-4.7629133853,636
101195,169404,210185,3.9852460403000003,7.7659057483,-4.7629133853,637
100501,169387,210155,3.9852460403000003,7.7659057483,-4.7629133853,638
99959,169359,210170,3.9852460403000003,7.7659057483,-4.7629133853,639
99607,169341,210152,3.9852460403000003,7.7659057483,-4.7629133853,640
99469,169314,210131,3.9852460403000003,7.7659057483,-4.7629133853,641
99659,169354,210103,3.9852460403000003,7.7659057483,-4.7629133853,642
99979,169386,210107,3.9852460403000003,7.7659057483,-4.7629133853,643
100234,169364,210120,3.9852460403000003,7.7659057483,-4.7629133853,644
100452,169418,210119,3.9852460403000003,7.7659057483,-4.7629133853,645
100642,169428,210131,3.9852460403000003,7.7659057483,-4.7629133853,646
100828,169442,210137,3.9852460403000003,7.7659057483,-4.7629133853,647
101043,169442,210116,3.9852460403000003,7.7659057483,-4.7629133853,648
101300,169473,210097,3.9852460403000003,7.7659057483,-4.7629133853,649
101532,169462,210111,3.9852460403000003,7.7659057483,-4.7629133853,650
101764,169468,210124,3.9852460403000003,7.7659057483,-4.7629133853,651
102002,169500,210108,3.9852460403000003,7.7659057483,-4.7629133853,652
102193,169480,210148,3.9852460403000003,7.7659057483,-4.7629133853,653
100553,169385,210113,3.9146577735999997,7.7001031268,-4.7150569333,654
100766,169414,210112,3.9146577735999997,7.7001031268,-4.7150569333,655
101004,169424,210133,3.9146577735999997,7.7001031268,-4.7150569333,656
101269,169431,210142,3.9146577735999997,7.7001031268,-4.7150569333,657
101509,169438,210131,3.9146577735999997,7.7001031268,-4.7150569333,658
101748,169480,210122,3.9146577735999997,7.7001031268,-4.7150569333,659
101999,169482,210144,3.9146577735999997,7.7001031268,-4.7150569333,660
102223,169496,210170,3.9146577735999997,7.7001031268,-4.7150569333,661
102294,169490,210175,3.9146577735999997,7.7001031268,-4.7150569333,662
101833,169457,210164,3.9146577735999997,7.7001031268,-4.7150569333,663
101032,169400,210135,3.9146577735999997,7.7001031268,-4.7150569333,664
100233,169373,210125,3.9146577735999997,7.7001031268,-4.7150569333,665
99575,169330,210073,3.9146577735999997,7.7001031268,-4.7150569333,666
99136,169313,210094,3.9146577735999997,7.7001031268,-4.7150569333,667
98961,169320,210092,3.9146577735999997,7.7001031268,-4.7150569333,668
99110,169364,210052,3.9146577735999997,7.7001031268,-4.7150569333,669
99431,169367,210104,3.9146577735999997,7.7001031268,-4.7150569333,670
99728,169384,210079,3.9146577735999997,7.7001031268,-4.7150569333,671
99922,169364,210100,3.9146577735999997,7.7001031268,-4.7150569333,672
100140,169426,210111,3.9146577735999997,7.7001031268,-4.7150569333,673
100367,169422,210125,3.9146577735999997,7.7001031268,-4.7150569333,674
100615,169420,210143,3.9146577735999997,7.7001031268,-4.7150569333,675
100890,169452,210170,3.9146577735999997,7.7001031268,-4.7150569333,676
101156,169450,210149,3.9146577735999997,7.7001031268,-4.7150569333,677
101423,169466,210139,3.9146577735999997,7.7001031268,-4.7150569333,678
101680,169457,210137,3.9146577735999997,7.7001031268,-4.7150569333,679
101922,169478,210162,3.9146577735999997,7.7001031268,-4.7150569333,680
101890,169461,210164,3.9146577735999997,7.7001031268,-4.7150569333,681
101299,169431,210185,3.9146577735999997,7.7001031268,-4.7150569333,682
100488,169373,210137,3.9146577735999997,7.7001031268,-4.7150569333,683
99699,169339,210120,3.9146577735999997,7.7001031268,-4.7150569333,684
99121,169336,210099,3.9146577735999997,7.7001031268,-4.7150569333,685
98724,169322,210064,3.9146577735999997,7.7001031268,-4.7150569333,686
98613,169331,210105,3.9146577735999997,7.7001031268,-4.7150569333,687
98862,169334,210103,3.9146577735999997,7.7001031268,-4.7150569333,688
99243,169394,210107,3.9146577735999997,7.7001031268,-4.7150569333,689
99567,169364,210128,3.9146577735999997,7.7001031268,-4.7150569333,690
99802,169388,210114,3.9146577735999997,7.7001031268,-4.7150569333,691
100037,169428,210106,3.9146577735999997,7.7001031268,-4.7150569333,692
100311,169414,210122,3.9146577735999997,7.7001031268,-4.7150569333,693
100587,169448,210129,3.9146577735999997,7.7001031268,-4.7150569333,694
100865,169481,210166,3.9146577735999997,7.7001031268,-4.7150569333,695
101022,169328,209845,3.9194434188,7.7898339743,-4.738985159299999,696
100425,169253,209879,3.9194434188,7.7898339743,-4.738985159299999,697
99702,169231,209845,3.9194434188,7.7898339743,-4.738985159299999,698
99140,169212,209807,3.9194434188,7.7898339743,-4.738985159299999,699
98761,169207,209791,3.9194434188,7.7898339743,-4.738985159299999,700
98628,169207,209825,3.9194434188,7.7898339743,-4.738985159299999,701
98847,169251,209826,3.9194434188,7.7898339743,-4.738985159299999,702
99216,169283,209815,3.9194434188,7.7898339743,-4.738985159299999,703
99552,169276,209873,3.9194434188,7.7898339743,-4.738985159299999,704
99774,169283,209801,3.9194434188,7.7898339743,-4.738985159299999,705
100022,169306,209855,3.9194434188,7.7898339743,-4.738985159299999,706
100287,169303,209850,3.9194434188,7.7898339743,-4.738985159299999,707
100587,169329,209879,3.9194434188,7.7898339743,-4.738985159299999,708
100914,169337,209864,3.9194434188,7.7898339743,-4.738985159299999,709
101218,169361,209908,3.9194434188,7.7898339743,-4.738985159299999,710
101506,169419,209916,3.9194434188,7.7898339743,-4.738985159299999,711
101796,169405,209922,3.9194434188,7.7898339743,-4.738985159299999,712
102095,169438,209941,3.9194434188,7.7898339743,-4.738985159299999,713
102348,169457,209980,3.9194434188,7.7898339743,-4.738985159299999,714
102455,169464,209946,3.9194434188,7.7898339743,-4.738985159299999,715
102040,169442,209963,3.9194434188,7.7898339743,-4.738985159299999,716
101226,169379,209929,3.9194434188,7.7898339743,-4.738985159299999,717
100436,169345,209920,3.9194434188,7.7898339743,-4.738985159299999,718
99845,169343,209864,3.9194434188,7.7898339743,-4.738985159299999,719
99477,169333,209872,3.9194434188,7.7898339743,-4.738985159299999,720
99370,169327,209843,3.9194434188,7.7898339743,-4.738985159299999,721
99595,169360,209883,3.9194434188,7.7898339743,-4.738985159299999,722
99962,169365,209914,3.9194434188,7.7898339743,-4.738985159299999,723
100256,169418,209927,3.9194434188,7.7898339743,-4.738985159299999,724
100492,169404,209923,3.9194434188,7.7898339743,-4.738985159299999,725
100709,169434,209920,3.9194434188,7.7898339743,-4.738985159299999,726
100984,169439,209935,3.9194434188,7.7898339743,-4.738985159299999,727
101263,169469,209933,3.9194434188,7.7898339743,-4.738985159299999,728
101561,169498,209983,3.9194434188,7.7898339743,-4.738985159299999,729
101880,169511,209968,3.9194434188,7.7898339743,-4.738985159299999,730
102154,169476,209994,3.9194434188,7.7898339743,-4.738985159299999,731
102443,169519,209977,3.9194434188,7.7898339743,-4.738985159299999,732
102714,169566,209975,3.9194434188,7.7898339743,-4.738985159299999,733
102949,169510,209968,3.9194434188,7.7898339743,-4.738985159299999,734
102822,169541,209977,3.9194434188,7.7898339743,-4.738985159299999,735
102161,169549,209998,3.9194434188,7.7898339743,-4.738985159299999,736
101399,169471,209989,3.9194434188,7.7898339743,-4.738985159299999,737
114072,169984,209565,3.9888352742,7.7706913935,-4.7856452,738
114048,169993,209582,3.9888352742,7.7706913935,-4.7856452,739
114059,170019,209569,3.9888352742,7.7706913935,-4.7856452,740
114053,169994,209570,3.9888352742,7.7706913935,-4.7856452,741
114050,170005,209570,3.9888352742,7.7706913935,-4.7856452,742
114033,169958,209542,3.9888352742,7.7706913935,-4.7856452,743
114045,169977,209530,3.9888352742,7.7706913935,-4.7856452,744
114067,169997,209524,3.9888352742,7.7706913935,-4.7856452,745
114091,170016,209532,3.9888352742,7.7706913935,-4.7856452,746
114135,169998,209561,3.9888352742,7.7706913935,-4.7856452,747
114183,170024,209568,3.9888352742,7.7706913935,-4.7856452,748
114239,169986,209551,3.9888352742,7.7706913935,-4.7856452,749
114320,170026,209591,3.9888352742,7.7706913935,-4.7856452,750
114407,170035,209550,3.9888352742,7.7706913935,-4.7856452,751
114446,170022,209560,3.9888352742,7.7706913935,-4.7856452,752
114411,170029,209593,3.9888352742,7.7706913935,-4.7856452,753
114278,170053,209572,3.9888352742,7.7706913935,-4.7856452,754
114136,170012,209591,3.9888352742,7.7706913935,-4.7856452,755
113969,170039,209560,3.9888352742,7.7706913935,-4.7856452,756
113851,170019,209550,3.9888352742,7.7706913935,-4.7856452,757
113775,170018,209534,3.9888352742,7.7706913935,-4.7856452,758
113738,170051,209570,3.9888352742,7.7706913935,-4.7856452,759
113753,170038,209581,3.9888352742,7.7706913935,-4.7856452,760
113753,170049,209553,3.9888352742,7.7706913935,-4.7856452,761
113737,170057,209546,3.9888352742,7.7706913935,-4.7856452,762
113717,170049,209560,3.9888352742,7.7706913935,-4.7856452,763
113698,170057,209542,3.9888352742,7.7706913935,-4.7856452,764
113721,170078,209549,3.9888352742,7.7706913935,-4.7856452,765
113760,170077,209538,3.9888352742,7.7706913935,-4.7856452,766
113774,170065,209526,3.9888352742,7.7706913935,-4.7856452,767
113806,170083,209499,3.9888352742,7.7706913935,-4.7856452,768
113842,170056,209509,3.9888352742,7.7706913935,-4.7856452,769
113882,170058,209518,3.9888352742,7.7706913935,-4.7856452,770
113908,170070,209519,3.9888352742,7.7706913935,-4.7856452,771
113807,170078,209520,3.9888352742,7.7706913935,-4.7856452,772
113524,170063,209523,3.9888352742,7.7706913935,-4.7856452,773
113141,170078,209470,3.9888352742,7.7706913935,-4.7856452,774
112715,170031,209508,3.9888352742,7.7706913935,-4.7856452,775
112271,170036,209444,3.9888352742,7.7706913935,-4.7856452,776
111903,170044,209448,3.9888352742,7.7706913935,-4.7856452,777
111629,170031,209460,3.9888352742,7.7706913935,-4.7856452,778
111470,170055,209414,3.9888352742,7.7706913935,-4.7856452,779
102105,169846,208879,3.7902309983999998,7.7898339743,-4.7940200791,780
102162,169810,208847,3.7902309983999998,7.7898339743,-4.7940200791,781
102249,169838,208863,3.7902309983999998,7.7898339743,-4.7940200791,782
102364,169805,208853,3.7902309983999998,7.7898339743,-4.7940200791,783
102485,169820,208845,3.7902309983999998,7.7898339743,-4.7940200791,784
102568,169859,208895,3.7902309983999998,7.7898339743,-4.7940200791,785
102706,169834,208856,3.7902309983999998,7.7898339743,-4.7940200791,786
102802,169841,208839,3.7902309983999998,7.7898339743,-4.7940200791,787
102761,169886,208823,3.7902309983999998,7.7898339743,-4.7940200791,788
102340,169810,208827,3.7902309983999998,7.7898339743,-4.7940200791,789
101661,169815,208812,3.7902309983999998,7.7898339743,-4.7940200791,790
101070,169748,208794,3.7902309983999998,7.7898339743,-4.7940200791,791
100650,169701,208762,3.7902309983999998,7.7898339743,-4.7940200791,792
100441,169736,208755,3.7902309983999998,7.7898339743,-4.7940200791,793
100444,169745,208745,3.7902309983999998,7.7898339743,-4.7940200791,794
100598,169732,208764,3.7902309983999998,7.7898339743,-4.7940200791,795
100761,169715,208757,3.7902309983999998,7.7898339743,-4.7940200791,796
100888,169710,208766,3.7902309983999998,7.7898339743,-4.7940200791,797
100972,169733,208771,3.7902309983999998,7.7898339743,-4.7940200791,798
101065,169757,208800,3.7902309983999998,7.7898339743,-4.7940200791,799
101212,169756,208752,3.7902309983999998,7.7898339743,-4.7940200791,800
101380,169766,208822,3.7902309983999998,7.7898339743,-4.7940200791,801
101581,169741,208788,3.7902309983999998,7.7898339743,-4.7940200791,802
101758,169751,208861,3.7902309983999998,7.7898339743,-4.7940200791,803
101970,169761,208851,3.7902309983999998,7.7898339743,-4.7940200791,804
102195,169783,208825,3.7902309983999998,7.7898339743,-4.7940200791,805
102371,169762,208845,3.7902309983999998,7.7898339743,-4.7940200791,806
102511,169779,208897,3.7902309983999998,7.7898339743,-4.7940200791,807
102316,169775,208866,3.7902309983999998,7.7898339743,-4.7940200791,808
101825,169744,208861,3.7902309983999998,7.7898339743,-4.7940200791,809
101349,169723,208856,3.7902309983999998,7.7898339743,-4.7940200791,810
101002,169735,208862,3.7902309983999998,7.7898339743,-4.7940200791,811
100858,169685,208869,3.7902309983999998,7.7898339743,-4.7940200791,812
100837,169710,208854,3.7902309983999998,7.7898339743,-4.7940200791,813
101028,169755,208856,3.7902309983999998,7.7898339743,-4.7940200791,814
101259,169745,208831,3.7902309983999998,7.7898339743,-4.7940200791,815
101456,169753,208879,3.7902309983999998,7.7898339743,-4.7940200791,816
101610,169744,208860,3.7902309983999998,7.7898339743,-4.7940200791,817
101750,169744,208904,3.7902309983999998,7.7898339743,-4.7940200791,818
101915,169782,208887,3.7902309983999998,7.7898339743,-4.7940200791,819
102098,169779,208925,3.7902309983999998,7.7898339743,-4.7940200791,820
102297,169813,208877,3.7902309983999998,7.7898339743,-4.7940200791,821
102288,169755,208904,3.8153556357,7.6821569573,-4.7425743932,822
102435,169803,208924,3.8153556357,7.6821569573,-4.7425743932,823
102583,169778,208926,3.8153556357,7.6821569573,-4.7425743932,824
102782,169759,208921,3.8153556357,7.6821569573,-4.7425743932,825
102978,169783,208913,3.8153556357,7.6821569573,-4.7425743932,826
103172,169790,208912,3.8153556357,7.6821569573,-4.7425743932,827
103364,169793,208950,3.8153556357,7.6821569573,-4.7425743932,828
103554,169782,208946,3.8153556357,7.6821569573,-4.7425743932,829
103740,169816,208951,3.8153556357,7.6821569573,-4.7425743932,830
103894,169811,208931,3.8153556357,7.6821569573,-4.7425743932,831
103831,169813,208989,3.8153556357,7.6821569573,-4.7425743932,832
103443,169783,208932,3.8153556357,7.6821569573,-4.7425743932,833
102933,169793,208960,3.8153556357,7.6821569573,-4.7425743932,834
102483,169744,208928,3.8153556357,7.6821569573,-4.7425743932,835
102202,169749,208898,3.8153556357,7.6821569573,-4.7425743932,836
102033,169709,208912,3.8153556357,7.6821569573,-4.7425743932,837
102046,169724,208876,3.8153556357,7.6821569573,-4.7425743932,838
102187,169732,208898,3.8153556357,7.6821569573,-4.7425743932,839
102357,169703,208900,3.8153556357,7.6821569573,-4.7425743932,840
102476,169755,208922,3.8153556357,7.6821569573,-4.7425743932,841
102588,169745,208882,3.8153556357,7.6821569573,-4.7425743932,842
102688,169742,208943,3.8153556357,7.6821569573,-4.7425743932,843
102812,169772,208933,3.8153556357,7.6821569573,-4.7425743932,844
102958,169790,208873,3.8153556357,7.6821569573,-4.7425743932,845
103134,169781,208920,3.8153556357,7.6821569573,-4.7425743932,846
103290,169803,208941,3.8153556357,7.6821569573,-4.7425743932,847
103430,169760,208905,3.8153556357,7.6821569573,-4.7425743932,848
103588,169760,208902,3.8153556357,7.6821569573,-4.7425743932,849
103721,169770,208898,3.8153556357,7.6821569573,-4.7425743932,850
103841,169771,208910,3.8153556357,7.6821569573,-4.7425743932,851
103745,169725,208908,3.8153556357,7.6821569573,-4.7425743932,852
103353,169756,208899,3.8153556357,7.6821569573,-4.7425743932,853
102804,169711,208857,3.8153556357,7.6821569573,-4.7425743932,854
102303,169658,208832,3.8153556357,7.6821569573,-4.7425743932,855
101954,169692,208829,3.8153556357,7.6821569573,-4.7425743932,856
101775,169642,208787,3.8153556357,7.6821569573,-4.7425743932,857
101788,169688,208805,3.8153556357,7.6821569573,-4.7425743932,858
101915,169698,208818,3.8153556357,7.6821569573,-4.7425743932,859
102053,169683,208808,3.8153556357,7.6821569573,-4.7425743932,860
102148,169686,208796,3.8153556357,7.6821569573,-4.7425743932,861
102199,169703,208807,3.8153556357,7.6821569573,-4.7425743932,862
102296,169686,208785,3.8153556357,7.6821569573,-4.7425743932,863
101129,169655,208845,3.9158541848999997,7.6809605460000006,-4.8239303616,864
101269,169635,208838,3.9158541848999997,7.6809605460000006,-4.8239303616,865
101356,169650,208841,3.9158541848999997,7.6809605460000006,-4.8239303616,866
101468,169650,208850,3.9158541848999997,7.6809605460000006,-4.8239303616,867
101568,169691,208868,3.9158541848999997,7.6809605460000006,-4.8239303616,868
101718,169691,208880,3.9158541848999997,7.6809605460000006,-4.8239303616,869
101886,169677,208870,3.9158541848999997,7.6809605460000006,-4.8239303616,870
102073,169687,208894,3.9158541848999997,7.6809605460000006,-4.8239303616,871
102275,169688,208894,3.9158541848999997,7.6809605460000006,-4.8239303616,872
102430,169707,208928,3.9158541848999997,7.6809605460000006,-4.8239303616,873
102635,169725,208875,3.9158541848999997,7.6809605460000006,-4.8239303616,874
102794,169707,208882,3.9158541848999997,7.6809605460000006,-4.8239303616,875
102865,169725,208866,3.9158541848999997,7.6809605460000006,-4.8239303616,876
102578,169681,208898,3.9158541848999997,7.6809605460000006,-4.8239303616,877
101964,169667,208923,3.9158541848999997,7.6809605460000006,-4.8239303616,878
101331,169613,208844,3.9158541848999997,7.6809605460000006,-4.8239303616,879
100856,169576,208827,3.9158541848999997,7.6809605460000006,-4.8239303616,880
100557,169583,208810,3.9158541848999997,7.6809605460000006,-4.8239303616,881
100467,169552,208811,3.9158541848999997,7.6809605460000006,-4.8239303616,882
100571,169600,208827,3.9158541848999997,7.6809605460000006,-4.8239303616,883
100797,169620,208860,3.9158541848999997,7.6809605460000006,-4.8239303616,884
100983,169639,208838,3.9158541848999997,7.6809605460000006,-4.8239303616,885
101140,169638,208847,3.9158541848999997,7.6809605460000006,-4.8239303616,886
101249,169627,208884,3.9158541848999997,7.6809605460000006,-4.8239303616,887
101386,169680,208882,3.9158541848999997,7.6809605460000006,-4.8239303616,888
101551,169654,208906,3.9158541848999997,7.6809605460000006,-4.8239303616,889
101756,169663,208925,3.9158541848999997,7.6809605460000006,-4.8239303616,890
101969,169654,208886,3.9158541848999997,7.6809605460000006,-4.8239303616,891
102183,169673,208930,3.9158541848999997,7.6809605460000006,-4.8239303616,892
102372,169687,208912,3.9158541848999997,7.6809605460000006,-4.8239303616,893
102583,169660,208896,3.9158541848999997,7.6809605460000006,-4.8239303616,894
102779,169685,208939,3.9158541848999997,7.6809605460000006,-4.8239303616,895
102933,169724,208934,3.9158541848999997,7.6809605460000006,-4.8239303616,896
102865,169731,208930,3.9158541848999997,7.6809605460000006,-4.8239303616,897
102381,169642,208929,3.9158541848999997,7.6809605460000006,-4.8239303616,898
101786,169663,208900,3.9158541848999997,7.6809605460000006,-4.8239303616,899
101268,169595,208868,3.9158541848999997,7.6809605460000006,-4.8239303616,900
100935,169602,208838,3.9158541848999997,7.6809605460000006,-4.8239303616,901
100782,169600,208852,3.9158541848999997,7.6809605460000006,-4.8239303616,902
100856,169622,208844,3.9158541848999997,7.6809605460000006,-4.8239303616,903
101055,169641,208865,3.9158541848999997,7.6809605460000006,-4.8239303616,904
101265,169654,208869,3.9158541848999997,7.6809605460000006,-4.8239303616,905
100320,169480,208778,3.8297125713,7.624729214899999,-4.833501652,906
100188,169511,208761,3.8297125713,7.624729214899999,-4.833501652,907
100253,169508,208771,3.8297125713,7.624729214899999,-4.833501652,908
100495,169564,208764,3.8297125713,7.624729214899999,-4.833501652,909
100730,169551,208743,3.8297125713,7.624729214899999,-4.833501652,910
100889,169574,208771,3.8297125713,7.624729214899999,-4.833501652,911
101017,169586,208794,3.8297125713,7.624729214899999,-4.833501652,912
101137,169556,208778,3.8297125713,7.624729214899999,-4.833501652,913
101269,169614,208774,3.8297125713,7.624729214899999,-4.833501652,914
101432,169622,208781,3.8297125713,7.624729214899999,-4.833501652,915
101606,169594,208786,3.8297125713,7.624729214899999,-4.833501652,916
101781,169608,208784,3.8297125713,7.624729214899999,-4.833501652,917
101969,169592,208761,3.8297125713,7.624729214899999,-4.833501652,918
102163,169623,208768,3.8297125713,7.624729214899999,-4.833501652,919
102318,169622,208799,3.8297125713,7.624729214899999,-4.833501652,920
102344,169617,208834,3.8297125713,7.624729214899999,-4.833501652,921
101899,169600,208762,3.8297125713,7.624729214899999,-4.833501652,922
101260,169540,208755,3.8297125713,7.624729214899999,-4.833501652,923
100707,169510,208734,3.8297125713,7.624729214899999,-4.833501652,924
100356,169507,208734,3.8297125713,7.624729214899999,-4.833501652,925
100218,169505,208751,3.8297125713,7.624729214899999,-4.833501652,926
100267,169542,208745,3.8297125713,7.624729214899999,-4.833501652,927
100546,169549,208787,3.8297125713,7.624729214899999,-4.833501652,928
100818,169569,208808,3.8297125713,7.624729214899999,-4.833501652,929
101008,169582,208824,3.8297125713,7.624729214899999,-4.833501652,930
101163,169594,208871,3.8297125713,7.624729214899999,-4.833501652,931
101312,169612,208849,3.8297125713,7.624729214899999,-4.833501652,932
101507,169593,208864,3.8297125713,7.624729214899999,-4.833501652,933
101725,169625,208890,3.8297125713,7.624729214899999,-4.833501652,934
101921,169652,208888,3.8297125713,7.624729214899999,-4.833501652,935
102144,169679,208914,3.8297125713,7.624729214899999,-4.833501652,936
102373,169670,208903,3.8297125713,7.624729214899999,-4.833501652,937
102586,169692,208940,3.8297125713,7.624729214899999,-4.833501652,938
102721,169672,208911,3.8297125713,7.624729214899999,-4.833501652,939
102448,169666,208938,3.8297125713,7.624729214899999,-4.833501652,940
101760,169617,208912,3.8297125713,7.624729214899999,-4.833501652,941
101003,169596,208869,3.8297125713,7.624729214899999,-4.833501652,942
100376,169569,208862,3.8297125713,7.624729214899999,-4.833501652,943
99948,169564,208878,3.8297125713,7.624729214899999,-4.833501652,944
99744,169556,208868,3.8297125713,7.624729214899999,-4.833501652,945
99762,169587,208849,3.8297125713,7.624729214899999,-4.833501652,946
100010,169570,208913,3.8297125713,7.624729214899999,-4.833501652,947
100735,169593,208921,3.924229064,7.7563344578999995,-4.7665026192,948
100959,169606,208949,3.924229064,7.7563344578999995,-4.7665026192,949
101166,169625,208942,3.924229064,7.7563344578999995,-4.7665026192,950
101371,169629,208975,3.924229064,7.7563344578999995,-4.7665026192,951
101600,169653,208972,3.924229064,7.7563344578999995,-4.7665026192,952
101826,169713,209015,3.924229064,7.7563344578999995,-4.7665026192,953
102013,169684,209012,3.924229064,7.7563344578999995,-4.7665026192,954
102011,169676,208998,3.924229064,7.7563344578999995,-4.7665026192,955
101458,169613,208949,3.924229064,7.7563344578999995,-4.7665026192,956
100654,169584,208996,3.924229064,7.7563344578999995,-4.7665026192,957
99902,169547,208927,3.924229064,7.7563344578999995,-4.7665026192,958
99385,169542,208947,3.924229064,7.7563344578999995,-4.7665026192,959
99059,169532,208944,3.924229064,7.7563344578999995,-4.7665026192,960
98973,169535,208934,3.924229064,7.7563344578999995,-4.7665026192,961
99141,169534,208975,3.924229064,7.7563344578999995,-4.7665026192,962
99425,169561,209003,3.924229064,7.7563344578999995,-4.7665026192,963
99661,169581,209011,3.924229064,7.7563344578999995,-4.7665026192,964
99859,169571,209004,3.924229064,7.7563344578999995,-4.7665026192,965
100006,169581,209021,3.924229064,7.7563344578999995,-4.7665026192,966
100194,169604,209030,3.924229064,7.7563344578999995,-4.7665026192,967
100411,169609,209074,3.924229064,7.7563344578999995,-4.7665026192,968
100632,169596,209081,3.924229064,7.7563344578999995,-4.7665026192,969
100842,169632,209083,3.924229064,7.7563344578999995,-4.7665026192,970
101085,169657,209110,3.924229064,7.7563344578999995,-4.7665026192,971
101308,169637,209132,3.924229064,7.7563344578999995,-4.7665026192,972
101472,169662,209172,3.924229064,7.7563344578999995,-4.7665026192,973
101219,169644,209136,3.924229064,7.7563344578999995,-4.7665026192,974
100539,169575,209109,3.924229064,7.7563344578999995,-4.7665026192,975
99763,169570,209094,3.924229064,7.7563344578999995,-4.7665026192,976
99197,169497,209081,3.924229064,7.7563344578999995,-4.7665026192,977
98836,169496,209078,3.924229064,7.7563344578999995,-4.7665026192,978
98682,169503,209050,3.924229064,7.7563344578999995,-4.7665026192,979
98770,169491,209078,3.924229064,7.7563344578999995,-4.7665026192,980
99086,169524,209078,3.924229064,7.7563344578999995,-4.7665026192,981
99362,169543,209120,3.924229064,7.7563344578999995,-4.7665026192,982
99550,169544,209122,3.924229064,7.7563344578999995,-4.7665026192,983
99694,169576,209091,3.924229064,7.7563344578999995,-4.7665026192,984
99865,169560,209096,3.924229064,7.7563344578999995,-4.7665026192,985
100060,169583,209178,3.924229064,7.7563344578999995,-4.7665026192,986
100281,169571,209166,3.924229064,7.7563344578999995,-4.7665026192,987
100489,169597,209209,3.924229064,7.7563344578999995,-4.7665026192,988
100714,169613,209189,3.924229064,7.7563344578999995,-4.7665026192,989
100105,169461,209798,3.996013742,7.6426753844,-4.90528633,990
100387,169482,209870,3.996013742,7.6426753844,-4.90528633,991
100704,169528,209901,3.996013742,7.6426753844,-4.90528633,992
101030,169537,209899,3.996013742,7.6426753844,-4.90528633,993
101202,169554,209911,3.996013742,7.6426753844,-4.90528633,994
100918,169502,209920,3.996013742,7.6426753844,-4.90528633,995
100259,169484,209933,3.996013742,7.6426753844,-4.90528633,996
99648,169465,209929,3.996013742,7.6426753844,-4.90528633,997
99197,169448,209940,3.996013742,7.6426753844,-4.90528633,998
98932,169460,209954,3.996013742,7.6426753844,-4.90528633,999
98886,169479,209942,3.996013742,7.6426753844,-4.90528633,1000
99120,169473,209985,3.996013742,7.6426753844,-4.90528633,1001
99550,169537,210010,3.996013742,7.6426753844,-4.90528633,1002
99893,169551,210023,3.996013742,7.6426753844,-4.90528633,1003
100161,169574,210033,3.996013742,7.6426753844,-4.90528633,1004
100398,169581,210055,3.996013742,7.6426753844,-4.90528633,1005
100654,169609,210028,3.996013742,7.6426753844,-4.90528633,1006
100904,169612,210022,3.996013742,7.6426753844,-4.90528633,1007
101163,169606,210061,3.996013742,7.6426753844,-4.90528633,1008
101449,169656,210104,3.996013742,7.6426753844,-4.90528633,1009
101795,169681,210142,3.996013742,7.6426753844,-4.90528633,1010
102113,169731,210172,3.996013742,7.6426753844,-4.90528633,1011
102247,169685,210117,3.996013742,7.6426753844,-4.90528633,1012
101703,169512,209959,3.996013742,7.6426753844,-4.90528633,1013
100634,169414,209892,3.996013742,7.6426753844,-4.90528633,1014
99367,169259,209730,3.996013742,7.6426753844,-4.90528633,1015
98147,169100,209587,3.8620156764,7.6091758679999995,-4.6672004813,1016
97149,168984,209495,3.8620156764,7.6091758679999995,-4.6672004813,1017
96521,168971,209479,3.8620156764,7.6091758679999995,-4.6672004813,1018
96492,169056,209570,3.8620156764,7.6091758679999995,-4.6672004813,1019
96988,169238,209694,3.8620156764,7.6091758679999995,-4.6672004813,1020
97582,169354,209821,3.8620156764,7.6091758679999995,-4.6672004813,1021
98117,169422,209907,3.8620156764,7.6091758679999995,-4.6672004813,1022
98646,169488,209951,3.8620156764,7.6091758679999995,-4.6672004813,1023
99093,169526,209939,3.8620156764,7.6091758679999995,-4.6672004813,1024
99465,169488,209908,3.8620156764,7.6091758679999995,-4.6672004813,1025
99619,169407,209798,3.8620156764,7.6091758679999995,-4.6672004813,1026
99650,169400,209767,3.8620156764,7.6091758679999995,-4.6672004813,1027
99709,169391,209769,3.8620156764,7.6091758679999995,-4.6672004813,1028
99818,169353,209750,3.8620156764,7.6091758679999995,-4.6672004813,1029
99944,169406,209757,3.8620156764,7.6091758679999995,-4.6672004813,1030
99854,169416,209735,3.8620156764,7.6091758679999995,-4.6672004813,1031
99333,169446,209808,3.8620156764,7.6091758679999995,-4.6672004813,1032
98711,169383,209767,3.8620156764,7.6091758679999995,-4.6672004813,1033
98067,169303,209718,3.8620156764,7.6091758679999995,-4.6672004813,1034
97501,169226,209607,4.0857445895,7.6522466748,-4.833501652,1035
97115,169190,209625,4.0857445895,7.6522466748,-4.833501652,1036
97090,169212,209628,4.0857445895,7.6522466748,-4.833501652,1037
97371,169290,209616,4.0857445895,7.6522466748,-4.833501652,1038
97726,169271,209648,4.0857445895,7.6522466748,-4.833501652,1039
98045,169341,209682,4.0857445895,7.6522466748,-4.833501652,1040
98314,169353,209675,4.0857445895,7.6522466748,-4.833501652,1041
98630,169412,209677,4.0857445895,7.6522466748,-4.833501652,1042
98906,169435,209694,4.0857445895,7.6522466748,-4.833501652,1043
99192,169434,209682,4.0857445895,7.6522466748,-4.833501652,1044
99442,169451,209700,4.0857445895,7.6522466748,-4.833501652,1045
99673,169435,209688,4.0857445895,7.6522466748,-4.833501652,1046
99908,169448,209714,4.0857445895,7.6522466748,-4.833501652,1047
100109,169475,209705,4.0857445895,7.6522466748,-4.833501652,1048
100216,169484,209703,4.0857445895,7.6522466748,-4.833501652,1049
99901,169469,209712,4.0857445895,7.6522466748,-4.833501652,1050
99273,169444,209690,4.0857445895,7.6522466748,-4.833501652,1051
98712,169387,209652,4.0857445895,7.6522466748,-4.833501652,1052
98273,169346,209601,4.0857445895,7.6522466748,-4.833501652,1053
98006,169344,209640,4.0857445895,7.6522466748,-4.833501652,1054
98002,169381,209639,4.0857445895,7.6522466748,-4.833501652,1055
98440,169486,209774,4.0857445895,7.6522466748,-4.833501652,1056
99056,169640,209923,4.0857445895,7.6522466748,-4.833501652,1057
99651,169684,210102,4.0857445895,7.6522466748,-4.833501652,1058
100204,169758,210137,4.0857445895,7.6522466748,-4.833501652,1059
100742,169810,210167,4.0857445895,7.6522466748,-4.833501652,1060
101168,169799,210114,4.0857445895,7.6522466748,-4.833501652,1061
101391,169752,209990,4.0857445895,7.6522466748,-4.833501652,1062
101473,169684,209931,4.0857445895,7.6522466748,-4.833501652,1063
101541,169637,209873,4.0857445895,7.6522466748,-4.833501652,1064
101650,169656,209903,4.0857445895,7.6522466748,-4.833501652,1065
101740,169655,209888,4.0857445895,7.6522466748,-4.833501652,1066
101872,169660,209887,4.0331024923,7.4907311493,-4.7617169740000005,1067
101756,169674,209898,4.0331024923,7.4907311493,-4.7617169740000005,1068
101210,169653,209960,4.0331024923,7.4907311493,-4.7617169740000005,1069
100547,169547,209972,4.0331024923,7.4907311493,-4.7617169740000005,1070
99963,169417,209945,4.0331024923,7.4907311493,-4.7617169740000005,1071
99287,169214,209805,4.0331024923,7.4907311493,-4.7617169740000005,1072
98725,169046,209700,4.0331024923,7.4907311493,-4.7617169740000005,1073
98518,169069,209598,4.0331024923,7.4907311493,-4.7617169740000005,1074
98605,169166,209641,4.0331024923,7.4907311493,-4.7617169740000005,1075
98805,169302,209665,4.0331024923,7.4907311493,-4.7617169740000005,1076
99139,169405,209735,4.0331024923,7.4907311493,-4.7617169740000005,1077
99517,169497,209867,4.0331024923,7.4907311493,-4.7617169740000005,1078
99922,169589,209889,4.0331024923,7.4907311493,-4.7617169740000005,1079
100294,169573,209889,4.0331024923,7.4907311493,-4.7617169740000005,1080
100447,169478,209776,4.0331024923,7.4907311493,-4.7617169740000005,1081
100427,169283,209696,4.0331024923,7.4907311493,-4.7617169740000005,1082
100273,169197,209559,4.0331024923,7.4907311493,-4.7617169740000005,1083
100169,169162,209497,4.0331024923,7.4907311493,-4.7617169740000005,1084
100122,169144,209515,4.0331024923,7.4907311493,-4.7617169740000005,1085
99882,169041,209387,4.0331024923,7.4907311493,-4.7617169740000005,1086
98944,168848,209220,4.0331024923,7.4907311493,-4.7617169740000005,1087
97370,168535,208936,4.0331024923,7.4907311493,-4.7617169740000005,1088
95695,168249,208761,4.0331024923,7.4907311493,-4.7617169740000005,1089
94257,168048,208628,4.0331024923,7.4907311493,-4.7617169740000005,1090
93105,167930,208518,4.0331024923,7.4907311493,-4.7617169740000005,1091
92637,168068,208599,4.0331024923,7.4907311493,-4.7617169740000005,1092
93071,168461,208831,4.0295132584,7.8065837325,-4.8382872972,1093
94040,168882,209095,4.0295132584,7.8065837325,-4.8382872972,1094
95048,169130,209276,4.0295132584,7.8065837325,-4.8382872972,1095
95876,169287,209431,4.0295132584,7.8065837325,-4.8382872972,1096
96570,169348,209520,4.0295132584,7.8065837325,-4.8382872972,1097
97197,169365,209557,4.0295132584,7.8065837325,-4.8382872972,1098
97840,169345,209667,4.0295132584,7.8065837325,-4.8382872972,1099
98349,169176,209624,4.0295132584,7.8065837325,-4.8382872972,1100
98657,169172,209568,4.0295132584,7.8065837325,-4.8382872972,1101
98925,169209,209561,4.0295132584,7.8065837325,-4.8382872972,1102
99344,169274,209605,4.0295132584,7.8065837325,-4.8382872972,1103
99821,169390,209653,4.0295132584,7.8065837325,-4.8382872972,1104
100212,169466,209701,4.0295132584,7.8065837325,-4.8382872972,1105
100081,169458,209706,4.0295132584,7.8065837325,-4.8382872972,1106
99456,169429,209643,4.0295132584,7.8065837325,-4.8382872972,1107
98832,169375,209640,4.0295132584,7.8065837325,-4.8382872972,1108
98363,169375,209611,4.0295132584,7.8065837325,-4.8382872972,1109
98044,169333,209601,4.0295132584,7.8065837325,-4.8382872972,1110
97884,169321,209549,4.0295132584,7.8065837325,-4.8382872972,1111
97955,169325,209608,4.0295132584,7.8065837325,-4.8382872972,1112
98245,169372,209564,4.0295132584,7.8065837325,-4.8382872972,1113
98541,169403,209575,4.0295132584,7.8065837325,-4.8382872972,1114
98785,169397,209599,4.0295132584,7.8065837325,-4.8382872972,1115
99014,169419,209616,4.0295132584,7.8065837325,-4.8382872972,1116
99249,169405,209594,4.0295132584,7.8065837325,-4.8382872972,1117
99400,169324,209548,4.0295132584,7.8065837325,-4.8382872972,1118
99580,169315,209565,4.0295132584,7.8065837325,-4.8382872972,1119
99790,169338,209566,4.0295132584,7.8065837325,-4.8382872972,1120
100126,169385,209584,4.0295132584,7.8065837325,-4.8382872972,1121
100331,169367,209594,4.0295132584,7.8065837325,-4.8382872972,1122
100403,169298,209564,4.0295132584,7.8065837325,-4.8382872972,1123
100483,169243,209540,4.0295132584,7.8065837325,-4.8382872972,1124
100268,169246,209534,4.0295132584,7.8065837325,-4.8382872972,1125
99747,169214,209524,4.0295132584,7.8065837325,-4.8382872972,1126
99206,169265,209492,4.0295132584,7.8065837325,-4.8382872972,1127
98756,169261,209459,4.0295132584,7.8065837325,-4.8382872972,1128
98440,169289,209461,4.0295132584,7.8065837325,-4.8382872972,1129
98294,169320,209437,4.0295132584,7.8065837325,-4.8382872972,1130
98433,169352,209443,4.0295132584,7.8065837325,-4.8382872972,1131
98721,169344,209425,4.0295132584,7.8065837325,-4.8382872972,1132
98992,169345,209428,4.0295132584,7.8065837325,-4.8382872972,1133
99180,169414,209463,4.0295132584,7.8065837325,-4.8382872972,1134
100134,169360,209241,4.0055850324,7.7228349415,-4.809573426,1135
99659,169346,209238,4.0055850324,7.7228349415,-4.809573426,1136
99399,169316,209272,4.0055850324,7.7228349415,-4.809573426,1137
99292,169319,209239,4.0055850324,7.7228349415,-4.809573426,1138
99453,169352,209240,4.0055850324,7.7228349415,-4.809573426,1139
99749,169390,209312,4.0055850324,7.7228349415,-4.809573426,1140
100027,169409,209315,4.0055850324,7.7228349415,-4.809573426,1141
100220,169444,209353,4.0055850324,7.7228349415,-4.809573426,1142
100364,169433,209368,4.0055850324,7.7228349415,-4.809573426,1143
100573,169441,209387,4.0055850324,7.7228349415,-4.809573426,1144
100778,169436,209352,4.0055850324,7.7228349415,-4.809573426,1145
101005,169464,209370,4.0055850324,7.7228349415,-4.809573426,1146
101224,169498,209341,4.0055850324,7.7228349415,-4.809573426,1147
101444,169496,209383,4.0055850324,7.7228349415,-4.809573426,1148
101665,169540,209362,4.0055850324,7.7228349415,-4.809573426,1149
101876,169505,209412,4.0055850324,7.7228349415,-4.809573426,1150
102071,169509,209384,4.0055850324,7.7228349415,-4.809573426,1151
102126,169495,209382,4.0055850324,7.7228349415,-4.809573426,1152
101724,169507,209387,4.0055850324,7.7228349415,-4.809573426,1153
101030,169428,209359,4.0055850324,7.7228349415,-4.809573426,1154
100329,169353,209371,4.0055850324,7.7228349415,-4.809573426,1155
99800,169376,209357,4.0055850324,7.7228349415,-4.809573426,1156
99449,169330,209330,4.0055850324,7.7228349415,-4.809573426,1157
99324,169373,209308,4.0055850324,7.7228349415,-4.809573426,1158
99473,169385,209344,4.0055850324,7.7228349415,-4.809573426,1159
99727,169407,209318,4.0055850324,7.7228349415,-4.809573426,1160
99950,169441,209387,4.0055850324,7.7228349415,-4.809573426,1161
100093,169423,209381,4.0055850324,7.7228349415,-4.809573426,1162
100231,169429,209405,4.0055850324,7.7228349415,-4.809573426,1163
100403,169417,209400,4.0055850324,7.7228349415,-4.809573426,1164
100607,169446,209398,4.0055850324,7.7228349415,-4.809573426,1165
100858,169447,209388,4.0055850324,7.7228349415,-4.809573426,1166
101067,169471,209404,4.0055850324,7.7228349415,-4.809573426,1167
101277,169480,209430,4.0055850324,7.7228349415,-4.809573426,1168
101504,169482,209461,4.0055850324,7.7228349415,-4.809573426,1169
101710,169524,209430,4.0055850324,7.7228349415,-4.809573426,1170
101846,169503,209414,4.0055850324,7.7228349415,-4.809573426,1171
101663,169488,209417,4.0055850324,7.7228349415,-4.809573426,1172
101029,169460,209434,4.0055850324,7.7228349415,-4.809573426,1173
100307,169393,209442,4.0055850324,7.7228349415,-4.809573426,1174
99720,169371,209373,4.0055850324,7.7228349415,-4.809573426,1175
99284,169339,209412,4.0055850324,7.7228349415,-4.809573426,1176
101644,169483,209563,4.0235312019,7.6091758679999995,-4.7617169740000005,1177
101632,169459,209575,4.0235312019,7.6091758679999995,-4.7617169740000005,1178
101164,169467,209593,4.0235312019,7.6091758679999995,-4.7617169740000005,1179
100400,169323,209569,4.0235312019,7.6091758679999995,-4.7617169740000005,1180
99678,169329,209534,4.0235312019,7.6091758679999995,-4.7617169740000005,1181
99126,169296,209547,4.0235312019,7.6091758679999995,-4.7617169740000005,1182
98784,169296,209509,4.0235312019,7.6091758679999995,-4.7617169740000005,1183
98690,169317,209511,4.0235312019,7.6091758679999995,-4.7617169740000005,1184
98875,169330,209556,4.0235312019,7.6091758679999995,-4.7617169740000005,1185
99159,169370,209540,4.0235312019,7.6091758679999995,-4.7617169740000005,1186
99413,169356,209553,4.0235312019,7.6091758679999995,-4.7617169740000005,1187
99543,169398,209591,4.0235312019,7.6091758679999995,-4.7617169740000005,1188
99681,169354,209565,4.0235312019,7.6091758679999995,-4.7617169740000005,1189
99843,169385,209545,4.0235312019,7.6091758679999995,-4.7617169740000005,1190
100056,169369,209592,4.0235312019,7.6091758679999995,-4.7617169740000005,1191
100255,169391,209615,4.0235312019,7.6091758679999995,-4.7617169740000005,1192
100447,169400,209579,4.0235312019,7.6091758679999995,-4.7617169740000005,1193
100623,169417,209559,4.0235312019,7.6091758679999995,-4.7617169740000005,1194
100823,169421,209549,4.0235312019,7.6091758679999995,-4.7617169740000005,1195
100991,169415,209586,4.0235312019,7.6091758679999995,-4.7617169740000005,1196
101144,169408,209545,4.0235312019,7.6091758679999995,-4.7617169740000005,1197
101137,169392,209512,4.0235312019,7.6091758679999995,-4.7617169740000005,1198
100653,169365,209530,4.0235312019,7.6091758679999995,-4.7617169740000005,1199
99912,169314,209548,4.0235312019,7.6091758679999995,-4.7617169740000005,1200
99243,169253,209499,4.0235312019,7.6091758679999995,-4.7617169740000005,1201
98730,169222,209465,4.0235312019,7.6091758679999995,-4.7617169740000005,1202
98435,169207,209455,4.0235312019,7.6091758679999995,-4.7617169740000005,1203
98363,169238,209458,4.0235312019,7.6091758679999995,-4.7617169740000005,1204
98561,169257,209465,4.0235312019,7.6091758679999995,-4.7617169740000005,1205
98813,169265,209487,4.0235312019,7.6091758679999995,-4.7617169740000005,1206
99009,169289,209506,4.0235312019,7.6091758679999995,-4.7617169740000005,1207
99122,169276,209487,4.0235312019,7.6091758679999995,-4.7617169740000005,1208
99248,169278,209489,4.0235312019,7.6091758679999995,-4.7617169740000005,1209
99389,169285,209462,4.0235312019,7.6091758679999995,-4.7617169740000005,1210
99580,169282,209464,4.0235312019,7.6091758679999995,-4.7617169740000005,1211
99779,169279,209466,4.0235312019,7.6091758679999995,-4.7617169740000005,1212
99959,169288,209466,4.0235312019,7.6091758679999995,-4.7617169740000005,1213
100140,169318,209482,4.0235312019,7.6091758679999995,-4.7617169740000005,1214
100319,169344,209440,3.9720855159999995,7.6725856669,-4.7246282237,1215
100483,169323,209473,3.9720855159999995,7.6725856669,-4.7246282237,1216
100636,169302,209427,3.9720855159999995,7.6725856669,-4.7246282237,1217
100588,169302,209470,3.9720855159999995,7.6725856669,-4.7246282237,1218
100109,169286,209442,3.9720855159999995,7.6725856669,-4.7246282237,1219
99511,169219,209457,3.9720855159999995,7.6725856669,-4.7246282237,1220
99033,169198,209436,3.9720855159999995,7.6725856669,-4.7246282237,1221
98741,169197,209409,3.9720855159999995,7.6725856669,-4.7246282237,1222
98657,169183,209411,3.9720855159999995,7.6725856669,-4.7246282237,1223
98829,169169,209443,3.9720855159999995,7.6725856669,-4.7246282237,1224
99088,169229,209478,3.9720855159999995,7.6725856669,-4.7246282237,1225
99326,169265,209478,3.9720855159999995,7.6725856669,-4.7246282237,1226
99511,169287,209511,3.9720855159999995,7.6725856669,-4.7246282237,1227
99669,169290,209518,3.9433716447999996,7.6522466748,-4.8059841921,1228
99875,169339,209564,3.9433716447999996,7.6522466748,-4.8059841921,1229
100098,169304,209566,3.9433716447999996,7.6522466748,-4.8059841921,1230
100366,169321,209552,3.9433716447999996,7.6522466748,-4.8059841921,1231
100639,169348,209616,3.9433716447999996,7.6522466748,-4.8059841921,1232
100884,169320,209600,3.9433716447999996,7.6522466748,-4.8059841921,1233
101149,169362,209659,3.9433716447999996,7.6522466748,-4.8059841921,1234
101377,169401,209602,3.9433716447999996,7.6522466748,-4.8059841921,1235
101611,169405,209616,3.9433716447999996,7.6522466748,-4.8059841921,1236
101690,169380,209632,3.9433716447999996,7.6522466748,-4.8059841921,1237
101372,169369,209608,3.9433716447999996,7.6522466748,-4.8059841921,1238
100733,169330,209611,3.9433716447999996,7.6522466748,-4.8059841921,1239
100068,169274,209611,3.9433716447999996,7.6522466748,-4.8059841921,1240
99553,169259,209597,3.9433716447999996,7.6522466748,-4.8059841921,1241
99231,169266,209600,3.9433716447999996,7.6522466748,-4.8059841921,1242
99097,169261,209602,3.9433716447999996,7.6522466748,-4.8059841921,1243
99217,169260,209619,3.9433716447999996,7.6522466748,-4.8059841921,1244
99491,169297,209601,3.9433716447999996,7.6522466748,-4.8059841921,1245
99705,169299,209639,3.9433716447999996,7.6522466748,-4.8059841921,1246
99872,169308,209673,3.9433716447999996,7.6522466748,-4.8059841921,1247
100064,169343,209738,3.9433716447999996,7.6522466748,-4.8059841921,1248
100363,169374,209797,3.9433716447999996,7.6522466748,-4.8059841921,1249
100698,169386,209747,3.9433716447999996,7.6522466748,-4.8059841921,1250
100995,169422,209734,3.9433716447999996,7.6522466748,-4.8059841921,1251
101255,169411,209779,3.9433716447999996,7.6522466748,-4.8059841921,1252
101465,169407,209789,3.9433716447999996,7.6522466748,-4.8059841921,1253
101664,169442,209745,3.9433716447999996,7.6522466748,-4.8059841921,1254
101827,169416,209748,3.9433716447999996,7.6522466748,-4.8059841921,1255
101977,169449,209727,3.9433716447999996,7.6522466748,-4.8059841921,1256
101914,169382,209707,3.9433716447999996,7.6522466748,-4.8059841921,1257
101401,169339,209684,3.9433716447999996,7.6522466748,-4.8059841921,1258
100620,169287,209712,3.9433716447999996,7.6522466748,-4.8059841921,1259
99875,169243,209683,3.9433716447999996,7.6522466748,-4.8059841921,1260
99309,169202,209676,3.9433716447999996,7.6522466748,-4.8059841921,1261
98958,169239,209654,3.9433716447999996,7.6522466748,-4.8059841921,1262
98854,169214,209676,3.9433716447999996,7.6522466748,-4.8059841921,1263
98994,169247,209686,3.9433716447999996,7.6522466748,-4.8059841921,1264
99272,169274,209683,3.9433716447999996,7.6522466748,-4.8059841921,1265
99464,169272,209652,3.9433716447999996,7.6522466748,-4.8059841921,1266
99601,169276,209646,3.9433716447999996,7.6522466748,-4.8059841921,1267
99728,169274,209673,3.9433716447999996,7.6522466748,-4.8059841921,1268
99881,169279,209690,3.9433716447999996,7.6522466748,-4.8059841921,1269
99127,169142,209540,3.9864424516000003,7.7132636511,-4.8430729424,1270
99275,169176,209559,3.9864424516000003,7.7132636511,-4.8430729424,1271
99446,169210,209614,3.9864424516000003,7.7132636511,-4.8430729424,1272
99646,169207,209613,3.9864424516000003,7.7132636511,-4.8430729424,1273
99890,169243,209614,3.9864424516000003,7.7132636511,-4.8430729424,1274
100117,169269,209627,3.9864424516000003,7.7132636511,-4.8430729424,1275
100359,169256,209641,3.9864424516000003,7.7132636511,-4.8430729424,1276
100630,169262,209656,3.9864424516000003,7.7132636511,-4.8430729424,1277
100843,169303,209669,3.9864424516000003,7.7132636511,-4.8430729424,1278
101062,169299,209652,3.9864424516000003,7.7132636511,-4.8430729424,1279
101035,169236,209664,3.9864424516000003,7.7132636511,-4.8430729424,1280
100527,169252,209675,3.9864424516000003,7.7132636511,-4.8430729424,1281
99775,169182,209635,3.9864424516000003,7.7132636511,-4.8430729424,1282
99093,169180,209626,3.9864424516000003,7.7132636511,-4.8430729424,1283
98592,169127,209640,3.9864424516000003,7.7132636511,-4.8430729424,1284
98289,169117,209605,3.9864424516000003,7.7132636511,-4.8430729424,1285
98246,169136,209604,3.9864424516000003,7.7132636511,-4.8430729424,1286
98456,169164,209598,3.9864424516000003,7.7132636511,-4.8430729424,1287
98700,169155,209607,3.9864424516000003,7.7132636511,-4.8430729424,1288
98878,169213,209614,3.9864424516000003,7.7132636511,-4.8430729424,1289
98990,169178,209649,3.9864424516000003,7.7132636511,-4.8430729424,1290
99122,169174,209639,3.9864424516000003,7.7132636511,-4.8430729424,1291
99270,169153,209599,3.9864424516000003,7.7132636511,-4.8430729424,1292
99461,169197,209625,3.9864424516000003,7.7132636511,-4.8430729424,1293
99662,169198,209656,3.9864424516000003,7.7132636511,-4.8430729424,1294
99855,169189,209631,3.9864424516000003,7.7132636511,-4.8430729424,1295
100024,169169,209666,3.9864424516000003,7.7132636511,-4.8430729424,1296
100213,169210,209642,3.9864424516000003,7.7132636511,-4.8430729424,1297
100377,169230,209603,3.9864424516000003,7.7132636511,-4.8430729424,1298
100243,169184,209647,3.9864424516000003,7.7132636511,-4.8430729424,1299
99611,169152,209646,3.9864424516000003,7.7132636511,-4.8430729424,1300
98827,169083,209602,3.9864424516000003,7.7132636511,-4.8430729424,1301
98194,169084,209626,3.9864424516000003,7.7132636511,-4.8430729424,1302
97793,169079,209605,3.9864424516000003,7.7132636511,-4.8430729424,1303
97586,169086,209603,3.9864424516000003,7.7132636511,-4.8430729424,1304
97591,169086,209639,3.9864424516000003,7.7132636511,-4.8430729424,1305
97910,169136,209635,3.9864424516000003,7.7132636511,-4.8430729424,1306
98263,169157,209621,3.9864424516000003,7.7132636511,-4.8430729424,1307
98540,169166,209643,3.9864424516000003,7.7132636511,-4.8430729424,1308
98705,169188,209598,3.9864424516000003,7.7132636511,-4.8430729424,1309
98862,169192,209645,3.9864424516000003,7.7132636511,-4.8430729424,1310
99061,169191,209600,3.9864424516000003,7.7132636511,-4.8430729424,1311
98750,169201,209651,3.7435709577,7.4943203832,-4.8622155232,1312
98966,169204,209662,3.7435709577,7.4943203832,-4.8622155232,1313
99198,169234,209670,3.7435709577,7.4943203832,-4.8622155232,1314
99464,169250,209691,3.7435709577,7.4943203832,-4.8622155232,1315
99707,169286,209693,3.7435709577,7.4943203832,-4.8622155232,1316
99964,169274,209671,3.7435709577,7.4943203832,-4.8622155232,1317
100213,169287,209683,3.7435709577,7.4943203832,-4.8622155232,1318
100462,169304,209699,3.7435709577,7.4943203832,-4.8622155232,1319
100628,169325,209718,3.7435709577,7.4943203832,-4.8622155232,1320
100407,169261,209698,3.7435709577,7.4943203832,-4.8622155232,1321
99686,169227,209643,3.7435709577,7.4943203832,-4.8622155232,1322
98868,169225,209655,3.7435709577,7.4943203832,-4.8622155232,1323
98203,169172,209641,3.7435709577,7.4943203832,-4.8622155232,1324
97723,169132,209637,3.7435709577,7.4943203832,-4.8622155232,1325
97455,169127,209625,3.7435709577,7.4943203832,-4.8622155232,1326
97505,169160,209608,3.7435709577,7.4943203832,-4.8622155232,1327
97874,169172,209614,3.7435709577,7.4943203832,-4.8622155232,1328
98230,169200,209664,3.7435709577,7.4943203832,-4.8622155232,1329
98477,169236,209629,3.7435709577,7.4943203832,-4.8622155232,1330
98676,169245,209641,3.7435709577,7.4943203832,-4.8622155232,1331
98902,169258,209629,3.7435709577,7.4943203832,-4.8622155232,1332
99137,169248,209673,3.7435709577,7.4943203832,-4.8622155232,1333
99407,169280,209671,3.7435709577,7.4943203832,-4.8622155232,1334
99654,169283,209622,3.7435709577,7.4943203832,-4.8622155232,1335
99879,169292,209622,3.7435709577,7.4943203832,-4.8622155232,1336
100113,169295,209665,3.7435709577,7.4943203832,-4.8622155232,1337
100315,169308,209613,3.7435709577,7.4943203832,-4.8622155232,1338
100486,169308,209600,3.7435709577,7.4943203832,-4.8622155232,1339
100434,169285,209619,3.7435709577,7.4943203832,-4.8622155232,1340
99832,169250,209612,3.7435709577,7.4943203832,-4.8622155232,1341
99052,169194,209580,3.7435709577,7.4943203832,-4.8622155232,1342
98407,169178,209543,3.7435709577,7.4943203832,-4.8622155232,1343
97921,169141,209540,3.7435709577,7.4943203832,-4.8622155232,1344
97674,169102,209496,3.7435709577,7.4943203832,-4.8622155232,1345
97701,169132,209509,3.7435709577,7.4943203832,-4.8622155232,1346
97991,169147,209483,3.7435709577,7.4943203832,-4.8622155232,1347
98327,169159,209501,3.7435709577,7.4943203832,-4.8622155232,1348
98566,169193,209522,3.7435709577,7.4943203832,-4.8622155232,1349
98725,169210,209524,3.7435709577,7.4943203832,-4.8622155232,1350
98904,169186,209503,3.7435709577,7.4943203832,-4.8622155232,1351
99104,169197,209526,3.7435709577,7.4943203832,-4.8622155232,1352
99324,169183,209502,3.7435709577,7.4943203832,-4.8622155232,1353
98417,169138,209439,4.0331024923,7.5912296985,-4.8011985469,1354
98271,169138,209419,4.0331024923,7.5912296985,-4.8011985469,1355
98405,169148,209393,4.0331024923,7.5912296985,-4.8011985469,1356
98688,169154,209397,4.0331024923,7.5912296985,-4.8011985469,1357
99023,169195,209472,4.0331024923,7.5912296985,-4.8011985469,1358
99271,169220,209516,4.0331024923,7.5912296985,-4.8011985469,1359
99511,169252,209536,4.0331024923,7.5912296985,-4.8011985469,1360
99812,169242,209549,4.0331024923,7.5912296985,-4.8011985469,1361
100104,169282,209582,4.0331024923,7.5912296985,-4.8011985469,1362
100431,169301,209592,4.0331024923,7.5912296985,-4.8011985469,1363
100760,169349,209639,4.0331024923,7.5912296985,-4.8011985469,1364
101066,169327,209602,4.0331024923,7.5912296985,-4.8011985469,1365
101366,169399,209663,4.0331024923,7.5912296985,-4.8011985469,1366
101618,169398,209663,4.0331024923,7.5912296985,-4.8011985469,1367
101877,169389,209629,4.0331024923,7.5912296985,-4.8011985469,1368
101948,169381,209658,4.0331024923,7.5912296985,-4.8011985469,1369
101548,169391,209687,4.0331024923,7.5912296985,-4.8011985469,1370
100858,169362,209644,4.0331024923,7.5912296985,-4.8011985469,1371
100198,169328,209628,4.0331024923,7.5912296985,-4.8011985469,1372
99693,169279,209617,4.0331024923,7.5912296985,-4.8011985469,1373
99365,169273,209617,4.0331024923,7.5912296985,-4.8011985469,1374
99227,169247,209601,4.0331024923,7.5912296985,-4.8011985469,1375
99418,169283,209572,4.0331024923,7.5912296985,-4.8011985469,1376
99729,169300,209616,4.0331024923,7.5912296985,-4.8011985469,1377
99981,169299,209623,4.0331024923,7.5912296985,-4.8011985469,1378
100170,169330,209660,4.0331024923,7.5912296985,-4.8011985469,1379
100361,169343,209647,3.8620156764,7.6522466748,-4.8000021356,1380
100565,169364,209636,3.8620156764,7.6522466748,-4.8000021356,1381
100797,169362,209653,3.8620156764,7.6522466748,-4.8000021356,1382
101057,169371,209651,3.8620156764,7.6522466748,-4.8000021356,1383
101288,169378,209653,3.8620156764,7.6522466748,-4.8000021356,1384
101516,169389,209705,3.8620156764,7.6522466748,-4.8000021356,1385
101735,169444,209648,3.8620156764,7.6522466748,-4.8000021356,1386
101944,169410,209617,3.8620156764,7.6522466748,-4.8000021356,1387
102064,169431,209658,3.8620156764,7.6522466748,-4.8000021356,1388
101798,169377,209632,3.8620156764,7.6522466748,-4.8000021356,1389
101091,169354,209652,3.8620156764,7.6522466748,-4.8000021356,1390
100327,169321,209624,3.8620156764,7.6522466748,-4.8000021356,1391
99694,169294,209601,3.8620156764,7.6522466748,-4.8000021356,1392
99235,169278,209570,3.8620156764,7.6522466748,-4.8000021356,1393
98966,169263,209565,3.8620156764,7.6522466748,-4.8000021356,1394
98977,169271,209595,3.8620156764,7.6522466748,-4.8000021356,1395
99262,169287,209591,3.8620156764,7.6522466748,-4.8000021356,1396
99522,169310,209609,3.8620156764,7.6522466748,-4.8000021356,1397
99751,169345,209578,3.8620156764,7.6522466748,-4.8000021356,1398
99927,169341,209629,3.8620156764,7.6522466748,-4.8000021356,1399
100129,169350,209619,3.8620156764,7.6522466748,-4.8000021356,1400
100342,169367,209618,3.8620156764,7.6522466748,-4.8000021356,1401
100590,169390,209603,3.8620156764,7.6522466748,-4.8000021356,1402
100819,169380,209603,3.8620156764,7.6522466748,-4.8000021356,1403
101020,169418,209587,3.8620156764,7.6522466748,-4.8000021356,1404
101228,169416,209604,3.8620156764,7.6522466748,-4.8000021356,1405
101417,169398,209606,3.8620156764,7.6522466748,-4.8000021356,1406
101553,169424,209586,3.8620156764,7.6522466748,-4.8000021356,1407
101398,169377,209570,3.8620156764,7.6522466748,-4.8000021356,1408
100748,169343,209537,3.8620156764,7.6522466748,-4.8000021356,1409
99962,169306,209516,3.8620156764,7.6522466748,-4.8000021356,1410
99240,169248,209503,3.8620156764,7.6522466748,-4.8000021356,1411
98740,169240,209484,3.8620156764,7.6522466748,-4.8000021356,1412
98408,169227,209452,3.8620156764,7.6522466748,-4.8000021356,1413
98350,169206,209443,3.8620156764,7.6522466748,-4.8000021356,1414
98580,169271,209475,3.8620156764,7.6522466748,-4.8000021356,1415
98868,169269,209441,3.8620156764,7.6522466748,-4.8000021356,1416
99045,169262,209430,3.8620156764,7.6522466748,-4.8000021356,1417
99198,169275,209474,3.8620156764,7.6522466748,-4.8000021356,1418
99341,169267,209449,3.8620156764,7.6522466748,-4.8000021356,1419
99544,169298,209431,3.8620156764,7.6522466748,-4.8000021356,1420
99749,169284,209416,3.8620156764,7.6522466748,-4.8000021356,1421
100375,169331,209446,3.9816568063999997,7.6618179652,-4.7437708044999995,1422
100572,169339,209436,3.9816568063999997,7.6618179652,-4.7437708044999995,1423
100756,169330,209411,3.9816568063999997,7.6618179652,-4.7437708044999995,1424
100672,169346,209406,3.9816568063999997,7.6618179652,-4.7437708044999995,1425
100157,169305,209393,3.9816568063999997,7.6618179652,-4.7437708044999995,1426
99476,169241,209361,3.9816568063999997,7.6618179652,-4.7437708044999995,1427
98916,169213,209378,3.9816568063999997,7.6618179652,-4.7437708044999995,1428
98571,169212,209340,3.9816568063999997,7.6618179652,-4.7437708044999995,1429
98398,169202,209302,3.9816568063999997,7.6618179652,-4.7437708044999995,1430
98497,169216,209342,3.9816568063999997,7.6618179652,-4.7437708044999995,1431
98770,169218,209350,3.9816568063999997,7.6618179652,-4.7437708044999995,1432
98998,169230,209356,3.9816568063999997,7.6618179652,-4.7437708044999995,1433
99156,169241,209331,3.9816568063999997,7.6618179652,-4.7437708044999995,1434
99290,169247,209370,3.9816568063999997,7.6618179652,-4.7437708044999995,1435
99421,169239,209370,3.9816568063999997,7.6618179652,-4.7437708044999995,1436
99614,169271,209362,3.9816568063999997,7.6618179652,-4.7437708044999995,1437
99848,169313,209371,3.9816568063999997,7.6618179652,-4.7437708044999995,1438
100066,169305,209364,3.9816568063999997,7.6618179652,-4.7437708044999995,1439
100302,169313,209400,3.9816568063999997,7.6618179652,-4.7437708044999995,1440
100574,169373,209409,3.9816568063999997,7.6618179652,-4.7437708044999995,1441
100848,169336,209466,3.9816568063999997,7.6618179652,-4.7437708044999995,1442
101088,169386,209451,3.9816568063999997,7.6618179652,-4.7437708044999995,1443
100974,169374,209481,3.9816568063999997,7.6618179652,-4.7437708044999995,1444
100433,169342,209478,3.9816568063999997,7.6618179652,-4.7437708044999995,1445
99786,169303,209454,3.9816568063999997,7.6618179652,-4.7437708044999995,1446
99210,169287,209461,3.9816568063999997,7.6618179652,-4.7437708044999995,1447
98858,169281,209452,3.9816568063999997,7.6618179652,-4.7437708044999995,1448
98701,169289,209461,3.9816568063999997,7.6618179652,-4.7437708044999995,1449
98805,169315,209476,3.9816568063999997,7.6618179652,-4.7437708044999995,1450
99123,169348,209465,3.9816568063999997,7.6618179652,-4.7437708044999995,1451
99435,169341,209512,3.9816568063999997,7.6618179652,-4.7437708044999995,1452
99683,169361,209530,3.9816568063999997,7.6618179652,-4.7437708044999995,1453
99852,169384,209533,3.9816568063999997,7.6618179652,-4.7437708044999995,1454
100069,169402,209515,3.9816568063999997,7.6618179652,-4.7437708044999995,1455
100305,169397,209543,3.9816568063999997,7.6618179652,-4.7437708044999995,1456
100552,169450,209508,3.9816568063999997,7.6618179652,-4.7437708044999995,1457
100791,169454,209550,3.9816568063999997,7.6618179652,-4.7437708044999995,1458
101044,169428,209563,3.9816568063999997,7.6618179652,-4.7437708044999995,1459
101262,169444,209589,3.9816568063999997,7.6618179652,-4.7437708044999995,1460
101495,169442,209551,3.9816568063999997,7.6618179652,-4.7437708044999995,1461
101694,169460,209576,3.9816568063999997,7.6618179652,-4.7437708044999995,1462
101538,169434,209563,3.9816568063999997,7.6618179652,-4.7437708044999995,1463
101737,169438,209480,3.9433716447999996,7.6618179652,-4.8562334667,1464
101790,169474,209451,3.9433716447999996,7.6618179652,-4.8562334667,1465
101355,169416,209481,3.9433716447999996,7.6618179652,-4.8562334667,1466
100652,169426,209482,3.9433716447999996,7.6618179652,-4.8562334667,1467
100008,169361,209436,3.9433716447999996,7.6618179652,-4.8562334667,1468
99512,169350,209470,3.9433716447999996,7.6618179652,-4.8562334667,1469
99202,169304,209427,3.9433716447999996,7.6618179652,-4.8562334667,1470
99137,169323,209445,3.9433716447999996,7.6618179652,-4.8562334667,1471
99367,169369,209439,3.9433716447999996,7.6618179652,-4.8562334667,1472
99629,169390,209463,3.9433716447999996,7.6618179652,-4.8562334667,1473
99867,169401,209489,3.9433716447999996,7.6618179652,-4.8562334667,1474
100033,169429,209506,3.9433716447999996,7.6618179652,-4.8562334667,1475
100212,169401,209488,3.9433716447999996,7.6618179652,-4.8562334667,1476
100416,169449,209510,3.9433716447999996,7.6618179652,-4.8562334667,1477
100679,169428,209507,3.9433716447999996,7.6618179652,-4.8562334667,1478
100923,169438,209540,3.9433716447999996,7.6618179652,-4.8562334667,1479
101142,169466,209503,3.9433716447999996,7.6618179652,-4.8562334667,1480
101359,169438,209503,3.9433716447999996,7.6618179652,-4.8562334667,1481
101581,169481,209537,3.9433716447999996,7.6618179652,-4.8562334667,1482
101766,169491,209537,3.9433716447999996,7.6618179652,-4.8562334667,1483
101922,169488,209551,3.9433716447999996,7.6618179652,-4.8562334667,1484
101705,169482,209529,3.9433716447999996,7.6618179652,-4.8562334667,1485
101005,169399,209504,3.9433716447999996,7.6618179652,-4.8562334667,1486
100189,169370,209495,3.9433716447999996,7.6618179652,-4.8562334667,1487
99501,169333,209470,3.9433716447999996,7.6618179652,-4.8562334667,1488
99008,169302,209490,3.9756747499,7.6522466748,-4.7952164904,1489
98713,169322,209445,3.9756747499,7.6522466748,-4.7952164904,1490
98717,169294,209450,3.9756747499,7.6522466748,-4.7952164904,1491
98977,169330,209446,3.9756747499,7.6522466748,-4.7952164904,1492
99270,169366,209464,3.9756747499,7.6522466748,-4.7952164904,1493
99459,169378,209476,3.9756747499,7.6522466748,-4.7952164904,1494
99619,169373,209499,3.9756747499,7.6522466748,-4.7952164904,1495
99815,169383,209480,3.9756747499,7.6522466748,-4.7952164904,1496
100013,169389,209503,3.9756747499,7.6522466748,-4.7952164904,1497
100258,169382,209498,3.9756747499,7.6522466748,-4.7952164904,1498
100497,169434,209514,3.9756747499,7.6522466748,-4.7952164904,1499
100724,169441,209545,3.9756747499,7.6522466748,-4.7952164904,1500
100951,169433,209526,3.9756747499,7.6522466748,-4.7952164904,1501
101197,169459,209526,3.9756747499,7.6522466748,-4.7952164904,1502
101386,169463,209531,3.9756747499,7.6522466748,-4.7952164904,1503
101488,169469,209569,3.9756747499,7.6522466748,-4.7952164904,1504
101065,169434,209570,3.9756747499,7.6522466748,-4.7952164904,1505
100305,169381,209551,3.9756747499,7.6522466748,-4.7952164904,1506
99536,169348,209492,3.9756747499,7.6522466748,-4.7952164904,1507
98970,169282,209482,3.9756747499,7.6522466748,-4.7952164904,1508
98561,169292,209445,3.9756747499,7.6522466748,-4.7952164904,1509
98417,169290,209436,3.9756747499,7.6522466748,-4.7952164904,1510
98559,169301,209452,3.9756747499,7.6522466748,-4.7952164904,1511
98864,169296,209449,3.9756747499,7.6522466748,-4.7952164904,1512
99084,169342,209424,3.9756747499,7.6522466748,-4.7952164904,1513
99247,169368,209422,3.9756747499,7.6522466748,-4.7952164904,1514
99377,169347,209469,3.9529429352,7.6103722793,-4.8382872972,1515
99518,169339,209435,3.9529429352,7.6103722793,-4.8382872972,1516
99700,169338,209459,3.9529429352,7.6103722793,-4.8382872972,1517
99902,169334,209425,3.9529429352,7.6103722793,-4.8382872972,1518
100112,169341,209433,3.9529429352,7.6103722793,-4.8382872972,1519
100289,169376,209424,3.9529429352,7.6103722793,-4.8382872972,1520
100463,169357,209404,3.9529429352,7.6103722793,-4.8382872972,1521
100636,169339,209430,3.9529429352,7.6103722793,-4.8382872972,1522
100775,169351,209432,3.9529429352,7.6103722793,-4.8382872972,1523
100689,169320,209444,3.9529429352,7.6103722793,-4.8382872972,1524
100144,169317,209406,3.9529429352,7.6103722793,-4.8382872972,1525
99456,169290,209403,3.9529429352,7.6103722793,-4.8382872972,1526
98862,169238,209319,3.9529429352,7.6103722793,-4.8382872972,1527
98480,169211,209326,3.9529429352,7.6103722793,-4.8382872972,1528
98347,169170,209321,3.9529429352,7.6103722793,-4.8382872972,1529
98439,169195,209331,3.9529429352,7.6103722793,-4.8382872972,1530
98725,169239,209313,3.9529429352,7.6103722793,-4.8382872972,1531
98979,169250,209352,3.9529429352,7.6103722793,-4.8382872972,1532
99131,169259,209361,3.9529429352,7.6103722793,-4.8382872972,1533
99269,169263,209314,3.9529429352,7.6103722793,-4.8382872972,1534
99400,169265,209324,3.9529429352,7.6103722793,-4.8382872972,1535
99582,169240,209324,3.9529429352,7.6103722793,-4.8382872972,1536
99771,169277,209323,3.9529429352,7.6103722793,-4.8382872972,1537
100001,169299,209363,3.9529429352,7.6103722793,-4.8382872972,1538
100189,169285,209337,3.9529429352,7.6103722793,-4.8382872972,1539
100377,169287,209372,3.9529429352,7.6103722793,-4.8382872972,1540
