green,red,IR,acc_x,acc_y,acc_z,sample_index
110999,186775,230363,4.0498522505,8.3018980107,4.007977855,1
111237,186813,230331,4.1491543884,8.280362607299999,4.0091742663,2
111442,186859,230392,4.0821553556,8.0985080897,4.0211383793,3
111647,186894,230403,4.0522450731,8.306683655899999,4.0462630166,4
111825,186868,230406,4.140779509300001,8.3234334141,4.043870194,5
112047,186880,230385,4.1228333398,8.2456666796,4.0414773714,6
112231,186942,230376,4.1694933805000005,8.293523131599999,4.1072799929,7
112436,186961,230436,4.1910287839,8.1978102276,4.0749768878,8
112632,186972,230504,4.0474594279,8.316254946299999,4.079762533,9
112804,187003,230484,4.127618985,8.315058535,4.0235312019,10
112992,187005,230489,4.2484565263,8.316254946299999,3.9649070482,11
113182,187077,230491,4.1300118076,8.2181492197,4.0510486617999995,12
113335,187063,230470,4.2041893082,8.3353975271,3.9266218866,13
113497,187043,230552,4.0701912426,8.2995051881,4.0223347905999995,14
113614,187008,230537,4.2747775749,8.2995051881,3.9672998708,15
113814,187079,230500,4.1814574935,8.3808611565,3.9744783386,16
113819,187096,230533,4.1491543884,8.2169528084,4.092923057299999,17
113388,187032,230551,4.2029928969000006,8.231309744,4.031906081,18
112529,187007,230524,4.2855452766,8.1762748242,4.0773697104,19
111596,186933,230440,4.0881374121,8.2456666796,3.9984065645999998,20
110795,186827,230381,4.1012979364,8.219345631,4.0378881375,21
110037,186766,230301,4.1503507997,8.3581293418,4.0654055974,22
109326,186670,230259,4.1694933805000005,8.2169528084,4.1144584607,23
108740,186625,230198,4.2532421715,8.2504523248,4.0654055974,24
108376,186592,230179,4.1252261624,8.2241312762,4.1419759206,25
108210,186576,230167,4.103690759,8.254041558700001,3.9086757171,26
108079,186591,230174,4.1204405172000005,8.2731841395,4.0127635002,27
107898,186573,230159,4.1671005579,8.2097743406,4.0366917262,28
107734,186594,230168,4.0354953148999995,8.2384882118,4.0223347905999995,29
107609,186574,230134,4.1443687432,8.207381518,4.0713876539,30
107587,186555,230137,4.2077785421,8.2337025666,4.0486558392,31
107590,186577,230164,4.1240297511,8.1786676468,4.0845481781999995,32
107658,186534,230160,4.223331889,8.352147285300001,3.9792639838,33
107732,186565,230166,4.237688824599999,8.3198441802,4.0211383793,34
107873,186618,230176,4.1072799929,8.3102728898,4.0450666053,35
107984,186612,230176,4.1419759206,8.0769726863,3.9230326527000003,36
108102,186658,230205,4.3274196721000004,8.2169528084,4.1252261624,37
108275,186663,230222,4.1766718483,8.352147285300001,4.0474594279,38
108361,186677,230238,4.0666020087,8.3234334141,3.9984065645999998,39
108501,186710,230226,4.1694933805000005,8.291130309,4.1288153963,40
108679,186690,230249,4.0462630166,8.226524098799999,4.0953158799,41
108808,186714,230243,4.0941194686,8.219345631,4.0295132584,42
108998,186779,230229,4.0749768878,8.3126657124,3.9984065645999998,43
109202,186716,230267,4.0809589443,8.1930245824,4.043870194,44
109374,186778,230307,4.1898323726,8.2241312762,4.0845481781999995,45
109573,186774,230309,3.9684962821,8.267202082999999,4.1096728155,46
109757,186857,230294,4.1527436223,8.306683655899999,4.007977855,47
109995,186867,230311,4.1180476945999995,8.3844503904,4.1024943476999995,48
110147,186886,230295,4.0582271296000005,8.2576307926,3.9038900719000003,49
110329,186948,230351,4.0211383793,8.2468630909,4.0809589443,50
110568,186909,230310,4.2699919297,8.2337025666,4.0594235409,51
110739,186943,230370,4.2173498325,8.4095750277,3.9864424516000003,52
110930,186954,230369,4.1659041466,8.404789382499999,4.0115670889,53
111106,186997,230348,4.2125641873,8.226524098799999,4.0725840652,54
111279,187028,230380,4.06779842,8.254041558700001,4.0390845488,55
111469,187027,230420,4.1659041466,8.2384882118,3.9338003543999998,56
111642,187009,230365,4.139583098,8.2648092604,3.9792639838,57
111819,187025,230397,4.1706897918,8.2025958728,3.9505501125999998,58
111812,187140,230472,4.1802610821999995,8.3306118819,4.055834307,59
111334,187094,230419,4.223331889,8.170292767700001,4.1419759206,60
110497,187024,230404,4.0845481781999995,8.2767733734,4.0989051138,61
109685,186951,230309,4.2364924133,8.3401831723,4.0510486617999995,62
108976,186925,230248,4.1300118076,8.347361640099999,4.0295132584,63
108363,186846,230269,4.2604206393,8.293523131599999,3.9888352742,64
107887,186767,230196,4.1347974528,8.195417404999999,4.0630127748,65
107468,186719,230166,4.2640098732,8.1870425259,3.9649070482,66
107307,186771,230130,4.1730826144,8.3222370028,4.0127635002,67
107303,186715,230167,4.2388852359,8.2612200265,4.0187455567,68
107239,186766,230164,4.0570307183,8.3234334141,4.055834307,69
107210,186768,230138,4.1730826144,8.1571322434,4.0749768878,70
107091,186757,230154,4.2364924133,8.1978102276,4.0869410008000004,71
107097,186773,230154,4.1324046302,8.3234334141,4.0450666053,72
107159,186743,230175,4.113262049399999,8.2097743406,4.0737804765,73
107252,186760,230149,4.242474469799999,8.1415788965,3.9792639838,74
107391,186766,230179,4.0235312019,8.173882001600001,4.1671005579,75
107592,186780,230192,4.2484565263,8.2887374864,4.0031922098,76
107763,186813,230227,4.0821553556,8.2564343813,4.0809589443,77
107931,186821,230199,4.175475436999999,8.2731841395,4.1096728155,78
108115,186860,230219,4.097708702499999,8.3294154706,4.0833517669,79
108308,186883,230280,4.0486558392,8.306683655899999,4.0953158799,80
108473,186879,230255,4.2532421715,8.1762748242,4.0067814437,81
108643,186865,230248,4.1575292675,8.185846114599999,3.9421752335,82
108854,186894,230264,4.0821553556,8.3114693011,4.0725840652,83
109025,186871,230264,4.2029928969000006,8.364111398299999,4.0223347905999995,84
109207,186912,230255,4.2412780585,8.204988695399999,4.0606199522,85
109420,186932,230240,4.1850467274,8.2660056717,4.055834307,86
109613,186904,230316,4.0151563228,8.1930245824,4.0103706776,87
109789,186922,230278,4.2412780585,8.1942209937,4.0857445895,88
109994,186953,230245,4.1838503161,8.239684623099999,4.0725840652,89
110234,186979,230311,4.0941194686,8.2648092604,4.0211383793,90
110401,186988,230282,4.1671005579,8.279166196,4.0953158799,91
110593,186984,230289,4.139583098,8.1332040174,4.0055850324,92
110771,186989,230318,4.0845481781999995,8.2983087768,4.0666020087,93
110951,187053,230310,4.0725840652,8.2851482525,4.0821553556,94
111120,187031,230289,4.0546378957,8.2887374864,3.984049629,95
111288,187017,230287,4.1587256788,8.1320076061,3.9409788222,96
111464,187022,230258,4.1934216065,8.1978102276,3.9756747499,97
111521,187044,230273,4.0546378957,8.2731841395,4.0582271296000005,98
111213,187080,230311,4.1611185014,8.2899338977,4.1383866867,99
110432,187007,230254,4.0965122912,8.240881034400001,4.0295132584,100
109571,186919,230200,4.103690759,8.2863446638,4.0594235409,101
108809,186881,230171,4.1371902754,8.2612200265,4.0474594279,102
108159,186791,230064,4.1443687432,8.267202082999999,4.1096728155,103
107542,186730,230023,4.06779842,8.306683655899999,4.0510486617999995,104
107065,186672,229995,4.055834307,8.2695949056,4.0175491454,105
106786,186631,229937,4.0833517669,8.2145599858,4.0881374121,106
106736,186621,229924,4.1503507997,8.2695949056,3.9864424516000003,107
106665,186620,229921,4.1324046302,8.281559018600001,4.0737804765,108
106638,186641,229914,4.1539400336,8.1990066389,4.0342989036,109
106525,186603,229936,4.0701912426,8.3054872446,3.9816568063999997,110
106506,186582,229905,4.1084764042,8.316254946299999,4.0869410008000004,111
106539,186571,229912,4.0749768878,8.239684623099999,4.0247276132000005,112
106626,186615,229947,4.1012979364,8.173882001600001,4.1300118076,113
106755,186587,229918,4.043870194,8.3461652288,4.0498522505,114
106916,186635,229957,4.1814574935,8.2169528084,4.0426737827,115
107078,186645,229962,4.1922251952,8.2839518412,3.960121403,116
107224,186663,229934,4.079762533,8.2971123655,4.091726646,117
107398,186676,229953,4.0965122912,8.3198441802,4.0630127748,118
107573,186692,229973,4.1479579771,8.281559018600001,4.0546378957,119
107753,186715,230008,4.0785661217,8.280362607299999,4.055834307,120
107930,186757,229977,4.1096728155,8.2731841395,4.1312082188999995,121
108124,186753,229961,4.0163527341,8.3533436966,4.1216369285,122
108331,186757,229930,4.2364924133,8.173882001600001,4.007977855,123
108508,186785,230021,4.127618985,8.2959159542,4.0426737827,124
108700,186778,229976,4.0582271296000005,8.1906317598,4.0283168471,125
108894,186838,230053,4.0187455567,8.2851482525,4.007977855,126
109099,186819,230040,4.2652062845000005,8.2576307926,4.0486558392,127
109308,186909,230024,4.139583098,8.3700934548,3.996013742,128
109476,186932,230053,4.0749768878,8.2743805508,4.043870194,129
109677,186896,230040,4.139583098,8.173882001600001,4.0426737827,130
109875,186939,230061,4.091726646,8.2241312762,3.996013742,131
110086,186916,230059,4.0701912426,8.3018980107,3.9912280968,132
110241,186971,230093,4.1228333398,8.2480595022,4.0127635002,133
110389,186994,230082,4.18743955,8.231309744,4.031906081,134
110612,186991,230081,4.1204405172000005,8.2851482525,3.9768711611999996,135
110761,187016,230089,4.1228333398,8.3306118819,3.9672998708,136
110933,186991,230072,4.2364924133,8.3377903497,4.0570307183,137
110988,187032,230078,4.1850467274,8.3102728898,4.0725840652,138
110645,187043,230080,4.1300118076,8.3222370028,4.0618163635,139
109899,187001,230020,4.0654055974,8.195417404999999,4.1216369285,140
109076,186938,229981,4.1647077353,8.2743805508,4.0055850324,141
108354,186907,229907,4.1431723319,8.2504523248,4.0354953148999995,142
107716,186813,229874,4.127618985,8.2983087768,4.0761732991,143
107192,186793,229822,4.1371902754,8.1894353485,4.0857445895,144
106738,186715,229792,4.0654055974,8.2887374864,3.9457644674,145
106545,186731,229756,4.1742790257,8.2002030502,4.0426737827,146
106510,186703,229754,4.1347974528,8.2971123655,4.0342989036,147
106454,186728,229751,4.139583098,8.2169528084,4.0941194686,148
106397,186697,229751,4.1108692268,8.2767733734,4.0845481781999995,149
106393,186676,229742,4.1682969692,8.294719542900001,4.1048871703,150
106412,186650,229765,4.091726646,8.347361640099999,4.0031922098,151
106485,186680,229777,4.1359938641000005,8.2743805508,4.0821553556,152
106620,186696,229727,4.127618985,8.3282190593,4.043870194,153
106778,186720,229747,4.1084764042,8.1451681304,4.031906081,154
106947,186694,229792,4.1970108404,8.2731841395,3.9744783386,155
107182,186713,229764,4.0785661217,8.1786676468,4.0570307183,156
107362,186770,229818,4.1491543884,8.2480595022,3.9326039431,157
107562,186771,229809,4.2185462438,8.1990066389,4.0103706776,158
107740,186828,229866,4.1802610821999995,8.231309744,4.1527436223,159
107952,186825,229828,4.0761732991,8.2971123655,4.0522450731,160
108151,186872,229837,4.2783668087999995,8.3174513576,4.0115670889,161
108396,186852,229872,4.1838503161,8.2899338977,4.0055850324,162
108605,186884,229841,4.0534414844,8.2217384536,4.1084764042,163
108835,186903,229860,4.0498522505,8.2707913169,3.9505501125999998,164
109083,186937,229878,4.127618985,8.1786676468,4.019941968,165
109334,186977,229889,4.2293139454999995,8.2241312762,4.0139599115,166
109529,187046,229918,4.043870194,8.281559018600001,4.0737804765,167
109748,187006,229960,4.0869410008000004,8.3007015994,4.0905302347,168
109994,187075,229911,4.0103706776,8.2887374864,4.0582271296000005,169
110188,187095,229955,4.1383866867,8.2887374864,4.0331024923,170
110425,187108,229965,4.1324046302,8.2456666796,4.007977855,171
110620,187130,229958,4.0761732991,8.1499537756,4.0163527341,172
110852,187154,229937,4.1252261624,8.3234334141,3.9936209194,173
111051,187209,229976,4.0271204358,8.1942209937,4.0247276132000005,174
111266,187261,229978,4.0067814437,8.2516487361,4.0522450731,175
111467,187211,229961,4.151547211,8.1667035338,4.0618163635,176
111645,187218,229984,4.1742790257,8.2384882118,4.0773697104,177
111766,187273,230001,4.2484565263,8.173882001600001,3.9924245080999996,178
111584,187302,230046,4.140779509300001,8.3198441802,4.079762533,179
111034,187297,229995,3.9684962821,8.306683655899999,4.1383866867,180
110426,187216,229944,4.1288153963,8.25523797,4.0486558392,181
109845,187175,229958,4.1072799929,8.1786676468,4.0115670889,182
109352,187147,229870,4.2257247116,8.3712898661,4.0127635002,183
108923,187100,229856,4.1479579771,8.2384882118,4.1048871703,184
108565,187082,229841,4.091726646,8.2181492197,4.0701912426,185
108382,187060,229832,4.2879380992,8.1667035338,3.984049629,186
108380,187040,229805,4.0845481781999995,8.3688970435,4.1180476945999995,187
108297,187086,229809,4.1108692268,8.2301133327,4.0510486617999995,188
108225,187075,229813,4.1252261624,8.171489179,4.0031922098,189
108185,187051,229805,4.151547211,8.2109707519,4.0666020087,190
108184,186965,229804,4.1647077353,8.2241312762,4.0043886211,191
108239,187038,229777,4.1706897918,8.350950873999999,4.0821553556,192
108316,186989,229744,4.1168512833,8.1583286547,4.0953158799,193
108445,186874,229772,4.1001015251,8.2384882118,4.0582271296000005,194
108592,187014,229728,4.1347974528,8.271987728200001,4.0606199522,195
108719,187000,229711,4.2544385828,8.2325061553,4.0989051138,196
108873,187015,229757,4.1563328562,8.306683655899999,4.0007993872,197
109028,187042,229749,4.0701912426,8.3258262367,4.0534414844,198
109186,187060,229762,4.2161534212,8.3054872446,4.0259240245,199
109339,187031,229764,4.2077785421,8.2061851067,4.0414773714,200
109499,187055,229778,4.1060835816,8.2887374864,4.0031922098,201
109679,187058,229775,4.1359938641000005,8.2576307926,4.0259240245,202
109843,187029,229799,4.2245283003,8.185846114599999,4.0809589443,203
110046,187085,229742,4.139583098,8.2337025666,3.9672998708,204
110223,187062,229782,4.1084764042,8.3018980107,4.0342989036,205
110389,187079,229821,4.115654872,8.124829138299999,4.0570307183,206
110561,187122,229790,4.1563328562,8.2337025666,4.0007993872,207
110762,187118,229775,4.0821553556,8.2875410751,4.0594235409,208
110947,187158,229795,4.0965122912,8.2660056717,3.9672998708,209
111078,187121,229777,4.1359938641000005,8.219345631,4.0737804765,210
111285,187153,229754,4.0486558392,8.2588272039,4.0366917262,211
111440,187136,229782,4.0869410008000004,8.2743805508,4.079762533,212
111635,187166,229790,4.1096728155,8.3593257531,4.0570307183,213
111788,187184,229808,4.1012979364,8.2241312762,4.0701912426,214
111913,187155,229774,3.9972101532999997,8.2516487361,4.0486558392,215
112076,187160,229724,4.1419759206,8.3258262367,3.9003008379999997,216
112220,187215,229752,4.097708702499999,8.2839518412,4.0809589443,217
112061,187209,229786,4.2173498325,8.3808611565,4.030709669699999,218
111574,187221,229748,4.146761565799999,8.303094422,3.9792639838,219
110856,187175,229731,4.0582271296000005,8.2695949056,3.9888352742,220
110187,187100,229671,4.139583098,8.252845147399999,4.1072799929,221
109533,187032,229654,4.1204405172000005,8.2923267203,4.0893338234,222
108922,186952,229581,4.1324046302,8.169096356399999,4.1204405172000005,223
108374,186957,229530,4.1419759206,8.1750784129,4.079762533,224
108030,186880,229519,4.1491543884,8.183453292,4.0235312019,225
107865,186884,229469,4.1228333398,8.1655071225,3.960121403,226
107798,186923,229502,4.1300118076,8.2037922841,4.0127635002,227
107662,186867,229446,4.2209390664,8.2097743406,4.031906081,228
107550,186910,229443,4.0067814437,8.1367932513,3.9672998708,229
107491,186852,229453,4.079762533,8.3677006322,4.0510486617999995,230
107496,186843,229455,4.1742790257,8.1966138163,4.0271204358,231
107579,186842,229437,4.0606199522,8.254041558700001,4.0713876539,232
107614,186823,229385,4.103690759,8.3186477689,4.007977855,233
107738,186784,229433,4.1204405172000005,8.262416437799999,3.9541393465,234
107894,186869,229465,4.1192441059,8.2600236152,4.064209186099999,235
108000,186853,229463,3.9804603951,8.2576307926,3.9696926934,236
108132,186861,229503,4.1826539048,8.25523797,4.079762533,237
108315,186910,229471,4.064209186099999,8.2002030502,3.9828532177,238
108432,186899,229473,4.139583098,8.243273857,4.1012979364,239
108596,186931,229519,4.0007993872,8.291130309,4.0654055974,240
108739,186901,229479,4.0546378957,8.271987728200001,3.9529429352,241
108906,186959,229476,4.2006000743,8.1930245824,4.0163527341,242
109075,186976,229495,4.1958144290999995,8.2576307926,3.9936209194,243
109273,186981,229520,3.9900316855,8.291130309,4.0390845488,244
109452,187008,229489,4.1144584607,8.0650085733,4.0235312019,245
109675,187036,229535,4.1252261624,8.279166196,4.0342989036,246
109822,187024,229530,4.0510486617999995,8.240881034400001,3.9852460403000003,247
110010,186999,229519,4.1479579771,8.262416437799999,4.1347974528,248
110211,187066,229511,4.2484565263,8.3102728898,4.1168512833,249
110378,187069,229555,4.2173498325,8.2743805508,4.0342989036,250
110553,187050,229552,4.175475436999999,8.262416437799999,3.9984065645999998,251
110728,187102,229565,4.2173498325,8.204988695399999,3.996013742,252
110910,187113,229578,4.1503507997,8.2755769621,4.0031922098,253
111078,187138,229558,4.163511324,8.207381518,4.0941194686,254
111265,187131,229568,4.1204405172000005,8.1798640581,4.007977855,255
111435,187157,229570,4.1048871703,8.2767733734,3.9912280968,256
111590,187126,229552,4.1970108404,8.2145599858,3.9768711611999996,257
111776,187117,229564,4.115654872,8.170292767700001,3.9649070482,258
111774,187214,229567,4.1587256788,8.3258262367,3.9948173307,259
111494,187223,229587,4.1814574935,8.2253276875,4.0283168471,260
110869,187090,229545,4.043870194,8.2851482525,3.996013742,261
110254,187125,229568,4.2053857195,8.171489179,4.0498522505,262
109690,187093,229474,4.242474469799999,8.1906317598,4.031906081,263
109142,187015,229423,4.163511324,8.2420774457,4.0953158799,264
108634,186944,229399,4.1228333398,8.2707913169,4.0426737827,265
108298,186922,229354,4.0749768878,8.3964145034,4.0175491454,266
108141,186874,229333,4.1228333398,8.303094422,3.9936209194,267
108087,186905,229357,4.115654872,8.226524098799999,3.9589249917,268
108033,186894,229367,4.1084764042,8.2839518412,4.0857445895,269
107977,186926,229330,4.1084764042,8.219345631,4.0151563228,270
107952,186900,229342,4.0905302347,8.2660056717,4.0534414844,271
107941,186871,229273,4.1359938641000005,8.291130309,3.9625142255999997,272
108029,186873,229297,4.1802610821999995,8.207381518,4.0283168471,273
108141,186844,229306,4.1910287839,8.3054872446,3.9349967657,274
108307,186870,229328,4.1096728155,8.2157563971,4.1479579771,275
108426,186917,229334,4.1682969692,8.3545401079,3.9864424516000003,276
108608,186897,229347,4.1503507997,8.3102728898,4.0725840652,277
108791,186901,229371,4.1228333398,8.1068829688,4.0510486617999995,278
108965,186905,229348,4.2329031794,8.2420774457,3.9110685397,279
109118,186962,229396,4.146761565799999,8.2600236152,4.0091742663,280
109293,187002,229373,4.1790646709,8.1403824852,3.9457644674,281
109482,186967,229413,4.0570307183,8.254041558700001,4.0259240245,282
109687,186982,229414,4.1383866867,8.3593257531,4.0259240245,283
109876,187029,229402,4.0713876539,8.3210405915,3.9720855159999995,284
110070,187026,229447,4.1108692268,8.3054872446,4.031906081,285
110277,187102,229448,4.1359938641000005,8.3808611565,3.936193177,286
110469,187074,229442,4.1204405172000005,8.2827554299,3.996013742,287
110658,187083,229466,4.0809589443,8.2217384536,3.9505501125999998,288
110850,187089,229472,4.2006000743,8.240881034400001,3.9050864832,289
111040,187114,229462,4.151547211,8.281559018600001,3.936193177,290
111256,187123,229474,4.2508493489,8.2289169214,4.030709669699999,291
111432,187140,229480,4.0175491454,8.236095389199999,4.1001015251,292
111642,187142,229498,4.1778682596,8.2779697847,4.0522450731,293
111843,187192,229472,4.1120656381,8.207381518,4.0127635002,294
112012,187207,229486,4.0905302347,8.231309744,3.9732819273,295
112175,187211,229504,4.1790646709,8.2013994615,4.0151563228,296
112336,187178,229497,4.2508493489,8.2420774457,3.9505501125999998,297
112523,187187,229492,4.0869410008000004,8.2743805508,4.0271204358,298
112590,187240,229517,4.2544385828,8.3114693011,4.0582271296000005,299
112326,187285,229536,4.1587256788,8.2504523248,3.9194434188,300
111788,187238,229493,3.9792639838,8.3306118819,4.0211383793,301
111211,187208,229505,4.2400816472,8.2648092604,4.0474594279,302
110706,187123,229432,4.1180476945999995,8.2743805508,4.0031922098,303
110228,187116,229391,4.151547211,8.3114693011,4.007977855,304
109785,187050,229360,4.1718862031,8.2959159542,4.0905302347,305
109456,186900,229353,4.1862431387,8.2983087768,4.0462630166,306
109297,186998,229358,4.146761565799999,8.3318082932,3.9649070482,307
109279,187012,229349,4.0139599115,8.279166196,3.9529429352,308
109249,187000,229373,4.0965122912,8.226524098799999,4.0713876539,309
109179,187035,229377,4.1371902754,8.3365939384,4.0965122912,310
109135,187010,229411,4.1336010414999995,8.2923267203,3.9936209194,311
109183,186980,229332,4.1850467274,8.2025958728,3.9816568063999997,312
109215,187009,229347,4.1072799929,8.2337025666,3.9505501125999998,313
109324,187013,229369,4.2867416879,8.231309744,4.1730826144,314
109445,187024,229338,4.151547211,8.350950873999999,4.0175491454,315
109613,186991,229347,4.0941194686,8.219345631,4.031906081,316
109751,187096,229385,4.1922251952,8.2456666796,4.0486558392,317
109908,187071,229393,4.1671005579,8.1523465982,4.0031922098,318
110078,187110,229474,4.2173498325,8.262416437799999,4.0295132584,319
110217,187102,229437,4.0893338234,8.2061851067,4.055834307,320
110408,187135,229377,4.055834307,8.252845147399999,4.0354953148999995,321
110567,187141,229459,4.0486558392,8.2743805508,4.0785661217,322
110746,187134,229428,4.1982072517,8.236095389199999,4.1431723319,323
110925,187157,229497,4.0187455567,8.3018980107,4.1563328562,324
111102,187190,229489,4.091726646,8.3545401079,4.1168512833,325
111298,187146,229480,4.0331024923,8.2863446638,4.0510486617999995,326
111462,187232,229481,4.2891345105,8.2169528084,4.1551364449,327
111649,187241,229497,4.1910287839,8.2456666796,3.9912280968,328
111819,187243,229500,4.1527436223,8.3138621237,4.031906081,329
111987,187247,229538,4.3286160834,8.2337025666,3.9661034595,330
112161,187236,229519,4.2125641873,8.281559018600001,4.0127635002,331
112307,187267,229484,4.0570307183,8.236095389199999,4.0295132584,332
112483,187201,229441,4.1228333398,8.2516487361,3.9505501125999998,333
112617,187245,229497,4.1324046302,8.249255913499999,3.9577285803999995,334
112611,187230,229464,4.1934216065,8.254041558700001,4.0606199522,335
112173,187265,229506,4.2460637037,8.1990066389,4.0055850324,336
111573,187182,229418,4.1946180178,8.3222370028,4.0570307183,337
111006,187125,229388,4.0953158799,8.293523131599999,4.1192441059,338
110477,187058,229358,4.1910287839,8.3282190593,4.0271204358,339
110009,186987,229315,3.9948173307,8.3102728898,4.079762533,340
109593,186929,229280,4.1742790257,8.243273857,4.0259240245,341
109350,186889,229241,4.0701912426,8.2875410751,4.1024943476999995,342
109246,186880,229214,4.0821553556,8.2504523248,4.0175491454,343
109210,186871,229213,4.1778682596,8.2181492197,3.9672998708,344
109157,186860,229262,4.127618985,8.3593257531,3.9589249917,345
109077,186860,229216,4.115654872,8.2755769621,4.1312082188999995,346
109111,186865,229189,4.0450666053,8.3569329305,4.0151563228,347
109126,186869,229204,4.0869410008000004,8.2743805508,3.9529429352,348
109192,186844,229250,4.1647077353,8.3928252695,4.0366917262,349
109313,186862,229209,4.0869410008000004,8.2648092604,4.0953158799,350
109457,186838,229239,4.1694933805000005,8.3258262367,3.9720855159999995,351
109597,186891,229234,4.163511324,8.2779697847,4.1288153963,352
109753,186860,229225,4.091726646,8.2779697847,4.0414773714,353
109914,186831,229216,4.0342989036,8.2301133327,3.912264951,354
110085,186935,229235,4.1419759206,8.352147285300001,4.0845481781999995,355
110212,186940,229280,4.1084764042,8.2899338977,4.0689948312999995,356
110381,186943,229291,4.1252261624,8.3294154706,4.0689948312999995,357
110556,186960,229299,4.0845481781999995,8.2504523248,4.0666020087,358
110748,186973,229300,4.0618163635,8.2468630909,4.0630127748,359
110914,186988,229273,4.1180476945999995,8.3138621237,4.0223347905999995,360
111116,186998,229334,4.2077785421,8.2121671632,4.0402809601,361
111316,187029,229321,4.1252261624,8.2839518412,4.0103706776,362
111482,187060,229315,4.2029928969000006,8.3784683339,3.9792639838,363
111671,187063,229361,4.1180476945999995,8.2181492197,4.0486558392,364
111831,187100,229344,4.1742790257,8.231309744,4.019941968,365
112035,187122,229345,4.1910287839,8.2576307926,3.984049629,366
112213,187136,229375,4.1826539048,8.3808611565,4.0223347905999995,367
112369,187091,229348,4.2293139454999995,8.2851482525,4.0271204358,368
112525,187101,229364,4.0342989036,8.207381518,4.007977855,369
112681,187137,229352,4.2340995907,8.2301133327,4.0366917262,370
112762,187150,229374,4.1766718483,8.2085779293,3.9888352742,371
112474,187160,229365,4.1934216065,8.4000037373,4.064209186099999,372
111909,187061,229378,4.1060835816,8.185846114599999,4.055834307,373
111284,187074,229363,4.1359938641000005,8.137989662599999,4.0462630166,374
110736,187031,229331,4.0247276132000005,8.267202082999999,4.0247276132000005,375
110220,186955,229270,4.1443687432,8.240881034400001,4.0271204358,376
109756,186949,229243,4.1060835816,8.352147285300001,4.115654872,377
109390,186902,229174,4.1718862031,8.3497544627,4.0905302347,378
109252,186861,229136,4.1910287839,8.1978102276,4.0223347905999995,379
109256,186909,229183,4.1790646709,8.3401831723,4.0378881375,380
109213,186870,229127,4.139583098,8.1786676468,4.0606199522,381
109180,186942,229168,4.0989051138,8.3198441802,4.043870194,382
109176,186856,229188,4.2173498325,8.231309744,4.1012979364,383
109208,186894,229184,4.1228333398,8.293523131599999,4.043870194,384
109328,186893,229208,4.0941194686,8.2217384536,4.031906081,385
109412,186929,229158,4.1252261624,8.262416437799999,4.0271204358,386
109570,186895,229188,4.1551364449,8.236095389199999,4.0163527341,387
109738,186935,229211,4.2041893082,8.1786676468,3.9553357578,388
109896,186967,229226,4.1455651545,8.226524098799999,3.9409788222,389
110068,186935,229257,4.1312082188999995,8.2097743406,4.0630127748,390
110213,187006,229239,4.1527436223,8.2743805508,4.091726646,391
110402,187011,229273,4.2340995907,8.2145599858,4.0749768878,392
110586,186998,229245,4.064209186099999,8.195417404999999,4.0689948312999995,393
110776,187054,229280,4.1611185014,8.160721477300001,4.0342989036,394
110945,187082,229320,4.1324046302,8.3258262367,4.0534414844,395
111141,187077,229302,4.0773697104,8.2983087768,4.0666020087,396
111342,187097,229327,4.0893338234,8.2121671632,4.0043886211,397
111507,187170,229340,4.0115670889,8.2995051881,4.055834307,398
111721,187129,229360,4.1886359613,8.281559018600001,3.9649070482,399
111912,187210,229382,4.0701912426,8.3353975271,4.1096728155,400
112092,187193,229397,4.1503507997,8.2851482525,3.9672998708,401
112291,187195,229470,4.0785661217,8.3617185757,4.0390845488,402
112453,187280,229376,3.9804603951,8.3054872446,4.0761732991,403
112623,187261,229439,4.0259240245,8.1906317598,3.9792639838,404
112800,187322,229450,4.0773697104,8.3294154706,4.0869410008000004,405
112958,187286,229371,4.2317067681000005,8.280362607299999,4.0773697104,406
113128,187380,229445,4.1060835816,8.2971123655,4.0163527341,407
113209,187355,229465,4.1228333398,8.2875410751,4.0522450731,408
113046,187432,229500,4.1347974528,8.207381518,4.031906081,409
112481,187376,229476,4.0654055974,8.3018980107,4.06779842,410
111897,187364,229416,4.1802610821999995,8.3007015994,4.007977855,411
111410,187313,229386,4.0833517669,8.3449688175,4.007977855,412
110898,187286,229368,4.1324046302,8.2205420423,3.960121403,413
110463,187240,229348,4.0390845488,8.2959159542,4.0271204358,414
110145,187150,229332,4.1694933805000005,8.2372918005,4.0031922098,415
109987,187180,229267,4.1575292675,8.3234334141,4.031906081,416
109957,187179,229294,4.1503507997,8.3007015994,4.1814574935,417
109897,187131,229302,4.2077785421,8.243273857,4.1742790257,418
109819,187213,229316,4.0725840652,8.3377903497,4.0845481781999995,419
109800,187201,229296,4.0115670889,8.3186477689,4.1359938641000005,420
109824,187206,229263,4.1575292675,8.195417404999999,4.0845481781999995,421
109902,187218,229265,4.1790646709,8.173882001600001,4.0414773714,422
109960,187139,229251,4.0725840652,8.4382888989,4.0187455567,423
110063,187160,229246,4.140779509300001,8.182256880699999,3.996013742,424
110235,187121,229226,4.2544385828,8.2516487361,4.0139599115,425
110346,187167,229247,4.0247276132000005,8.2181492197,3.9397824109,426
110469,187210,229260,4.151547211,8.2504523248,3.996013742,427
110633,187174,229251,4.1216369285,8.2576307926,4.031906081,428
110794,187180,229266,4.1359938641000005,8.3102728898,3.9984065645999998,429
110958,187187,229263,4.0905302347,8.183453292,3.9732819273,430
111112,187151,229249,4.2197426551,8.195417404999999,4.0941194686,431
111300,187149,229235,4.1730826144,8.3569329305,4.0271204358,432
111489,187181,229225,4.146761565799999,8.303094422,3.9972101532999997,433
111664,187167,229234,4.0989051138,8.262416437799999,4.0031922098,434
111869,187141,229218,4.2412780585,8.3222370028,3.9469608787,435
112069,187204,229241,4.1694933805000005,8.195417404999999,4.0462630166,436
112241,187228,229268,4.0941194686,8.185846114599999,4.043870194,437
112471,187249,229247,4.1647077353,8.3892360356,3.9577285803999995,438
112619,187242,229230,4.1527436223,8.2779697847,4.0342989036,439
112753,187235,229240,4.1479579771,8.267202082999999,4.097708702499999,440
112999,187240,229237,4.2927237444,8.2971123655,3.9792639838,441
113171,187229,229187,4.1682969692,8.236095389199999,4.0701912426,442
113299,187260,229245,4.1204405172000005,8.3330047045,4.0869410008000004,443
113184,187321,229254,4.079762533,8.3545401079,4.0283168471,444
112840,187275,229264,4.0773697104,8.2384882118,4.0534414844,445
112384,187238,229256,4.163511324,8.3497544627,4.0713876539,446
111945,187213,229188,4.1491543884,8.2995051881,4.0498522505,447
111507,187136,229158,4.1551364449,8.2456666796,4.043870194,448
111080,187166,229114,4.2388852359,8.3282190593,3.996013742,449
110753,187094,229103,4.0821553556,8.2851482525,3.9649070482,450
110571,187062,229016,4.0426737827,8.306683655899999,4.0283168471,451
110527,187052,229029,4.079762533,8.2289169214,4.0103706776,452
110511,187060,229041,4.1814574935,8.3880396243,4.0103706776,453
110435,187100,229052,4.1718862031,8.3054872446,3.9984065645999998,454
110438,187061,229064,4.1371902754,8.1726855903,3.9637106368999997,455
110467,187069,228996,4.055834307,8.231309744,4.0103706776,456
110526,187061,229026,4.163511324,8.267202082999999,3.9625142255999997,457
110630,187040,229011,4.1371902754,8.4622171249,4.1048871703,458
110761,187023,228963,4.1371902754,8.2923267203,4.0893338234,459
110868,186928,228914,4.2675991071,8.2863446638,3.9984065645999998,460
111019,186826,228791,4.2436708811,8.1810604694,4.1216369285,461
111171,186659,228728,4.1766718483,8.2755769621,3.9385859996,462
111305,186567,228609,4.2269211229,8.1511501869,3.8428730956,463
111435,186481,228581,4.3130627365,8.391628858199999,3.6873396266,464
111601,186475,228563,4.3022950348,8.25523797,3.7184463204,465
111823,186713,228754,4.2053857195,8.2420774457,3.6801611588,466
112082,186921,228959,4.0989051138,8.338986761000001,3.9349967657,467
112286,187247,229113,4.1742790257,8.4358960763,3.9553357578,468
112508,187451,229259,4.1730826144,8.3054872446,4.115654872,469
112735,187552,229358,4.347758664200001,8.262416437799999,4.0175491454,470
112922,187545,229295,4.1886359613,8.2707913169,4.0426737827,471
113057,187410,229181,4.2604206393,8.1810604694,3.8452659182,472
113238,187289,229064,4.0869410008000004,8.231309744,3.9314075318,473
113416,187212,229058,4.0390845488,8.2863446638,3.9912280968,474
113617,187297,229122,3.9852460403000003,8.2923267203,3.8811582571999996,475
113825,187393,229147,4.163511324,8.2576307926,4.1503507997,476
114030,187458,229192,4.0295132584,8.364111398299999,4.0450666053,477
114217,187480,229245,4.2819560427,8.243273857,4.0857445895,478
114426,187545,229240,4.1611185014,8.4837525283,3.9816568063999997,479
114533,187670,229284,4.0390845488,8.2827554299,4.0426737827,480
114453,187742,229329,4.0570307183,8.2695949056,4.0486558392,481
114172,187783,229398,4.0546378957,8.3545401079,4.0534414844,482
113860,187685,229341,4.0570307183,8.3461652288,3.9409788222,483
113536,187680,229310,4.0893338234,8.2959159542,3.9481572899999997,484
113172,187679,229316,4.1551364449,8.1463645417,4.0498522505,485
112849,187721,229341,4.139583098,8.2588272039,4.092923057299999,486
112616,187773,229373,4.1419759206,8.2085779293,4.0498522505,487
112516,187822,229413,4.0749768878,8.2217384536,4.1599220901,488
112460,187893,229493,4.1623149127,8.249255913499999,4.0773697104,489
112426,188000,229539,4.0893338234,8.279166196,4.1682969692,490
112387,188036,229559,3.9864424516000003,8.293523131599999,4.0654055974,491
112374,187980,229525,3.9864424516000003,8.3222370028,4.0773697104,492
112359,187825,229449,3.9996029759000002,8.2289169214,4.0151563228,493
112347,187683,229313,3.9433716447999996,8.293523131599999,4.043870194,494
112403,187544,229223,4.055834307,8.226524098799999,3.9792639838,495
112483,187395,229089,3.9481572899999997,8.271987728200001,3.996013742,496
112588,187265,228952,4.0067814437,8.293523131599999,4.097708702499999,497
112639,187155,228862,4.1347974528,8.2863446638,3.9266218866,498
112768,187047,228790,4.0630127748,8.3054872446,3.9984065645999998,499
112834,186959,228770,4.1551364449,8.4083786164,3.9290147091999996,500
112996,186934,228731,4.0091742663,8.3318082932,3.9338003543999998,501
113092,186996,228773,4.0127635002,8.3054872446,3.9433716447999996,502
113318,187044,228810,4.1383866867,8.2097743406,3.9900316855,503
113500,187136,228871,4.0725840652,8.391628858199999,4.0139599115,504
113698,187167,228903,4.0187455567,8.4000037373,3.9314075318,505
113859,187238,228935,4.0474594279,8.5088771656,4.0187455567,506
114036,187216,228957,4.1048871703,8.3007015994,4.0833517669,507
114212,187286,228993,3.8847474911,8.3772719226,3.9768711611999996,508
114386,187307,228970,3.9744783386,8.3294154706,3.9996029759000002,509
114557,187291,228997,3.9457644674,8.3653078096,3.9278182979,510
114736,187380,229050,3.9792639838,8.398807326,4.0809589443,511
114927,187484,229122,3.996013742,8.306683655899999,4.0965122912,512
115107,187528,229145,3.9661034595,8.2660056717,4.0510486617999995,513
115283,187533,229103,3.9517465239000003,8.4861453509,4.0031922098,514
115414,187607,229222,4.0043886211,8.3545401079,3.936193177,515
115395,187654,229231,3.9421752335,8.2241312762,4.0175491454,516
115232,187679,229253,4.055834307,8.3796647452,4.1072799929,517
114943,187679,229269,3.7519458368,8.3365939384,4.163511324,518
114695,187751,229250,4.0007993872,8.3042908333,4.1563328562,519
114427,187689,229280,3.9373895883000003,8.3461652288,4.0426737827,520
114116,187632,229211,3.9290147091999996,8.3976109147,4.0486558392,521
113884,187532,229114,3.9385859996,8.280362607299999,3.960121403,522
113758,187477,229038,4.0857445895,8.2480595022,3.960121403,523
113684,187445,229014,3.8895331363000003,8.2600236152,4.0486558392,524
113628,187379,228984,3.9098721283999995,8.364111398299999,4.1084764042,525
113534,187358,228992,4.0701912426,8.3186477689,4.0031922098,526
113460,187370,228971,4.0055850324,8.3078800672,4.0701912426,527
113456,187346,228967,4.0474594279,8.3306118819,4.0737804765,528
113482,187400,228994,4.0115670889,8.3952180921,3.9314075318,529
113531,187430,229016,3.8620156764,8.2839518412,3.9828532177,530
113598,187456,229031,3.9637106368999997,8.3413795836,4.0893338234,531
113688,187495,229046,4.0259240245,8.3282190593,3.9984065645999998,532
113772,187475,229045,3.9744783386,8.3437724062,4.0271204358,533
113849,187468,229037,3.9266218866,8.3940216808,4.0606199522,534
113952,187478,229047,4.0606199522,8.252845147399999,4.1048871703,535
114066,187467,229011,3.9218362414,8.419146318100001,4.0546378957,536
114179,187484,228992,3.8739797894,8.3497544627,4.0091742663,537
114304,187439,228984,3.9732819273,8.3078800672,4.0462630166,538
114417,187451,228962,4.0055850324,8.3569329305,3.984049629,539
114546,187425,228988,3.9888352742,8.3198441802,3.9768711611999996,540
114676,187423,228916,3.960121403,8.338986761000001,4.0414773714,541
114786,187411,228951,3.936193177,8.4311104311,4.0905302347,542
114947,187403,228927,3.9553357578,8.3138621237,4.0534414844,543
115064,187342,228886,3.9314075318,8.3282190593,3.9445680561,544
115167,187381,228894,3.9744783386,8.2229348649,4.043870194,545
115117,187366,228880,3.9720855159999995,8.4023965599,4.06779842,546
114957,187376,228936,3.9744783386,8.350950873999999,3.9888352742,547
114687,187381,228852,4.1288153963,8.338986761000001,4.0271204358,548
114425,187330,228811,4.0163527341,8.3330047045,3.9912280968,549
114107,187278,228770,3.9948173307,8.3892360356,4.0366917262,550
113804,187237,228758,4.0749768878,8.373682688699999,4.1001015251,551
113572,187172,228701,3.9816568063999997,8.4071822051,4.0043886211,552
113430,187138,228689,4.0570307183,8.293523131599999,3.9984065645999998,553
113386,187119,228661,3.9062828945,8.3425759949,4.0211383793,554
113355,187157,228659,3.9194434188,8.3485580514,4.0534414844,555
113257,187123,228657,3.9553357578,8.3964145034,4.0474594279,556
113237,187104,228609,3.9864424516000003,8.3545401079,4.0031922098,557
113200,187069,228536,4.0701912426,8.3174513576,4.0223347905999995,558
113254,187022,228548,3.9924245080999996,8.4430745441,4.0271204358,559
113321,186998,228529,4.0247276132000005,8.2875410751,4.0582271296000005,560
113404,186978,228502,3.9696926934,8.3557365192,3.9266218866,561
113486,186949,228480,3.9816568063999997,8.4083786164,4.0043886211,562
113616,186950,228494,3.9720855159999995,8.2743805508,4.0127635002,563
113719,186981,228482,4.0534414844,8.3007015994,3.984049629,564
113860,187010,228460,4.0067814437,8.4526458345,4.0390845488,565
113994,187014,228512,3.936193177,8.281559018600001,4.031906081,566
114149,187016,228506,3.9649070482,8.262416437799999,4.1120656381,567
114269,187023,228458,4.0031922098,8.2983087768,4.0618163635,568
114444,187042,228505,4.0187455567,8.4646099475,4.0151563228,569
114567,187047,228478,3.9672998708,8.2456666796,4.0295132584,570
114744,187036,228472,3.912264951,8.4741812379,3.9134613623,571
114902,187048,228460,3.9625142255999997,8.2145599858,3.9900316855,572
115043,187065,228494,4.0474594279,8.3294154706,3.9553357578,573
115231,187052,228480,3.9888352742,8.3593257531,4.0043886211,574
115378,187068,228468,3.9625142255999997,8.4550386571,4.0031922098,575
115540,187019,228416,3.984049629,8.3665042209,3.924229064,576
115664,186977,228387,4.0007993872,8.294719542900001,4.1024943476999995,577
115727,187055,228456,3.924229064,8.3784683339,4.1431723319,578
115620,187082,228472,4.0953158799,8.254041558700001,3.9792639838,579
115438,187069,228486,3.9720855159999995,8.3246298254,3.9290147091999996,580
115194,187056,228467,4.0630127748,8.4083786164,3.8991044267,581
114952,187028,228405,4.0594235409,8.405985793800001,3.9720855159999995,582
114664,186984,228422,4.043870194,8.315058535,4.0522450731,583
114420,186996,228364,4.0211383793,8.2959159542,3.9864424516000003,584
114256,186917,228301,3.9625142255999997,8.3413795836,3.9924245080999996,585
114201,186895,228294,3.9732819273,8.4095750277,3.9924245080999996,586
114177,186913,228346,4.097708702499999,8.362914987,3.9649070482,587
114136,186919,228298,4.0570307183,8.291130309,4.0151563228,588
114126,186888,228295,4.1312082188999995,8.279166196,4.0259240245,589
114131,186886,228265,4.1742790257,8.2983087768,3.9326039431,590
114186,186907,228250,4.1240297511,8.3677006322,3.9457644674,591
114244,186872,228261,4.1204405172000005,8.4646099475,3.9003008379999997,592
114335,186910,228241,4.0857445895,8.3545401079,3.9768711611999996,593
114387,186968,228277,4.0498522505,8.3724862774,3.9505501125999998,594
114520,186922,228335,4.0067814437,8.4442709554,3.9589249917,595
114619,186950,228295,4.126422573699999,8.3342011158,3.9649070482,596
114754,186997,228261,3.8967116041,8.3365939384,3.9577285803999995,597
114872,186995,228348,3.9792639838,8.3078800672,4.019941968,598
115021,187004,228312,4.0510486617999995,8.338986761000001,3.996013742,599
115131,187013,228268,4.1455651545,8.1655071225,3.9409788222,600
115262,186960,228257,3.9158541848999997,8.204988695399999,4.0594235409,601
115410,186937,228240,4.1659041466,8.404789382499999,3.912264951,602
115569,186939,228223,4.1527436223,8.303094422,3.9936209194,603
115666,186947,228249,4.1288153963,8.3102728898,3.960121403,604
115818,186967,228246,4.1240297511,8.3653078096,3.8835510798,605
115970,186967,228244,3.996013742,8.3318082932,3.9409788222,606
116107,187032,228247,4.1096728155,8.3724862774,3.9266218866,607
116207,187022,228282,3.9290147091999996,8.1870425259,3.9290147091999996,608
116383,186977,228172,4.0043886211,8.1882389372,3.9409788222,609
116492,187004,228211,3.9984065645999998,8.2229348649,3.9409788222,610
116596,187111,228292,4.1144584607,8.352147285300001,3.9912280968,611
116520,187150,228323,4.1371902754,8.364111398299999,3.8668013215999997,612
116327,187151,228359,4.0366917262,8.3808611565,3.9984065645999998,613
116124,187102,228298,4.0271204358,8.294719542900001,3.9912280968,614
115891,187055,228250,4.0510486617999995,8.294719542900001,3.8668013215999997,615
115621,187052,228252,4.0151563228,8.3210405915,4.0761732991,616
115316,187032,228231,4.0103706776,8.4574314797,3.9170505962,617
115148,187005,228225,4.0462630166,8.4646099475,4.007977855,618
115028,187045,228204,4.1455651545,8.3796647452,4.0055850324,619
114877,187036,228217,3.9948173307,8.4000037373,4.0259240245,620
114873,187064,228254,4.0271204358,8.386843213,3.9696926934,621
114789,187053,228229,3.9780675724999996,8.4287176085,3.9816568063999997,622
114720,187028,228190,4.0510486617999995,8.3401831723,4.0366917262,623
114773,187065,228198,4.0606199522,8.3784683339,3.9649070482,624
114711,187114,228175,3.9098721283999995,8.410771439,4.0055850324,625
114767,187064,228194,4.092923057299999,8.3880396243,4.0594235409,626
114788,187124,228171,4.055834307,8.2588272039,4.0654055974,627
114839,187086,228154,3.9481572899999997,8.3138621237,4.0761732991,628
114924,187078,228199,3.9038900719000003,8.3748791,4.0055850324,629
114986,187114,228210,3.9996029759000002,8.2576307926,3.9661034595,630
115060,187129,228194,4.0773697104,8.3282190593,3.9936209194,631
115157,187109,228156,4.0414773714,8.2923267203,4.0857445895,632
115234,187091,228164,4.0414773714,8.3102728898,3.9768711611999996,633
115318,187059,228196,3.9182470075,8.2588272039,4.0546378957,634
115418,187113,228173,4.0426737827,8.4430745441,4.06779842,635
115531,187167,228155,4.0175491454,8.3964145034,3.936193177,636
115606,187172,228193,4.0510486617999995,8.4012001486,4.0713876539,637
115721,187167,228234,3.9888352742,8.2660056717,3.9649070482,638
115808,187193,228198,4.0390845488,8.3365939384,4.0498522505,639
115920,187251,228217,3.9266218866,8.3700934548,4.079762533,640
116020,187215,228248,4.0402809601,8.405985793800001,4.064209186099999,641
116182,187236,228205,3.9026936606000002,8.4526458345,3.9696926934,642
116242,187224,228204,3.9625142255999997,8.303094422,3.9409788222,643
116313,187244,228180,3.8907295476,8.3856468017,3.9062828945,644
116428,187229,228187,3.8679977328999997,8.3342011158,4.1120656381,645
116521,187223,228169,4.0809589443,8.3210405915,4.0378881375,646
116613,187219,228215,3.9816568063999997,8.3126657124,3.9708891047,647
116702,187205,228120,3.996013742,8.303094422,4.0055850324,648
116799,187135,228112,3.9792639838,8.315058535,4.0031922098,649
116888,187148,228060,4.1192441059,8.3653078096,3.9577285803999995,650
116934,187077,228060,3.9481572899999997,8.3425759949,4.0689948312999995,651
116903,187137,228072,4.0522450731,8.350950873999999,4.019941968,652
116738,187116,228078,4.0414773714,8.4622171249,3.9672998708,653
116407,187087,228036,3.864408499,8.3365939384,4.0031922098,654
116071,187039,228022,4.0235312019,8.3700934548,3.9696926934,655
115688,186990,227960,4.0761732991,8.3365939384,4.0354953148999995,656
115261,186981,227933,4.0630127748,8.3102728898,4.0175491454,657
114839,186909,227882,3.9529429352,8.3330047045,4.0295132584,658
114549,186769,227843,4.0235312019,8.303094422,4.0163527341,659
114288,186816,227793,3.9888352742,8.306683655899999,4.0594235409,660
114027,186805,227801,4.0761732991,8.3126657124,4.0031922098,661
113753,186794,227753,4.0689948312999995,8.3904324469,4.019941968,662
113533,186712,227683,3.960121403,8.25523797,4.0163527341,663
113307,186700,227630,4.0654055974,8.2480595022,3.9625142255999997,664
113101,186697,227627,3.9888352742,8.1798640581,4.0031922098,665
113011,186636,227599,3.9744783386,8.362914987,3.9457644674,666
112876,186599,227589,4.0701912426,8.3437724062,4.0187455567,667
112807,186597,227519,3.9888352742,8.293523131599999,3.9900316855,668
112712,186601,227510,4.0402809601,8.3198441802,4.097708702499999,669
112667,186591,227486,4.0295132584,8.2660056717,3.936193177,670
112606,186584,227448,4.0103706776,8.347361640099999,3.9948173307,671
112591,186558,227464,4.0857445895,8.279166196,4.0091742663,672
112584,186619,227453,3.9529429352,8.3318082932,4.0055850324,673
112563,186580,227484,3.9936209194,8.3593257531,3.9625142255999997,674
112570,186569,227450,4.0582271296000005,8.2839518412,3.9481572899999997,675
112603,186564,227445,4.0211383793,8.3461652288,4.0175491454,676
112604,186555,227408,4.0606199522,8.4622171249,3.9553357578,677
112657,186563,227432,4.0654055974,8.3724862774,4.0689948312999995,678
112741,186554,227428,4.1120656381,8.362914987,3.9888352742,679
112743,186557,227415,4.1288153963,8.3653078096,4.0139599115,680
112762,186570,227415,4.0486558392,8.4287176085,4.0785661217,681
112834,186514,227456,4.0965122912,8.243273857,4.0187455567,682
112887,186589,227389,3.8799618459,8.350950873999999,4.007977855,683
112947,186496,227430,4.1216369285,8.3294154706,4.0043886211,684
113010,186581,227389,3.9744783386,8.279166196,4.0007993872,685
113065,186556,227352,4.0833517669,8.293523131599999,3.8931223702,686
113137,186578,227359,3.9936209194,8.419146318100001,4.0031922098,687
113174,186566,227359,4.1790646709,8.360522164399999,4.0127635002,688
113249,186602,227344,3.9912280968,8.2767733734,3.9768711611999996,689
113317,186590,227364,4.0127635002,8.3365939384,3.9158541848999997,690
113420,186544,227299,4.2173498325,8.327022648,4.0378881375,691
113444,186577,227308,3.9936209194,8.410771439,3.9457644674,692
113358,186606,227373,4.0211383793,8.404789382499999,3.984049629,693
113072,186631,227407,3.9385859996,8.3976109147,3.9445680561,694
112617,186600,227363,3.9625142255999997,8.4478601893,4.0737804765,695
112098,186562,227307,4.0833517669,8.3007015994,4.0259240245,696
111552,186483,227233,3.9768711611999996,8.3174513576,4.0007993872,697
111006,186439,227224,4.0725840652,8.2767733734,3.9720855159999995,698
110437,186411,227143,4.030709669699999,8.3437724062,3.9338003543999998,699
110005,186345,227151,4.0881374121,8.2887374864,4.0187455567,700
109679,186316,227085,4.1336010414999995,8.3461652288,3.936193177,701
109409,186332,227064,3.9613178143,8.3796647452,3.9720855159999995,702
109161,186260,227003,4.0869410008000004,8.306683655899999,3.9409788222,703
108910,186282,227021,4.0139599115,8.3054872446,4.0582271296000005,704
108689,186270,226987,4.007977855,8.1631142999,3.9529429352,705
108534,186235,226998,4.0378881375,8.4155570842,3.9912280968,706
108415,186251,226986,3.996013742,8.3928252695,3.9936209194,707
108358,186230,226948,4.1551364449,8.3054872446,3.9744783386,708
108312,186181,226950,4.064209186099999,8.2743805508,3.9481572899999997,709
108311,186215,226947,4.0007993872,8.3569329305,3.9720855159999995,710
108316,186192,226980,4.1336010414999995,8.3294154706,3.9266218866,711
108332,186244,226954,4.1252261624,8.3581293418,3.9146577735999997,712
108364,186253,226964,4.0869410008000004,8.303094422,3.9338003543999998,713
108432,186219,226925,4.1324046302,8.3461652288,3.9912280968,714
108468,186246,226910,4.1575292675,8.4023965599,3.9290147091999996,715
108532,186244,226957,4.0845481781999995,8.4861453509,4.0342989036,716
108616,186240,226971,4.0606199522,8.2983087768,3.9433716447999996,717
108727,186267,226968,4.0845481781999995,8.2348989779,3.9314075318,718
108826,186281,226990,4.031906081,8.3581293418,3.9266218866,719
109010,186286,226962,3.9493537012999997,8.3569329305,3.9517465239000003,720
109052,186288,226963,3.9720855159999995,8.391628858199999,3.9625142255999997,721
109176,186297,226982,4.0462630166,8.338986761000001,4.055834307,722
109292,186275,227025,3.996013742,8.3928252695,4.0462630166,723
109431,186296,226988,4.030709669699999,8.3748791,3.9170505962,724
109567,186333,227016,3.9206398301,8.3365939384,3.9816568063999997,725
109702,186311,227051,4.0773697104,8.4358960763,4.0055850324,726
109813,186305,227035,4.0283168471,8.4119678503,3.8679977328999997,727
109941,186348,226972,4.0007993872,8.2755769621,3.9553357578,728
110083,186349,227039,4.0713876539,8.419146318100001,3.924229064,729
110227,186408,227014,4.0701912426,8.3485580514,4.0570307183,730
110370,186403,227046,4.031906081,8.271987728200001,3.9816568063999997,731
110458,186352,226987,4.0905302347,8.3174513576,3.9529429352,732
110594,186337,227064,3.9529429352,8.4251283746,4.001995798499999,733
110681,186307,227078,3.9577285803999995,8.3581293418,3.9828532177,734
110622,186428,227056,4.0546378957,8.3964145034,4.0223347905999995,735
110272,186429,227074,4.0546378957,8.4358960763,3.936193177,736
109831,186403,227048,4.007977855,8.3724862774,3.9613178143,737
109402,186322,227014,3.9457644674,8.281559018600001,3.8991044267,738
108989,186275,227008,4.0354953148999995,8.3054872446,4.0618163635,739
108586,186258,226969,4.0725840652,8.293523131599999,3.9984065645999998,740
108238,186235,226930,4.0103706776,8.3437724062,3.9385859996,741
108016,186195,226876,4.0223347905999995,8.391628858199999,3.9433716447999996,742
107877,186164,226893,3.9409788222,8.3724862774,4.0115670889,743
107790,186214,226906,3.9924245080999996,8.279166196,3.9672998708,744
107723,186201,226910,4.0187455567,8.3330047045,3.9290147091999996,745
107609,186175,226857,4.0043886211,8.3413795836,4.0713876539,746
107570,186190,226872,3.9828532177,8.4071822051,3.9864424516000003,747
107566,186121,226880,3.9744783386,8.3342011158,4.0342989036,748
107619,186176,226874,3.9385859996,8.3461652288,3.9433716447999996,749
107667,186156,226874,3.9314075318,8.360522164399999,4.0366917262,750
107802,186143,226893,4.06779842,8.360522164399999,4.0845481781999995,751
107898,186181,226917,3.9385859996,8.3856468017,4.0402809601,752
108013,186203,226930,4.019941968,8.280362607299999,3.9577285803999995,753
108148,186162,226914,4.007977855,8.3246298254,4.0223347905999995,754
108262,186221,226947,4.1216369285,8.2827554299,4.0295132584,755
108422,186228,226960,4.1084764042,8.3102728898,4.0606199522,756
108537,186239,226950,3.9481572899999997,8.4119678503,3.9816568063999997,757
108700,186272,226992,4.0606199522,8.3186477689,4.0606199522,758
108895,186256,227017,4.0115670889,8.4574314797,4.0773697104,759
109026,186253,226991,4.0390845488,8.293523131599999,4.0211383793,760
109177,186271,227001,4.0103706776,8.249255913499999,3.9625142255999997,761
109362,186265,227044,4.0223347905999995,8.360522164399999,3.9433716447999996,762
109532,186299,227033,4.1108692268,8.3246298254,3.9433716447999996,763
109684,186299,227065,4.0486558392,8.2983087768,4.0618163635,764
109876,186330,227059,3.8715869668,8.271987728200001,4.0618163635,765
110020,186302,227050,4.0007993872,8.3018980107,3.9900316855,766
110168,186295,227034,3.9756747499,8.2229348649,4.0175491454,767
110353,186304,227054,4.0881374121,8.3760755113,3.9541393465,768
110495,186288,227068,3.9888352742,8.4143606729,4.001995798499999,769
110631,186343,227057,4.06779842,8.3102728898,3.9936209194,770
110760,186313,227114,4.1048871703,8.4119678503,4.0486558392,771
110921,186234,227080,3.9744783386,8.3569329305,3.9218362414,772
111073,186289,227069,3.9852460403000003,8.3318082932,4.0151563228,773
111064,186336,227095,4.0570307183,8.3198441802,3.9517465239000003,774
110789,186311,227047,4.0283168471,8.2839518412,3.9397824109,775
110376,186263,227074,4.0546378957,8.4251283746,3.9816568063999997,776
109956,186212,227010,4.0295132584,8.240881034400001,3.996013742,777
109537,186144,226945,4.0522450731,8.3330047045,4.0522450731,778
109127,186090,226913,3.9732819273,8.2839518412,3.9984065645999998,779
108777,186069,226880,3.996013742,8.2743805508,4.1144584607,780
108543,186045,226893,4.0546378957,8.3102728898,3.9888352742,781
108407,185986,226815,4.0618163635,8.3126657124,3.984049629,782
108316,185965,226808,4.0737804765,8.2887374864,4.031906081,783
108200,185986,226856,3.960121403,8.3485580514,3.9696926934,784
108097,185952,226878,4.0893338234,8.3401831723,3.9481572899999997,785
108077,185886,226850,4.151547211,8.183453292,3.9314075318,786
107996,185904,226800,4.1060835816,8.3653078096,3.9457644674,787
108013,185912,226769,4.0905302347,8.2707913169,4.0594235409,788
108096,185862,226760,4.0618163635,8.2037922841,4.0546378957,789
108141,185783,226747,4.0235312019,8.4131642616,3.996013742,790
108240,185770,226720,4.1671005579,8.3318082932,4.0175491454,791
108423,185783,226728,4.031906081,8.350950873999999,3.9505501125999998,792
108507,185827,226765,3.9936209194,8.2384882118,4.0271204358,793
108654,185836,226810,3.9625142255999997,8.252845147399999,4.0031922098,794
108775,185938,226873,3.9182470075,8.3246298254,3.9888352742,795
108957,186006,226941,4.1072799929,8.3952180921,3.9433716447999996,796
109098,186058,226953,4.030709669699999,8.3318082932,4.0402809601,797
109243,186062,226978,4.0007993872,8.3952180921,4.1204405172000005,798
109392,186111,226994,4.0175491454,8.240881034400001,4.0211383793,799
109546,186109,227026,3.9972101532999997,8.3557365192,4.0450666053,800
109707,186115,227056,4.0271204358,8.226524098799999,4.0151563228,801
109841,186143,227039,4.0151563228,8.3078800672,4.0103706776,802
110030,186139,227071,4.0713876539,8.3437724062,4.007977855,803
110179,186156,227061,4.1168512833,8.2384882118,3.9553357578,804
110359,186155,227072,4.1431723319,8.3976109147,3.9385859996,805
110511,186205,227071,3.9577285803999995,8.2013994615,3.9816568063999997,806
110664,186224,227111,4.0151563228,8.271987728200001,3.9409788222,807
110830,186254,227153,3.9804603951,8.3078800672,4.0127635002,808
110989,186255,227099,4.0187455567,8.4478601893,3.9984065645999998,809
111161,186252,227147,4.1347974528,8.4012001486,3.9864424516000003,810
111320,186270,227169,4.0031922098,8.3677006322,4.0594235409,811
111450,186307,227154,4.0510486617999995,8.2564343813,4.0426737827,812
111606,186295,227134,4.0151563228,8.362914987,4.0091742663,813
111761,186273,227147,4.139583098,8.3712898661,3.8548372086000002,814
111884,186306,227189,3.984049629,8.279166196,4.0091742663,815
111915,186346,227208,4.1814574935,8.3222370028,3.984049629,816
111659,186335,227192,4.007977855,8.2097743406,4.0007993872,817
111193,186297,227193,4.0701912426,8.291130309,3.9984065645999998,818
110724,186232,227121,4.0091742663,8.2863446638,3.9397824109,819
110184,186181,227115,3.9661034595,8.3282190593,3.9792639838,820
109733,186139,227066,4.0845481781999995,8.3054872446,3.996013742,821
109272,186083,227035,3.9182470075,8.3712898661,4.0498522505,822
108928,186028,226984,3.9912280968,8.3724862774,3.9696926934,823
108711,186009,226975,4.1060835816,8.271987728200001,3.9433716447999996,824
108629,186001,226973,3.9852460403000003,8.281559018600001,3.9649070482,825
108453,186027,226998,3.996013742,8.2444702683,3.9888352742,826
108333,185999,227007,4.0187455567,8.3342011158,4.0809589443,827
108201,185957,226971,3.9780675724999996,8.4777704718,4.0666020087,828
108130,185924,226943,4.0402809601,8.2002030502,3.9720855159999995,829
108113,185907,226915,4.0654055974,8.2600236152,4.0067814437,830
108132,185921,226956,4.0630127748,8.3102728898,3.9792639838,831
108182,185942,226947,4.1168512833,8.4430745441,4.0175491454,832
108261,185924,226929,4.1001015251,8.3078800672,3.9672998708,833
108377,185930,226972,4.0474594279,8.2157563971,3.8955151927999996,834
108452,185962,227018,4.0534414844,8.3760755113,4.0175491454,835
108593,185961,227005,4.0570307183,8.3078800672,4.0163527341,836
108693,185944,227026,4.1012979364,8.3007015994,3.9170505962,837
108812,185965,226999,3.9397824109,8.362914987,3.9625142255999997,838
108954,185967,227033,4.0175491454,8.3952180921,4.0151563228,839
109084,185997,227002,4.1108692268,8.2887374864,3.9385859996,840
109223,185996,227017,4.0833517669,8.3126657124,3.9744783386,841
109356,186022,227075,4.1060835816,8.3581293418,4.113262049399999,842
109508,186011,227057,4.0749768878,8.3174513576,3.9864424516000003,843
109680,186053,227077,4.0953158799,8.352147285300001,4.0235312019,844
109836,186087,227102,4.019941968,8.3222370028,4.0426737827,845
109996,186076,227157,3.9314075318,8.3880396243,3.984049629,846
110181,186114,227126,4.0223347905999995,8.3964145034,3.9481572899999997,847
110310,186093,227129,4.0570307183,8.4239319633,4.0139599115,848
110518,186083,227122,3.9912280968,8.327022648,4.0833517669,849
110619,186139,227127,4.1503507997,8.252845147399999,4.092923057299999,850
110792,186159,227134,3.9732819273,8.3593257531,3.8488551521,851
110914,186140,227176,3.9768711611999996,8.471788415299999,4.0031922098,852
111067,186162,227184,4.1120656381,8.2588272039,3.924229064,853
111249,186176,227133,4.1862431387,8.398807326,4.0510486617999995,854
111341,186116,227146,3.9684962821,8.3018980107,3.9481572899999997,855
111475,186096,227172,4.0390845488,8.3318082932,4.007977855,856
111576,186130,227207,4.0773697104,8.2959159542,4.0486558392,857
111408,186206,227206,4.0103706776,8.2229348649,4.0342989036,858
110913,186091,227162,4.0390845488,8.316254946299999,4.0127635002,859
110308,186096,227147,4.0414773714,8.3820575678,4.0474594279,860
109719,186000,227082,3.9529429352,8.3078800672,3.9792639838,861
109178,185956,227062,4.1252261624,8.4095750277,4.0223347905999995,862
108669,185906,227004,4.1431723319,8.4933238187,4.0737804765,863
108247,185809,226953,4.1001015251,8.4035929712,3.9852460403000003,864
107975,185784,226944,4.0534414844,8.3712898661,4.0031922098,865
107816,185747,226929,4.0594235409,8.2121671632,4.0091742663,866
107686,185788,226923,4.0271204358,8.3449688175,4.0450666053,867
107565,185759,226974,4.0498522505,8.271987728200001,4.1001015251,868
107456,185762,226941,4.1742790257,8.3198441802,3.9314075318,869
107372,185719,226943,4.0414773714,8.4933238187,3.9768711611999996,870
107339,185731,226937,3.9924245080999996,8.2289169214,4.0127635002,871
107360,185760,226927,4.0271204358,8.3497544627,3.9768711611999996,872
107453,185727,226991,4.0869410008000004,8.315058535,3.9625142255999997,873
107525,185770,226955,4.0486558392,8.315058535,4.030709669699999,874
107691,185777,226996,4.0414773714,8.4215391407,4.0031922098,875
107801,185818,227013,3.9816568063999997,8.450253011900001,4.0749768878,876
107945,185844,227036,4.0666020087,8.4000037373,4.0462630166,877
108087,185874,227022,4.0953158799,8.2636128491,4.0031922098,878
108227,185862,227070,3.9684962821,8.293523131599999,4.1096728155,879
108371,185888,227052,4.0761732991,8.3294154706,4.0031922098,880
108527,185917,227095,4.0941194686,8.315058535,4.0151563228,881
108676,185992,227058,4.0007993872,8.3054872446,4.0223347905999995,882
108845,185925,227094,4.0474594279,8.3677006322,3.9026936606000002,883
109037,185975,227162,4.0630127748,8.271987728200001,4.0127635002,884
109190,186002,227149,3.9613178143,8.362914987,4.092923057299999,885
109385,186049,227144,3.9792639838,8.417949906799999,4.0103706776,886
109578,186037,227153,4.0785661217,8.3102728898,3.9912280968,887
109763,186067,227208,3.9768711611999996,8.219345631,4.0618163635,888
109923,186100,227200,3.9672998708,8.2743805508,4.0809589443,889
110086,186126,227223,3.8560336199000003,8.362914987,4.031906081,890
110291,186133,227219,4.1252261624,8.3138621237,4.0151563228,891
110423,186211,227276,4.0953158799,8.2767733734,4.0414773714,892
110616,186208,227305,3.9792639838,8.386843213,3.9505501125999998,893
110770,186213,227300,4.0211383793,8.2564343813,4.0606199522,894
110920,186211,227307,3.9385859996,8.281559018600001,3.9565321691,895
111057,186176,227273,3.996013742,8.2923267203,3.9649070482,896
111214,186226,227290,4.0845481781999995,8.3174513576,4.0103706776,897
111118,186262,227338,3.8584264425,8.404789382499999,4.0654055974,898
110696,186208,227262,3.9936209194,8.293523131599999,4.0175491454,899
110029,186131,227278,4.0833517669,8.360522164399999,4.0881374121,900
109380,186024,227174,3.9900316855,8.3174513576,4.1012979364,901
108809,185930,227145,3.9397824109,8.303094422,3.9792639838,902
108305,185900,227070,3.9517465239000003,8.4071822051,4.0534414844,903
107861,185819,227012,4.007977855,8.2588272039,3.9493537012999997,904
107572,185742,226981,4.0127635002,8.3617185757,4.0450666053,905
107476,185798,226955,4.0821553556,8.2731841395,4.0630127748,906
107385,185743,226959,4.1216369285,8.4000037373,4.1144584607,907
107264,185733,227016,3.984049629,8.2600236152,4.0486558392,908
107086,185742,226993,4.1252261624,8.3892360356,4.0175491454,909
107076,185707,226979,4.0761732991,8.231309744,4.0666020087,910
107072,185683,226957,3.9206398301,8.3126657124,4.0522450731,911
107080,185667,226931,4.127618985,8.279166196,4.0582271296000005,912
107170,185721,226960,3.9613178143,8.3904324469,3.9290147091999996,913
107277,185691,226950,4.0259240245,8.231309744,4.0749768878,914
107393,185758,227029,4.0510486617999995,8.2851482525,3.9756747499,915
107513,185745,227035,3.8943187815,8.338986761000001,4.0618163635,916
107664,185785,227032,3.9708891047,8.3485580514,4.0402809601,917
107820,185833,227044,4.0390845488,8.291130309,4.0522450731,918
107943,185803,227074,4.0390845488,8.3856468017,3.9385859996,919
108086,185830,227052,4.0965122912,8.3581293418,4.031906081,920
108269,185867,227096,3.9577285803999995,8.3222370028,3.9984065645999998,921
108429,185866,227106,4.055834307,8.3007015994,4.0630127748,922
108578,185882,227154,3.8835510798,8.3569329305,4.0342989036,923
108768,185917,227110,4.0390845488,8.271987728200001,4.0534414844,924
108920,185937,227135,4.0247276132000005,8.3102728898,4.0127635002,925
109098,185928,227099,4.0713876539,8.398807326,4.0031922098,926
109287,185955,227167,4.019941968,8.2660056717,4.0594235409,927
109448,185973,227145,4.0833517669,8.3018980107,3.9744783386,928
109612,185987,227167,4.0869410008000004,8.391628858199999,4.055834307,929
109784,185941,227174,4.055834307,8.240881034400001,4.0510486617999995,930
109950,186010,227170,4.1527436223,8.350950873999999,4.1001015251,931
110125,186072,227213,4.0378881375,8.458627890999999,4.0606199522,932
110280,186097,227226,4.0833517669,8.3904324469,4.1336010414999995,933
110440,186059,227204,3.9421752335,8.3126657124,4.0115670889,934
110566,186073,227246,4.0139599115,8.362914987,4.0630127748,935
110716,186078,227313,3.8907295476,8.3449688175,4.0366917262,936
110885,186035,227250,4.0426737827,8.4119678503,4.0354953148999995,937
110994,186127,227266,3.9613178143,8.4263247859,3.984049629,938
110890,186099,227291,4.1048871703,8.3078800672,4.092923057299999,939
110334,186034,227248,4.0271204358,8.3007015994,3.9948173307,940
109504,185958,227220,4.1443687432,8.2851482525,4.0271204358,941
108701,185870,227129,4.1216369285,8.1750784129,4.0474594279,942
107964,185771,227083,3.9637106368999997,8.3485580514,4.0701912426,943
107317,185682,227023,3.9984065645999998,8.2133635745,4.0701912426,944
106716,185641,226999,4.0821553556,8.219345631,3.9314075318,945
106292,185581,226897,3.960121403,8.1990066389,3.9505501125999998,946
106109,185544,226936,4.0235312019,8.279166196,3.9481572899999997,947
106001,185567,226943,3.9397824109,8.3497544627,4.0295132584,948
105873,185557,226956,4.0151563228,8.204988695399999,4.0187455567,949
105757,185518,226941,4.0725840652,8.338986761000001,3.9074793058,950
105670,185507,226908,4.0737804765,8.293523131599999,3.9816568063999997,951
105642,185480,226929,3.9876388629,8.281559018600001,4.0139599115,952
105677,185575,226991,3.996013742,8.3581293418,3.9529429352,953
105799,185499,226971,4.0618163635,8.3760755113,3.984049629,954
105903,185520,227052,4.1288153963,8.236095389199999,3.9421752335,955
106055,185596,227036,4.1575292675,8.3174513576,3.9649070482,956
106168,185612,227037,4.0247276132000005,8.3712898661,4.1072799929,957
106329,185609,227062,4.0594235409,8.3234334141,3.9828532177,958
106456,185695,227139,4.0582271296000005,8.3653078096,3.9326039431,959
106649,185664,227173,3.9696926934,8.25523797,3.9493537012999997,960
106858,185745,227156,3.9146577735999997,8.4430745441,3.9936209194,961
107004,185685,227135,4.0271204358,8.2983087768,3.9948173307,962
107179,185676,227155,4.043870194,8.3784683339,4.0151563228,963
107373,185691,227140,3.9182470075,8.3449688175,4.064209186099999,964
107568,185686,227198,4.18743955,8.3653078096,4.079762533,965
107760,185738,227200,3.9828532177,8.1894353485,3.9780675724999996,966
107965,185830,227244,3.9373895883000003,8.4335032537,3.9936209194,967
108182,185838,227299,4.0247276132000005,8.1487573643,4.019941968,968
108392,185859,227303,4.0486558392,8.386843213,4.092923057299999,969
108594,185830,227328,4.1431723319,8.2683984943,4.007977855,970
108762,185812,227307,4.001995798499999,8.3449688175,4.0989051138,971
108975,185814,227315,4.0654055974,8.4071822051,4.031906081,972
109132,185913,227339,4.0689948312999995,8.327022648,3.9338003543999998,973
109314,185913,227373,4.019941968,8.350950873999999,4.0510486617999995,974
109500,185927,227379,3.9314075318,8.2923267203,4.1084764042,975
109634,185937,227399,3.9864424516000003,8.3928252695,3.9529429352,976
109817,185891,227383,4.091726646,8.3078800672,3.9984065645999998,977
109961,185929,227410,4.001995798499999,8.373682688699999,3.9505501125999998,978
109733,185938,227444,4.007977855,8.2576307926,3.9888352742,979
108999,185898,227367,4.06779842,8.2468630909,4.0342989036,980
108101,185817,227336,3.9038900719000003,8.350950873999999,4.0713876539,981
107152,185715,227234,4.019941968,8.3461652288,4.0295132584,982
106390,185669,227212,4.0941194686,8.3461652288,3.9373895883000003,983
105732,185556,227193,4.0821553556,8.3294154706,4.0354953148999995,984
105146,185506,227155,3.9912280968,8.227720510100001,3.984049629,985
104780,185442,227145,4.0366917262,8.3461652288,4.0414773714,986
104681,185445,227135,4.0582271296000005,8.3557365192,4.0007993872,987
104631,185387,227131,3.9672998708,8.3940216808,4.0007993872,988
104546,185419,227160,3.9852460403000003,8.315058535,3.9924245080999996,989
104455,185411,227159,4.055834307,8.4406817215,3.9924245080999996,990
104428,185429,227161,4.1312082188999995,8.360522164399999,4.0031922098,991
104439,185423,227190,4.0833517669,8.3760755113,4.0402809601,992
104525,185440,227196,4.1120656381,8.3688970435,4.0522450731,993
104661,185424,227282,3.9804603951,8.3054872446,3.9924245080999996,994
104823,185446,227278,4.0450666053,8.3365939384,4.0247276132000005,995
105010,185449,227267,4.0785661217,8.3820575678,3.9110685397,996
105178,185455,227292,4.091726646,8.3892360356,4.0055850324,997
105377,185530,227341,3.9625142255999997,8.3688970435,4.0187455567,998
105558,185578,227382,4.055834307,8.3760755113,3.9792639838,999
105753,185535,227387,4.0103706776,8.3330047045,4.0151563228,1000
105951,185618,227454,3.9792639838,8.2384882118,3.9816568063999997,1001
106165,185633,227429,4.0773697104,8.2995051881,4.0163527341,1002
106373,185685,227481,4.055834307,8.2037922841,4.019941968,1003
106578,185715,227505,3.9936209194,8.3425759949,3.9050864832,1004
106807,185741,227559,3.888336725,8.2983087768,4.0510486617999995,1005
107023,185751,227548,4.0845481781999995,8.2253276875,3.996013742,1006
107203,185669,227545,4.0905302347,8.3449688175,4.0031922098,1007
107429,185760,227631,3.9625142255999997,8.1750784129,3.9672998708,1008
107650,185779,227644,3.9984065645999998,8.386843213,4.0761732991,1009
107854,185842,227617,3.9661034595,8.2205420423,4.0139599115,1010
108066,185840,227611,4.1168512833,8.471788415299999,4.0342989036,1011
108267,185838,227638,4.019941968,8.2959159542,3.9984065645999998,1012
108468,185898,227703,3.9290147091999996,8.3246298254,4.0103706776,1013
108651,185950,227712,4.139583098,8.3102728898,4.0043886211,1014
108845,185945,227688,3.9912280968,8.3784683339,4.0462630166,1015
109041,185936,227776,4.0462630166,8.3724862774,4.0510486617999995,1016
109009,185994,227744,3.9433716447999996,8.281559018600001,4.1024943476999995,1017
108405,185974,227762,4.0055850324,8.2743805508,3.9481572899999997,1018
107526,185894,227709,3.9936209194,8.239684623099999,4.0402809601,1019
106602,185799,227653,3.9505501125999998,8.3318082932,4.1024943476999995,1020
105831,185718,227605,3.9924245080999996,8.3258262367,4.0713876539,1021
105223,185658,227568,3.9469608787,8.4023965599,4.0570307183,1022
104662,185604,227511,4.1048871703,8.362914987,3.9900316855,1023
104337,185536,227507,3.9457644674,8.4382888989,4.0486558392,1024
104257,185518,227507,4.113262049399999,8.3007015994,3.9565321691,1025
104271,185519,227487,4.1503507997,8.2887374864,4.079762533,1026
104228,185434,227568,3.9481572899999997,8.291130309,3.9469608787,1027
104176,185528,227575,4.1024943476999995,8.3054872446,4.1060835816,1028
104167,185498,227548,4.0989051138,8.4143606729,4.055834307,1029
104236,185509,227590,4.0139599115,8.2217384536,4.0881374121,1030
104358,185486,227599,4.1072799929,8.3054872446,4.0115670889,1031
104528,185498,227602,4.0953158799,8.2995051881,4.064209186099999,1032
104751,185519,227616,3.9768711611999996,8.4335032537,4.0295132584,1033
104961,185522,227642,3.996013742,8.303094422,4.0809589443,1034
105185,185497,227663,3.9780675724999996,8.4215391407,4.0725840652,1035
105383,185572,227694,3.8608192651000004,8.3760755113,3.9708891047,1036
105592,185600,227695,3.9445680561,8.3246298254,4.007977855,1037
105791,185582,227751,3.9218362414,8.3808611565,4.0462630166,1038
106028,185652,227766,4.0594235409,8.4394853102,3.9050864832,1039
106233,185588,227760,4.1192441059,8.25523797,3.9876388629,1040
106456,185673,227808,3.9936209194,8.3078800672,4.1024943476999995,1041
106692,185702,227777,3.9780675724999996,8.1272219609,4.0510486617999995,1042
106916,185714,227804,4.0007993872,8.3928252695,4.1240297511,1043
107135,185713,227804,4.0366917262,8.3306118819,3.9912280968,1044
107349,185763,227842,4.0103706776,8.3557365192,3.9565321691,1045
107547,185808,227889,4.0941194686,8.1631142999,4.0127635002,1046
107749,185819,227869,3.9433716447999996,8.4311104311,4.0151563228,1047
107979,185815,227910,3.9744783386,8.4311104311,3.9984065645999998,1048
108183,185816,227931,3.9888352742,8.25523797,3.960121403,1049
108382,185851,227878,3.9780675724999996,8.3617185757,3.9314075318,1050
108563,185901,227930,3.996013742,8.3126657124,4.097708702499999,1051
108723,185901,227966,4.06779842,8.3581293418,3.9984065645999998,1052
108908,185937,227995,4.0414773714,8.2731841395,3.9780675724999996,1053
109064,185882,227938,4.0031922098,8.303094422,4.0271204358,1054
109251,185902,227959,4.0043886211,8.3485580514,3.9780675724999996,1055
109288,185938,227998,4.0283168471,8.3557365192,3.9972101532999997,1056
108831,185957,227973,3.9206398301,8.3796647452,4.0522450731,1057
107851,185854,227962,3.984049629,8.3007015994,4.0618163635,1058
106836,185793,227874,4.0031922098,8.2061851067,3.9696926934,1059
105953,185694,227817,3.888336725,8.3282190593,4.0606199522,1060
105179,185610,227818,4.0055850324,8.3198441802,4.06779842,1061
104470,185553,227735,3.9493537012999997,8.236095389199999,3.9481572899999997,1062
103965,185500,227734,4.0486558392,8.2695949056,3.9254254753,1063
103753,185437,227717,3.9936209194,8.3617185757,4.019941968,1064
103742,185443,227720,4.0510486617999995,8.279166196,4.0115670889,1065
103740,185482,227739,4.0295132584,8.2695949056,3.9529429352,1066
103718,185472,227762,4.0618163635,8.3377903497,3.9290147091999996,1067
103728,185468,227769,4.0953158799,8.3318082932,4.0127635002,1068
103795,185438,227798,4.091726646,8.364111398299999,4.1096728155,1069
103882,185454,227823,4.0618163635,8.2971123655,4.0833517669,1070
104066,185450,227799,3.9900316855,8.155935832099999,4.06779842,1071
104300,185471,227874,3.9816568063999997,8.3198441802,3.9553357578,1072
104536,185470,227836,3.9290147091999996,8.2217384536,3.924229064,1073
104729,185520,227911,4.2281175342,8.2983087768,4.1359938641000005,1074
104966,185591,227923,4.0271204358,8.3222370028,3.984049629,1075
105198,185597,227943,4.0713876539,8.3796647452,3.9996029759000002,1076
105444,185649,227968,4.064209186099999,8.3246298254,3.9936209194,1077
105650,185680,227988,4.007977855,8.352147285300001,4.1455651545,1078
105890,185748,228057,4.091726646,8.3102728898,3.9816568063999997,1079
106128,185713,228082,4.0881374121,8.2600236152,3.9864424516000003,1080
106371,185772,228112,4.0247276132000005,8.315058535,3.996013742,1081
106596,185872,228158,4.064209186099999,8.3413795836,4.0666020087,1082
106836,185894,228190,4.0151563228,8.3665042209,3.9936209194,1083
107098,185923,228226,4.0342989036,8.4215391407,3.9984065645999998,1084
107321,186002,228301,4.0546378957,8.4083786164,4.0354953148999995,1085
107545,186008,228352,4.0295132584,8.219345631,3.9888352742,1086
107789,186072,228364,4.0570307183,8.231309744,4.030709669699999,1087
108010,186123,228354,4.0534414844,8.3198441802,4.0247276132000005,1088
108253,186179,228430,3.9433716447999996,8.280362607299999,3.9529429352,1089
108461,186231,228436,4.06779842,8.4574314797,4.0247276132000005,1090
108665,186285,228474,4.140779509300001,8.249255913499999,3.9900316855,1091
108887,186281,228494,4.0941194686,8.3772719226,4.1431723319,1092
109091,186308,228482,4.091726646,8.2468630909,4.0247276132000005,1093
109262,186297,228501,4.0354953148999995,8.3078800672,4.0881374121,1094
109460,186282,228478,4.0342989036,8.303094422,3.9672998708,1095
109643,186218,228444,3.9984065645999998,8.231309744,3.9912280968,1096
109780,186234,228466,4.0749768878,8.3856468017,4.0223347905999995,1097
109552,186271,228506,4.0546378957,8.3820575678,4.0761732991,1098
108818,186227,228456,3.9505501125999998,8.3485580514,3.9792639838,1099
107912,186179,228414,3.9984065645999998,8.4311104311,4.0570307183,1100
107145,186072,228349,4.1096728155,8.3330047045,4.0737804765,1101
106475,186016,228326,4.06779842,8.434699665,4.0881374121,1102
105880,185921,228258,4.0785661217,8.3294154706,4.0953158799,1103
105420,185916,228209,4.0570307183,8.3210405915,4.0163527341,1104
105209,185866,228218,4.1551364449,8.3700934548,3.984049629,1105
105225,185832,228184,4.1192441059,8.338986761000001,4.0187455567,1106
105289,185873,228233,3.9720855159999995,8.3437724062,3.9996029759000002,1107
105312,185875,228241,4.2783668087999995,8.281559018600001,3.9744783386,1108
105304,185883,228270,4.1647077353,8.450253011900001,3.9026936606000002,1109
105391,185904,228275,4.055834307,8.243273857,4.0594235409,1110
105570,185904,228290,4.0725840652,8.2648092604,4.0247276132000005,1111
105716,185907,228331,4.0187455567,8.3318082932,3.9816568063999997,1112
105960,185934,228311,4.0486558392,8.2169528084,3.9720855159999995,1113
106180,185953,228383,4.163511324,8.3808611565,3.9996029759000002,1114
106431,185932,228388,4.0689948312999995,8.25523797,3.9577285803999995,1115
106665,186034,228407,4.113262049399999,8.3844503904,4.0570307183,1116
106868,186028,228433,3.9565321691,8.2337025666,4.0175491454,1117
107103,186017,228495,4.0474594279,8.25523797,4.0522450731,1118
107355,186079,228462,3.9589249917,8.2863446638,4.0737804765,1119
107575,186095,228501,4.1001015251,8.2564343813,4.0127635002,1120
107810,186135,228533,3.9613178143,8.2504523248,4.0833517669,1121
108040,186160,228542,3.996013742,8.4837525283,3.9984065645999998,1122
108286,186103,228561,4.1072799929,8.3102728898,4.0247276132000005,1123
108502,186212,228580,4.0414773714,8.262416437799999,4.0151563228,1124
108753,186240,228571,4.0187455567,8.338986761000001,4.0857445895,1125
108963,186258,228623,4.0498522505,8.3425759949,4.0055850324,1126
109181,186298,228644,4.0462630166,8.291130309,4.0594235409,1127
109409,186373,228692,4.0845481781999995,8.3557365192,4.1060835816,1128
109670,186334,228647,4.0582271296000005,8.364111398299999,3.9505501125999998,1129
109816,186382,228655,4.0402809601,8.3353975271,4.0091742663,1130
110009,186399,228666,3.9756747499,8.352147285300001,3.8835510798,1131
110198,186327,228704,3.9720855159999995,8.2325061553,4.0654055974,1132
110366,186414,228665,4.0941194686,8.4358960763,3.9864424516000003,1133
110556,186405,228653,4.1048871703,8.3665042209,4.0761732991,1134
110732,186402,228677,3.9338003543999998,8.2648092604,4.0031922098,1135
110656,186452,228707,4.06779842,8.316254946299999,4.0115670889,1136
110133,186435,228710,3.9649070482,8.293523131599999,3.996013742,1137
109343,186367,228672,3.9936209194,8.364111398299999,4.0905302347,1138
108617,186324,228637,3.8907295476,8.360522164399999,4.0414773714,1139
107949,186229,228561,3.9684962821,8.279166196,4.0534414844,1140
107360,186136,228546,4.1503507997,8.3401831723,4.0522450731,1141
106896,186074,228472,4.0510486617999995,8.3102728898,3.9912280968,1142
106624,186055,228477,3.9864424516000003,8.2839518412,4.0151563228,1143
106599,186025,228429,3.924229064,8.271987728200001,4.1240297511,1144
106676,186027,228501,4.1120656381,8.4000037373,4.0666020087,1145
106659,186044,228452,3.9290147091999996,8.373682688699999,4.031906081,1146
106633,186058,228469,4.1371902754,8.3365939384,3.936193177,1147
106711,186049,228487,3.960121403,8.2337025666,3.960121403,1148
106823,186058,228480,4.0175491454,8.327022648,4.0474594279,1149
106963,186063,228457,3.936193177,8.293523131599999,3.9625142255999997,1150
107158,186096,228463,4.1120656381,8.293523131599999,4.0761732991,1151
107363,186079,228472,4.0725840652,8.2564343813,4.0103706776,1152
107589,186098,228517,4.0881374121,8.2707913169,3.9696926934,1153
107807,186131,228547,3.9768711611999996,8.3330047045,4.092923057299999,1154
107990,186119,228585,4.064209186099999,8.240881034400001,4.0175491454,1155
108215,186164,228593,4.0857445895,8.3114693011,3.9912280968,1156
108455,186168,228576,4.0893338234,8.364111398299999,4.0666020087,1157
108641,186232,228620,3.9816568063999997,8.3342011158,3.9984065645999998,1158
108895,186213,228632,3.9517465239000003,8.262416437799999,3.9529429352,1159
109079,186235,228636,4.0725840652,8.4251283746,4.0331024923,1160
109321,186271,228648,4.0414773714,8.338986761000001,3.9266218866,1161
109531,186313,228669,4.0498522505,8.267202082999999,4.031906081,1162
109727,186295,228652,3.9505501125999998,8.2875410751,4.1072799929,1163
109993,186344,228668,4.1216369285,8.2325061553,3.9445680561,1164
110214,186356,228738,4.0151563228,8.3557365192,4.0402809601,1165
110422,186375,228726,4.0390845488,8.3186477689,4.0953158799,1166
110628,186422,228747,4.0546378957,8.2480595022,3.9792639838,1167
110823,186430,228773,4.0821553556,8.2133635745,4.0582271296000005,1168
111009,186442,228756,4.0689948312999995,8.2337025666,3.996013742,1169
111225,186460,228756,4.1108692268,8.3425759949,4.0570307183,1170
111417,186489,228807,4.0630127748,8.3593257531,3.9385859996,1171
111595,186525,228790,4.0271204358,8.3485580514,4.0666020087,1172
111781,186484,228810,4.031906081,8.3126657124,3.9146577735999997,1173
111946,186503,228795,4.019941968,8.267202082999999,4.0606199522,1174
112045,186542,228846,4.1611185014,8.2480595022,3.9768711611999996,1175
111869,186575,228848,4.0582271296000005,8.4131642616,4.0701912426,1176
111190,186523,228849,4.092923057299999,8.262416437799999,3.9696926934,1177
110400,186423,228781,4.1300118076,8.3318082932,4.0271204358,1178
109739,186406,228707,4.0247276132000005,8.2648092604,4.0211383793,1179
109139,186340,228709,4.0342989036,8.3892360356,4.0187455567,1180
108582,186300,228654,4.0342989036,8.3007015994,3.9409788222,1181
108177,186238,228620,4.0235312019,8.3222370028,4.030709669699999,1182
107943,186190,228629,4.1001015251,8.2887374864,4.0857445895,1183
107926,186158,228565,3.9649070482,8.4012001486,3.960121403,1184
107965,186195,228620,4.0594235409,8.3222370028,4.0031922098,1185
107930,186210,228630,4.0426737827,8.243273857,4.0809589443,1186
107929,186186,228658,4.0402809601,8.291130309,4.0342989036,1187
107931,186195,228606,3.9792639838,8.2576307926,3.9696926934,1188
108075,186251,228653,4.0953158799,8.360522164399999,3.9816568063999997,1189
108209,186176,228613,3.9744783386,8.3653078096,4.019941968,1190
108346,186172,228662,3.8201412809,8.293523131599999,4.0055850324,1191
108517,186185,228665,4.2017964856,8.3677006322,4.0582271296000005,1192
108688,186260,228644,4.019941968,8.281559018600001,3.936193177,1193
108873,186188,228641,4.0474594279,8.3700934548,3.9649070482,1194
109000,186235,228653,3.8632120877,8.2983087768,4.019941968,1195
108789,186306,228721,3.8703905555,8.3126657124,4.0462630166,1196
108271,186231,228746,3.9792639838,8.3856468017,4.0043886211,1197
107703,186136,228662,4.007977855,8.207381518,4.0007993872,1198
107244,186121,228627,4.1180476945999995,8.279166196,3.9936209194,1199
106902,186068,228640,4.1144584607,8.398807326,4.0761732991,1200
106671,186034,228619,4.0342989036,8.3677006322,4.043870194,1201
106630,185989,228561,4.1336010414999995,8.281559018600001,4.0091742663,1202
106761,186025,228604,4.0366917262,8.2444702683,4.031906081,1203
106964,186027,228657,4.0175491454,8.3545401079,4.1024943476999995,1204
107078,186099,228676,3.9996029759000002,8.306683655899999,3.888336725,1205
107230,186052,228645,4.0366917262,8.398807326,3.9672998708,1206
107344,186053,228684,4.0259240245,8.4012001486,4.007977855,1207
107531,186069,228686,4.0570307183,8.3485580514,3.9649070482,1208
107748,186075,228663,4.0007993872,8.3246298254,3.9266218866,1209
108001,186109,228710,3.9110685397,8.2743805508,3.9086757171,1210
108279,186156,228743,4.0869410008000004,8.3294154706,4.0175491454,1211
108541,186128,228787,4.0989051138,8.4095750277,3.960121403,1212
108799,186202,228771,4.0271204358,8.3808611565,4.1048871703,1213
109064,186256,228793,4.1312082188999995,8.240881034400001,4.0247276132000005,1214
109273,186272,228826,4.0881374121,8.2875410751,3.9194434188,1215
109554,186253,228816,4.0654055974,8.3054872446,3.9888352742,1216
109787,186299,228843,4.0031922098,8.3234334141,4.0055850324,1217
110032,186324,228895,4.1060835816,8.3677006322,4.0247276132000005,1218
110273,186360,228906,3.9170505962,8.3688970435,4.1024943476999995,1219
110515,186397,228851,4.1072799929,8.231309744,4.0606199522,1220
110759,186395,228887,4.1347974528,8.3461652288,4.1024943476999995,1221
111006,186418,228946,3.9864424516000003,8.3413795836,3.9481572899999997,1222
111236,186453,228915,4.1168512833,8.404789382499999,4.007977855,1223
111471,186509,228994,4.0510486617999995,8.2863446638,3.9433716447999996,1224
111695,186497,229001,4.1048871703,8.3054872446,4.0618163635,1225
111933,186505,229009,4.0534414844,8.267202082999999,3.9780675724999996,1226
112123,186548,229008,4.1647077353,8.2731841395,3.9888352742,1227
112347,186521,228989,4.0271204358,8.2600236152,4.019941968,1228
112577,186551,229056,4.0139599115,8.3222370028,4.043870194,1229
112770,186625,229021,4.030709669699999,8.2887374864,4.055834307,1230
112984,186609,229063,4.0007993872,8.3222370028,4.0390845488,1231
113195,186643,229074,3.9828532177,8.2384882118,4.0223347905999995,1232
113391,186661,229133,4.0654055974,8.3688970435,4.0031922098,1233
113563,186707,229114,4.1216369285,8.3724862774,3.9864424516000003,1234
113755,186723,229113,4.127618985,8.3234334141,3.9696926934,1235
113951,186722,229124,4.0881374121,8.3330047045,4.0785661217,1236
114178,186718,229112,3.9290147091999996,8.243273857,4.0055850324,1237
114319,186753,229127,4.0582271296000005,8.3485580514,4.0462630166,1238
114521,186769,229146,3.9792639838,8.327022648,4.0414773714,1239
114703,186822,229141,4.1084764042,8.4215391407,4.0151563228,1240
114844,186826,229197,4.0414773714,8.3425759949,4.0007993872,1241
115010,186789,229126,3.9290147091999996,8.3042908333,3.9792639838,1242
115154,186822,229181,4.0127635002,8.3808611565,4.0223347905999995,1243
115267,186801,229200,4.1551364449,8.2648092604,4.0390845488,1244
115054,186881,229234,4.0689948312999995,8.3318082932,4.0666020087,1245
114525,186787,229193,3.9553357578,8.3545401079,4.140779509300001,1246
113867,186794,229179,4.1383866867,8.2348989779,4.0175491454,1247
113277,186772,229155,4.0151563228,8.2959159542,4.0247276132000005,1248
112788,186656,229120,3.9936209194,8.2612200265,4.0761732991,1249
112354,186641,229059,3.9768711611999996,8.2863446638,3.9864424516000003,1250
111959,186556,229027,3.9720855159999995,8.398807326,4.0007993872,1251
111763,186562,229035,4.0151563228,8.3665042209,4.0618163635,1252
111704,186562,229011,4.0151563228,8.386843213,4.0067814437,1253
111627,186567,229025,4.0785661217,8.3748791,4.0474594279,1254
111545,186600,229052,3.9529429352,8.419146318100001,4.0295132584,1255
111473,186577,229078,4.0426737827,8.315058535,4.001995798499999,1256
111478,186583,229082,3.8560336199000003,8.4287176085,4.0127635002,1257
111506,186567,229040,4.103690759,8.2576307926,3.9912280968,1258
111560,186536,229066,4.0570307183,8.3533436966,3.9924245080999996,1259
111706,186576,229084,3.9816568063999997,8.3952180921,4.0211383793,1260
111826,186593,229112,4.1766718483,8.2456666796,4.0354953148999995,1261
111958,186675,229105,4.0007993872,8.281559018600001,4.0725840652,1262
112141,186702,229146,3.9338003543999998,8.3832539791,3.9912280968,1263
112252,186699,229167,4.0594235409,8.3126657124,4.0749768878,1264
112382,186711,229185,4.0486558392,8.347361640099999,4.019941968,1265
112541,186725,229185,4.0773697104,8.3485580514,4.0390845488,1266
112693,186740,229179,4.127618985,8.3461652288,4.0007993872,1267
112836,186784,229198,4.0271204358,8.2983087768,4.0486558392,1268
112991,186763,229220,3.9720855159999995,8.3090764785,4.0582271296000005,1269
113140,186800,229211,3.9385859996,8.291130309,4.0498522505,1270
113307,186817,229238,3.9661034595,8.303094422,4.031906081,1271
113457,186832,229262,3.9433716447999996,8.2839518412,4.031906081,1272
113625,186801,229239,4.064209186099999,8.3617185757,4.007977855,1273
113774,186805,229240,3.9577285803999995,8.3413795836,4.0247276132000005,1274
113925,186797,229241,4.1228333398,8.2289169214,4.0127635002,1275
114070,186808,229265,4.0510486617999995,8.3533436966,4.0713876539,1276
114235,186860,229244,4.0414773714,8.347361640099999,4.1012979364,1277
114386,186828,229218,3.9888352742,8.240881034400001,4.0785661217,1278
114527,186857,229281,4.1048871703,8.3760755113,4.0103706776,1279
114685,186822,229267,3.9744783386,8.482556117,4.030709669699999,1280
114821,186851,229285,3.9708891047,8.4071822051,3.9744783386,1281
114876,186814,229212,4.0462630166,8.3461652288,3.9625142255999997,1282
115070,186808,229227,4.0905302347,8.364111398299999,4.0259240245,1283
115216,186848,229263,3.984049629,8.303094422,3.9696926934,1284
115354,186854,229272,3.996013742,8.338986761000001,4.0247276132000005,1285
115472,186815,229238,3.9672998708,8.3222370028,4.0295132584,1286
115590,186808,229247,4.0749768878,8.3940216808,3.960121403,1287
115715,186852,229224,4.06779842,8.3102728898,4.1168512833,1288
115633,186864,229254,4.007977855,8.3042908333,3.9984065645999998,1289
115179,186880,229222,4.0546378957,8.3222370028,3.9792639838,1290
114521,186788,229196,4.0869410008000004,8.3425759949,4.0223347905999995,1291
113841,186700,229159,4.0654055974,8.316254946299999,4.0175491454,1292
113165,186638,229123,3.9852460403000003,8.2887374864,3.9553357578,1293
112680,186561,229078,3.9768711611999996,8.3449688175,4.0498522505,1294
112160,186511,229049,4.1192441059,8.2743805508,3.9421752335,1295
111780,186443,228939,4.0127635002,8.315058535,3.9792639838,1296
111577,186475,228951,4.0618163635,8.315058535,4.0127635002,1297
111447,186437,228958,4.0247276132000005,8.4000037373,4.0498522505,1298
111269,186424,228978,4.0223347905999995,8.3796647452,4.019941968,1299
111049,186425,228951,4.0295132584,8.2612200265,3.9888352742,1300
110949,186399,228926,4.0426737827,8.3090764785,4.0761732991,1301
110875,186380,228982,4.0857445895,8.267202082999999,3.9074793058,1302
110841,186412,228956,3.9194434188,8.3258262367,3.9696926934,1303
110907,186338,228943,4.0462630166,8.3198441802,3.9577285803999995,1304
110946,186371,228931,4.055834307,8.3102728898,4.0271204358,1305
111018,186384,228951,4.007977855,8.293523131599999,4.1144584607,1306
111106,186397,228938,4.0845481781999995,8.3342011158,4.043870194,1307
111180,186423,229011,4.0259240245,8.360522164399999,4.0127635002,1308
111289,186441,228987,4.0689948312999995,8.3090764785,4.0115670889,1309
111349,186468,229004,4.0163527341,8.3820575678,3.9254254753,1310
111472,186479,228995,4.030709669699999,8.3198441802,3.984049629,1311
111583,186456,229018,4.0031922098,8.3593257531,3.9876388629,1312
111722,186512,229026,4.0031922098,8.4215391407,4.0331024923,1313
111844,186522,229034,3.9924245080999996,8.279166196,3.9744783386,1314
112001,186536,229019,3.9529429352,8.3964145034,4.0103706776,1315
112150,186545,229061,4.1001015251,8.2612200265,4.031906081,1316
112292,186591,229068,4.0534414844,8.3102728898,4.0139599115,1317
112425,186597,229066,3.9529429352,8.4574314797,3.9684962821,1318
112556,186578,229075,3.9577285803999995,8.315058535,4.0378881375,1319
112729,186614,229121,4.0618163635,8.2648092604,4.0701912426,1320
112855,186647,229089,4.0582271296000005,8.204988695399999,4.0905302347,1321
113017,186657,229120,4.1790646709,8.3102728898,3.9278182979,1322
113182,186579,229118,4.0701912426,8.2600236152,3.936193177,1323
113330,186696,229137,4.0881374121,8.360522164399999,4.0390845488,1324
113487,186692,229148,4.0175491454,8.3772719226,3.9780675724999996,1325
113651,186714,229138,3.9816568063999997,8.3485580514,4.0390845488,1326
113749,186754,229144,4.0402809601,8.3760755113,3.9972101532999997,1327
113919,186748,229191,3.9505501125999998,8.231309744,4.0869410008000004,1328
114058,186714,229096,4.1072799929,8.2995051881,3.936193177,1329
114179,186746,229126,4.0809589443,8.231309744,3.9720855159999995,1330
114214,186696,229191,3.9649070482,8.4083786164,4.0522450731,1331
113861,186811,229189,4.0510486617999995,8.293523131599999,4.0737804765,1332
113152,186741,229144,3.9768711611999996,8.4143606729,3.9936209194,1333
112430,186652,229070,3.9744783386,8.3545401079,4.0031922098,1334
111779,186616,229035,3.9409788222,8.293523131599999,4.0007993872,1335
111213,186532,228993,4.0450666053,8.3246298254,4.0821553556,1336
110669,186489,228913,4.0725840652,8.3294154706,3.9816568063999997,1337
110267,186443,228953,4.0247276132000005,8.3258262367,3.9672998708,1338
110060,186448,228930,4.031906081,8.2205420423,3.9553357578,1339
109920,186413,228946,3.9996029759000002,8.3330047045,4.0402809601,1340
109831,186443,228945,4.0055850324,8.2133635745,3.9278182979,1341
109673,186436,228945,4.019941968,8.3294154706,3.9900316855,1342
109599,186421,228921,3.9409788222,8.3413795836,4.0031922098,1343
109538,186422,228907,3.9924245080999996,8.3940216808,4.0007993872,1344
109527,186385,228971,4.1599220901,8.4000037373,4.0271204358,1345
109575,186402,228908,4.0067814437,8.2241312762,4.0402809601,1346
109654,186427,228931,3.9613178143,8.3198441802,4.007977855,1347
109739,186397,228978,4.0881374121,8.2695949056,4.1001015251,1348
109906,186462,228974,4.103690759,8.3342011158,3.9553357578,1349
109958,186494,229008,4.151547211,8.362914987,4.0630127748,1350
110073,186470,228984,4.0474594279,8.2887374864,3.984049629,1351
110115,186501,229014,4.1766718483,8.4478601893,4.0689948312999995,1352
110319,186517,228997,3.9517465239000003,8.3054872446,3.912264951,1353
110470,186443,229031,4.0378881375,8.3294154706,3.9732819273,1354
110584,186544,229001,4.1312082188999995,8.3353975271,4.0534414844,1355
110737,186568,229008,4.0127635002,8.4263247859,3.9744783386,1356
110886,186555,229034,3.9888352742,8.4382888989,4.0498522505,1357
111022,186578,229031,4.1718862031,8.3413795836,3.9816568063999997,1358
111194,186625,229081,3.9625142255999997,8.3772719226,4.043870194,1359
111349,186667,229080,3.9302111204999997,8.3174513576,4.0857445895,1360
111515,186659,229048,3.936193177,8.3665042209,3.9696926934,1361
111680,186684,229089,4.1838503161,8.3557365192,3.9385859996,1362
111847,186691,229093,4.1192441059,8.3007015994,4.0295132584,1363
112003,186717,229124,3.9780675724999996,8.2863446638,4.0295132584,1364
112179,186753,229081,4.0223347905999995,8.4167534955,4.019941968,1365
112328,186751,229173,3.9792639838,8.3318082932,4.0594235409,1366
112502,186776,229140,4.097708702499999,8.3449688175,3.984049629,1367
112689,186822,229152,3.9912280968,8.3892360356,4.0091742663,1368
112797,186816,229184,4.1072799929,8.4837525283,4.1240297511,1369
112943,186744,229115,4.1144584607,8.2863446638,3.9984065645999998,1370
113074,186850,229176,4.0127635002,8.3545401079,4.0187455567,1371
113099,186889,229200,4.0713876539,8.2959159542,4.1060835816,1372
112703,186869,229224,4.0043886211,8.3820575678,3.9385859996,1373
112027,186847,229193,4.1096728155,8.2923267203,4.031906081,1374
111349,186789,229141,3.9996029759000002,8.3294154706,3.912264951,1375
110735,186748,229065,4.019941968,8.4095750277,4.0785661217,1376
110198,186670,229035,4.1072799929,8.3198441802,4.0342989036,1377
109728,186637,228993,3.9756747499,8.2983087768,3.9218362414,1378
109406,186616,228982,4.0151563228,8.4693955927,4.0283168471,1379
109232,186601,228930,4.0630127748,8.1463645417,4.0666020087,1380
109155,186620,228958,4.0857445895,8.3007015994,3.9864424516000003,1381
109059,186632,228972,4.0546378957,8.3497544627,4.1216369285,1382
108914,186646,229000,3.9756747499,8.4095750277,4.055834307,1383
108849,186628,229019,4.0151563228,8.3126657124,4.0510486617999995,1384
108809,186639,228987,4.1336010414999995,8.293523131599999,3.9409788222,1385
108802,186638,229016,4.0785661217,8.3665042209,4.092923057299999,1386
108843,186635,228993,4.0331024923,8.3210405915,4.043870194,1387
108959,186585,228958,3.9625142255999997,8.1439717191,4.0713876539,1388
109060,186647,228979,4.0366917262,8.252845147399999,4.0713876539,1389
109169,186650,228984,4.0881374121,8.3688970435,4.0007993872,1390
109275,186689,229008,3.9804603951,8.3198441802,4.0845481781999995,1391
109403,186650,229019,4.031906081,8.2863446638,3.9936209194,1392
109490,186683,228995,4.0522450731,8.3413795836,3.9541393465,1393
109613,186675,229027,3.9134613623,8.3342011158,4.0953158799,1394
109749,186665,229000,4.1479579771,8.3102728898,3.984049629,1395
109889,186689,228979,3.9469608787,8.2743805508,4.1455651545,1396
110050,186661,229000,4.019941968,8.2600236152,4.0342989036,1397
110179,186694,229019,4.0809589443,8.3653078096,3.9672998708,1398
110352,186669,229025,4.0701912426,8.3677006322,3.9912280968,1399
110477,186703,229015,4.079762533,8.3342011158,3.9984065645999998,1400
110613,186698,228991,4.0761732991,8.280362607299999,3.9577285803999995,1401
110777,186688,228985,4.0666020087,8.4729848266,4.0761732991,1402
110884,186696,228981,4.0295132584,8.2827554299,3.9984065645999998,1403
111088,186686,229009,4.0785661217,8.1942209937,3.996013742,1404
111230,186699,229037,4.0103706776,8.3174513576,4.0223347905999995,1405
111387,186736,229030,3.960121403,8.3665042209,3.9649070482,1406
111527,186733,229025,4.0869410008000004,8.1344004287,3.9984065645999998,1407
111658,186683,228975,3.9230326527000003,8.3401831723,3.9194434188,1408
111763,186735,229005,4.0773697104,8.267202082999999,3.9481572899999997,1409
111669,186761,229015,4.0007993872,8.3557365192,3.9912280968,1410
111180,186726,229010,3.9984065645999998,8.2660056717,4.0031922098,1411
110447,186621,228984,4.019941968,8.3102728898,4.0390845488,1412
109739,186592,228922,3.8979080154,8.4430745441,3.9625142255999997,1413
109116,186569,228873,3.9577285803999995,8.3856468017,3.9816568063999997,1414
108502,186501,228799,4.0342989036,8.2588272039,4.0271204358,1415
107989,186400,228793,4.0354953148999995,8.3964145034,3.9433716447999996,1416
107625,186390,228748,4.1647077353,8.3485580514,3.9302111204999997,1417
107474,186430,228756,4.1359938641000005,8.316254946299999,3.9816568063999997,1418
107420,186364,228739,4.0271204358,8.3174513576,4.0689948312999995,1419
107289,186346,228697,4.0235312019,8.4155570842,3.9864424516000003,1420
107203,186339,228753,3.9684962821,8.3102728898,4.043870194,1421
107154,186339,228680,3.9338003543999998,8.3377903497,4.0067814437,1422
107160,186309,228680,4.0941194686,8.3126657124,4.0594235409,1423
107180,186297,228703,4.0007993872,8.4095750277,4.0486558392,1424
107283,186292,228692,3.9589249917,8.303094422,4.0031922098,1425
107408,186297,228668,4.0570307183,8.271987728200001,4.0271204358,1426
107535,186301,228681,4.0510486617999995,8.4095750277,4.019941968,1427
107682,186351,228708,4.097708702499999,8.240881034400001,4.1192441059,1428
107835,186342,228725,3.9481572899999997,8.3796647452,4.0666020087,1429
107987,186368,228731,4.1240297511,8.262416437799999,4.0881374121,1430
108146,186372,228746,3.9314075318,8.2875410751,3.9194434188,1431
108306,186387,228725,4.0618163635,8.4658063588,4.0689948312999995,1432
108457,186363,228746,3.9577285803999995,8.252845147399999,3.9744783386,1433
108631,186395,228760,3.9493537012999997,8.4406817215,3.912264951,1434
108816,186425,228725,3.9672998708,8.267202082999999,4.031906081,1435
109016,186480,228773,4.1048871703,8.2576307926,4.092923057299999,1436
109202,186482,228806,4.1216369285,8.239684623099999,3.8823546685,1437
109383,186475,228821,3.9158541848999997,8.3760755113,4.06779842,1438
109585,186533,228833,3.8775690233,8.2779697847,3.9936209194,1439
109789,186573,228812,3.9984065645999998,8.2157563971,4.055834307,1440
109947,186581,228829,4.0103706776,8.3569329305,4.0462630166,1441
110131,186603,228874,3.9984065645999998,8.279166196,3.936193177,1442
110324,186572,228873,3.9984065645999998,8.2660056717,3.9062828945,1443
110483,186611,228857,3.9912280968,8.2875410751,3.9888352742,1444
110645,186653,228896,4.0007993872,8.281559018600001,4.0498522505,1445
110819,186665,228904,3.9625142255999997,8.2863446638,4.0570307183,1446
110944,186622,228863,3.9696926934,8.3222370028,4.0175491454,1447
111124,186663,228874,4.0761732991,8.3234334141,3.9780675724999996,1448
111236,186713,228936,4.0295132584,8.419146318100001,3.9481572899999997,1449
110986,186624,228943,4.0426737827,8.419146318100001,3.9768711611999996,1450
110368,186678,228896,4.0366917262,8.279166196,4.0235312019,1451
109596,186612,228817,3.996013742,8.3796647452,3.9792639838,1452
108944,186555,228818,3.9457644674,8.252845147399999,3.9254254753,1453
108342,186486,228762,3.9625142255999997,8.3461652288,4.0857445895,1454
107752,186446,228672,3.9421752335,8.3772719226,4.06779842,1455
107331,186384,228656,3.924229064,8.291130309,4.0378881375,1456
107102,186323,228647,4.091726646,8.386843213,4.0247276132000005,1457
107027,186388,228653,3.9505501125999998,8.3186477689,3.9266218866,1458
106960,186358,228662,4.0570307183,8.4119678503,4.092923057299999,1459
106909,186381,228651,3.960121403,8.243273857,4.0366917262,1460
106777,186313,228680,4.043870194,8.293523131599999,3.9888352742,1461
106814,186309,228622,3.9338003543999998,8.3593257531,4.0139599115,1462
106853,186357,228641,4.0474594279,8.2707913169,3.9792639838,1463
106950,186360,228624,4.0378881375,8.2767733734,3.9816568063999997,1464
107112,186330,228658,3.9421752335,8.4000037373,3.9565321691,1465
107220,186325,228633,4.0618163635,8.4000037373,4.0127635002,1466
107395,186352,228684,4.0773697104,8.3677006322,4.0031922098,1467
107558,186404,228707,4.0055850324,8.267202082999999,4.0055850324,1468
107686,186425,228669,4.0295132584,8.3246298254,3.9792639838,1469
107888,186466,228743,4.1240297511,8.2707913169,4.0354953148999995,1470
108054,186436,228719,4.019941968,8.3258262367,3.9744783386,1471
108223,186474,228713,3.9912280968,8.2241312762,3.9768711611999996,1472
108408,186474,228722,4.0833517669,8.3413795836,3.9984065645999998,1473
108584,186476,228760,4.0259240245,8.2743805508,4.043870194,1474
108799,186553,228786,3.9266218866,8.2683984943,4.0211383793,1475
108989,186546,228825,4.0582271296000005,8.2755769621,4.0809589443,1476
109178,186500,228823,3.9876388629,8.3964145034,4.030709669699999,1477
109370,186586,228830,4.0486558392,8.3557365192,3.9912280968,1478
109566,186640,228827,4.0594235409,8.410771439,3.9792639838,1479
109732,186596,228837,4.0666020087,8.2983087768,3.9816568063999997,1480
109933,186617,228868,4.1850467274,8.3007015994,4.0067814437,1481
110109,186667,228840,4.0654055974,8.3617185757,4.0737804765,1482
110291,186687,228897,4.1419759206,8.2743805508,3.9505501125999998,1483
110479,186695,228882,4.0498522505,8.3485580514,3.9852460403000003,1484
110648,186711,228860,4.0007993872,8.271987728200001,3.9816568063999997,1485
110824,186771,228890,4.0941194686,8.315058535,3.9792639838,1486
111010,186753,228890,4.127618985,8.404789382499999,4.0031922098,1487
111156,186727,228913,3.9457644674,8.303094422,4.0366917262,1488
111295,186718,228892,4.055834307,8.3234334141,3.9445680561,1489
111350,186800,228917,4.1742790257,8.2600236152,4.0055850324,1490
110966,186779,228911,4.0606199522,8.2337025666,3.9984065645999998,1491
110282,186748,228880,4.0606199522,8.2767733734,4.0474594279,1492
109596,186673,228835,4.0366917262,8.3234334141,3.9661034595,1493
108993,186640,228825,4.0630127748,8.293523131599999,4.0043886211,1494
108438,186594,228755,3.9577285803999995,8.3593257531,4.0522450731,1495
107960,186500,228765,4.030709669699999,8.3246298254,4.0426737827,1496
107589,186514,228709,4.092923057299999,8.3222370028,3.9505501125999998,1497
107452,186483,228702,4.0785661217,8.338986761000001,4.0031922098,1498
107431,186509,228666,4.1001015251,8.2887374864,4.0474594279,1499
107393,186481,228713,3.960121403,8.294719542900001,4.0809589443,1500
107331,186519,228729,4.0354953148999995,8.3976109147,4.1024943476999995,1501
107317,186529,228768,3.9326039431,8.3342011158,4.0618163635,1502
107360,186521,228740,4.0857445895,8.2241312762,4.0510486617999995,1503
107457,186520,228787,4.0713876539,8.386843213,4.043870194,1504
107585,186532,228787,4.1958144290999995,8.360522164399999,4.0821553556,1505
107732,186542,228779,4.0283168471,8.3712898661,4.0151563228,1506
107920,186530,228775,4.0594235409,8.4143606729,3.8560336199000003,1507
108099,186577,228835,4.0486558392,8.281559018600001,3.9864424516000003,1508
108278,186615,228849,4.0187455567,8.2600236152,3.9505501125999998,1509
108470,186682,228864,4.0606199522,8.2767733734,4.1312082188999995,1510
108698,186685,228912,4.1096728155,8.262416437799999,4.1120656381,1511
108864,186713,228930,4.1120656381,8.2743805508,4.0259240245,1512
109059,186719,228951,4.0031922098,8.2169528084,3.9972101532999997,1513
109259,186706,228920,4.1431723319,8.3712898661,4.0522450731,1514
109480,186758,228989,4.0223347905999995,8.4478601893,4.0462630166,1515
109689,186804,228975,3.9696926934,8.2695949056,4.0522450731,1516
109864,186762,228954,4.0283168471,8.4071822051,4.0462630166,1517
110092,186854,229002,3.9194434188,8.350950873999999,3.9768711611999996,1518
