green,red,IR,acc_x,acc_y,acc_z,sample_index
127339,183170,240165,7.9812597822999996,1.8173487647,5.5561340772,1
127459,183189,240173,7.9298140964,1.6606188843999998,5.7140603688,2
127652,183235,240232,7.9106715156,1.6414763036,5.5800623032,3
127760,183292,240210,7.791030385599999,1.603191142,5.651846981199999,4
127949,183364,240260,8.005188008300001,1.7132609816000002,5.7272208931,5
128128,183416,240325,7.9956167179,1.6331014245,5.6135618196,6
128275,183467,240370,7.8819576444,1.7982061838999999,5.7044890784,7
128399,183553,240391,8.0470624038,1.7036896912000001,5.5178489156,8
128714,183597,240458,8.087740388,1.7838492483,5.6135618196,9
128839,183699,240504,7.920242806,1.7754743692000001,5.7224352479,10
128967,183703,240524,7.819744256799999,1.6319050132,5.679364441100001,11
128983,183660,240538,7.986045427500001,1.8317057003,5.5274202059999995,12
128734,183680,240501,7.9011002251999995,1.7264215058999999,5.583651537100001,13
128415,183590,240444,7.9298140964,1.7611174336,5.575276658,14
127959,183383,240275,7.9776705484,1.6139588437,5.551348432,15
127557,183260,240254,7.915457160799999,1.7599210223,5.6219366987,16
127254,183131,240144,7.8257263133,1.5840485612,5.693721376699999,17
127134,183067,240096,7.9106715156,1.6654045296,5.5645089563,18
127255,183058,240144,7.9908310727,1.7371892076000002,5.570491012800001,19
127154,183097,240117,7.942974620699999,1.8125631194999998,5.6327044004,20
127147,183107,240124,7.944171031999999,1.7694923127,5.575276658,21
127248,183113,240099,7.861618652300001,1.7264215058999999,5.5944192388,22
127372,183167,240146,7.9058858704,1.5936198516,5.5645089563,23
127467,183195,240146,7.9310105077,1.6701901747999999,5.6183474648,24
127578,183243,240171,7.9633136127999995,1.6594224731,5.5657053676,25
127629,183254,240171,7.8927253461,1.6414763036,5.5932228275,26
127888,183294,240238,8.0303126456,1.7898313048,5.5609197224,27
128058,183394,240244,7.9812597822999996,1.698904046,5.5800623032,28
128218,183411,240268,7.8819576444,1.7754743692000001,5.5932228275,29
128290,183447,240358,7.896314579999999,1.7419748528,5.5609197224,30
128473,183591,240384,7.9956167179,1.7276179172000001,5.5800623032,31
128601,183654,240443,7.8640114749,1.6845471104,5.551348432,32
128777,183716,240493,7.920242806,1.7036896912000001,5.5142596817000005,33
128906,183762,240548,7.9669028467,1.7838492483,5.637490045600001,34
128948,183783,240540,7.8819576444,1.5649059803999998,5.575276658,35
128613,183691,240484,8.1009009123,1.746760498,5.636293634299999,36
128249,183538,240398,7.9956167179,1.7264215058999999,5.5178489156,37
127940,183405,240301,7.9298140964,1.7276179172000001,5.5609197224,38
127607,183287,240222,8.1044901462,1.7024932798999999,5.6087761744,39
127373,183190,240168,8.0339018795,1.8508482811000002,5.5609197224,40
127368,183153,240166,7.944171031999999,1.7132609816000002,5.5597233111,41
127248,183134,240172,7.972884903200001,1.770688724,5.5657053676,42
127335,183134,240134,8.0530444603,1.7838492483,5.551348432,43
127374,183255,240160,8.0027951857,1.8364913454999998,5.6410792795,44
127433,183237,240125,8.0721870411,1.7754743692000001,5.5369914964,45
127489,183293,240148,7.920242806,1.8317057003,5.5609197224,46
127655,183312,240175,7.9585279676,1.746760498,5.6231331099999995,47
127670,183355,240199,8.0111700648,1.7419748528,5.5597233111,48
127814,183359,240218,8.0961152671,1.7599210223,5.5274202059999995,49
127993,183419,240253,8.0386875247,1.8137595308,5.6841500863,50
128089,183423,240279,7.9166535721,1.7407784414999998,5.5896335936,51
128250,183488,240311,8.0350982908,1.7371892076000002,5.4939206895999995,52
128389,183542,240275,7.911867926899999,1.7180466268,5.5322058512000005,53
128588,183579,240353,7.9824561936,1.7276179172000001,5.499902746099999,54
128773,183629,240398,7.9669028467,1.7742779578999999,5.5597233111,55
128714,183636,240453,7.8017980873,1.7419748528,5.541777141600001,56
128621,183563,240334,7.8687971201,1.6127624323999998,5.5896335936,57
128269,183397,240271,7.9334033303,1.746760498,5.6267223439,58
127799,183242,240148,8.0255270004,1.5900306177,5.6219366987,59
127450,183058,240058,7.9393853868,1.7790636031,5.6039905292,60
127000,182930,239962,7.9298140964,1.7886348934999998,5.5896335936,61
126752,182832,239865,7.886743289599999,1.7084753364,5.5310094399,62
126643,182786,239856,7.9633136127999995,1.7647066674999998,5.5848479484,63
126680,182793,239856,8.0063844196,1.7371892076000002,5.5860443597,64
126759,182817,239853,8.0291162343,1.7694923127,5.6171510535,65
126652,182803,239818,7.9106715156,1.6654045296,5.541777141600001,66
126725,182841,239828,7.9142607494999995,1.5469598109,5.528616617299999,67
126739,182833,239850,7.9190463947000005,1.8077774743,5.6219366987,68
126835,182889,239822,7.9334033303,1.7599210223,5.6039905292,69
126893,182986,239853,7.9058858704,1.6414763036,5.6315079891,70
127077,182947,239877,7.9262248625,1.6642081183,5.637490045600001,71
127120,182999,239937,7.9776705484,1.6941184008,5.666203916800001,72
127283,183075,239973,7.9669028467,1.7503497318999999,5.666203916800001,73
127474,183127,240053,7.9585279676,1.5409777544,5.6219366987,74
127575,183174,240031,7.8352976037,1.6187444889,5.5369914964,75
127812,183249,240080,8.0482588151,1.6366906583999998,5.5561340772,76
127954,183292,240098,8.0243305891,1.7647066674999998,5.575276658,77
127974,183311,240114,7.8676007087999995,1.6845471104,5.5848479484,78
127693,183185,240069,8.01595571,1.5936198516,5.5788658919,79
127177,183010,239947,7.9585279676,1.7694923127,5.6422756908,80
126629,182761,239761,7.9764741371,1.6713865861,5.6087761744,81
126172,182549,239669,7.8819576444,1.7264215058999999,5.5226345608,82
125830,182404,239550,7.824529902,1.6319050132,5.6135618196,83
125502,182309,239463,7.9812597822999996,1.6366906583999998,5.647061336,84
125331,182268,239443,7.9908310727,1.7036896912000001,5.6183474648,85
125355,182259,239383,7.9334033303,1.7455640867,5.7080783123000005,86
125420,182279,239404,7.8065837325,1.6354942471,5.5369914964,87
125510,182326,239443,8.0721870411,1.6414763036,5.551348432,88
125571,182355,239408,8.0111700648,1.7276179172000001,5.665007505499999,89
125658,182363,239420,7.9369925642,1.7551353771,5.5896335936,90
125730,182395,239478,7.9812597822999996,1.7611174336,5.679364441100001,91
125876,182466,239515,7.9345997416,1.7132609816000002,5.575276658,92
126132,182508,239529,7.9908310727,1.6893327556000002,5.6327044004,93
126195,182615,239562,7.7682985709,1.5469598109,5.6506505699,94
126398,182683,239676,7.9453674433,1.7599210223,5.6315079891,95
126569,182707,239679,7.8400832489,1.7168502155,5.6135618196,96
126742,182819,239754,7.8496545393,1.7216358607,5.666203916800001,97
126924,182885,239761,8.0542408716,1.6558332392,5.570491012800001,98
127098,182947,239825,7.8388868376,1.7120645703,5.5896335936,99
127196,182989,239854,7.886743289599999,1.8269200550999998,5.6039905292,100
126940,182931,239775,8.062615750700001,1.7036896912000001,5.665007505499999,101
126535,182760,239673,7.992027484,1.7682959014000001,5.5800623032,102
125990,182589,239557,7.9776705484,1.7216358607,5.6506505699,103
125533,182399,239430,7.957331556300001,1.6654045296,5.6135618196,104
125141,182299,239377,7.915457160799999,1.8747765071,5.5848479484,105
124999,182218,239292,8.0291162343,1.6546368279,5.6087761744,106
124879,182202,239304,7.9238320399,1.7551353771,5.665007505499999,107
124892,182206,239262,7.9477602659,1.6749758199999998,5.6602218603,108
125023,182259,239321,7.844868894099999,1.6522440053,5.6039905292,109
125247,182331,239322,7.9633136127999995,1.6929219895,5.599204884000001,110
125214,182348,239416,7.968099258,1.6283157793,5.6087761744,111
125362,182426,239405,7.8771719992,1.5948162629,5.6231331099999995,112
125530,182489,239435,8.0004023631,1.698904046,5.5716874241,113
125633,182556,239489,7.8628150636,1.6091731985,5.5609197224,114
125840,182667,239558,7.9716884919,1.5613167465000002,5.6410792795,115
126066,182711,239570,7.9345997416,1.7359927963,5.633900811699999,116
126203,182795,239664,7.8819576444,1.6091731985,5.541777141600001,117
126453,182917,239708,7.9764741371,1.8137595308,5.6315079891,118
126659,183030,239801,7.920242806,1.6654045296,5.6614182716,119
126896,183115,239878,7.9345997416,1.7132609816000002,5.6602218603,120
127162,183235,239902,7.9393853868,1.698904046,5.5082776252,121
127347,183321,239950,7.9298140964,1.7072789251,5.6267223439,122
127359,183368,239985,7.9585279676,1.7084753364,5.5369914964,123
127235,183354,239958,7.942974620699999,1.8747765071,5.575276658,124
126890,183282,239882,7.8640114749,1.8891334427000002,5.5788658919,125
126486,183200,239866,7.9345997416,1.7599210223,5.6087761744,126
126240,183160,239839,8.0099736535,1.6283157793,5.651846981199999,127
125983,183146,239774,7.9381889755,1.6941184008,5.6889357315,128
125837,183085,239747,7.928617685100001,1.6271193679999998,5.647061336,129
125934,183167,239741,7.8065837325,1.5505490447999999,5.6410792795,130
125924,183171,239772,8.005188008300001,1.5948162629,5.6315079891,131
126095,183256,239833,7.944171031999999,1.6378870697,5.5597233111,132
126265,183307,239842,8.1009009123,1.6905291669,5.6422756908,133
126442,183355,239903,7.9764741371,1.7455640867,5.6123654083000005,134
126577,183436,239955,7.968099258,1.7096717476999999,5.5884371823,135
126703,183499,240007,7.8257263133,1.6977076347,5.551348432,136
126935,183594,240019,7.972884903200001,1.603191142,5.5369914964,137
127101,183666,240124,7.8388868376,1.6606188843999998,5.575276658,138
127289,183714,240132,7.8496545393,1.6749758199999998,5.6267223439,139
127452,183830,240247,7.9489566772,1.6259229567,5.6219366987,140
127738,183900,240259,7.944171031999999,1.8125631194999998,5.6135618196,141
128009,184014,240339,7.925028451199999,1.6139588437,5.5369914964,142
128166,184108,240408,7.9453674433,1.6797614652,5.6231331099999995,143
128462,184154,240437,7.968099258,1.7216358607,5.551348432,144
128544,184221,240475,7.942974620699999,1.7515461432000001,5.5884371823,145
128432,184182,240439,8.0063844196,1.7599210223,5.5178489156,146
128259,184139,240453,8.039883936,1.7216358607,5.5800623032,147
127992,184106,240455,7.9345997416,1.8987047331,5.6135618196,148
127927,184149,240398,7.8544401845,1.6749758199999998,5.6315079891,149
127698,184133,240412,7.8305119585,1.7084753364,5.6219366987,150
127698,184138,240353,8.049455226400001,1.6522440053,5.570491012800001,151
127777,184171,240385,7.8819576444,1.7754743692000001,5.570491012800001,152
127866,184186,240437,7.920242806,1.6941184008,5.6554362151,153
128046,184226,240411,7.9393853868,1.6319050132,5.6039905292,154
128146,184253,240421,7.9968131291999995,1.6701901747999999,5.6171510535,155
128232,184251,240459,7.886743289599999,1.6749758199999998,5.5657053676,156
128319,184282,240477,8.1678999451,1.6941184008,5.5597233111,157
128488,184336,240486,7.9956167179,1.7659030788,5.5609197224,158
128607,184372,240531,7.9525459111,1.8161523534,5.4939206895999995,159
128873,184418,240589,7.9872418388,1.7216358607,5.5369914964,160
128906,184418,240577,7.8257263133,1.6366906583999998,5.6410792795,161
129077,184534,240620,7.816155022899999,1.8699908619,5.6075797630999995,162
129207,184583,240680,7.7922267969000005,1.8173487647,5.6554362151,163
129450,184578,240721,7.992027484,1.6941184008,5.5621161337,164
129618,184668,240750,7.9058858704,1.5230315848999998,5.6458649247,165
129804,184695,240754,7.9058858704,1.7694923127,5.6171510535,166
129692,184630,240724,7.9669028467,1.6737794087,5.575276658,167
129576,184540,240675,7.9011002251999995,1.8233308212,5.442475003699999,168
129232,184543,240629,8.0015987744,1.5134602944999997,5.6889357315,169
129041,184480,240578,7.9716884919,1.6654045296,5.5274202059999995,170
128848,184439,240560,7.8975109913,1.7515461432000001,5.5274202059999995,171
128778,184426,240510,7.8496545393,1.7407784414999998,5.5142596817000005,172
128659,184464,240577,7.944171031999999,1.7419748528,5.599204884000001,173
128790,184506,240576,7.848458128,1.7036896912000001,5.647061336,174
128782,184534,240579,7.9058858704,1.7551353771,5.637490045600001,175
128897,184470,240573,7.9058858704,1.5756736821000001,5.5657053676,176
129000,184557,240625,7.9776705484,1.6606188843999998,5.5657053676,177
129152,184595,240579,7.9262248625,1.6749758199999998,5.6315079891,178
129125,184576,240624,7.844868894099999,1.6893327556000002,5.5178489156,179
129381,184613,240646,7.9824561936,1.8269200550999998,5.5369914964,180
129547,184693,240677,7.8855468783,1.6654045296,5.6183474648,181
129577,184701,240703,7.9058858704,1.7419748528,5.4807601652999995,182
129831,184762,240747,7.9525459111,1.6558332392,5.6231331099999995,183
129896,184782,240726,7.9489566772,1.6414763036,5.6231331099999995,184
130033,184855,240788,7.8879397009000005,1.6558332392,5.6602218603,185
130219,184881,240801,7.9298140964,1.5996019081000001,5.5896335936,186
130553,184984,240837,8.0015987744,1.5828521499000001,5.570491012800001,187
130541,184994,240857,7.928617685100001,1.7084753364,5.6506505699,188
130562,184960,240829,7.928617685100001,1.7084753364,5.6506505699,189
130392,184878,240824,7.928617685100001,1.7084753364,5.6506505699,190
130198,184833,240746,7.928617685100001,1.7084753364,5.6506505699,191
129939,184757,240697,7.928617685100001,1.7084753364,5.6506505699,192
129808,184725,240674,7.928617685100001,1.7084753364,5.6506505699,193
129543,184663,240651,7.928617685100001,1.7084753364,5.6506505699,194
129423,184660,240608,7.928617685100001,1.7084753364,5.6506505699,195
129367,184663,240646,7.928617685100001,1.7084753364,5.6506505699,196
129424,184689,240656,7.928617685100001,1.7084753364,5.6506505699,197
129483,184696,240643,7.928617685100001,1.7084753364,5.6506505699,198
129495,184715,240633,7.928617685100001,1.7084753364,5.6506505699,199
129605,184727,240645,7.928617685100001,1.7084753364,5.6506505699,200
129684,184774,240658,7.928617685100001,1.7084753364,5.6506505699,201
129779,184764,240665,7.928617685100001,1.7084753364,5.6506505699,202
129887,184798,240682,7.928617685100001,1.7084753364,5.6506505699,203
130006,184852,240668,7.928617685100001,1.7084753364,5.6506505699,204
130129,184870,240725,7.928617685100001,1.7084753364,5.6506505699,205
130247,184910,240745,7.928617685100001,1.7084753364,5.6506505699,206
130411,184953,240789,7.928617685100001,1.7084753364,5.6506505699,207
130553,185002,240790,7.928617685100001,1.7084753364,5.6506505699,208
130695,185023,240774,7.928617685100001,1.7084753364,5.6506505699,209
130849,185086,240846,7.928617685100001,1.7084753364,5.6506505699,210
130977,185114,240889,7.928617685100001,1.7084753364,5.6506505699,211
131052,185102,240868,7.928617685100001,1.7084753364,5.6506505699,212
130936,185039,240803,7.928617685100001,1.7084753364,5.6506505699,213
130717,184944,240713,7.928617685100001,1.7084753364,5.6506505699,214
130428,184896,240700,7.928617685100001,1.7084753364,5.6506505699,215
130165,184788,240652,7.928617685100001,1.7084753364,5.6506505699,216
129939,184727,240629,7.928617685100001,1.7084753364,5.6506505699,217
129758,184679,240588,7.928617685100001,1.7084753364,5.6506505699,218
129667,184687,240580,7.928617685100001,1.7084753364,5.6506505699,219
129647,184662,240552,7.928617685100001,1.7084753364,5.6506505699,220
129634,184687,240579,7.928617685100001,1.7084753364,5.6506505699,221
129664,184709,240564,7.928617685100001,1.7084753364,5.6506505699,222
129620,184691,240593,8.0099736535,1.698904046,5.538187907699999,223
129707,184709,240583,8.0099736535,1.698904046,5.538187907699999,224
129852,184722,240577,8.0099736535,1.698904046,5.538187907699999,225
129838,184744,240596,8.0099736535,1.698904046,5.538187907699999,226
129956,184794,240603,8.0099736535,1.698904046,5.538187907699999,227
130025,184801,240617,8.0099736535,1.698904046,5.538187907699999,228
130118,184843,240591,8.0099736535,1.698904046,5.538187907699999,229
130188,184873,240662,7.8149586116,1.7419748528,5.5274202059999995,230
130306,184926,240683,7.8664042975,1.6941184008,5.6458649247,231
130466,184962,240702,7.9621172015,1.8137595308,5.6757752072,232
130639,184958,240709,7.7922267969000005,1.6079767872,5.5848479484,233
130707,185010,240735,7.9716884919,1.6797614652,5.6458649247,234
130790,185032,240746,7.9106715156,1.7694923127,5.599204884000001,235
130686,184965,240670,8.0566336942,1.5936198516,5.679364441100001,236
130395,184829,240617,8.0004023631,1.6510475939999998,5.5800623032,237
130136,184741,240529,8.0339018795,1.7407784414999998,5.647061336,238
129726,184616,240517,7.9956167179,1.6079767872,5.6219366987,239
129405,184581,240444,7.819744256799999,1.6845471104,5.5609197224,240
129173,184476,240396,7.9393853868,1.7048861025,5.665007505499999,241
128999,184445,240357,7.9908310727,1.8173487647,5.647061336,242
128936,184435,240389,7.9669028467,1.6749758199999998,5.4759745201,243
128950,184466,240370,7.9669028467,1.6749758199999998,5.4759745201,244
128963,184466,240386,7.9669028467,1.6749758199999998,5.4759745201,245
128978,184465,240366,7.9669028467,1.6749758199999998,5.4759745201,246
129080,184485,240356,7.9669028467,1.6749758199999998,5.4759745201,247
129025,184490,240374,7.9669028467,1.6749758199999998,5.4759745201,248
129087,184531,240440,7.9669028467,1.6749758199999998,5.4759745201,249
129158,184535,240383,7.9669028467,1.6749758199999998,5.4759745201,250
129228,184586,240411,7.9669028467,1.6749758199999998,5.4759745201,251
129337,184635,240473,7.9669028467,1.6749758199999998,5.4759745201,252
129458,184694,240481,7.9669028467,1.6749758199999998,5.4759745201,253
129544,184679,240497,7.9669028467,1.6749758199999998,5.4759745201,254
129685,184761,240529,7.9669028467,1.6749758199999998,5.4759745201,255
129808,184805,240523,7.9669028467,1.6749758199999998,5.4759745201,256
129916,184831,240572,7.9669028467,1.6749758199999998,5.4759745201,257
129916,184811,240595,7.9669028467,1.6749758199999998,5.4759745201,258
129731,184730,240540,7.9669028467,1.6749758199999998,5.4759745201,259
129387,184638,240470,7.9669028467,1.6749758199999998,5.4759745201,260
129022,184471,240426,7.9669028467,1.6749758199999998,5.4759745201,261
128672,184400,240322,7.968099258,1.7120645703,5.651846981199999,262
128470,184296,240252,7.968099258,1.7120645703,5.651846981199999,263
128277,184299,240263,7.968099258,1.7120645703,5.651846981199999,264
128251,184252,240198,7.915457160799999,1.5900306177,5.6327044004,265
128186,184271,240255,7.858029418399999,1.7180466268,5.5896335936,266
128170,184279,240216,8.0111700648,1.5960126741999998,5.5944192388,267
128149,184305,240216,8.0195449439,1.7084753364,5.5226345608,268
128216,184297,240208,7.8532437732,1.746760498,5.5944192388,269
128196,184321,240242,7.9070822817,1.7790636031,5.5322058512000005,270
128336,184358,240233,7.986045427500001,1.7790636031,5.6697931507,271
128480,184398,240212,8.0542408716,1.6929219895,5.4855458105,272
128428,184419,240303,8.0099736535,1.722832272,5.6841500863,273
128540,184444,240272,7.819744256799999,1.6223337227999999,5.6087761744,274
128638,184502,240314,7.9824561936,1.6761722313,5.570491012800001,275
128796,184530,240339,8.0207413552,1.6510475939999998,5.6566326264,276
128887,184551,240363,7.9298140964,1.6331014245,5.6087761744,277
129105,184614,240400,7.8149586116,1.5984054967999999,5.5561340772,278
129226,184673,240449,7.844868894099999,1.5888342063999998,5.5657053676,279
129199,184654,240429,7.9477602659,1.7563317884,5.5884371823,280
128946,184569,240371,7.992027484,1.8412769907000002,5.5082776252,281
128740,184433,240258,8.0207413552,1.6785650538999999,5.4891350444,282
128238,184279,240175,7.944171031999999,1.6654045296,5.6039905292,283
127819,184124,240119,8.124829138299999,1.6833506991,5.3994041969,284
127616,184029,240033,7.8819576444,1.8221344098999999,5.5657053676,285
127336,183960,239993,7.8388868376,1.6235301341000001,5.5896335936,286
127346,183947,239928,8.0470624038,1.7898313048,5.5334022625,287
127207,183936,239885,8.0195449439,1.6414763036,5.5561340772,288
127336,183937,239909,8.0901332106,1.6331014245,5.5944192388,289
127271,183905,239900,7.9633136127999995,1.6845471104,5.7128639575,290
127261,183899,239893,7.9393853868,1.722832272,5.575276658,291
127277,183901,239883,7.8305119585,1.7216358607,5.6183474648,292
127405,183913,239858,7.9106715156,1.6654045296,5.599204884000001,293
127390,183903,239899,7.9669028467,1.5373885205000002,5.528616617299999,294
127536,183943,239897,7.9190463947000005,1.7742779578999999,5.599204884000001,295
127571,183965,239940,7.872386354,1.7611174336,5.575276658,296
127753,183982,239952,7.896314579999999,1.7503497318999999,5.583651537100001,297
127843,184009,239962,7.8640114749,1.6654045296,5.6566326264,298
128057,184097,239976,7.8640114749,1.6654045296,5.6566326264,299
128114,184111,240008,7.8640114749,1.6654045296,5.6566326264,300
128227,184139,240058,7.8640114749,1.6654045296,5.6566326264,301
128136,184094,239972,7.8640114749,1.6654045296,5.6566326264,302
127812,183954,239925,7.8640114749,1.6654045296,5.6566326264,303
127343,183775,239765,7.8640114749,1.6654045296,5.6566326264,304
126863,183577,239689,7.8640114749,1.6654045296,5.6566326264,305
126430,183421,239571,7.8640114749,1.6654045296,5.6566326264,306
126120,183294,239465,7.8640114749,1.6654045296,5.6566326264,307
125887,183184,239368,7.8640114749,1.6654045296,5.6566326264,308
125834,183186,239394,7.8640114749,1.6654045296,5.6566326264,309
125910,183181,239345,7.8640114749,1.6654045296,5.6566326264,310
125898,183192,239380,7.8640114749,1.6654045296,5.6566326264,311
125947,183214,239358,7.8640114749,1.6654045296,5.6566326264,312
126070,183220,239364,7.972884903200001,1.7312071511,5.5561340772,313
126048,183253,239385,7.972884903200001,1.7312071511,5.5561340772,314
126112,183236,239437,7.972884903200001,1.7312071511,5.5561340772,315
126256,183248,239466,7.972884903200001,1.7312071511,5.5561340772,316
126391,183318,239469,7.972884903200001,1.7312071511,5.5561340772,317
126549,183355,239508,7.972884903200001,1.7312071511,5.5561340772,318
126703,183408,239555,7.972884903200001,1.7312071511,5.5561340772,319
126852,183454,239612,7.972884903200001,1.7312071511,5.5561340772,320
127036,183524,239623,7.972884903200001,1.7312071511,5.5561340772,321
127202,183588,239736,7.972884903200001,1.7312071511,5.5561340772,322
127364,183633,239770,7.972884903200001,1.7312071511,5.5561340772,323
127378,183645,239742,7.972884903200001,1.7312071511,5.5561340772,324
127140,183520,239696,7.972884903200001,1.7312071511,5.5561340772,325
126700,183357,239554,7.972884903200001,1.7312071511,5.5561340772,326
126210,183139,239464,7.972884903200001,1.7312071511,5.5561340772,327
125770,182979,239362,7.972884903200001,1.7312071511,5.5561340772,328
125446,182839,239250,7.972884903200001,1.7312071511,5.5561340772,329
125182,182724,239200,7.972884903200001,1.7312071511,5.5561340772,330
125090,182666,239143,7.972884903200001,1.7312071511,5.5561340772,331
125117,182695,239130,7.972884903200001,1.7312071511,5.5561340772,332
125166,182688,239131,7.972884903200001,1.7312071511,5.5561340772,333
125275,182722,239154,7.972884903200001,1.7312071511,5.5561340772,334
125350,182759,239140,7.972884903200001,1.7312071511,5.5561340772,335
125434,182759,239184,7.972884903200001,1.7312071511,5.5561340772,336
125536,182778,239207,7.972884903200001,1.7312071511,5.5561340772,337
125661,182833,239269,7.972884903200001,1.7312071511,5.5561340772,338
125815,182880,239282,7.972884903200001,1.7312071511,5.5561340772,339
125997,182916,239328,7.972884903200001,1.7312071511,5.5561340772,340
126152,182988,239387,7.972884903200001,1.7312071511,5.5561340772,341
126341,183029,239428,7.972884903200001,1.7312071511,5.5561340772,342
126515,183117,239482,7.972884903200001,1.7312071511,5.5561340772,343
126725,183175,239551,7.972884903200001,1.7312071511,5.5561340772,344
126908,183235,239602,7.972884903200001,1.7312071511,5.5561340772,345
127088,183297,239624,7.972884903200001,1.7312071511,5.5561340772,346
127147,183293,239675,7.972884903200001,1.7312071511,5.5561340772,347
126907,183202,239612,7.972884903200001,1.7312071511,5.5561340772,348
126502,183046,239497,7.972884903200001,1.7312071511,5.5561340772,349
126058,182841,239375,7.972884903200001,1.7312071511,5.5561340772,350
125645,182657,239245,7.972884903200001,1.7312071511,5.5561340772,351
125343,182527,239138,7.972884903200001,1.7312071511,5.5561340772,352
125148,182427,239115,7.972884903200001,1.7312071511,5.5561340772,353
125100,182397,239064,7.972884903200001,1.7312071511,5.5561340772,354
125410,182276,239391,7.915457160799999,1.7001004573,5.570491012800001,355
124955,182109,239294,7.915457160799999,1.7001004573,5.570491012800001,356
124682,182069,239202,7.915457160799999,1.7001004573,5.570491012800001,357
124572,181999,239175,7.915457160799999,1.7001004573,5.570491012800001,358
124664,182000,239153,7.915457160799999,1.7001004573,5.570491012800001,359
124649,182032,239153,7.915457160799999,1.7001004573,5.570491012800001,360
124747,182073,239210,7.915457160799999,1.7001004573,5.570491012800001,361
124792,182096,239206,7.915457160799999,1.7001004573,5.570491012800001,362
124842,182144,239169,7.915457160799999,1.7001004573,5.570491012800001,363
125001,182188,239207,7.915457160799999,1.7001004573,5.570491012800001,364
125151,182217,239239,7.915457160799999,1.7001004573,5.570491012800001,365
125291,182297,239272,7.915457160799999,1.7001004573,5.570491012800001,366
125437,182362,239307,7.915457160799999,1.7001004573,5.570491012800001,367
125673,182423,239363,7.915457160799999,1.7001004573,5.570491012800001,368
125893,182503,239463,7.915457160799999,1.7001004573,5.570491012800001,369
126153,182557,239504,7.915457160799999,1.7001004573,5.570491012800001,370
126301,182654,239585,7.915457160799999,1.7001004573,5.570491012800001,371
126554,182721,239652,7.915457160799999,1.7001004573,5.570491012800001,372
126597,182790,239642,7.915457160799999,1.7001004573,5.570491012800001,373
126592,182765,239717,7.915457160799999,1.7001004573,5.570491012800001,374
126379,182701,239623,7.915457160799999,1.7001004573,5.570491012800001,375
125920,182500,239542,7.915457160799999,1.7001004573,5.570491012800001,376
125435,182342,239460,7.915457160799999,1.7001004573,5.570491012800001,377
125016,182163,239386,7.915457160799999,1.7001004573,5.570491012800001,378
124673,182051,239316,7.915457160799999,1.7001004573,5.570491012800001,379
124449,181959,239260,7.915457160799999,1.7001004573,5.570491012800001,380
124414,181944,239268,7.915457160799999,1.7001004573,5.570491012800001,381
124470,181964,239210,7.915457160799999,1.7001004573,5.570491012800001,382
124573,181994,239247,7.915457160799999,1.7001004573,5.570491012800001,383
124684,182046,239248,7.915457160799999,1.7001004573,5.570491012800001,384
124782,182093,239273,7.915457160799999,1.7001004573,5.570491012800001,385
124888,182127,239325,7.915457160799999,1.7001004573,5.570491012800001,386
125043,182199,239370,7.915457160799999,1.7001004573,5.570491012800001,387
125172,182252,239385,7.915457160799999,1.7001004573,5.570491012800001,388
125374,182331,239431,7.915457160799999,1.7001004573,5.570491012800001,389
125559,182397,239502,7.915457160799999,1.7001004573,5.570491012800001,390
125738,182485,239544,7.915457160799999,1.7001004573,5.570491012800001,391
125949,182556,239641,7.915457160799999,1.7001004573,5.570491012800001,392
126293,182613,239669,7.915457160799999,1.7001004573,5.570491012800001,393
126386,182675,239735,7.915457160799999,1.7001004573,5.570491012800001,394
126572,182794,239771,7.915457160799999,1.7001004573,5.570491012800001,395
126718,182821,239808,7.915457160799999,1.7001004573,5.570491012800001,396
125949,182544,239661,7.9357961529,1.7419748528,5.6315079891,397
126110,182606,239711,7.9357961529,1.7419748528,5.6315079891,398
126378,182672,239757,7.9357961529,1.7419748528,5.6315079891,399
126512,182732,239817,7.9357961529,1.7419748528,5.6315079891,400
126712,182864,239888,7.9357961529,1.7419748528,5.6315079891,401
126966,182937,239932,7.9357961529,1.7419748528,5.6315079891,402
126924,182934,239922,7.9357961529,1.7419748528,5.6315079891,403
126811,182816,239844,7.9357961529,1.7419748528,5.6315079891,404
126302,182621,239768,7.9357961529,1.7419748528,5.6315079891,405
125907,182449,239674,7.9357961529,1.7419748528,5.6315079891,406
125468,182244,239583,7.9357961529,1.7419748528,5.6315079891,407
125154,182109,239464,7.9357961529,1.7419748528,5.6315079891,408
124975,182009,239416,7.9357961529,1.7419748528,5.6315079891,409
124942,181987,239405,7.9357961529,1.7419748528,5.6315079891,410
125000,181990,239414,7.9357961529,1.7419748528,5.6315079891,411
125013,182013,239391,7.9357961529,1.7419748528,5.6315079891,412
125068,182021,239378,7.9357961529,1.7419748528,5.6315079891,413
125120,182037,239417,7.9357961529,1.7419748528,5.6315079891,414
125184,182028,239432,7.9357961529,1.7419748528,5.6315079891,415
125288,182100,239377,7.9357961529,1.7419748528,5.6315079891,416
125398,182115,239403,7.9357961529,1.7419748528,5.6315079891,417
125531,182169,239422,7.9357961529,1.7419748528,5.6315079891,418
125684,182217,239447,7.9357961529,1.7419748528,5.6315079891,419
125847,182276,239537,7.9357961529,1.7419748528,5.6315079891,420
126020,182338,239548,7.9357961529,1.7419748528,5.6315079891,421
126189,182387,239633,7.9357961529,1.7419748528,5.6315079891,422
126360,182472,239660,7.9357961529,1.7419748528,5.6315079891,423
126394,182465,239632,7.9357961529,1.7419748528,5.6315079891,424
126158,182373,239598,7.9357961529,1.7419748528,5.6315079891,425
125682,182158,239503,7.9357961529,1.7419748528,5.6315079891,426
125157,181972,239329,7.9357961529,1.7419748528,5.6315079891,427
124718,181763,239266,7.9357961529,1.7419748528,5.6315079891,428
124339,181585,239173,7.9357961529,1.7419748528,5.6315079891,429
124070,181434,239098,7.9357961529,1.7419748528,5.6315079891,430
123945,181378,239051,7.9357961529,1.7419748528,5.6315079891,431
123995,181433,239014,7.9357961529,1.7419748528,5.6315079891,432
124036,181440,239037,7.9357961529,1.7419748528,5.6315079891,433
124143,181467,239026,7.9357961529,1.7419748528,5.6315079891,434
124251,181513,239014,7.9357961529,1.7419748528,5.6315079891,435
124353,181564,239018,7.9357961529,1.7419748528,5.6315079891,436
124487,181618,239047,7.9357961529,1.7419748528,5.6315079891,437
124617,181626,239113,7.9357961529,1.7419748528,5.6315079891,438
126348,181872,239213,7.9489566772,1.6761722313,5.5046883913,439
126557,181950,239287,7.9489566772,1.6761722313,5.5046883913,440
126770,182078,239266,7.9489566772,1.6761722313,5.5046883913,441
126807,182017,239295,7.9489566772,1.6761722313,5.5046883913,442
126358,181854,239195,7.9489566772,1.6761722313,5.5046883913,443
126046,181645,239140,7.9489566772,1.6761722313,5.5046883913,444
125702,181431,238969,7.9489566772,1.6761722313,5.5046883913,445
125373,181278,238875,7.9489566772,1.6761722313,5.5046883913,446
125062,181173,238796,7.9489566772,1.6761722313,5.5046883913,447
124985,181116,238746,7.9489566772,1.6761722313,5.5046883913,448
124998,181145,238758,7.9489566772,1.6761722313,5.5046883913,449
125172,181208,238760,7.9489566772,1.6761722313,5.5046883913,450
125250,181222,238772,7.9489566772,1.6761722313,5.5046883913,451
125237,181247,238752,7.9489566772,1.6761722313,5.5046883913,452
125381,181305,238760,7.9489566772,1.6761722313,5.5046883913,453
125442,181385,238864,7.9489566772,1.6761722313,5.5046883913,454
125627,181452,238926,7.9489566772,1.6761722313,5.5046883913,455
125806,181521,238982,7.9489566772,1.6761722313,5.5046883913,456
125995,181637,239043,7.9489566772,1.6761722313,5.5046883913,457
126077,181703,239059,7.9489566772,1.6761722313,5.5046883913,458
126253,181802,239154,7.9489566772,1.6761722313,5.5046883913,459
126453,181889,239216,7.9489566772,1.6761722313,5.5046883913,460
126666,181976,239245,7.9489566772,1.6761722313,5.5046883913,461
126851,182094,239300,7.9489566772,1.6761722313,5.5046883913,462
127053,182159,239335,7.9489566772,1.6761722313,5.5046883913,463
127221,182267,239381,7.9489566772,1.6761722313,5.5046883913,464
127253,182293,239416,7.9489566772,1.6761722313,5.5046883913,465
127151,182223,239363,7.9489566772,1.6761722313,5.5046883913,466
126800,182048,239291,7.9489566772,1.6761722313,5.5046883913,467
126500,181866,239147,7.9489566772,1.6761722313,5.5046883913,468
126217,181774,239112,7.9489566772,1.6761722313,5.5046883913,469
125992,181643,239005,7.9489566772,1.6761722313,5.5046883913,470
125898,181577,238968,7.9489566772,1.6761722313,5.5046883913,471
125898,181566,238932,7.9489566772,1.6761722313,5.5046883913,472
125978,181607,239019,7.9489566772,1.6761722313,5.5046883913,473
126055,181681,239022,7.9489566772,1.6761722313,5.5046883913,474
126101,181733,239044,7.9489566772,1.6761722313,5.5046883913,475
126188,181764,239028,7.9489566772,1.6761722313,5.5046883913,476
126271,181835,239081,7.9489566772,1.6761722313,5.5046883913,477
126391,181838,239130,7.9489566772,1.6761722313,5.5046883913,478
126521,181926,239121,7.9489566772,1.6761722313,5.5046883913,479
126640,181982,239231,7.9489566772,1.6761722313,5.5046883913,480
126558,181802,239024,7.8077801438000005,1.603191142,5.6458649247,481
126519,181823,239024,7.8077801438000005,1.603191142,5.6458649247,482
126695,181819,239055,7.8077801438000005,1.603191142,5.6458649247,483
126740,181863,239087,7.8077801438000005,1.603191142,5.6458649247,484
126799,181903,239102,7.8077801438000005,1.603191142,5.6458649247,485
126860,181953,239136,7.8077801438000005,1.603191142,5.6458649247,486
127073,181980,239161,7.8077801438000005,1.603191142,5.6458649247,487
127223,182055,239246,7.8077801438000005,1.603191142,5.6458649247,488
127357,182120,239289,7.8077801438000005,1.603191142,5.6458649247,489
127458,182182,239344,7.8077801438000005,1.603191142,5.6458649247,490
127574,182287,239369,7.8077801438000005,1.603191142,5.6458649247,491
127797,182357,239428,7.8077801438000005,1.603191142,5.6458649247,492
127843,182374,239440,7.8077801438000005,1.603191142,5.6458649247,493
127799,182352,239433,8.0901332106,1.7599210223,5.651846981199999,494
127444,182185,239264,8.0901332106,1.7599210223,5.651846981199999,495
127073,181971,239177,8.0901332106,1.7599210223,5.651846981199999,496
126716,181763,239063,8.0901332106,1.7599210223,5.651846981199999,497
126395,181605,238975,8.0901332106,1.7599210223,5.651846981199999,498
126148,181481,238864,8.0901332106,1.7599210223,5.651846981199999,499
125984,181431,238823,8.0901332106,1.7599210223,5.651846981199999,500
125978,181454,238788,8.0901332106,1.7599210223,5.651846981199999,501
125970,181471,238741,8.0901332106,1.7599210223,5.651846981199999,502
126029,181536,238796,8.0901332106,1.7599210223,5.651846981199999,503
126042,181565,238837,8.0901332106,1.7599210223,5.651846981199999,504
126137,181594,238830,8.0901332106,1.7599210223,5.651846981199999,505
126212,181615,238892,8.0901332106,1.7599210223,5.651846981199999,506
126284,181715,238914,8.0901332106,1.7599210223,5.651846981199999,507
126422,181729,238948,8.0901332106,1.7599210223,5.651846981199999,508
126531,181832,238995,8.0901332106,1.7599210223,5.651846981199999,509
126677,181912,239088,8.0901332106,1.7599210223,5.651846981199999,510
126818,181965,239117,8.0901332106,1.7599210223,5.651846981199999,511
126977,182065,239179,8.0901332106,1.7599210223,5.651846981199999,512
127137,182139,239227,8.137989662599999,1.6414763036,5.6087761744,513
127291,182243,239267,8.137989662599999,1.6414763036,5.6087761744,514
127481,182328,239353,8.137989662599999,1.6414763036,5.6087761744,515
127547,182339,239359,8.137989662599999,1.6414763036,5.6087761744,516
127448,182349,239343,8.137989662599999,1.6414763036,5.6087761744,517
127168,182213,239238,8.137989662599999,1.6414763036,5.6087761744,518
126786,181996,239075,8.137989662599999,1.6414763036,5.6087761744,519
126362,181776,238995,8.137989662599999,1.6414763036,5.6087761744,520
125986,181593,238800,8.137989662599999,1.6414763036,5.6087761744,521
125653,181471,238800,8.137989662599999,1.6414763036,5.6087761744,522
125430,181408,238680,8.137989662599999,1.6414763036,5.6087761744,523
125370,181400,238724,8.137989662599999,1.6414763036,5.6087761744,524
125356,181462,238725,8.137989662599999,1.6414763036,5.6087761744,525
125390,181501,238739,8.137989662599999,1.6414763036,5.6087761744,526
125413,181507,238743,8.137989662599999,1.6414763036,5.6087761744,527
125473,181542,238776,8.137989662599999,1.6414763036,5.6087761744,528
125518,181604,238803,8.137989662599999,1.6414763036,5.6087761744,529
125621,181655,238817,8.137989662599999,1.6414763036,5.6087761744,530
125705,181697,238917,8.137989662599999,1.6414763036,5.6087761744,531
125797,181785,238959,8.137989662599999,1.6414763036,5.6087761744,532
125984,181853,239041,8.137989662599999,1.6414763036,5.6087761744,533
126127,181938,239111,8.137989662599999,1.6414763036,5.6087761744,534
126299,182024,239146,8.137989662599999,1.6414763036,5.6087761744,535
126454,182098,239232,8.137989662599999,1.6414763036,5.6087761744,536
126632,182163,239232,8.137989662599999,1.6414763036,5.6087761744,537
126817,182294,239298,8.137989662599999,1.6414763036,5.6087761744,538
126970,182341,239312,8.137989662599999,1.6414763036,5.6087761744,539
127058,182399,239350,8.137989662599999,1.6414763036,5.6087761744,540
126914,182347,239326,8.137989662599999,1.6414763036,5.6087761744,541
126582,182151,239263,8.137989662599999,1.6414763036,5.6087761744,542
126168,181944,239139,8.137989662599999,1.6414763036,5.6087761744,543
125740,181790,239024,8.137989662599999,1.6414763036,5.6087761744,544
125375,181631,238968,8.137989662599999,1.6414763036,5.6087761744,545
125106,181516,238849,8.137989662599999,1.6414763036,5.6087761744,546
124986,181485,238826,8.137989662599999,1.6414763036,5.6087761744,547
124956,181483,238823,8.137989662599999,1.6414763036,5.6087761744,548
124988,181529,238822,8.137989662599999,1.6414763036,5.6087761744,549
125053,181550,238809,8.137989662599999,1.6414763036,5.6087761744,550
125041,181593,238871,8.0530444603,1.7742779578999999,5.599204884000001,551
125182,181639,238848,8.0530444603,1.7742779578999999,5.599204884000001,552
125235,181647,238927,8.0530444603,1.7742779578999999,5.599204884000001,553
125435,181752,239014,8.0530444603,1.7742779578999999,5.599204884000001,554
125507,181817,239031,8.0530444603,1.7742779578999999,5.599204884000001,555
125692,181888,239109,8.0530444603,1.7742779578999999,5.599204884000001,556
125911,181956,239167,8.0530444603,1.7742779578999999,5.599204884000001,557
126109,182028,239249,8.0530444603,1.7742779578999999,5.599204884000001,558
126229,182118,239266,8.0530444603,1.7742779578999999,5.599204884000001,559
126424,182240,239349,8.0530444603,1.7742779578999999,5.599204884000001,560
126633,182317,239381,8.0530444603,1.7742779578999999,5.599204884000001,561
126788,182399,239427,8.0530444603,1.7742779578999999,5.599204884000001,562
126998,182492,239557,8.0530444603,1.7742779578999999,5.599204884000001,563
127163,182575,239557,8.0530444603,1.7742779578999999,5.599204884000001,564
127149,182568,239592,8.0530444603,1.7742779578999999,5.599204884000001,565
126926,182500,239571,8.0530444603,1.7742779578999999,5.599204884000001,566
126541,182296,239449,8.0530444603,1.7742779578999999,5.599204884000001,567
126193,182125,239333,8.0530444603,1.7742779578999999,5.599204884000001,568
125866,182009,239266,8.0530444603,1.7742779578999999,5.599204884000001,569
125597,181877,239209,8.0530444603,1.7742779578999999,5.599204884000001,570
125495,181828,239143,8.0530444603,1.7742779578999999,5.599204884000001,571
125483,181808,239170,8.0530444603,1.7742779578999999,5.599204884000001,572
125539,181883,239203,8.0530444603,1.7742779578999999,5.599204884000001,573
125576,181922,239198,8.0530444603,1.7742779578999999,5.599204884000001,574
125686,181941,239252,8.0530444603,1.7742779578999999,5.599204884000001,575
125723,181986,239256,8.0530444603,1.7742779578999999,5.599204884000001,576
125841,182032,239290,8.0530444603,1.7742779578999999,5.599204884000001,577
125979,182069,239313,8.0530444603,1.7742779578999999,5.599204884000001,578
126120,182148,239405,8.0530444603,1.7742779578999999,5.599204884000001,579
126271,182237,239443,8.0530444603,1.7742779578999999,5.599204884000001,580
126433,182305,239511,8.0530444603,1.7742779578999999,5.599204884000001,581
126597,182351,239587,8.0530444603,1.7742779578999999,5.599204884000001,582
126797,182415,239613,8.0530444603,1.7742779578999999,5.599204884000001,583
126956,182520,239672,8.0530444603,1.7742779578999999,5.599204884000001,584
127174,182610,239782,8.0530444603,1.7742779578999999,5.599204884000001,585
127350,182661,239798,8.0530444603,1.7742779578999999,5.599204884000001,586
127497,182772,239850,8.0530444603,1.7742779578999999,5.599204884000001,587
127502,182792,239898,8.0530444603,1.7742779578999999,5.599204884000001,588
127308,182694,239810,8.0530444603,1.7742779578999999,5.599204884000001,589
127061,182540,239758,7.9262248625,1.7264215058999999,5.7128639575,590
126642,182372,239649,7.9262248625,1.7264215058999999,5.7128639575,591
126371,182265,239553,7.9262248625,1.7264215058999999,5.7128639575,592
126121,182186,239504,7.9262248625,1.7264215058999999,5.7128639575,593
126062,182099,239469,7.9262248625,1.7264215058999999,5.7128639575,594
126079,182127,239483,7.9262248625,1.7264215058999999,5.7128639575,595
126225,182174,239494,7.9262248625,1.7264215058999999,5.7128639575,596
126218,182184,239484,7.9262248625,1.7264215058999999,5.7128639575,597
126276,182178,239526,7.9262248625,1.7264215058999999,5.7128639575,598
126328,182195,239490,7.9262248625,1.7264215058999999,5.7128639575,599
126389,182227,239551,7.9262248625,1.7264215058999999,5.7128639575,600
126488,182249,239557,7.9262248625,1.7264215058999999,5.7128639575,601
126569,182265,239583,7.9262248625,1.7264215058999999,5.7128639575,602
126680,182312,239639,7.9262248625,1.7264215058999999,5.7128639575,603
126911,182363,239665,7.9262248625,1.7264215058999999,5.7128639575,604
126977,182413,239721,7.9262248625,1.7264215058999999,5.7128639575,605
127136,182515,239740,7.9262248625,1.7264215058999999,5.7128639575,606
127261,182526,239821,7.9262248625,1.7264215058999999,5.7128639575,607
127446,182576,239843,7.9262248625,1.7264215058999999,5.7128639575,608
127538,182625,239899,7.9262248625,1.7264215058999999,5.7128639575,609
127472,182618,239885,7.9262248625,1.7264215058999999,5.7128639575,610
127151,182490,239778,7.9262248625,1.7264215058999999,5.7128639575,611
126708,182313,239647,7.9262248625,1.7264215058999999,5.7128639575,612
126217,182084,239565,7.9262248625,1.7264215058999999,5.7128639575,613
125885,181928,239451,7.9262248625,1.7264215058999999,5.7128639575,614
125589,181806,239391,7.9262248625,1.7264215058999999,5.7128639575,615
125437,181738,239359,7.9262248625,1.7264215058999999,5.7128639575,616
125405,181766,239339,7.9262248625,1.7264215058999999,5.7128639575,617
125420,181784,239329,7.9262248625,1.7264215058999999,5.7128639575,618
125474,181821,239383,7.9262248625,1.7264215058999999,5.7128639575,619
125514,181847,239413,7.9262248625,1.7264215058999999,5.7128639575,620
125593,181863,239403,7.9262248625,1.7264215058999999,5.7128639575,621
125688,181917,239423,7.9262248625,1.7264215058999999,5.7128639575,622
125797,181951,239402,7.9262248625,1.7264215058999999,5.7128639575,623
125925,182029,239488,7.9262248625,1.7264215058999999,5.7128639575,624
126072,182070,239516,7.9262248625,1.7264215058999999,5.7128639575,625
126229,182124,239578,7.9262248625,1.7264215058999999,5.7128639575,626
126408,182184,239613,7.9262248625,1.7264215058999999,5.7128639575,627
126589,182273,239645,7.9262248625,1.7264215058999999,5.7128639575,628
126755,182363,239754,7.9262248625,1.7264215058999999,5.7128639575,629
126937,182417,239781,7.9262248625,1.7264215058999999,5.7128639575,630
127076,182467,239847,7.9262248625,1.7264215058999999,5.7128639575,631
124361,181449,239187,7.9477602659,1.7838492483,5.4699924636,632
124245,181450,239154,7.9477602659,1.7838492483,5.4699924636,633
124286,181429,239120,7.9477602659,1.7838492483,5.4699924636,634
124355,181522,239184,7.9477602659,1.7838492483,5.4699924636,635
124484,181540,239219,7.9477602659,1.7838492483,5.4699924636,636
124556,181577,239239,7.9477602659,1.7838492483,5.4699924636,637
124681,181611,239288,7.9477602659,1.7838492483,5.4699924636,638
124869,181683,239300,7.9477602659,1.7838492483,5.4699924636,639
124964,181743,239360,7.9477602659,1.7838492483,5.4699924636,640
125118,181853,239389,7.9477602659,1.7838492483,5.4699924636,641
125411,181930,239550,7.9477602659,1.7838492483,5.4699924636,642
125637,181972,239561,7.9477602659,1.7838492483,5.4699924636,643
125697,182061,239610,7.9477602659,1.7838492483,5.4699924636,644
125908,182151,239632,7.9477602659,1.7838492483,5.4699924636,645
126089,182220,239716,7.9477602659,1.7838492483,5.4699924636,646
126313,182320,239769,7.9477602659,1.7838492483,5.4699924636,647
126466,182382,239798,7.9477602659,1.7838492483,5.4699924636,648
126408,182406,239789,7.9477602659,1.7838492483,5.4699924636,649
126109,182311,239719,7.9477602659,1.7838492483,5.4699924636,650
125666,182148,239626,7.9477602659,1.7838492483,5.4699924636,651
125254,181997,239571,7.9477602659,1.7838492483,5.4699924636,652
124933,181891,239501,7.9477602659,1.7838492483,5.4699924636,653
124699,181822,239471,7.9477602659,1.7838492483,5.4699924636,654
124618,181780,239436,7.9477602659,1.7838492483,5.4699924636,655
124672,181809,239424,7.9477602659,1.7838492483,5.4699924636,656
124788,181809,239452,7.9477602659,1.7838492483,5.4699924636,657
124876,181903,239512,7.9477602659,1.7838492483,5.4699924636,658
125021,181932,239480,7.9477602659,1.7838492483,5.4699924636,659
125141,181976,239540,7.9477602659,1.7838492483,5.4699924636,660
125297,182019,239585,7.9477602659,1.7838492483,5.4699924636,661
125442,182098,239618,7.9477602659,1.7838492483,5.4699924636,662
125618,182189,239678,7.9477602659,1.7838492483,5.4699924636,663
125828,182246,239715,7.9477602659,1.7838492483,5.4699924636,664
126026,182319,239792,7.9477602659,1.7838492483,5.4699924636,665
126253,182408,239835,7.9477602659,1.7838492483,5.4699924636,666
126449,182508,239905,7.9477602659,1.7838492483,5.4699924636,667
126665,182579,239915,7.9477602659,1.7838492483,5.4699924636,668
126880,182683,239974,7.9477602659,1.7838492483,5.4699924636,669
127060,182782,240066,7.9477602659,1.7838492483,5.4699924636,670
127037,182828,240070,7.9477602659,1.7838492483,5.4699924636,671
126805,182768,240049,7.9477602659,1.7838492483,5.4699924636,672
126490,182647,239937,7.9477602659,1.7838492483,5.4699924636,673
127744,183377,240481,7.9585279676,1.7180466268,5.6458649247,674
128034,183435,240563,7.9585279676,1.7180466268,5.6458649247,675
128000,183418,240518,7.9585279676,1.7180466268,5.6458649247,676
127832,183299,240418,7.9585279676,1.7180466268,5.6458649247,677
127503,183166,240357,7.9585279676,1.7180466268,5.6458649247,678
127107,182983,240228,7.9585279676,1.7180466268,5.6458649247,679
126852,182856,240181,7.9585279676,1.7180466268,5.6458649247,680
126607,182745,240125,7.9585279676,1.7180466268,5.6458649247,681
126510,182643,240060,7.9585279676,1.7180466268,5.6458649247,682
126581,182651,240029,7.9585279676,1.7180466268,5.6458649247,683
126563,182637,240044,7.9585279676,1.7180466268,5.6458649247,684
126626,182644,240042,7.9585279676,1.7180466268,5.6458649247,685
126662,182657,240025,7.9585279676,1.7180466268,5.6458649247,686
126752,182706,240033,7.9585279676,1.7180466268,5.6458649247,687
126846,182733,240080,7.9585279676,1.7180466268,5.6458649247,688
126942,182757,240093,7.9585279676,1.7180466268,5.6458649247,689
127072,182768,240159,7.9585279676,1.7180466268,5.6458649247,690
127235,182844,240169,7.9585279676,1.7180466268,5.6458649247,691
127380,182875,240180,7.9585279676,1.7180466268,5.6458649247,692
127539,182937,240229,7.9585279676,1.7180466268,5.6458649247,693
127693,182966,240267,7.9585279676,1.7180466268,5.6458649247,694
127876,183056,240323,7.9585279676,1.7180466268,5.6458649247,695
128012,183099,240358,7.9585279676,1.7180466268,5.6458649247,696
128003,183058,240336,7.9585279676,1.7180466268,5.6458649247,697
127742,182957,240262,7.9585279676,1.7180466268,5.6458649247,698
127334,182765,240150,7.9585279676,1.7180466268,5.6458649247,699
126898,182616,240023,7.9585279676,1.7180466268,5.6458649247,700
126522,182458,239923,7.9585279676,1.7180466268,5.6458649247,701
126186,182321,239861,7.9585279676,1.7180466268,5.6458649247,702
125987,182239,239827,7.9585279676,1.7180466268,5.6458649247,703
125940,182231,239812,7.9585279676,1.7180466268,5.6458649247,704
125957,182257,239795,7.9585279676,1.7180466268,5.6458649247,705
126028,182290,239812,7.9585279676,1.7180466268,5.6458649247,706
126122,182349,239829,7.9585279676,1.7180466268,5.6458649247,707
126219,182379,239802,7.9585279676,1.7180466268,5.6458649247,708
126327,182400,239806,7.9585279676,1.7180466268,5.6458649247,709
126458,182471,239913,7.9585279676,1.7180466268,5.6458649247,710
126606,182504,239949,7.9585279676,1.7180466268,5.6458649247,711
126783,182569,239977,7.9585279676,1.7180466268,5.6458649247,712
126948,182641,240034,7.9585279676,1.7180466268,5.6458649247,713
127136,182751,240098,7.9585279676,1.7180466268,5.6458649247,714
127336,182825,240147,7.9585279676,1.7180466268,5.6458649247,715
128591,183669,240533,8.0913296219,1.7503497318999999,5.479563754,716
128377,183664,240508,8.0913296219,1.7503497318999999,5.479563754,717
128174,183624,240453,8.0913296219,1.7503497318999999,5.479563754,718
128000,183640,240383,8.0913296219,1.7503497318999999,5.479563754,719
127920,183608,240406,8.0913296219,1.7503497318999999,5.479563754,720
127882,183660,240417,8.0913296219,1.7503497318999999,5.479563754,721
127851,183674,240441,8.0913296219,1.7503497318999999,5.479563754,722
127945,183733,240492,8.0913296219,1.7503497318999999,5.479563754,723
128083,183795,240490,8.0913296219,1.7503497318999999,5.479563754,724
128157,183838,240547,8.0913296219,1.7503497318999999,5.479563754,725
128326,183887,240587,8.0913296219,1.7503497318999999,5.479563754,726
128492,183961,240589,8.0913296219,1.7503497318999999,5.479563754,727
128632,184034,240622,8.0913296219,1.7503497318999999,5.479563754,728
128815,184092,240695,8.0913296219,1.7503497318999999,5.479563754,729
128964,184166,240721,8.0913296219,1.7503497318999999,5.479563754,730
129155,184229,240775,8.0913296219,1.7503497318999999,5.479563754,731
129326,184296,240847,8.0913296219,1.7503497318999999,5.479563754,732
129507,184367,240836,8.0913296219,1.7503497318999999,5.479563754,733
129702,184423,240912,8.0913296219,1.7503497318999999,5.479563754,734
129899,184531,240931,8.0913296219,1.7503497318999999,5.479563754,735
130084,184586,240971,8.0913296219,1.7503497318999999,5.479563754,736
130291,184690,241038,8.0913296219,1.7503497318999999,5.479563754,737
130442,184782,241085,8.0913296219,1.7503497318999999,5.479563754,738
130487,184781,241115,8.0913296219,1.7503497318999999,5.479563754,739
130414,184757,241118,8.0913296219,1.7503497318999999,5.479563754,740
130321,184762,241098,8.0913296219,1.7503497318999999,5.479563754,741
130220,184763,241128,8.0913296219,1.7503497318999999,5.479563754,742
130158,184753,241094,8.0913296219,1.7503497318999999,5.479563754,743
130106,184814,241104,8.0913296219,1.7503497318999999,5.479563754,744
130162,184852,241141,8.0913296219,1.7503497318999999,5.479563754,745
130187,184925,241201,8.0913296219,1.7503497318999999,5.479563754,746
130311,184916,241203,8.0913296219,1.7503497318999999,5.479563754,747
130404,184994,241195,8.0913296219,1.7503497318999999,5.479563754,748
130496,185005,241237,8.0913296219,1.7503497318999999,5.479563754,749
130604,185093,241298,8.0913296219,1.7503497318999999,5.479563754,750
130708,185154,241300,8.0913296219,1.7503497318999999,5.479563754,751
130848,185161,241318,8.0913296219,1.7503497318999999,5.479563754,752
130970,185258,241348,8.0913296219,1.7503497318999999,5.479563754,753
131051,185310,241402,7.9621172015,1.7180466268,5.5597233111,754
131292,185335,241415,7.9621172015,1.7180466268,5.5597233111,755
131371,185378,241476,7.9621172015,1.7180466268,5.5597233111,756
131592,185411,241536,7.9621172015,1.7180466268,5.5597233111,757
131785,185529,241555,7.9621172015,1.7180466268,5.5597233111,758
131953,185586,241577,7.9621172015,1.7180466268,5.5597233111,759
131993,185588,241613,7.9621172015,1.7180466268,5.5597233111,760
132010,185567,241570,7.9621172015,1.7180466268,5.5597233111,761
131970,185500,241553,7.9621172015,1.7180466268,5.5597233111,762
131897,185468,241522,7.9621172015,1.7180466268,5.5597233111,763
131808,185427,241509,7.9621172015,1.7180466268,5.5597233111,764
131738,185456,241475,7.9621172015,1.7180466268,5.5597233111,765
131719,185457,241484,7.9621172015,1.7180466268,5.5597233111,766
131753,185459,241462,7.9621172015,1.7180466268,5.5597233111,767
131792,185472,241481,7.9621172015,1.7180466268,5.5597233111,768
131851,185497,241481,7.9621172015,1.7180466268,5.5597233111,769
131912,185509,241494,7.9621172015,1.7180466268,5.5597233111,770
131994,185511,241507,7.9621172015,1.7180466268,5.5597233111,771
132057,185550,241508,7.9621172015,1.7180466268,5.5597233111,772
132143,185544,241498,7.9621172015,1.7180466268,5.5597233111,773
132240,185562,241596,7.9621172015,1.7180466268,5.5597233111,774
132339,185614,241545,7.9621172015,1.7180466268,5.5597233111,775
132422,185619,241571,7.9621172015,1.7180466268,5.5597233111,776
132543,185651,241573,7.9621172015,1.7180466268,5.5597233111,777
132655,185692,241605,7.9621172015,1.7180466268,5.5597233111,778
132778,185712,241623,7.9621172015,1.7180466268,5.5597233111,779
132902,185774,241613,7.9621172015,1.7180466268,5.5597233111,780
133027,185802,241674,7.9621172015,1.7180466268,5.5597233111,781
133079,185776,241627,7.9621172015,1.7180466268,5.5597233111,782
133058,185736,241581,7.9621172015,1.7180466268,5.5597233111,783
132957,185641,241572,7.9621172015,1.7180466268,5.5597233111,784
132798,185633,241544,7.9621172015,1.7180466268,5.5597233111,785
132651,185597,241503,7.9621172015,1.7180466268,5.5597233111,786
132491,185610,241530,7.9621172015,1.7180466268,5.5597233111,787
132383,185617,241502,7.9621172015,1.7180466268,5.5597233111,788
132341,185614,241522,7.9621172015,1.7180466268,5.5597233111,789
132330,185630,241527,7.9621172015,1.7180466268,5.5597233111,790
132367,185674,241556,7.9621172015,1.7180466268,5.5597233111,791
132404,185631,241463,7.9621172015,1.7180466268,5.5597233111,792
132412,185654,241512,7.9621172015,1.7180466268,5.5597233111,793
132462,185697,241507,7.9621172015,1.7180466268,5.5597233111,794
132476,185679,241486,7.9621172015,1.7180466268,5.5597233111,795
126511,184363,240430,8.0195449439,1.7563317884,5.551348432,796
126554,184379,240400,8.0195449439,1.7563317884,5.551348432,797
126606,184339,240406,8.0195449439,1.7563317884,5.551348432,798
126757,184349,240438,8.0195449439,1.7563317884,5.551348432,799
126864,184346,240415,8.0195449439,1.7563317884,5.551348432,800
126888,184371,240416,8.0195449439,1.7563317884,5.551348432,801
127133,184397,240469,8.0195449439,1.7563317884,5.551348432,802
127274,184450,240445,8.0195449439,1.7563317884,5.551348432,803
127492,184469,240516,8.0195449439,1.7563317884,5.551348432,804
127487,184486,240480,8.0195449439,1.7563317884,5.551348432,805
127691,184536,240554,8.0195449439,1.7563317884,5.551348432,806
127845,184547,240541,8.0195449439,1.7563317884,5.551348432,807
127705,184466,240469,8.0195449439,1.7563317884,5.551348432,808
127415,184310,240363,8.0195449439,1.7563317884,5.551348432,809
126879,184156,240278,8.0195449439,1.7563317884,5.551348432,810
126469,183961,240166,8.0195449439,1.7563317884,5.551348432,811
126138,183824,240014,8.0195449439,1.7563317884,5.551348432,812
125691,183690,239929,8.0195449439,1.7563317884,5.551348432,813
125458,183629,239860,8.0195449439,1.7563317884,5.551348432,814
125392,183597,239836,8.0195449439,1.7563317884,5.551348432,815
125476,183579,239820,8.0195449439,1.7563317884,5.551348432,816
125502,183578,239773,8.0195449439,1.7563317884,5.551348432,817
125561,183575,239843,8.0195449439,1.7563317884,5.551348432,818
125633,183578,239785,8.0195449439,1.7563317884,5.551348432,819
125706,183593,239837,8.0195449439,1.7563317884,5.551348432,820
125834,183631,239797,8.0195449439,1.7563317884,5.551348432,821
125957,183643,239872,8.0195449439,1.7563317884,5.551348432,822
126106,183704,239836,8.0195449439,1.7563317884,5.551348432,823
126284,183748,239901,8.0195449439,1.7563317884,5.551348432,824
126438,183766,239963,8.0195449439,1.7563317884,5.551348432,825
126611,183804,239964,8.0195449439,1.7563317884,5.551348432,826
126798,183854,240018,8.0195449439,1.7563317884,5.551348432,827
127000,183923,240030,8.0195449439,1.7563317884,5.551348432,828
127133,183956,240073,8.0195449439,1.7563317884,5.551348432,829
127103,183886,240070,8.0195449439,1.7563317884,5.551348432,830
126830,183800,240015,8.0195449439,1.7563317884,5.551348432,831
126377,183599,239924,8.0195449439,1.7563317884,5.551348432,832
125930,183423,239781,8.0195449439,1.7563317884,5.551348432,833
125499,183244,239661,8.0195449439,1.7563317884,5.551348432,834
125178,183085,239601,8.0195449439,1.7563317884,5.551348432,835
124999,183022,239509,8.0195449439,1.7563317884,5.551348432,836
124922,183019,239473,8.0195449439,1.7563317884,5.551348432,837
125605,182803,239554,8.005188008300001,1.5469598109,5.5800623032,838
125877,182848,239609,8.005188008300001,1.5469598109,5.5800623032,839
125936,182895,239626,8.005188008300001,1.5469598109,5.5800623032,840
126087,182934,239688,8.005188008300001,1.5469598109,5.5800623032,841
126229,182997,239709,8.005188008300001,1.5469598109,5.5800623032,842
126419,183068,239785,8.005188008300001,1.5469598109,5.5800623032,843
126594,183135,239824,8.005188008300001,1.5469598109,5.5800623032,844
126746,183188,239838,8.005188008300001,1.5469598109,5.5800623032,845
126963,183262,239953,8.005188008300001,1.5469598109,5.5800623032,846
127159,183349,239960,8.005188008300001,1.5469598109,5.5800623032,847
127280,183382,240006,8.005188008300001,1.5469598109,5.5800623032,848
127244,183373,240001,8.005188008300001,1.5469598109,5.5800623032,849
126908,183212,239879,8.005188008300001,1.5469598109,5.5800623032,850
126449,183013,239769,8.005188008300001,1.5469598109,5.5800623032,851
126135,182837,239673,8.005188008300001,1.5469598109,5.5800623032,852
125753,182705,239575,8.005188008300001,1.5469598109,5.5800623032,853
125537,182593,239545,8.005188008300001,1.5469598109,5.5800623032,854
125462,182555,239431,8.005188008300001,1.5469598109,5.5800623032,855
125462,182540,239463,8.005188008300001,1.5469598109,5.5800623032,856
125522,182570,239416,8.005188008300001,1.5469598109,5.5800623032,857
125585,182579,239451,8.005188008300001,1.5469598109,5.5800623032,858
125627,182599,239446,8.005188008300001,1.5469598109,5.5800623032,859
125695,182602,239474,8.005188008300001,1.5469598109,5.5800623032,860
125774,182601,239462,8.005188008300001,1.5469598109,5.5800623032,861
125884,182686,239497,8.005188008300001,1.5469598109,5.5800623032,862
125995,182689,239498,8.005188008300001,1.5469598109,5.5800623032,863
126148,182742,239575,8.005188008300001,1.5469598109,5.5800623032,864
126288,182811,239629,8.005188008300001,1.5469598109,5.5800623032,865
126451,182848,239669,8.005188008300001,1.5469598109,5.5800623032,866
126625,182923,239644,8.005188008300001,1.5469598109,5.5800623032,867
126781,182972,239764,8.005188008300001,1.5469598109,5.5800623032,868
126962,183035,239751,8.005188008300001,1.5469598109,5.5800623032,869
127005,183031,239809,8.005188008300001,1.5469598109,5.5800623032,870
126740,182948,239742,8.005188008300001,1.5469598109,5.5800623032,871
126307,182746,239647,8.005188008300001,1.5469598109,5.5800623032,872
125804,182531,239497,8.005188008300001,1.5469598109,5.5800623032,873
125337,182357,239393,8.005188008300001,1.5469598109,5.5800623032,874
124937,182186,239316,8.005188008300001,1.5469598109,5.5800623032,875
124665,182105,239216,8.005188008300001,1.5469598109,5.5800623032,876
124564,182031,239173,8.005188008300001,1.5469598109,5.5800623032,877
124561,182028,239159,8.005188008300001,1.5469598109,5.5800623032,878
124629,182069,239161,8.005188008300001,1.5469598109,5.5800623032,879
124868,182107,239134,7.9381889755,1.698904046,5.5046883913,880
125015,182155,239234,7.9381889755,1.698904046,5.5046883913,881
125241,182262,239240,7.9381889755,1.698904046,5.5046883913,882
125502,182313,239281,7.9381889755,1.698904046,5.5046883913,883
125587,182397,239346,7.9381889755,1.698904046,5.5046883913,884
125847,182470,239449,7.9381889755,1.698904046,5.5046883913,885
126056,182555,239478,7.9381889755,1.698904046,5.5046883913,886
126178,182615,239477,7.9381889755,1.698904046,5.5046883913,887
126232,182643,239525,7.9381889755,1.698904046,5.5046883913,888
125901,182517,239443,7.9381889755,1.698904046,5.5046883913,889
125482,182336,239322,7.9381889755,1.698904046,5.5046883913,890
125005,182090,239251,7.9381889755,1.698904046,5.5046883913,891
124545,181903,239167,7.9381889755,1.698904046,5.5046883913,892
124221,181775,239058,7.9381889755,1.698904046,5.5046883913,893
124015,181701,239036,7.9381889755,1.698904046,5.5046883913,894
123967,181662,238973,7.9381889755,1.698904046,5.5046883913,895
124027,181685,238975,7.9381889755,1.698904046,5.5046883913,896
124146,181778,239027,7.9381889755,1.698904046,5.5046883913,897
124221,181771,239003,7.9381889755,1.698904046,5.5046883913,898
124346,181805,239027,7.9381889755,1.698904046,5.5046883913,899
124456,181862,239021,7.9381889755,1.698904046,5.5046883913,900
124611,181903,239106,7.9381889755,1.698904046,5.5046883913,901
124752,182006,239129,7.9381889755,1.698904046,5.5046883913,902
124944,182056,239211,7.9381889755,1.698904046,5.5046883913,903
125145,182145,239236,7.9381889755,1.698904046,5.5046883913,904
125326,182199,239325,7.9381889755,1.698904046,5.5046883913,905
125534,182287,239404,7.9381889755,1.698904046,5.5046883913,906
125738,182412,239467,7.9381889755,1.698904046,5.5046883913,907
125943,182447,239564,7.9381889755,1.698904046,5.5046883913,908
126151,182561,239565,7.9381889755,1.698904046,5.5046883913,909
126297,182665,239628,7.9381889755,1.698904046,5.5046883913,910
126273,182651,239653,7.9381889755,1.698904046,5.5046883913,911
125982,182512,239564,7.9381889755,1.698904046,5.5046883913,912
125549,182355,239500,7.9381889755,1.698904046,5.5046883913,913
125154,182197,239402,7.9381889755,1.698904046,5.5046883913,914
124785,182022,239295,7.9381889755,1.698904046,5.5046883913,915
124580,181955,239245,7.9381889755,1.698904046,5.5046883913,916
124462,181873,239240,7.9381889755,1.698904046,5.5046883913,917
124509,181932,239253,7.9381889755,1.698904046,5.5046883913,918
124600,181928,239272,7.9381889755,1.698904046,5.5046883913,919
124701,182013,239283,7.9381889755,1.698904046,5.5046883913,920
124789,182010,239230,7.9381889755,1.698904046,5.5046883913,921
124665,181752,239327,7.9669028467,1.6654045296,5.5800623032,922
124243,181614,239268,7.9669028467,1.6654045296,5.5800623032,923
124115,181475,239186,7.9669028467,1.6654045296,5.5800623032,924
123992,181465,239181,7.9669028467,1.6654045296,5.5800623032,925
124039,181470,239128,7.9669028467,1.6654045296,5.5800623032,926
124080,181513,239178,7.9669028467,1.6654045296,5.5800623032,927
124196,181567,239213,7.9669028467,1.6654045296,5.5800623032,928
124320,181582,239222,7.9669028467,1.6654045296,5.5800623032,929
124367,181596,239200,7.9669028467,1.6654045296,5.5800623032,930
124450,181676,239226,7.9669028467,1.6654045296,5.5800623032,931
124616,181714,239314,7.9669028467,1.6654045296,5.5800623032,932
124813,181766,239301,7.9669028467,1.6654045296,5.5800623032,933
124933,181863,239382,7.9669028467,1.6654045296,5.5800623032,934
125155,181927,239462,7.9669028467,1.6654045296,5.5800623032,935
125322,182005,239501,7.9669028467,1.6654045296,5.5800623032,936
125511,182062,239577,7.9669028467,1.6654045296,5.5800623032,937
125716,182174,239596,7.9669028467,1.6654045296,5.5800623032,938
125848,182229,239616,7.9669028467,1.6654045296,5.5800623032,939
125732,182182,239660,7.9669028467,1.6654045296,5.5800623032,940
125382,182054,239524,7.9669028467,1.6654045296,5.5800623032,941
124885,181796,239401,7.9669028467,1.6654045296,5.5800623032,942
124368,181567,239242,7.9669028467,1.6654045296,5.5800623032,943
123919,181377,239165,7.9669028467,1.6654045296,5.5800623032,944
123580,181243,239106,7.9669028467,1.6654045296,5.5800623032,945
123389,181181,239033,7.9669028467,1.6654045296,5.5800623032,946
123361,181142,238990,7.9669028467,1.6654045296,5.5800623032,947
123435,181150,238991,7.9669028467,1.6654045296,5.5800623032,948
123542,181206,238989,7.9669028467,1.6654045296,5.5800623032,949
123633,181259,239024,7.9669028467,1.6654045296,5.5800623032,950
123730,181278,239040,7.9669028467,1.6654045296,5.5800623032,951
123851,181320,239094,7.9669028467,1.6654045296,5.5800623032,952
123996,181392,239152,7.9669028467,1.6654045296,5.5800623032,953
124164,181448,239170,7.9669028467,1.6654045296,5.5800623032,954
124347,181533,239250,7.9669028467,1.6654045296,5.5800623032,955
124541,181617,239288,7.9669028467,1.6654045296,5.5800623032,956
124834,181709,239372,7.9669028467,1.6654045296,5.5800623032,957
124949,181791,239448,7.9669028467,1.6654045296,5.5800623032,958
125162,181843,239465,7.9669028467,1.6654045296,5.5800623032,959
125337,181961,239557,7.9669028467,1.6654045296,5.5800623032,960
125522,182023,239571,7.9669028467,1.6654045296,5.5800623032,961
125738,182134,239637,7.9669028467,1.6654045296,5.5800623032,962
125907,182185,239642,7.9669028467,1.6654045296,5.5800623032,963
125520,182144,239817,8.1056865575,1.698904046,5.5561340772,964
125109,181969,239689,8.1056865575,1.698904046,5.5561340772,965
124911,181831,239635,8.1056865575,1.698904046,5.5561340772,966
124617,181717,239558,8.1056865575,1.698904046,5.5561340772,967
124512,181662,239572,8.1056865575,1.698904046,5.5561340772,968
124551,181711,239585,8.1056865575,1.698904046,5.5561340772,969
124739,181708,239585,8.1056865575,1.698904046,5.5561340772,970
124808,181777,239576,8.1056865575,1.698904046,5.5561340772,971
124883,181798,239565,8.1056865575,1.698904046,5.5561340772,972
124973,181828,239610,8.1056865575,1.698904046,5.5561340772,973
125107,181852,239622,8.1056865575,1.698904046,5.5561340772,974
125119,181858,239631,8.1056865575,1.698904046,5.5561340772,975
125248,181902,239671,8.1056865575,1.698904046,5.5561340772,976
125467,181951,239652,8.1056865575,1.698904046,5.5561340772,977
125598,181963,239747,8.1056865575,1.698904046,5.5561340772,978
125718,182037,239781,8.1056865575,1.698904046,5.5561340772,979
125890,182104,239819,8.1056865575,1.698904046,5.5561340772,980
126063,182120,239859,8.1056865575,1.698904046,5.5561340772,981
126230,182215,239904,8.1056865575,1.698904046,5.5561340772,982
126332,182241,239936,8.1056865575,1.698904046,5.5561340772,983
126221,182184,239892,8.1056865575,1.698904046,5.5561340772,984
125865,182056,239783,8.1056865575,1.698904046,5.5561340772,985
125378,181823,239698,8.1056865575,1.698904046,5.5561340772,986
124925,181624,239545,8.1056865575,1.698904046,5.5561340772,987
124543,181441,239474,8.1056865575,1.698904046,5.5561340772,988
124255,181334,239385,8.1056865575,1.698904046,5.5561340772,989
124118,181278,239369,8.1056865575,1.698904046,5.5561340772,990
124092,181268,239345,8.1056865575,1.698904046,5.5561340772,991
124205,181348,239323,8.1056865575,1.698904046,5.5561340772,992
124304,181366,239359,8.1056865575,1.698904046,5.5561340772,993
124381,181412,239325,8.1056865575,1.698904046,5.5561340772,994
124488,181442,239395,8.1056865575,1.698904046,5.5561340772,995
124625,181499,239438,8.1056865575,1.698904046,5.5561340772,996
124762,181537,239415,8.1056865575,1.698904046,5.5561340772,997
124918,181592,239480,8.1056865575,1.698904046,5.5561340772,998
125101,181665,239477,8.1056865575,1.698904046,5.5561340772,999
125293,181737,239577,8.1056865575,1.698904046,5.5561340772,1000
125489,181851,239629,8.1056865575,1.698904046,5.5561340772,1001
125666,181900,239694,8.1056865575,1.698904046,5.5561340772,1002
125858,181982,239768,8.1056865575,1.698904046,5.5561340772,1003
126056,182078,239785,8.1056865575,1.698904046,5.5561340772,1004
126241,182147,239838,8.1056865575,1.698904046,5.5561340772,1005
126539,182482,240119,7.829315547199999,1.6833506991,5.575276658,1006
126740,182542,240101,7.829315547199999,1.6833506991,5.575276658,1007
126987,182609,240245,7.829315547199999,1.6833506991,5.575276658,1008
126964,182645,240176,7.829315547199999,1.6833506991,5.575276658,1009
126706,182534,240137,7.829315547199999,1.6833506991,5.575276658,1010
126323,182361,240032,7.829315547199999,1.6833506991,5.575276658,1011
125968,182171,239888,7.829315547199999,1.6833506991,5.575276658,1012
125582,181978,239768,7.829315547199999,1.6833506991,5.575276658,1013
125210,181809,239664,7.829315547199999,1.6833506991,5.575276658,1014
125038,181725,239683,7.829315547199999,1.6833506991,5.575276658,1015
125047,181772,239644,7.829315547199999,1.6833506991,5.575276658,1016
125076,181768,239587,7.829315547199999,1.6833506991,5.575276658,1017
125099,181787,239624,7.829315547199999,1.6833506991,5.575276658,1018
125209,181771,239611,7.829315547199999,1.6833506991,5.575276658,1019
125241,181803,239598,7.829315547199999,1.6833506991,5.575276658,1020
125377,181816,239662,7.829315547199999,1.6833506991,5.575276658,1021
125489,181841,239642,7.829315547199999,1.6833506991,5.575276658,1022
125565,181856,239668,7.829315547199999,1.6833506991,5.575276658,1023
125644,181943,239657,7.829315547199999,1.6833506991,5.575276658,1024
125809,181988,239718,7.8388868376,1.6175480776,5.5944192388,1025
125983,182028,239718,7.8388868376,1.6175480776,5.5944192388,1026
126119,182075,239814,7.8388868376,1.6175480776,5.5944192388,1027
126320,182165,239878,7.8388868376,1.6175480776,5.5944192388,1028
126478,182209,239929,7.8388868376,1.6175480776,5.5944192388,1029
126567,182244,239962,7.8388868376,1.6175480776,5.5944192388,1030
126412,182173,239917,7.8388868376,1.6175480776,5.5944192388,1031
126005,182024,239772,7.8388868376,1.6175480776,5.5944192388,1032
125501,181800,239654,7.8388868376,1.6175480776,5.5944192388,1033
125009,181591,239565,7.8388868376,1.6175480776,5.5944192388,1034
124604,181439,239436,7.8388868376,1.6175480776,5.5944192388,1035
124272,181332,239348,7.8388868376,1.6175480776,5.5944192388,1036
124136,181263,239271,7.8388868376,1.6175480776,5.5944192388,1037
124109,181261,239307,7.8388868376,1.6175480776,5.5944192388,1038
124176,181294,239300,7.8388868376,1.6175480776,5.5944192388,1039
124277,181347,239371,7.8388868376,1.6175480776,5.5944192388,1040
124359,181389,239315,7.8388868376,1.6175480776,5.5944192388,1041
124454,181397,239316,7.8388868376,1.6175480776,5.5944192388,1042
124585,181452,239358,7.8388868376,1.6175480776,5.5944192388,1043
124719,181521,239401,7.942974620699999,1.6893327556000002,5.636293634299999,1044
124841,181602,239424,7.942974620699999,1.6893327556000002,5.636293634299999,1045
125027,181670,239500,7.942974620699999,1.6893327556000002,5.636293634299999,1046
125291,181747,239538,7.942974620699999,1.6893327556000002,5.636293634299999,1047
125500,181814,239584,7.8532437732,1.5984054967999999,5.6614182716,1048
125623,181888,239622,7.8532437732,1.5984054967999999,5.6614182716,1049
125800,181974,239722,7.8532437732,1.5984054967999999,5.6614182716,1050
126056,182034,239727,7.8532437732,1.5984054967999999,5.6614182716,1051
126134,182135,239796,7.8532437732,1.5984054967999999,5.6614182716,1052
125990,182060,239727,7.8532437732,1.5984054967999999,5.6614182716,1053
125602,181951,239629,7.8532437732,1.5984054967999999,5.6614182716,1054
125067,181709,239477,7.8532437732,1.5984054967999999,5.6614182716,1055
124592,181488,239335,7.8532437732,1.5984054967999999,5.6614182716,1056
124125,181331,239231,7.9776705484,1.6654045296,5.5609197224,1057
123833,181187,239166,7.9776705484,1.6654045296,5.5609197224,1058
123664,181110,239114,8.0195449439,1.6689937635,5.6219366987,1059
123686,181127,239113,7.7730842161,1.603191142,5.647061336,1060
123749,181178,239111,7.8783684105,1.6654045296,5.528616617299999,1061
123857,181215,239132,7.8819576444,1.6462619487999999,5.5944192388,1062
123930,181251,239177,7.9393853868,1.7407784414999998,5.651846981199999,1063
124074,181318,239142,7.9908310727,1.6235301341000001,5.570491012800001,1064
124172,181334,239199,7.8999038139,1.7180466268,5.5896335936,1065
124328,181387,239235,7.9262248625,1.6366906583999998,5.7128639575,1066
124494,181478,239287,8.062615750700001,1.6402798923,5.6997034332,1067
124668,181534,239347,7.873582765299999,1.710868159,5.599204884000001,1068
124870,181600,239396,7.873582765299999,1.710868159,5.599204884000001,1069
125070,181688,239501,7.873582765299999,1.710868159,5.599204884000001,1070
125325,181797,239522,7.873582765299999,1.710868159,5.599204884000001,1071
125458,181869,239588,7.873582765299999,1.710868159,5.599204884000001,1072
125621,181954,239612,7.873582765299999,1.710868159,5.599204884000001,1073
125836,182027,239646,7.873582765299999,1.710868159,5.599204884000001,1074
125999,182083,239709,7.873582765299999,1.710868159,5.599204884000001,1075
125933,182066,239691,7.886743289599999,1.7180466268,5.5657053676,1076
125546,181945,239584,7.886743289599999,1.7180466268,5.5657053676,1077
125152,181748,239450,7.915457160799999,1.7407784414999998,5.6315079891,1078
124582,181542,239323,8.0255270004,1.7383856189,5.6171510535,1079
124215,181383,239253,8.0255270004,1.7383856189,5.6171510535,1080
123936,181266,239185,8.0255270004,1.7383856189,5.6171510535,1081
123798,181222,239121,8.0255270004,1.7383856189,5.6171510535,1082
123842,181251,239140,8.0255270004,1.7383856189,5.6171510535,1083
123942,181270,239136,8.0255270004,1.7383856189,5.6171510535,1084
124062,181339,239196,8.0255270004,1.7383856189,5.6171510535,1085
124179,181392,239185,8.0255270004,1.7383856189,5.6171510535,1086
124293,181444,239242,8.0255270004,1.7383856189,5.6171510535,1087
124454,181477,239298,8.0255270004,1.7383856189,5.6171510535,1088
124609,181550,239324,8.0255270004,1.7383856189,5.6171510535,1089
124780,181633,239395,8.0255270004,1.7383856189,5.6171510535,1090
124966,181707,239456,8.0255270004,1.7383856189,5.6171510535,1091
125166,181809,239517,8.0255270004,1.7383856189,5.6171510535,1092
125384,181902,239610,8.0255270004,1.7383856189,5.6171510535,1093
125575,181984,239627,8.0255270004,1.7383856189,5.6171510535,1094
125819,182085,239676,8.0255270004,1.7383856189,5.6171510535,1095
126010,182136,239786,8.0255270004,1.7383856189,5.6171510535,1096
126238,182265,239795,8.0255270004,1.7383856189,5.6171510535,1097
126422,182373,239838,8.0255270004,1.7383856189,5.6171510535,1098
126452,182411,239851,8.0255270004,1.7383856189,5.6171510535,1099
126196,182319,239826,8.0255270004,1.7383856189,5.6171510535,1100
125841,182145,239701,8.0255270004,1.7383856189,5.6171510535,1101
125444,181991,239601,8.0255270004,1.7383856189,5.6171510535,1102
125127,181821,239560,8.0255270004,1.7383856189,5.6171510535,1103
124905,181750,239481,8.0255270004,1.7383856189,5.6171510535,1104
124818,181687,239443,8.0255270004,1.7383856189,5.6171510535,1105
124851,181719,239431,8.0255270004,1.7383856189,5.6171510535,1106
124946,181778,239412,8.0255270004,1.7383856189,5.6171510535,1107
125044,181804,239501,8.0255270004,1.7383856189,5.6171510535,1108
125133,181819,239507,8.0255270004,1.7383856189,5.6171510535,1109
125250,181889,239490,8.0255270004,1.7383856189,5.6171510535,1110
125359,181890,239567,8.0255270004,1.7383856189,5.6171510535,1111
125491,181987,239595,8.0255270004,1.7383856189,5.6171510535,1112
125655,182051,239684,8.0255270004,1.7383856189,5.6171510535,1113
125810,182107,239743,8.0255270004,1.7383856189,5.6171510535,1114
126113,182203,239796,8.0291162343,1.6462619487999999,5.6315079891,1115
126274,182261,239823,8.0291162343,1.6462619487999999,5.6315079891,1116
126359,182359,239860,8.0291162343,1.6462619487999999,5.6315079891,1117
126614,182423,239930,8.0291162343,1.6462619487999999,5.6315079891,1118
126797,182525,240003,8.0291162343,1.6462619487999999,5.6315079891,1119
126946,182567,240029,8.0291162343,1.6462619487999999,5.6315079891,1120
126830,182546,240029,8.0291162343,1.6462619487999999,5.6315079891,1121
126497,182386,239924,8.0291162343,1.6462619487999999,5.6315079891,1122
126113,182207,239776,8.0291162343,1.6462619487999999,5.6315079891,1123
125767,181998,239633,8.0291162343,1.6462619487999999,5.6315079891,1124
125458,181856,239573,8.0291162343,1.6462619487999999,5.6315079891,1125
125305,181779,239489,8.0291162343,1.6462619487999999,5.6315079891,1126
125228,181763,239458,8.0291162343,1.6462619487999999,5.6315079891,1127
125265,181737,239491,8.0291162343,1.6462619487999999,5.6315079891,1128
125321,181773,239453,8.0291162343,1.6462619487999999,5.6315079891,1129
125381,181805,239462,8.0291162343,1.6462619487999999,5.6315079891,1130
125436,181792,239463,8.0291162343,1.6462619487999999,5.6315079891,1131
125501,181810,239507,8.0291162343,1.6462619487999999,5.6315079891,1132
125597,181825,239470,8.0291162343,1.6462619487999999,5.6315079891,1133
125706,181881,239540,8.0291162343,1.6462619487999999,5.6315079891,1134
125813,181952,239587,8.0291162343,1.6462619487999999,5.6315079891,1135
125991,181973,239616,8.0291162343,1.6462619487999999,5.6315079891,1136
126127,182039,239641,8.0291162343,1.6462619487999999,5.6315079891,1137
126285,182107,239683,8.0291162343,1.6462619487999999,5.6315079891,1138
126479,182171,239762,8.0291162343,1.6462619487999999,5.6315079891,1139
126630,182229,239784,8.0291162343,1.6462619487999999,5.6315079891,1140
126671,182237,239813,8.0291162343,1.6462619487999999,5.6315079891,1141
126489,182205,239749,8.0291162343,1.6462619487999999,5.6315079891,1142
126047,181976,239631,8.0291162343,1.6462619487999999,5.6315079891,1143
125601,181755,239437,8.0291162343,1.6462619487999999,5.6315079891,1144
125171,181607,239397,8.0291162343,1.6462619487999999,5.6315079891,1145
124792,181442,239264,8.0291162343,1.6462619487999999,5.6315079891,1146
124567,181319,239197,8.0291162343,1.6462619487999999,5.6315079891,1147
124490,181307,239126,8.0291162343,1.6462619487999999,5.6315079891,1148
124525,181309,239148,8.0291162343,1.6462619487999999,5.6315079891,1149
124608,181341,239165,8.0291162343,1.6462619487999999,5.6315079891,1150
124706,181404,239201,8.0291162343,1.6462619487999999,5.6315079891,1151
124801,181437,239183,8.0291162343,1.6462619487999999,5.6315079891,1152
124922,181466,239231,8.0291162343,1.6462619487999999,5.6315079891,1153
125038,181531,239250,8.0291162343,1.6462619487999999,5.6315079891,1154
125205,181587,239276,8.0291162343,1.6462619487999999,5.6315079891,1155
125339,181645,239335,8.0291162343,1.6462619487999999,5.6315079891,1156
125083,182181,239630,7.7838519178,1.5469598109,5.6135618196,1157
125207,182228,239695,7.7838519178,1.5469598109,5.6135618196,1158
125482,182320,239762,7.7838519178,1.5469598109,5.6135618196,1159
125609,182341,239801,7.7838519178,1.5469598109,5.6135618196,1160
125844,182428,239857,7.7838519178,1.5469598109,5.6135618196,1161
125793,182464,239827,7.7838519178,1.5469598109,5.6135618196,1162
125494,182372,239782,7.7838519178,1.5469598109,5.6135618196,1163
125115,182192,239691,7.7838519178,1.5469598109,5.6135618196,1164
124501,181987,239517,7.7838519178,1.5469598109,5.6135618196,1165
124150,181808,239406,7.7838519178,1.5469598109,5.6135618196,1166
123674,181675,239307,7.7838519178,1.5469598109,5.6135618196,1167
123437,181600,239253,7.7838519178,1.5469598109,5.6135618196,1168
123442,181587,239220,7.7838519178,1.5469598109,5.6135618196,1169
123465,181588,239238,7.7838519178,1.5469598109,5.6135618196,1170
123646,181659,239275,7.7838519178,1.5469598109,5.6135618196,1171
123645,181680,239302,7.7838519178,1.5469598109,5.6135618196,1172
123789,181741,239342,7.7838519178,1.5469598109,5.6135618196,1173
123898,181740,239329,7.7838519178,1.5469598109,5.6135618196,1174
124081,181818,239397,7.7838519178,1.5469598109,5.6135618196,1175
124209,181870,239437,7.7838519178,1.5469598109,5.6135618196,1176
124339,181945,239477,7.7838519178,1.5469598109,5.6135618196,1177
124560,182010,239532,7.829315547199999,1.8221344098999999,5.6554362151,1178
124851,182108,239602,7.829315547199999,1.8221344098999999,5.6554362151,1179
125013,182169,239660,7.829315547199999,1.8221344098999999,5.6554362151,1180
125206,182210,239721,7.829315547199999,1.8221344098999999,5.6554362151,1181
125404,182294,239697,7.829315547199999,1.8221344098999999,5.6554362151,1182
125544,182392,239776,7.829315547199999,1.8221344098999999,5.6554362151,1183
125429,182325,239706,7.829315547199999,1.8221344098999999,5.6554362151,1184
125030,182168,239663,7.829315547199999,1.8221344098999999,5.6554362151,1185
124519,181963,239469,7.829315547199999,1.8221344098999999,5.6554362151,1186
124032,181798,239342,7.829315547199999,1.8221344098999999,5.6554362151,1187
123726,181624,239287,7.829315547199999,1.8221344098999999,5.6554362151,1188
123337,181485,239171,7.829315547199999,1.8221344098999999,5.6554362151,1189
123207,181465,239115,7.829315547199999,1.8221344098999999,5.6554362151,1190
123243,181455,239176,7.829315547199999,1.8221344098999999,5.6554362151,1191
123364,181483,239155,7.829315547199999,1.8221344098999999,5.6554362151,1192
123504,181539,239152,7.829315547199999,1.8221344098999999,5.6554362151,1193
123657,181587,239223,7.829315547199999,1.8221344098999999,5.6554362151,1194
123748,181625,239248,7.829315547199999,1.8221344098999999,5.6554362151,1195
123915,181654,239254,7.829315547199999,1.8221344098999999,5.6554362151,1196
124085,181743,239330,7.829315547199999,1.8221344098999999,5.6554362151,1197
124279,181777,239357,7.829315547199999,1.8221344098999999,5.6554362151,1198
124444,181876,239459,7.829315547199999,1.8221344098999999,5.6554362151,1199
124651,181922,239512,7.829315547199999,1.8221344098999999,5.6554362151,1200
124847,182032,239585,7.829315547199999,1.8221344098999999,5.6554362151,1201
125072,182117,239625,7.829315547199999,1.8221344098999999,5.6554362151,1202
125264,182185,239628,7.829315547199999,1.8221344098999999,5.6554362151,1203
125465,182274,239723,7.829315547199999,1.8221344098999999,5.6554362151,1204
125680,182367,239765,7.829315547199999,1.8221344098999999,5.6554362151,1205
125882,182445,239787,7.829315547199999,1.8221344098999999,5.6554362151,1206
126054,182511,239817,7.829315547199999,1.8221344098999999,5.6554362151,1207
125951,182498,239821,7.829315547199999,1.8221344098999999,5.6554362151,1208
125635,182336,239734,7.829315547199999,1.8221344098999999,5.6554362151,1209
125124,182131,239590,7.829315547199999,1.8221344098999999,5.6554362151,1210
124637,181954,239485,7.829315547199999,1.8221344098999999,5.6554362151,1211
124228,181749,239427,7.829315547199999,1.8221344098999999,5.6554362151,1212
123916,181627,239270,7.829315547199999,1.8221344098999999,5.6554362151,1213
123785,181590,239270,7.829315547199999,1.8221344098999999,5.6554362151,1214
123812,181601,239230,7.829315547199999,1.8221344098999999,5.6554362151,1215
123910,181640,239280,7.829315547199999,1.8221344098999999,5.6554362151,1216
124046,181681,239298,7.829315547199999,1.8221344098999999,5.6554362151,1217
124148,181694,239346,7.829315547199999,1.8221344098999999,5.6554362151,1218
124274,181732,239361,7.829315547199999,1.8221344098999999,5.6554362151,1219
124691,181953,239574,8.0350982908,1.6426727149,5.4951171009,1220
124375,181851,239485,8.0350982908,1.6426727149,5.4951171009,1221
124369,181782,239444,8.0350982908,1.6426727149,5.4951171009,1222
124301,181766,239425,8.0350982908,1.6426727149,5.4951171009,1223
124501,181813,239451,8.0350982908,1.6426727149,5.4951171009,1224
124497,181867,239487,8.0350982908,1.6426727149,5.4951171009,1225
124651,181940,239537,8.0350982908,1.6426727149,5.4951171009,1226
124794,181955,239532,8.0350982908,1.6426727149,5.4951171009,1227
124869,182026,239577,8.0350982908,1.6426727149,5.4951171009,1228
125094,182080,239601,8.0350982908,1.6426727149,5.4951171009,1229
125278,182113,239721,8.0350982908,1.6426727149,5.4951171009,1230
125408,182211,239700,8.0350982908,1.6426727149,5.4951171009,1231
125573,182258,239761,8.0350982908,1.6426727149,5.4951171009,1232
125751,182306,239840,8.0350982908,1.6426727149,5.4951171009,1233
125957,182420,239883,8.0350982908,1.6426727149,5.4951171009,1234
126130,182488,239938,8.0350982908,1.6426727149,5.4951171009,1235
126337,182548,239994,8.0350982908,1.6426727149,5.4951171009,1236
126532,182634,240065,8.0350982908,1.6426727149,5.4951171009,1237
126648,182698,240087,8.0350982908,1.6426727149,5.4951171009,1238
126582,182664,240087,7.925028451199999,1.7264215058999999,5.5980084727,1239
126317,182549,239992,7.925028451199999,1.7264215058999999,5.5980084727,1240
125856,182366,239900,7.925028451199999,1.7264215058999999,5.5980084727,1241
125446,182233,239802,7.925028451199999,1.7264215058999999,5.5980084727,1242
125116,182090,239706,7.925028451199999,1.7264215058999999,5.5980084727,1243
124962,181977,239636,7.925028451199999,1.7264215058999999,5.5980084727,1244
124950,181975,239621,7.925028451199999,1.7264215058999999,5.5980084727,1245
125002,181954,239629,7.925028451199999,1.7264215058999999,5.5980084727,1246
125109,182011,239622,7.925028451199999,1.7264215058999999,5.5980084727,1247
125166,182050,239652,7.925028451199999,1.7264215058999999,5.5980084727,1248
125242,182077,239623,7.925028451199999,1.7264215058999999,5.5980084727,1249
125321,182063,239662,7.925028451199999,1.7264215058999999,5.5980084727,1250
125426,182130,239657,7.925028451199999,1.7264215058999999,5.5980084727,1251
125552,182134,239695,7.968099258,1.7024932798999999,5.5896335936,1252
125754,182171,239749,7.968099258,1.7024932798999999,5.5896335936,1253
125874,182216,239766,7.968099258,1.7024932798999999,5.5896335936,1254
126017,182286,239849,7.968099258,1.7024932798999999,5.5896335936,1255
126205,182334,239866,7.968099258,1.7024932798999999,5.5896335936,1256
126367,182392,239924,7.968099258,1.7024932798999999,5.5896335936,1257
126520,182453,239963,7.968099258,1.7024932798999999,5.5896335936,1258
126691,182491,239986,7.968099258,1.7024932798999999,5.5896335936,1259
126767,182505,240031,7.968099258,1.7024932798999999,5.5896335936,1260
126653,182491,239991,7.968099258,1.7024932798999999,5.5896335936,1261
126250,182338,239890,7.968099258,1.7024932798999999,5.5896335936,1262
125762,182102,239757,7.968099258,1.7024932798999999,5.5896335936,1263
125294,181939,239623,7.968099258,1.7024932798999999,5.5896335936,1264
124894,181771,239537,7.968099258,1.7024932798999999,5.5896335936,1265
124587,181653,239482,7.968099258,1.7024932798999999,5.5896335936,1266
124483,181628,239420,7.968099258,1.7024932798999999,5.5896335936,1267
124519,181616,239391,7.968099258,1.7024932798999999,5.5896335936,1268
124590,181690,239426,7.968099258,1.7024932798999999,5.5896335936,1269
124699,181716,239459,7.968099258,1.7024932798999999,5.5896335936,1270
124768,181739,239467,7.968099258,1.7024932798999999,5.5896335936,1271
124847,181775,239502,7.968099258,1.7024932798999999,5.5896335936,1272
124978,181804,239517,7.968099258,1.7024932798999999,5.5896335936,1273
125103,181844,239542,7.968099258,1.7024932798999999,5.5896335936,1274
125241,181929,239614,7.968099258,1.7024932798999999,5.5896335936,1275
125462,181991,239648,7.968099258,1.7024932798999999,5.5896335936,1276
125640,182083,239708,7.968099258,1.7024932798999999,5.5896335936,1277
125813,182101,239772,8.0829547428,1.603191142,5.5788658919,1278
125947,182209,239830,8.0829547428,1.603191142,5.5788658919,1279
126151,182295,239857,8.0829547428,1.603191142,5.5788658919,1280
126409,182359,239938,8.0829547428,1.603191142,5.5788658919,1281
126941,182581,240037,8.0291162343,1.6749758199999998,5.6315079891,1282
127010,182608,240042,8.0339018795,1.5421741657,5.6853464976,1283
127009,182597,240067,8.0015987744,1.7503497318999999,5.4807601652999995,1284
126568,182444,239982,8.0530444603,1.7647066674999998,5.6267223439,1285
126026,182227,239815,8.0530444603,1.6737794087,5.6554362151,1286
125480,182011,239711,7.8687971201,1.6977076347,5.6171510535,1287
125188,181827,239599,7.9621172015,1.7599210223,5.575276658,1288
124821,181727,239520,7.8341011924,1.7407784414999998,5.5944192388,1289
124644,181640,239437,7.920242806,1.6498511827,5.5621161337,1290
124619,181644,239485,7.970492080600001,1.6175480776,5.5609197224,1291
124655,181705,239449,7.944171031999999,1.6654045296,5.651846981199999,1292
124736,181740,239479,8.0111700648,1.5900306177,5.5932228275,1293
124849,181705,239450,7.873582765299999,1.6187444889,5.6183474648,1294
124954,181772,239508,7.9812597822999996,1.7407784414999998,5.6315079891,1295
125007,181825,239544,7.925028451199999,1.7694923127,5.7224352479,1296
125141,181865,239571,8.1200434931,1.6175480776,5.6745787959,1297
125260,181929,239598,8.0255270004,1.6701901747999999,5.6327044004,1298
125459,181977,239625,8.057830105499999,1.6127624323999998,5.665007505499999,1299
125667,182038,239716,8.057830105499999,1.6127624323999998,5.665007505499999,1300
125849,182153,239746,8.057830105499999,1.6127624323999998,5.665007505499999,1301
126024,182190,239839,8.057830105499999,1.6127624323999998,5.665007505499999,1302
126224,182260,239870,8.057830105499999,1.6127624323999998,5.665007505499999,1303
126411,182338,239959,8.057830105499999,1.6127624323999998,5.665007505499999,1304
126597,182405,239992,8.057830105499999,1.6127624323999998,5.665007505499999,1305
126768,182481,240004,8.057830105499999,1.6127624323999998,5.665007505499999,1306
126957,182541,240090,8.057830105499999,1.6127624323999998,5.665007505499999,1307
127050,182595,240137,8.057830105499999,1.6127624323999998,5.665007505499999,1308
126885,182554,240108,8.057830105499999,1.6127624323999998,5.665007505499999,1309
126490,182394,239970,8.057830105499999,1.6127624323999998,5.665007505499999,1310
126024,182152,239844,8.057830105499999,1.6127624323999998,5.665007505499999,1311
125551,181976,239746,8.057830105499999,1.6127624323999998,5.665007505499999,1312
125178,181857,239635,8.057830105499999,1.6127624323999998,5.665007505499999,1313
124937,181719,239543,8.057830105499999,1.6127624323999998,5.665007505499999,1314
124831,181688,239549,8.057830105499999,1.6127624323999998,5.665007505499999,1315
124856,181714,239539,8.057830105499999,1.6127624323999998,5.665007505499999,1316
125004,181722,239524,8.057830105499999,1.6127624323999998,5.665007505499999,1317
125012,181794,239551,8.057830105499999,1.6127624323999998,5.665007505499999,1318
125127,181812,239560,8.057830105499999,1.6127624323999998,5.665007505499999,1319
125201,181849,239543,8.057830105499999,1.6127624323999998,5.665007505499999,1320
125312,181874,239615,8.057830105499999,1.6127624323999998,5.665007505499999,1321
125436,181928,239607,8.057830105499999,1.6127624323999998,5.665007505499999,1322
125577,181996,239746,8.057830105499999,1.6127624323999998,5.665007505499999,1323
125759,182052,239758,8.057830105499999,1.6127624323999998,5.665007505499999,1324
125945,182107,239805,8.057830105499999,1.6127624323999998,5.665007505499999,1325
126128,182221,239851,8.057830105499999,1.6127624323999998,5.665007505499999,1326
126394,182300,239938,8.0530444603,1.6701901747999999,5.6697931507,1327
126577,182372,239989,8.0530444603,1.6701901747999999,5.6697931507,1328
126667,182474,240065,8.0530444603,1.6701901747999999,5.6697931507,1329
126886,182513,240113,8.0530444603,1.6701901747999999,5.6697931507,1330
127137,182628,240171,8.0530444603,1.6701901747999999,5.6697931507,1331
127163,182692,240237,8.0530444603,1.6701901747999999,5.6697931507,1332
126997,182600,240164,8.0530444603,1.6701901747999999,5.6697931507,1333
126633,182514,240044,8.0530444603,1.6701901747999999,5.6697931507,1334
126195,182315,239955,8.0530444603,1.6701901747999999,5.6697931507,1335
125818,182138,239848,8.0530444603,1.6701901747999999,5.6697931507,1336
125513,182001,239801,8.0530444603,1.6701901747999999,5.6697931507,1337
125307,181972,239773,8.0530444603,1.6701901747999999,5.6697931507,1338
125263,181939,239736,8.0530444603,1.6701901747999999,5.6697931507,1339
125347,181951,239757,8.0530444603,1.6701901747999999,5.6697931507,1340
125419,182014,239769,8.0530444603,1.6701901747999999,5.6697931507,1341
125517,182061,239768,8.0530444603,1.6701901747999999,5.6697931507,1342
125587,182080,239799,8.0530444603,1.6701901747999999,5.6697931507,1343
125639,182128,239829,8.0530444603,1.6701901747999999,5.6697931507,1344
125786,182205,239840,8.0530444603,1.6701901747999999,5.6697931507,1345
125934,182233,239910,8.0530444603,1.6701901747999999,5.6697931507,1346
126087,182296,239950,8.0530444603,1.6701901747999999,5.6697931507,1347
126249,182350,239987,8.0530444603,1.6701901747999999,5.6697931507,1348
126421,182408,240047,8.0530444603,1.6701901747999999,5.6697931507,1349
126588,182484,240145,8.0530444603,1.6701901747999999,5.6697931507,1350
126787,182576,240195,8.0530444603,1.6701901747999999,5.6697931507,1351
126967,182608,240198,8.0530444603,1.6701901747999999,5.6697931507,1352
127170,182723,240300,8.0530444603,1.6701901747999999,5.6697931507,1353
127350,182786,240366,8.0530444603,1.6701901747999999,5.6697931507,1354
127471,182845,240388,8.0530444603,1.6701901747999999,5.6697931507,1355
127372,182812,240381,8.0530444603,1.6701901747999999,5.6697931507,1356
127054,182721,240294,8.0530444603,1.6701901747999999,5.6697931507,1357
126657,182513,240213,8.0530444603,1.6701901747999999,5.6697931507,1358
126300,182367,240086,8.0530444603,1.6701901747999999,5.6697931507,1359
126025,182233,240006,8.0530444603,1.6701901747999999,5.6697931507,1360
125833,182178,240003,8.0530444603,1.6701901747999999,5.6697931507,1361
125808,182166,239961,8.0530444603,1.6701901747999999,5.6697931507,1362
125843,182183,239959,8.0530444603,1.6701901747999999,5.6697931507,1363
125924,182201,239947,8.0530444603,1.6701901747999999,5.6697931507,1364
125955,182218,239913,7.8676007087999995,1.6414763036,5.6697931507,1365
126028,182225,239970,7.8676007087999995,1.6414763036,5.6697931507,1366
126078,182239,240006,7.8676007087999995,1.6414763036,5.6697931507,1367
126109,182229,239961,7.8676007087999995,1.6414763036,5.6697931507,1368
126274,182281,240016,7.8676007087999995,1.6414763036,5.6697931507,1369
126450,182318,240044,7.8676007087999995,1.6414763036,5.6697931507,1370
126523,182336,240045,7.8676007087999995,1.6414763036,5.6697931507,1371
126599,182422,240091,7.8676007087999995,1.6414763036,5.6697931507,1372
126770,182481,240110,7.8676007087999995,1.6414763036,5.6697931507,1373
126907,182484,240136,7.8676007087999995,1.6414763036,5.6697931507,1374
127068,182548,240196,7.8676007087999995,1.6414763036,5.6697931507,1375
127214,182638,240229,7.8676007087999995,1.6414763036,5.6697931507,1376
127304,182615,240269,7.8676007087999995,1.6414763036,5.6697931507,1377
127157,182575,240252,7.8676007087999995,1.6414763036,5.6697931507,1378
126786,182395,240145,7.8676007087999995,1.6414763036,5.6697931507,1379
126269,182233,240003,7.8676007087999995,1.6414763036,5.6697931507,1380
125816,182021,239888,7.8676007087999995,1.6414763036,5.6697931507,1381
125448,181881,239836,7.8676007087999995,1.6414763036,5.6697931507,1382
125187,181781,239771,7.8676007087999995,1.6414763036,5.6697931507,1383
125081,181716,239689,7.8676007087999995,1.6414763036,5.6697931507,1384
125076,181729,239753,7.8676007087999995,1.6414763036,5.6697931507,1385
125142,181774,239700,7.8676007087999995,1.6414763036,5.6697931507,1386
125187,181809,239736,7.8676007087999995,1.6414763036,5.6697931507,1387
125263,181833,239754,7.8676007087999995,1.6414763036,5.6697931507,1388
125315,181839,239780,7.8676007087999995,1.6414763036,5.6697931507,1389
125419,181872,239779,7.8676007087999995,1.6414763036,5.6697931507,1390
125501,181893,239808,7.8676007087999995,1.6414763036,5.6697931507,1391
125650,181960,239852,7.8676007087999995,1.6414763036,5.6697931507,1392
125819,182052,239901,7.8676007087999995,1.6414763036,5.6697931507,1393
125989,182083,239933,7.8676007087999995,1.6414763036,5.6697931507,1394
126155,182167,239973,7.8676007087999995,1.6414763036,5.6697931507,1395
126303,182259,240074,7.8676007087999995,1.6414763036,5.6697931507,1396
126485,182288,240048,7.8676007087999995,1.6414763036,5.6697931507,1397
126676,182370,240109,7.8676007087999995,1.6414763036,5.6697931507,1398
126842,182468,240134,7.8676007087999995,1.6414763036,5.6697931507,1399
126886,182488,240198,7.8676007087999995,1.6414763036,5.6697931507,1400
126661,182417,240180,7.8676007087999995,1.6414763036,5.6697931507,1401
126260,182181,240008,7.8676007087999995,1.6414763036,5.6697931507,1402
125639,181986,239870,7.8676007087999995,1.6414763036,5.6697931507,1403
125180,181778,239787,7.8676007087999995,1.6414763036,5.6697931507,1404
124801,181671,239655,7.8676007087999995,1.6414763036,5.6697931507,1405
124506,181559,239604,7.8676007087999995,1.6414763036,5.6697931507,1406
124514,181809,239719,8.0422767586,1.7180466268,5.6279187552000005,1407
124761,181856,239774,8.0422767586,1.7180466268,5.6279187552000005,1408
124892,181918,239831,8.0422767586,1.7180466268,5.6279187552000005,1409
125031,181980,239882,8.0422767586,1.7180466268,5.6279187552000005,1410
125292,182111,239947,8.0422767586,1.7180466268,5.6279187552000005,1411
125549,182163,240033,8.0422767586,1.7180466268,5.6279187552000005,1412
125792,182237,240046,8.0422767586,1.7180466268,5.6279187552000005,1413
125892,182329,240134,8.0422767586,1.7180466268,5.6279187552000005,1414
126012,182456,240185,8.0422767586,1.7180466268,5.6279187552000005,1415
126336,182519,240219,8.0422767586,1.7180466268,5.6279187552000005,1416
126479,182612,240251,8.0422767586,1.7180466268,5.6279187552000005,1417
126680,182703,240275,8.0422767586,1.7180466268,5.6279187552000005,1418
126480,182673,240305,8.0422767586,1.7180466268,5.6279187552000005,1419
126177,182607,240242,8.0422767586,1.7180466268,5.6279187552000005,1420
125750,182470,240165,8.0422767586,1.7180466268,5.6279187552000005,1421
125306,182343,240101,8.0422767586,1.7180466268,5.6279187552000005,1422
124940,182229,239978,8.0422767586,1.7180466268,5.6279187552000005,1423
124764,182185,239982,8.0422767586,1.7180466268,5.6279187552000005,1424
124689,182175,240029,8.0422767586,1.7180466268,5.6279187552000005,1425
124722,182219,239982,8.0422767586,1.7180466268,5.6279187552000005,1426
124848,182225,240014,8.0422767586,1.7180466268,5.6279187552000005,1427
124973,182290,240040,8.0422767586,1.7180466268,5.6279187552000005,1428
125058,182332,240087,8.0422767586,1.7180466268,5.6279187552000005,1429
125175,182398,240108,8.0422767586,1.7180466268,5.6279187552000005,1430
125317,182455,240134,8.0422767586,1.7180466268,5.6279187552000005,1431
125447,182503,240158,8.0422767586,1.7180466268,5.6279187552000005,1432
125628,182565,240249,8.0422767586,1.7180466268,5.6279187552000005,1433
125810,182651,240276,8.0422767586,1.7180466268,5.6279187552000005,1434
125982,182735,240377,8.0422767586,1.7180466268,5.6279187552000005,1435
126176,182833,240439,8.0422767586,1.7180466268,5.6279187552000005,1436
126376,182881,240485,8.0422767586,1.7180466268,5.6279187552000005,1437
126585,182980,240516,8.0422767586,1.7180466268,5.6279187552000005,1438
126760,183091,240584,8.0422767586,1.7180466268,5.6279187552000005,1439
126976,183157,240594,8.0422767586,1.7180466268,5.6279187552000005,1440
127059,183217,240638,8.0422767586,1.7180466268,5.6279187552000005,1441
126915,183161,240632,8.0422767586,1.7180466268,5.6279187552000005,1442
126601,183103,240576,8.0422767586,1.7180466268,5.6279187552000005,1443
126253,182998,240523,8.0422767586,1.7180466268,5.6279187552000005,1444
125916,182920,240479,8.044669581199999,1.6462619487999999,5.6039905292,1445
125730,182843,240438,8.044669581199999,1.6462619487999999,5.6039905292,1446
125711,182817,240444,8.044669581199999,1.6462619487999999,5.6039905292,1447
125791,182872,240426,8.044669581199999,1.6462619487999999,5.6039905292,1448
125782,182881,240463,8.044669581199999,1.6462619487999999,5.6039905292,1449
125992,182917,240440,8.044669581199999,1.6462619487999999,5.6039905292,1450
126025,182942,240493,8.044669581199999,1.6462619487999999,5.6039905292,1451
126124,182992,240512,8.044669581199999,1.6462619487999999,5.6039905292,1452
126229,183041,240533,8.044669581199999,1.6462619487999999,5.6039905292,1453
126444,183053,240497,8.044669581199999,1.6462619487999999,5.6039905292,1454
126510,183080,240540,8.044669581199999,1.6462619487999999,5.6039905292,1455
126746,183130,240601,8.044669581199999,1.6462619487999999,5.6039905292,1456
126798,183155,240597,8.044669581199999,1.6462619487999999,5.6039905292,1457
126960,183184,240625,8.044669581199999,1.6462619487999999,5.6039905292,1458
127117,183209,240664,8.044669581199999,1.6462619487999999,5.6039905292,1459
127294,183301,240725,8.044669581199999,1.6462619487999999,5.6039905292,1460
127449,183351,240787,8.044669581199999,1.6462619487999999,5.6039905292,1461
127572,183384,240775,8.044669581199999,1.6462619487999999,5.6039905292,1462
127539,183327,240786,8.044669581199999,1.6462619487999999,5.6039905292,1463
127272,183269,240710,8.044669581199999,1.6462619487999999,5.6039905292,1464
126876,183130,240651,8.044669581199999,1.6462619487999999,5.6039905292,1465
126463,183029,240561,8.044669581199999,1.6462619487999999,5.6039905292,1466
126149,182893,240475,8.044669581199999,1.6462619487999999,5.6039905292,1467
125912,182804,240447,8.044669581199999,1.6462619487999999,5.6039905292,1468
125805,182768,240434,8.044669581199999,1.6462619487999999,5.6039905292,1469
125821,182801,240413,8.044669581199999,1.6462619487999999,5.6039905292,1470
125876,182787,240387,8.044669581199999,1.6462619487999999,5.6039905292,1471
125957,182815,240449,8.044669581199999,1.6462619487999999,5.6039905292,1472
126017,182802,240439,8.044669581199999,1.6462619487999999,5.6039905292,1473
126075,182840,240399,8.044669581199999,1.6462619487999999,5.6039905292,1474
126146,182899,240470,8.044669581199999,1.6462619487999999,5.6039905292,1475
126282,182918,240461,8.044669581199999,1.6462619487999999,5.6039905292,1476
126436,182953,240467,8.044669581199999,1.6462619487999999,5.6039905292,1477
126571,183000,240501,8.044669581199999,1.6462619487999999,5.6039905292,1478
126688,183033,240501,8.044669581199999,1.6462619487999999,5.6039905292,1479
126890,183075,240553,8.044669581199999,1.6462619487999999,5.6039905292,1480
127046,183142,240605,8.044669581199999,1.6462619487999999,5.6039905292,1481
127215,183206,240662,8.044669581199999,1.6462619487999999,5.6039905292,1482
127380,183264,240707,7.9094751043,1.6594224731,5.575276658,1483
127406,183229,240681,7.9094751043,1.6594224731,5.575276658,1484
127175,183188,240629,7.9094751043,1.6594224731,5.575276658,1485
126840,183026,240590,7.9094751043,1.6594224731,5.575276658,1486
126258,182873,240434,7.9094751043,1.6594224731,5.575276658,1487
125889,182731,240343,7.9094751043,1.6594224731,5.575276658,1488
125525,182609,240266,7.9094751043,1.6594224731,5.575276658,1489
125327,182477,240195,7.9094751043,1.6594224731,5.575276658,1490
125199,182496,240203,7.9094751043,1.6594224731,5.575276658,1491
125236,182510,240147,7.9094751043,1.6594224731,5.575276658,1492
125315,182516,240233,7.9094751043,1.6594224731,5.575276658,1493
125402,182586,240199,7.9094751043,1.6594224731,5.575276658,1494
125478,182582,240188,7.9094751043,1.6594224731,5.575276658,1495
125642,182606,240223,7.7970124421,1.7276179172000001,5.6602218603,1496
125739,182619,240232,7.7970124421,1.7276179172000001,5.6602218603,1497
125882,182687,240270,7.7970124421,1.7276179172000001,5.6602218603,1498
125975,182721,240299,7.7970124421,1.7276179172000001,5.6602218603,1499
126165,182776,240316,7.7970124421,1.7276179172000001,5.6602218603,1500
126347,182836,240368,7.7970124421,1.7276179172000001,5.6602218603,1501
126497,182904,240425,7.7970124421,1.7276179172000001,5.6602218603,1502
126671,182961,240502,7.7970124421,1.7276179172000001,5.6602218603,1503
126852,183026,240549,7.7970124421,1.7276179172000001,5.6602218603,1504
127018,183088,240535,7.7970124421,1.7276179172000001,5.6602218603,1505
127056,183063,240512,7.7970124421,1.7276179172000001,5.6602218603,1506
126831,183010,240466,7.7970124421,1.7276179172000001,5.6602218603,1507
126432,182870,240433,7.7970124421,1.7276179172000001,5.6602218603,1508
125950,182723,240306,7.7970124421,1.7276179172000001,5.6602218603,1509
125552,182601,240244,7.7970124421,1.7276179172000001,5.6602218603,1510
125228,182488,240085,7.7970124421,1.7276179172000001,5.6602218603,1511
125035,182406,240062,7.7970124421,1.7276179172000001,5.6602218603,1512
124980,182381,240074,7.7970124421,1.7276179172000001,5.6602218603,1513
125059,182423,240095,7.7970124421,1.7276179172000001,5.6602218603,1514
125146,182471,240085,7.7970124421,1.7276179172000001,5.6602218603,1515
125239,182495,240076,7.7970124421,1.7276179172000001,5.6602218603,1516
125355,182553,240143,7.7970124421,1.7276179172000001,5.6602218603,1517
125415,182566,240158,7.7970124421,1.7276179172000001,5.6602218603,1518
125583,182604,240138,7.7970124421,1.7276179172000001,5.6602218603,1519
125746,182653,240197,7.7970124421,1.7276179172000001,5.6602218603,1520
125883,182755,240222,7.7970124421,1.7276179172000001,5.6602218603,1521
126082,182789,240294,7.7970124421,1.7276179172000001,5.6602218603,1522
126272,182870,240298,7.7970124421,1.7276179172000001,5.6602218603,1523
126425,182914,240384,7.7970124421,1.7276179172000001,5.6602218603,1524
126639,182985,240436,7.7970124421,1.7276179172000001,5.6602218603,1525
126843,183064,240475,7.7970124421,1.7276179172000001,5.6602218603,1526
127054,183166,240529,7.7970124421,1.7276179172000001,5.6602218603,1527
127151,183228,240558,7.7970124421,1.7276179172000001,5.6602218603,1528
127109,183180,240506,7.7970124421,1.7276179172000001,5.6602218603,1529
