green,red,IR,acc_x,acc_y,acc_z,sample_index
75026,192020,227990,0.8901300072,-4.7629133853,-8.398807326,1
74220,191907,227897,0.8817551281,-4.9028935074,-8.4562350684,2
73762,191784,227811,0.9188438784,-4.8777688701,-8.4263247859,3
73749,191828,227798,0.933200814,-4.8155554825,-8.4394853102,4
73906,191835,227862,0.8063812161999999,-4.8610191119,-8.463413536200001,5
74094,191859,227894,0.873380249,-4.8610191119,-8.4670027701,6
74326,191935,227882,1.0336993632,-4.9435714916,-8.4921274074,7
74423,191944,227923,0.8566304908000001,-4.782055966100001,-8.482556117,8
74491,192026,227902,0.9870393224999999,-4.8897329831,-8.4969130526,9
74449,191987,227975,0.9678967417,-4.713860522,-8.5088771656,10
74613,192024,227984,0.8721838377000001,-4.90528633,-8.49452023,11
74672,192026,227954,0.9104689993,-4.8215375389999995,-8.5399838594,12
74780,192067,227980,0.8327022648,-4.8215375389999995,-8.4490566006,13
74870,192068,228043,0.9140582332,-4.8203411277,-8.4263247859,14
75029,192101,228009,0.8434699665000001,-4.881358104,-8.4741812379,15
75104,192142,228063,0.9559326287,-4.7282174576000005,-8.5495551498,16
75256,192185,228098,0.885344362,-4.8646083458,-8.4981094639,17
75355,192186,228095,0.7920242806,-4.8203411277,-8.4406817215,18
75429,192188,228077,0.9906285563999999,-4.7533420949,-8.5208412786,19
75539,192211,228070,0.9308079913999999,-4.8490549989,-8.4981094639,20
75204,192143,228038,0.9427721043999999,-4.7557349175,-8.463413536200001,21
74302,191902,227914,0.8039883936,-4.7042892316,-8.419146318100001,22
73790,191746,227784,1.0037890807,-4.8801616927,-8.4693955927,23
73697,191720,227747,0.9906285563999999,-4.9340002012,-8.4514494232,24
73776,191777,227814,1.040877831,-4.8059841921,-8.446663778,25
73886,191795,227859,0.9128618219,-4.8861437492,-8.5040915204,26
74065,191809,227862,0.8685946038000001,-4.8143590712,-8.3401831723,27
74171,191812,227848,0.8997012976000001,-4.941178669,-8.4681991814,28
74231,191825,227859,1.0277173067,-4.8275195955,-8.4358960763,29
74245,191810,227857,0.849452023,-4.9375894351,-8.391628858199999,30
74311,191819,227898,0.8374879099999999,-4.7521456836,-8.5794654323,31
74372,191849,227895,1.0241280728,-4.8670011684,-8.554340795,32
74451,191862,227910,0.7668996433,-4.9507499594,-8.482556117,33
74621,191903,227899,0.9774680320999999,-4.857429878,-8.5028951091,34
74720,191888,227963,0.9487541609,-4.9639104837,-8.410771439,35
74872,191977,227956,0.9619146851999999,-4.9220360882000005,-8.434699665,36
75025,192004,227989,0.9044869428,-4.8741796362,-8.427521197199999,37
75159,192063,227996,0.8901300072,-4.8023949582,-8.4801632944,38
75275,192070,228004,0.8303094421999999,-4.8323052407,-8.4215391407,39
75391,192049,228076,0.8949156524,-4.9579284272,-8.4263247859,40
75254,192095,228080,1.0444670649,-4.7617169740000005,-8.5088771656,41
74399,191891,227936,1.0420742423,-4.850251410199999,-8.4897345848,42
73810,191769,227830,0.9499505722,-4.857429878,-8.4969130526,43
73691,191698,227829,0.8003991597,-4.9734817741,-8.525626923799999,44
73716,191722,227846,0.8673981925,-4.9016970961,-8.5052879317,45
73998,191800,227907,0.9894321450999999,-4.8765724588,-8.4131642616,46
74114,191795,227951,0.8123632727,-4.8251267729,-8.5615192628,47
74264,191845,227955,1.0923235169,-4.8430729424,-8.4993058752,48
74357,191888,227931,0.9990034355,-4.9112683865,-8.525626923799999,49
74437,191875,227964,0.8949156524,-4.8562334667,-8.518448456,50
74452,191928,227981,0.9116654106,-4.8801616927,-8.446663778,51
74524,191938,228000,0.8590233134,-4.7916272565,-8.4693955927,52
74602,191927,228030,0.7884350467,-4.8550370553999995,-8.4610207136,53
74711,191983,227996,0.8590233134,-4.9603212498,-8.4765740605,54
74845,192006,228037,0.9954142015999999,-4.8610191119,-8.463413536200001,55
74993,192065,228074,0.8087740388,-4.8000021356,-8.4263247859,56
75153,192128,228076,0.9619146851999999,-4.7246282237,-8.5399838594,57
75173,192151,228124,0.8398807326,-4.7868416113,-8.4311104311,58
75419,192117,228143,0.9846464999,-4.9124647978,-8.4681991814,59
75488,192191,228120,0.8997012976000001,-4.844269353700001,-8.517252044700001,60
75479,192223,228155,0.8255237969999999,-4.8670011684,-8.4251283746,61
74812,192038,228054,0.9415756931,-4.7868416113,-8.4562350684,62
73896,191817,227919,0.9379864592,-4.869393991,-8.506484343,63
73719,191738,227848,0.849452023,-4.8478585876,-8.5112699882,64
73767,191787,227891,0.9164510558,-4.881358104,-8.450253011900001,65
73900,191818,227933,0.9463613382999999,-4.797609313,-8.4490566006,66
74031,191835,227962,0.8350950873999999,-4.8179483051,-8.475377649199999,67
74142,191839,227958,0.8937192411,-4.881358104,-8.4777704718,68
74214,191832,227955,0.9678967417,-4.845465765,-8.4490566006,69
74281,191800,227929,0.9822536772999999,-4.8622155232,-8.4239319633,70
74243,191877,227993,0.8446663778000001,-4.773681087,-8.4442709554,71
74299,191870,227997,0.8685946038000001,-4.9005006848,-8.4382888989,72
74242,191867,227982,0.9547362173999999,-4.9818566531999995,-8.4729848266,73
74456,191898,227947,0.8769694829,-4.9818566531999995,-8.525626923799999,74
74546,191922,228007,0.9966106129000001,-4.7473600384,-8.542376681999999,75
74694,191973,228021,0.9583254512999999,-4.9100719752,-8.5028951091,76
74816,191993,228071,0.9308079913999999,-4.8251267729,-8.4610207136,77
74925,192015,228036,0.9631110964999999,-4.8394837085,-8.554340795,78
75048,192035,228078,0.9726823869,-4.8514478215,-8.3880396243,79
75152,192041,228076,0.9966106129000001,-4.9962135888,-8.5016986978,80
75266,192119,228098,0.9499505722,-4.9627140724,-8.4514494232,81
74905,192050,228100,0.9643075078,-4.797609313,-8.4131642616,82
74066,191830,227895,0.8949156524,-4.8311088294,-8.5316089803,83
73628,191706,227867,0.9786644433999999,-4.809573426,-8.5112699882,84
73623,191719,227920,0.9415756931,-4.8430729424,-8.404789382499999,85
73773,191780,227916,0.9176474671,-4.9196432655999995,-8.4658063588,86
73937,191870,227984,0.8745766603,-4.8035913695,-8.5316089803,87
74142,191907,227994,1.0444670649,-4.9244289108,-8.4681991814,88
74328,191931,227994,0.9104689993,-4.9340002012,-8.484948939599999,89
74355,191949,228034,0.8889335959,-4.9005006848,-8.4897345848,90
74437,191958,228075,0.9870393224999999,-4.8311088294,-8.459824302300001,91
74516,192015,228092,0.9403792818,-4.8011985469,-8.5040915204,92
74598,191986,228074,1.0025926694,-4.7461636271,-8.5734833758,93
74713,192051,228064,1.0097711372,-5.0033920566,-8.5351982142,94
74850,192090,228063,0.9236295236,-4.9040899186999996,-8.5112699882,95
75005,192123,228147,1.0061819033000001,-4.893322217,-8.49452023,96
75199,192184,228205,0.9020941202,-4.7832523774,-8.5878403114,97
75400,192243,228237,0.9104689993,-4.8909293944,-8.4801632944,98
75530,192289,228269,0.8997012976000001,-4.8143590712,-8.4023965599,99
75661,192311,228247,0.8961120637,-4.8981078622,-8.542376681999999,100
75772,192316,228240,1.0097711372,-4.7988057243,-8.4311104311,101
75842,192343,228299,0.9140582332,-4.8275195955,-8.4394853102,102
75265,192215,228202,0.8422735552,-4.7772703209000005,-8.4813597057,103
74366,192009,228057,0.9463613382999999,-4.7844487887,-8.4873417622,104
74155,191952,228062,0.9786644433999999,-4.8311088294,-8.4526458345,105
74214,191942,228059,0.9260223462,-4.8514478215,-8.5495551498,106
74383,192017,228113,0.8291130308999999,-4.8801616927,-8.5340018029,107
74635,192088,228119,0.8027919822999999,-4.8107698373000005,-8.5794654323,108
74719,192096,228166,0.873380249,-4.9196432655999995,-8.518448456,109
74872,192080,228149,0.8386843212999999,-4.9316073786,-8.4526458345,110
74902,192099,228150,0.9116654106,-4.8598227006,-8.4933238187,111
74929,192124,228168,0.9116654106,-4.8598227006,-8.4933238187,112
74985,192144,228169,0.9116654106,-4.8598227006,-8.4933238187,113
75043,192135,228186,0.9116654106,-4.8598227006,-8.4933238187,114
75141,192133,228173,0.9116654106,-4.8598227006,-8.4933238187,115
75286,192157,228210,0.9116654106,-4.8598227006,-8.4933238187,116
75435,192201,228242,0.9116654106,-4.8598227006,-8.4933238187,117
75607,192279,228222,0.9116654106,-4.8598227006,-8.4933238187,118
75753,192249,228278,0.9116654106,-4.8598227006,-8.4933238187,119
75878,192293,228284,0.9116654106,-4.8598227006,-8.4933238187,120
75998,192331,228242,0.9116654106,-4.8598227006,-8.4933238187,121
76088,192347,228272,0.9116654106,-4.8598227006,-8.4933238187,122
75621,192263,228214,0.9116654106,-4.8598227006,-8.4933238187,123
74841,192081,228136,0.9116654106,-4.8598227006,-8.4933238187,124
74521,191991,228081,0.9116654106,-4.8598227006,-8.4933238187,125
74579,192056,228152,0.9116654106,-4.8598227006,-8.4933238187,126
74743,192096,228120,0.9116654106,-4.8598227006,-8.4933238187,127
74934,192122,228161,0.9116654106,-4.8598227006,-8.4933238187,128
75153,192134,228220,0.9116654106,-4.8598227006,-8.4933238187,129
75357,192180,228264,0.9116654106,-4.8598227006,-8.4933238187,130
75469,192235,228330,0.9116654106,-4.8598227006,-8.4933238187,131
75532,192268,228227,0.9116654106,-4.8598227006,-8.4933238187,132
75608,192281,228314,0.9116654106,-4.8598227006,-8.4933238187,133
75685,192310,228311,0.9116654106,-4.8598227006,-8.4933238187,134
75835,192362,228354,0.9116654106,-4.8598227006,-8.4933238187,135
75982,192375,228351,0.9116654106,-4.8598227006,-8.4933238187,136
76176,192438,228424,0.9116654106,-4.8598227006,-8.4933238187,137
76346,192492,228417,0.9391828704999999,-4.8047877808,-8.482556117,138
76501,192545,228435,0.9391828704999999,-4.8047877808,-8.482556117,139
76635,192554,228429,0.9391828704999999,-4.8047877808,-8.482556117,140
76786,192602,228450,0.9391828704999999,-4.8047877808,-8.482556117,141
76925,192602,228503,0.9391828704999999,-4.8047877808,-8.482556117,142
76859,192646,228451,0.9391828704999999,-4.8047877808,-8.482556117,143
76049,192473,228370,0.9391828704999999,-4.8047877808,-8.482556117,144
75366,192291,228287,0.9391828704999999,-4.8047877808,-8.482556117,145
75241,192286,228248,0.9391828704999999,-4.8047877808,-8.482556117,146
75387,192339,228323,0.9391828704999999,-4.8047877808,-8.482556117,147
75555,192394,228344,0.9391828704999999,-4.8047877808,-8.482556117,148
75730,192409,228335,0.9391828704999999,-4.8047877808,-8.482556117,149
75884,192401,228376,0.9391828704999999,-4.8047877808,-8.482556117,150
75942,192424,228397,0.8530412569000001,-4.8969114509,-8.4885381735,151
75947,192429,228437,0.8530412569000001,-4.8969114509,-8.4885381735,152
75975,192449,228436,0.8530412569000001,-4.8969114509,-8.4885381735,153
76008,192482,228398,0.8530412569000001,-4.8969114509,-8.4885381735,154
76071,192466,228393,0.8530412569000001,-4.8969114509,-8.4885381735,155
76159,192453,228386,0.8530412569000001,-4.8969114509,-8.4885381735,156
76266,192452,228438,0.8530412569000001,-4.8969114509,-8.4885381735,157
76423,192508,228445,0.8530412569000001,-4.8969114509,-8.4885381735,158
76564,192546,228453,0.8530412569000001,-4.8969114509,-8.4885381735,159
76661,192560,228428,0.8530412569000001,-4.8969114509,-8.4885381735,160
76762,192563,228423,0.8530412569000001,-4.8969114509,-8.4885381735,161
76879,192568,228469,0.8530412569000001,-4.8969114509,-8.4885381735,162
76742,192560,228404,0.8530412569000001,-4.8969114509,-8.4885381735,163
75935,192390,228346,0.8530412569000001,-4.8969114509,-8.4885381735,164
75246,192256,228236,0.8530412569000001,-4.8969114509,-8.4885381735,165
75069,192233,228294,0.8530412569000001,-4.8969114509,-8.4885381735,166
75147,192277,228336,0.8530412569000001,-4.8969114509,-8.4885381735,167
75326,192376,228328,0.8530412569000001,-4.8969114509,-8.4885381735,168
75525,192410,228347,0.8530412569000001,-4.8969114509,-8.4885381735,169
75703,192426,228386,0.8530412569000001,-4.8969114509,-8.4885381735,170
75834,192453,228377,0.8530412569000001,-4.8969114509,-8.4885381735,171
75876,192506,228429,0.8530412569000001,-4.8969114509,-8.4885381735,172
75922,192484,228430,0.8530412569000001,-4.8969114509,-8.4885381735,173
76003,192533,228421,0.8530412569000001,-4.8969114509,-8.4885381735,174
76062,192530,228488,0.8530412569000001,-4.8969114509,-8.4885381735,175
76172,192549,228447,0.8207381518,-4.8586262893,-8.417949906799999,176
76315,192627,228511,0.8207381518,-4.8586262893,-8.417949906799999,177
76496,192659,228517,0.8207381518,-4.8586262893,-8.417949906799999,178
76648,192709,228581,0.8207381518,-4.8586262893,-8.417949906799999,179
76792,192734,228580,0.8207381518,-4.8586262893,-8.417949906799999,180
76895,192772,228568,0.8207381518,-4.8586262893,-8.417949906799999,181
77054,192805,228616,0.8207381518,-4.8586262893,-8.417949906799999,182
76809,192770,228611,0.8207381518,-4.8586262893,-8.417949906799999,183
75864,192570,228449,0.8207381518,-4.8586262893,-8.417949906799999,184
75264,192458,228440,0.8207381518,-4.8586262893,-8.417949906799999,185
75172,192481,228401,0.8207381518,-4.8586262893,-8.417949906799999,186
75322,192521,228498,0.8207381518,-4.8586262893,-8.417949906799999,187
75476,192578,228490,0.8207381518,-4.8586262893,-8.417949906799999,188
75695,192625,228553,0.8207381518,-4.8586262893,-8.417949906799999,189
75825,192629,228552,0.8207381518,-4.8586262893,-8.417949906799999,190
75874,192620,228510,0.8207381518,-4.8586262893,-8.417949906799999,191
75878,192639,228514,0.8207381518,-4.8586262893,-8.417949906799999,192
75884,192647,228565,0.8207381518,-4.8586262893,-8.417949906799999,193
75928,192650,228528,0.8207381518,-4.8586262893,-8.417949906799999,194
75988,192643,228594,0.8207381518,-4.8586262893,-8.417949906799999,195
76090,192645,228583,0.8207381518,-4.8586262893,-8.417949906799999,196
76189,192678,228564,0.8207381518,-4.8586262893,-8.417949906799999,197
76332,192724,228636,0.8207381518,-4.8586262893,-8.417949906799999,198
76432,192721,228600,0.8207381518,-4.8586262893,-8.417949906799999,199
76492,192729,228593,0.8207381518,-4.8586262893,-8.417949906799999,200
76588,192687,228604,0.8207381518,-4.8586262893,-8.417949906799999,201
76480,192688,228531,0.8207381518,-4.8586262893,-8.417949906799999,202
75666,192523,228446,0.8207381518,-4.8586262893,-8.417949906799999,203
74901,192375,228414,0.8207381518,-4.8586262893,-8.417949906799999,204
74694,192335,228357,0.8207381518,-4.8586262893,-8.417949906799999,205
74770,192325,228384,0.8207381518,-4.8586262893,-8.417949906799999,206
74908,192362,228419,0.8207381518,-4.8586262893,-8.417949906799999,207
75082,192379,228438,0.8207381518,-4.8586262893,-8.417949906799999,208
75246,192417,228441,0.8207381518,-4.8586262893,-8.417949906799999,209
75344,192424,228449,0.8207381518,-4.8586262893,-8.417949906799999,210
75370,192417,228426,0.8207381518,-4.8586262893,-8.417949906799999,211
75397,192438,228417,0.8207381518,-4.8586262893,-8.417949906799999,212
75469,192440,228476,0.8207381518,-4.8586262893,-8.417949906799999,213
75575,192429,228471,0.8207381518,-4.8586262893,-8.417949906799999,214
75668,192460,228467,0.8207381518,-4.8586262893,-8.417949906799999,215
75811,192479,228502,0.8207381518,-4.8586262893,-8.417949906799999,216
75973,192520,228514,0.8207381518,-4.8586262893,-8.417949906799999,217
76514,192697,228610,0.7477570625,-4.8981078622,-8.419146318100001,218
75936,192558,228485,0.7477570625,-4.8981078622,-8.419146318100001,219
75056,192369,228361,0.7477570625,-4.8981078622,-8.419146318100001,220
74762,192297,228343,0.7477570625,-4.8981078622,-8.419146318100001,221
74833,192332,228387,0.7477570625,-4.8981078622,-8.419146318100001,222
75039,192371,228437,0.7477570625,-4.8981078622,-8.419146318100001,223
75259,192463,228531,0.7477570625,-4.8981078622,-8.419146318100001,224
75476,192459,228514,0.7477570625,-4.8981078622,-8.419146318100001,225
75621,192514,228524,0.7477570625,-4.8981078622,-8.419146318100001,226
75693,192512,228543,0.7477570625,-4.8981078622,-8.419146318100001,227
75774,192580,228607,0.7477570625,-4.8981078622,-8.419146318100001,228
75828,192585,228583,0.7477570625,-4.8981078622,-8.419146318100001,229
75932,192564,228600,0.7477570625,-4.8981078622,-8.419146318100001,230
76059,192577,228555,0.7477570625,-4.8981078622,-8.419146318100001,231
76197,192648,228617,0.7477570625,-4.8981078622,-8.419146318100001,232
76363,192684,228663,0.7477570625,-4.8981078622,-8.419146318100001,233
76519,192714,228674,0.7477570625,-4.8981078622,-8.419146318100001,234
76633,192737,228673,0.7477570625,-4.8981078622,-8.419146318100001,235
76742,192717,228696,0.7477570625,-4.8981078622,-8.419146318100001,236
76822,192750,228680,0.7477570625,-4.8981078622,-8.419146318100001,237
76327,192669,228613,0.7477570625,-4.8981078622,-8.419146318100001,238
75428,192414,228450,0.7477570625,-4.8981078622,-8.419146318100001,239
75087,192340,228443,0.7477570625,-4.8981078622,-8.419146318100001,240
75127,192365,228413,0.7477570625,-4.8981078622,-8.419146318100001,241
75290,192437,228457,0.7477570625,-4.8981078622,-8.419146318100001,242
75447,192444,228526,0.7477570625,-4.8981078622,-8.419146318100001,243
75610,192418,228473,0.9188438784,-4.8370908858999995,-8.434699665,244
75717,192439,228514,0.9188438784,-4.8370908858999995,-8.434699665,245
75756,192418,228523,0.9188438784,-4.8370908858999995,-8.434699665,246
75812,192438,228480,0.9188438784,-4.8370908858999995,-8.434699665,247
75883,192454,228532,0.9188438784,-4.8370908858999995,-8.434699665,248
75972,192508,228542,0.9188438784,-4.8370908858999995,-8.434699665,249
76058,192482,228576,0.9188438784,-4.8370908858999995,-8.434699665,250
76172,192494,228528,0.9188438784,-4.8370908858999995,-8.434699665,251
76307,192529,228569,0.9188438784,-4.8370908858999995,-8.434699665,252
76458,192559,228582,0.9188438784,-4.8370908858999995,-8.434699665,253
76582,192569,228558,0.9188438784,-4.8370908858999995,-8.434699665,254
76710,192541,228548,0.9188438784,-4.8370908858999995,-8.434699665,255
76816,192618,228557,0.8350950873999999,-4.7700918531,-8.4155570842,256
76435,192518,228570,0.8350950873999999,-4.7700918531,-8.4155570842,257
75610,192338,228445,0.8350950873999999,-4.7700918531,-8.4155570842,258
75207,192241,228354,0.9523433948,-4.8801616927,-8.5005022865,259
75210,192223,228395,0.9068797654,-4.926821733400001,-8.4897345848,260
75372,192285,228397,0.9619146851999999,-4.9423750803,-8.4478601893,261
75488,192328,228457,0.9463613382999999,-4.8885365718,-8.4514494232,262
75696,192357,228437,0.9631110964999999,-4.8287160068,-8.4215391407,263
75943,192397,228453,0.9403792818,-5.0273202826,-8.4550386571,264
76046,192423,228460,0.873380249,-4.9196432655999995,-8.4729848266,265
76103,192441,228484,0.9236295236,-4.748556449700001,-8.470592004,266
76171,192449,228485,0.9559326287,-4.926821733400001,-8.4873417622,267
76256,192453,228528,0.9499505722,-4.9447679029,-8.5016986978,268
76277,192452,228518,0.9798608547,-4.8251267729,-8.484948939599999,269
76548,192519,228572,0.9475577495999999,-4.8071806034,-8.5016986978,270
76696,192562,228582,0.9631110964999999,-4.9112683865,-8.529216157699999,271
76861,192618,228642,0.8590233134,-4.9387858464,-8.4382888989,272
76998,192654,228604,0.8709874264,-4.9100719752,-8.4993058752,273
77124,192547,228620,0.9738787981999999,-4.8957150396,-8.4765740605,274
77287,192676,228623,0.7944171031999999,-4.7282174576000005,-8.4203427294,275
77046,192643,228636,0.9116654106,-4.8179483051,-8.4406817215,276
76323,192454,228508,0.8673981925,-4.833501652,-8.4263247859,277
75737,192330,228388,0.9798608547,-4.7162533446,-8.5005022865,278
75638,192306,228482,1.0564311779,-4.7365923367,-8.590233134,279
75719,192349,228428,0.8685946038000001,-4.857429878,-8.3593257531,280
75909,192413,228471,0.9786644433999999,-4.9495535481,-8.4670027701,281
76127,192445,228478,0.8087740388,-4.9005006848,-8.4897345848,282
76310,192469,228498,0.9702895642999999,-4.8203411277,-8.5088771656,283
76414,192475,228530,0.9942177902999999,-4.6815574169,-8.5016986978,284
76392,192492,228522,0.9822536772999999,-4.8909293944,-8.3784683339,285
76457,192510,228558,0.8111668613999999,-4.845465765,-8.49452023,286
76537,192538,228542,0.7525427077,-4.8670011684,-8.4993058752,287
76592,192532,228585,1.028913718,-4.9483571368,-8.5232341012,288
76600,192520,228526,0.8805587168,-4.9316073786,-8.566304908,289
76798,192542,228545,0.7932206919,-4.8658047571,-8.475377649199999,290
76931,192563,228560,0.8949156524,-4.8598227006,-8.4897345848,291
77040,192658,228570,0.8398807326,-4.8311088294,-8.4897345848,292
77060,192594,228571,0.9427721043999999,-4.9663033062999995,-8.446663778,293
77199,192600,228583,0.9236295236,-5.010570524399999,-8.4370924876,294
77032,192558,228514,0.753739119,-4.8646083458,-8.4370924876,295
76226,192376,228442,0.8350950873999999,-4.8777688701,-8.446663778,296
75640,192206,228290,0.9738787981999999,-4.8107698373000005,-8.4071822051,297
75417,192147,228328,0.8781658942,-4.9124647978,-8.4143606729,298
75464,192190,228261,0.8781658942,-4.9124647978,-8.4143606729,299
75575,192232,228307,0.8781658942,-4.9124647978,-8.4143606729,300
75719,192214,228329,0.8781658942,-4.9124647978,-8.4143606729,301
75872,192281,228340,0.8781658942,-4.9124647978,-8.4143606729,302
75920,192241,228353,0.8781658942,-4.9124647978,-8.4143606729,303
75930,192232,228370,0.8781658942,-4.9124647978,-8.4143606729,304
75973,192253,228330,0.8781658942,-4.9124647978,-8.4143606729,305
76036,192223,228369,0.8781658942,-4.9124647978,-8.4143606729,306
76122,192272,228350,0.8781658942,-4.9124647978,-8.4143606729,307
76218,192283,228315,0.8781658942,-4.9124647978,-8.4143606729,308
76343,192303,228364,0.8781658942,-4.9124647978,-8.4143606729,309
76488,192362,228422,0.8781658942,-4.9124647978,-8.4143606729,310
76599,192380,228418,0.8781658942,-4.9124647978,-8.4143606729,311
76744,192375,228404,0.8781658942,-4.9124647978,-8.4143606729,312
76854,192417,228419,0.8781658942,-4.9124647978,-8.4143606729,313
76940,192434,228436,0.8781658942,-4.9124647978,-8.4143606729,314
76433,192338,228401,0.8781658942,-4.9124647978,-8.4143606729,315
75604,192172,228263,0.8781658942,-4.9124647978,-8.4143606729,316
75224,192083,228222,0.8781658942,-4.9124647978,-8.4143606729,317
75216,192112,228207,0.8781658942,-4.9124647978,-8.4143606729,318
75338,192129,228187,0.8781658942,-4.9124647978,-8.4143606729,319
75489,192208,228238,0.8781658942,-4.9124647978,-8.4143606729,320
75669,192197,228264,0.8781658942,-4.9124647978,-8.4143606729,321
75770,192245,228274,0.8781658942,-4.9124647978,-8.4143606729,322
75838,192259,228273,0.8781658942,-4.9124647978,-8.4143606729,323
75874,192255,228275,0.8781658942,-4.9124647978,-8.4143606729,324
75939,192281,228313,0.8781658942,-4.9124647978,-8.4143606729,325
76015,192279,228296,0.9487541609,-4.953142782,-8.4801632944,326
76117,192303,228341,0.9487541609,-4.953142782,-8.4801632944,327
76252,192359,228401,0.9487541609,-4.953142782,-8.4801632944,328
76412,192397,228354,0.9487541609,-4.953142782,-8.4801632944,329
76578,192441,228393,0.9487541609,-4.953142782,-8.4801632944,330
76723,192491,228440,0.9487541609,-4.953142782,-8.4801632944,331
76843,192534,228466,0.9487541609,-4.953142782,-8.4801632944,332
76975,192518,228430,0.9487541609,-4.953142782,-8.4801632944,333
77082,192556,228413,0.9487541609,-4.953142782,-8.4801632944,334
76950,192558,228454,0.9487541609,-4.953142782,-8.4801632944,335
76120,192370,228339,0.9487541609,-4.953142782,-8.4801632944,336
75476,192185,228217,0.9487541609,-4.953142782,-8.4801632944,337
75326,192176,228212,0.9487541609,-4.953142782,-8.4801632944,338
75437,192210,228257,0.9487541609,-4.953142782,-8.4801632944,339
75592,192237,228269,0.9487541609,-4.953142782,-8.4801632944,340
75756,192267,228305,0.9487541609,-4.953142782,-8.4801632944,341
75875,192267,228283,0.9487541609,-4.953142782,-8.4801632944,342
75892,192293,228293,0.9487541609,-4.953142782,-8.4801632944,343
75912,192294,228288,0.9487541609,-4.953142782,-8.4801632944,344
75958,192279,228309,0.9487541609,-4.953142782,-8.4801632944,345
75986,192314,228276,0.9487541609,-4.953142782,-8.4801632944,346
76055,192291,228289,0.9487541609,-4.953142782,-8.4801632944,347
76128,192271,228238,0.9487541609,-4.953142782,-8.4801632944,348
76256,192313,228348,0.9487541609,-4.953142782,-8.4801632944,349
76404,192337,228312,0.9487541609,-4.953142782,-8.4801632944,350
76539,192409,228284,0.9487541609,-4.953142782,-8.4801632944,351
76633,192417,228322,0.9487541609,-4.953142782,-8.4801632944,352
76715,192385,228314,0.9487541609,-4.953142782,-8.4801632944,353
76805,192424,228288,0.9487541609,-4.953142782,-8.4801632944,354
76836,192435,228260,0.9487541609,-4.953142782,-8.4801632944,355
76235,192309,228204,0.9487541609,-4.953142782,-8.4801632944,356
75467,192126,228071,0.9487541609,-4.953142782,-8.4801632944,357
75186,192066,228062,0.9487541609,-4.953142782,-8.4801632944,358
75198,192071,228086,0.9487541609,-4.953142782,-8.4801632944,359
75331,192083,228113,0.9487541609,-4.953142782,-8.4801632944,360
75491,192164,228129,0.9487541609,-4.953142782,-8.4801632944,361
75696,192173,228116,0.9487541609,-4.953142782,-8.4801632944,362
75825,192165,228127,0.9487541609,-4.953142782,-8.4801632944,363
75873,192225,228157,0.9487541609,-4.953142782,-8.4801632944,364
75935,192235,228173,0.9487541609,-4.953142782,-8.4801632944,365
76012,192268,228198,0.9487541609,-4.953142782,-8.4801632944,366
76103,192280,228218,0.9487541609,-4.953142782,-8.4801632944,367
76652,192388,228267,0.9080761767,-4.8681975797,-8.427521197199999,368
76794,192466,228295,0.9080761767,-4.8681975797,-8.427521197199999,369
76950,192518,228341,0.9080761767,-4.8681975797,-8.427521197199999,370
77047,192517,228370,0.9080761767,-4.8681975797,-8.427521197199999,371
77149,192519,228370,0.9080761767,-4.8681975797,-8.427521197199999,372
77206,192543,228301,0.9080761767,-4.8681975797,-8.427521197199999,373
76604,192449,228269,0.9080761767,-4.8681975797,-8.427521197199999,374
75780,192223,228111,0.9080761767,-4.8681975797,-8.427521197199999,375
75487,192164,228065,0.9080761767,-4.8681975797,-8.427521197199999,376
75524,192205,228124,0.9080761767,-4.8681975797,-8.427521197199999,377
75673,192246,228168,0.9080761767,-4.8681975797,-8.427521197199999,378
75807,192276,228164,0.9080761767,-4.8681975797,-8.427521197199999,379
75950,192300,228210,0.9080761767,-4.8681975797,-8.427521197199999,380
76019,192295,228185,0.9080761767,-4.8681975797,-8.427521197199999,381
76054,192313,228188,0.9080761767,-4.8681975797,-8.427521197199999,382
76091,192354,228170,0.9080761767,-4.8681975797,-8.427521197199999,383
76120,192310,228200,0.9080761767,-4.8681975797,-8.427521197199999,384
76152,192329,228212,0.9080761767,-4.8681975797,-8.427521197199999,385
76210,192318,228199,0.9080761767,-4.8681975797,-8.427521197199999,386
76271,192347,228194,0.9080761767,-4.8681975797,-8.427521197199999,387
76382,192339,228195,0.9080761767,-4.8681975797,-8.427521197199999,388
76521,192380,228259,0.9080761767,-4.8681975797,-8.427521197199999,389
76630,192420,228282,0.9080761767,-4.8681975797,-8.427521197199999,390
76725,192396,228208,0.9080761767,-4.8681975797,-8.427521197199999,391
76803,192438,228249,0.9080761767,-4.8681975797,-8.427521197199999,392
76901,192436,228235,0.9080761767,-4.8681975797,-8.427521197199999,393
76855,192432,228239,0.9080761767,-4.8681975797,-8.427521197199999,394
76140,192262,228145,0.9080761767,-4.8681975797,-8.427521197199999,395
75372,192097,228011,0.9080761767,-4.8681975797,-8.427521197199999,396
75129,192058,228013,0.9080761767,-4.8681975797,-8.427521197199999,397
75183,192088,228013,0.9080761767,-4.8681975797,-8.427521197199999,398
75331,192155,228072,0.9080761767,-4.8681975797,-8.427521197199999,399
75467,192175,228060,0.9080761767,-4.8681975797,-8.427521197199999,400
75634,192223,228106,0.9080761767,-4.8681975797,-8.427521197199999,401
75722,192213,228150,0.9080761767,-4.8681975797,-8.427521197199999,402
75779,192222,228088,0.9080761767,-4.8681975797,-8.427521197199999,403
75792,192232,228119,0.9080761767,-4.8681975797,-8.427521197199999,404
75854,192284,228139,0.9080761767,-4.8681975797,-8.427521197199999,405
75946,192291,228144,0.933200814,-4.9076791526,-8.4406817215,406
76037,192318,228152,0.933200814,-4.9076791526,-8.4406817215,407
76171,192371,228192,0.933200814,-4.9076791526,-8.4406817215,408
76295,192373,228197,0.933200814,-4.9076791526,-8.4406817215,409
76417,192393,228243,0.933200814,-4.9076791526,-8.4406817215,410
76562,192446,228280,0.933200814,-4.9076791526,-8.4406817215,411
76688,192529,228259,0.933200814,-4.9076791526,-8.4406817215,412
76809,192494,228255,0.933200814,-4.9076791526,-8.4406817215,413
76902,192542,228306,0.933200814,-4.9076791526,-8.4406817215,414
77036,192571,228264,0.933200814,-4.9076791526,-8.4406817215,415
76599,192511,228229,0.933200814,-4.9076791526,-8.4406817215,416
75683,192286,228085,0.933200814,-4.9076791526,-8.4406817215,417
75173,192197,228061,0.933200814,-4.9076791526,-8.4406817215,418
75123,192211,228044,0.9762716208,-4.929214556,-8.556733617599999,419
75283,192274,228079,0.9762716208,-4.929214556,-8.556733617599999,420
75421,192282,228114,0.9762716208,-4.929214556,-8.556733617599999,421
75549,192281,228129,0.9762716208,-4.929214556,-8.556733617599999,422
75655,192273,228175,0.9762716208,-4.929214556,-8.556733617599999,423
75687,192288,228152,0.9762716208,-4.929214556,-8.556733617599999,424
75676,192303,228160,0.9762716208,-4.929214556,-8.556733617599999,425
75695,192314,228139,0.9762716208,-4.929214556,-8.556733617599999,426
75729,192310,228152,0.9762716208,-4.929214556,-8.556733617599999,427
75772,192296,228156,0.9762716208,-4.929214556,-8.556733617599999,428
75872,192295,228139,0.9762716208,-4.929214556,-8.556733617599999,429
75972,192322,228207,0.9762716208,-4.929214556,-8.556733617599999,430
76084,192327,228184,0.9762716208,-4.929214556,-8.556733617599999,431
76223,192397,228164,0.9762716208,-4.929214556,-8.556733617599999,432
76327,192427,228204,0.9762716208,-4.929214556,-8.556733617599999,433
76407,192402,228180,0.9762716208,-4.929214556,-8.556733617599999,434
76495,192393,228173,0.9762716208,-4.929214556,-8.556733617599999,435
76582,192463,228225,0.9762716208,-4.929214556,-8.556733617599999,436
76167,192385,228124,0.9762716208,-4.929214556,-8.556733617599999,437
75281,192144,228028,0.9762716208,-4.929214556,-8.556733617599999,438
74801,192061,227950,0.9762716208,-4.929214556,-8.556733617599999,439
74776,192070,227956,0.9762716208,-4.929214556,-8.556733617599999,440
74906,192121,228007,0.9762716208,-4.929214556,-8.556733617599999,441
75078,192164,228056,0.9762716208,-4.929214556,-8.556733617599999,442
75272,192203,228094,0.9762716208,-4.929214556,-8.556733617599999,443
75418,192232,228071,0.9762716208,-4.929214556,-8.556733617599999,444
75497,192249,228131,0.9762716208,-4.929214556,-8.556733617599999,445
75537,192258,228093,0.9762716208,-4.929214556,-8.556733617599999,446
75579,192308,228150,0.9762716208,-4.929214556,-8.556733617599999,447
75654,192284,228113,0.9762716208,-4.929214556,-8.556733617599999,448
75740,192342,228149,0.9762716208,-4.929214556,-8.556733617599999,449
75872,192357,228158,0.9762716208,-4.929214556,-8.556733617599999,450
76013,192401,228192,0.9762716208,-4.929214556,-8.556733617599999,451
76154,192431,228248,0.9762716208,-4.929214556,-8.556733617599999,452
76311,192456,228257,0.9762716208,-4.929214556,-8.556733617599999,453
76460,192523,228283,0.9762716208,-4.929214556,-8.556733617599999,454
76559,192543,228294,0.9762716208,-4.929214556,-8.556733617599999,455
76686,192536,228257,0.9762716208,-4.929214556,-8.556733617599999,456
76806,192580,228300,0.9762716208,-4.929214556,-8.556733617599999,457
76463,192519,228234,0.9762716208,-4.929214556,-8.556733617599999,458
75530,192345,228114,0.9762716208,-4.929214556,-8.556733617599999,459
75010,192183,228111,0.9762716208,-4.929214556,-8.556733617599999,460
76356,192457,228230,0.8518448456000001,-4.8801616927,-8.4897345848,461
76439,192426,228220,0.8518448456000001,-4.8801616927,-8.4897345848,462
76417,192441,228231,0.8518448456000001,-4.8801616927,-8.4897345848,463
75692,192293,228144,0.8518448456000001,-4.8801616927,-8.4897345848,464
74916,192105,228008,0.8518448456000001,-4.8801616927,-8.4897345848,465
74677,192094,228002,0.8518448456000001,-4.8801616927,-8.4897345848,466
74745,192115,228032,0.8518448456000001,-4.8801616927,-8.4897345848,467
74907,192168,228053,0.8518448456000001,-4.8801616927,-8.4897345848,468
75094,192212,228127,0.8518448456000001,-4.8801616927,-8.4897345848,469
75283,192217,228131,0.8518448456000001,-4.8801616927,-8.4897345848,470
75398,192253,228161,0.8518448456000001,-4.8801616927,-8.4897345848,471
75468,192280,228188,0.8518448456000001,-4.8801616927,-8.4897345848,472
75510,192289,228236,0.8518448456000001,-4.8801616927,-8.4897345848,473
75592,192303,228189,0.8518448456000001,-4.8801616927,-8.4897345848,474
75670,192322,228187,0.8518448456000001,-4.8801616927,-8.4897345848,475
75774,192356,228195,0.8518448456000001,-4.8801616927,-8.4897345848,476
75916,192393,228255,0.8518448456000001,-4.8801616927,-8.4897345848,477
76072,192453,228314,0.8518448456000001,-4.8801616927,-8.4897345848,478
76202,192492,228270,0.8518448456000001,-4.8801616927,-8.4897345848,479
76356,192519,228304,0.8518448456000001,-4.8801616927,-8.4897345848,480
76494,192558,228293,0.8518448456000001,-4.8801616927,-8.4897345848,481
76607,192531,228329,0.8518448456000001,-4.8801616927,-8.4897345848,482
76732,192620,228411,0.8518448456000001,-4.8801616927,-8.4897345848,483
76515,192576,228336,0.8518448456000001,-4.8801616927,-8.4897345848,484
75638,192366,228193,0.8518448456000001,-4.8801616927,-8.4897345848,485
75013,192194,228070,0.8518448456000001,-4.8801616927,-8.4897345848,486
74936,192220,228127,0.8518448456000001,-4.8801616927,-8.4897345848,487
75052,192248,228168,0.8518448456000001,-4.8801616927,-8.4897345848,488
75195,192309,228154,0.8518448456000001,-4.8801616927,-8.4897345848,489
75401,192343,228257,0.8518448456000001,-4.8801616927,-8.4897345848,490
75527,192350,228279,0.8518448456000001,-4.8801616927,-8.4897345848,491
75597,192298,228244,0.8518448456000001,-4.8801616927,-8.4897345848,492
75628,192383,228249,0.8518448456000001,-4.8801616927,-8.4897345848,493
75664,192395,228245,0.8518448456000001,-4.8801616927,-8.4897345848,494
75697,192410,228264,0.8518448456000001,-4.8801616927,-8.4897345848,495
75752,192362,228268,0.8518448456000001,-4.8801616927,-8.4897345848,496
75832,192381,228239,0.8518448456000001,-4.8801616927,-8.4897345848,497
75934,192410,228295,0.8518448456000001,-4.8801616927,-8.4897345848,498
76057,192427,228294,0.8518448456000001,-4.8801616927,-8.4897345848,499
76197,192458,228300,0.8518448456000001,-4.8801616927,-8.4897345848,500
76297,192444,228256,0.8518448456000001,-4.8801616927,-8.4897345848,501
76377,192454,228297,0.8518448456000001,-4.8801616927,-8.4897345848,502
75539,192272,228249,0.9655039191,-4.8562334667,-8.482556117,503
75658,192313,228299,0.9655039191,-4.8562334667,-8.482556117,504
75729,192331,228340,0.9655039191,-4.8562334667,-8.482556117,505
75772,192367,228321,0.9655039191,-4.8562334667,-8.482556117,506
75843,192381,228320,0.9655039191,-4.8562334667,-8.482556117,507
75929,192380,228335,0.9655039191,-4.8562334667,-8.482556117,508
76031,192403,228341,0.9655039191,-4.8562334667,-8.482556117,509
76190,192448,228373,0.9655039191,-4.8562334667,-8.482556117,510
76353,192469,228384,0.9655039191,-4.8562334667,-8.482556117,511
76518,192536,228402,0.9655039191,-4.8562334667,-8.482556117,512
76664,192567,228457,0.9655039191,-4.8562334667,-8.482556117,513
76776,192561,228454,0.9655039191,-4.8562334667,-8.482556117,514
76888,192604,228436,0.9655039191,-4.8562334667,-8.482556117,515
76886,192599,228501,0.9655039191,-4.8562334667,-8.482556117,516
76180,192463,228379,0.9655039191,-4.8562334667,-8.482556117,517
75387,192272,228260,0.9655039191,-4.8562334667,-8.482556117,518
75149,192225,228242,0.9655039191,-4.8562334667,-8.482556117,519
75196,192240,228253,0.9655039191,-4.8562334667,-8.482556117,520
75351,192294,228339,0.9655039191,-4.8562334667,-8.482556117,521
75547,192305,228334,0.9655039191,-4.8562334667,-8.482556117,522
75725,192343,228348,0.9655039191,-4.8562334667,-8.482556117,523
75775,192341,228370,0.9655039191,-4.8562334667,-8.482556117,524
75767,192332,228401,0.9655039191,-4.8562334667,-8.482556117,525
75792,192351,228375,0.9655039191,-4.8562334667,-8.482556117,526
75833,192355,228349,0.9655039191,-4.8562334667,-8.482556117,527
75893,192327,228354,0.9655039191,-4.8562334667,-8.482556117,528
75969,192306,228358,0.9655039191,-4.8562334667,-8.482556117,529
76064,192333,228385,0.9655039191,-4.8562334667,-8.482556117,530
76172,192368,228394,0.9655039191,-4.8562334667,-8.482556117,531
76319,192402,228410,0.9655039191,-4.8562334667,-8.482556117,532
76435,192382,228403,0.9655039191,-4.8562334667,-8.482556117,533
76506,192411,228380,0.9655039191,-4.8562334667,-8.482556117,534
76609,192394,228378,0.9655039191,-4.8562334667,-8.482556117,535
76495,192388,228366,0.9655039191,-4.8562334667,-8.482556117,536
75669,192225,228271,0.9655039191,-4.8562334667,-8.482556117,537
74993,192093,228206,0.9655039191,-4.8562334667,-8.482556117,538
74812,192057,228169,0.9655039191,-4.8562334667,-8.482556117,539
74894,192076,228211,0.9655039191,-4.8562334667,-8.482556117,540
75038,192111,228209,0.9655039191,-4.8562334667,-8.482556117,541
75197,192152,228257,1.0612168231,-4.9196432655999995,-8.419146318100001,542
75374,192185,228252,1.0612168231,-4.9196432655999995,-8.419146318100001,543
75477,192222,228285,1.0612168231,-4.9196432655999995,-8.419146318100001,544
75542,192237,228327,1.0612168231,-4.9196432655999995,-8.419146318100001,545
75619,192250,228332,1.0612168231,-4.9196432655999995,-8.419146318100001,546
75658,192286,228347,1.0612168231,-4.9196432655999995,-8.419146318100001,547
75742,192273,228347,1.0612168231,-4.9196432655999995,-8.419146318100001,548
75850,192282,228353,1.0612168231,-4.9196432655999995,-8.419146318100001,549
76003,192363,228328,1.0612168231,-4.9196432655999995,-8.419146318100001,550
76150,192375,228419,1.0612168231,-4.9196432655999995,-8.419146318100001,551
76330,192440,228429,1.0612168231,-4.9196432655999995,-8.419146318100001,552
76478,192483,228489,1.0612168231,-4.9196432655999995,-8.419146318100001,553
76605,192509,228454,1.0612168231,-4.9196432655999995,-8.419146318100001,554
76717,192512,228464,1.0612168231,-4.9196432655999995,-8.419146318100001,555
76730,192536,228450,1.0612168231,-4.9196432655999995,-8.419146318100001,556
76008,192370,228369,1.0612168231,-4.9196432655999995,-8.419146318100001,557
75201,192199,228279,1.0612168231,-4.9196432655999995,-8.419146318100001,558
74944,192145,228204,1.0612168231,-4.9196432655999995,-8.419146318100001,559
74997,192175,228273,1.0612168231,-4.9196432655999995,-8.419146318100001,560
75156,192234,228324,1.0612168231,-4.9196432655999995,-8.419146318100001,561
75310,192285,228360,1.0612168231,-4.9196432655999995,-8.419146318100001,562
75481,192278,228328,1.0612168231,-4.9196432655999995,-8.419146318100001,563
75546,192278,228349,1.0612168231,-4.9196432655999995,-8.419146318100001,564
75550,192291,228371,1.0612168231,-4.9196432655999995,-8.419146318100001,565
75575,192312,228352,1.0612168231,-4.9196432655999995,-8.419146318100001,566
75595,192307,228416,1.0612168231,-4.9196432655999995,-8.419146318100001,567
75628,192318,228405,1.0612168231,-4.9196432655999995,-8.419146318100001,568
75684,192285,228331,1.0612168231,-4.9196432655999995,-8.419146318100001,569
75798,192323,228386,1.0612168231,-4.9196432655999995,-8.419146318100001,570
75895,192352,228358,1.0612168231,-4.9196432655999995,-8.419146318100001,571
76032,192341,228362,1.0612168231,-4.9196432655999995,-8.419146318100001,572
76134,192404,228367,1.0612168231,-4.9196432655999995,-8.419146318100001,573
76219,192364,228413,1.0612168231,-4.9196432655999995,-8.419146318100001,574
76292,192371,228387,1.0612168231,-4.9196432655999995,-8.419146318100001,575
76129,192343,228366,1.0612168231,-4.9196432655999995,-8.419146318100001,576
75287,192151,228270,1.0612168231,-4.9196432655999995,-8.419146318100001,577
74597,191977,228174,1.0612168231,-4.9196432655999995,-8.419146318100001,578
74409,191946,228130,1.0612168231,-4.9196432655999995,-8.419146318100001,579
74489,191982,228100,1.0612168231,-4.9196432655999995,-8.419146318100001,580
74630,192027,228174,1.0612168231,-4.9196432655999995,-8.419146318100001,581
74766,192058,228183,1.0612168231,-4.9196432655999995,-8.419146318100001,582
74931,192066,228211,1.0612168231,-4.9196432655999995,-8.419146318100001,583
75046,192089,228209,0.8781658942,-4.8490549989,-8.5232341012,584
75110,192100,228189,0.8781658942,-4.8490549989,-8.5232341012,585
75163,192082,228216,0.8781658942,-4.8490549989,-8.5232341012,586
75256,192106,228191,0.8781658942,-4.8490549989,-8.5232341012,587
75403,192132,228238,0.8781658942,-4.8490549989,-8.5232341012,588
75522,192195,228256,0.8781658942,-4.8490549989,-8.5232341012,589
75643,192168,228253,0.8781658942,-4.8490549989,-8.5232341012,590
75773,192217,228201,0.8781658942,-4.8490549989,-8.5232341012,591
75884,192246,228272,0.8781658942,-4.8490549989,-8.5232341012,592
76017,192222,228283,0.8781658942,-4.8490549989,-8.5232341012,593
75819,192243,228256,0.8781658942,-4.8490549989,-8.5232341012,594
74994,192048,228184,0.8781658942,-4.8490549989,-8.5232341012,595
74419,191905,228021,0.8781658942,-4.8490549989,-8.5232341012,596
74334,191928,228089,0.8805587168,-4.9387858464,-8.482556117,597
74487,191926,228092,0.8805587168,-4.9387858464,-8.482556117,598
74638,192026,228129,0.8805587168,-4.9387858464,-8.482556117,599
74831,192041,228101,0.8805587168,-4.9387858464,-8.482556117,600
75008,192070,228112,0.8805587168,-4.9387858464,-8.482556117,601
75097,192080,228115,0.8805587168,-4.9387858464,-8.482556117,602
75161,192117,228160,0.8805587168,-4.9387858464,-8.482556117,603
75225,192127,228168,0.8805587168,-4.9387858464,-8.482556117,604
75282,192193,228194,0.8805587168,-4.9387858464,-8.482556117,605
75408,192170,228189,0.8805587168,-4.9387858464,-8.482556117,606
75518,192197,228243,0.8805587168,-4.9387858464,-8.482556117,607
75673,192249,228191,0.8805587168,-4.9387858464,-8.482556117,608
75820,192278,228256,0.8805587168,-4.9387858464,-8.482556117,609
75962,192335,228265,0.9583254512999999,-4.9698925402,-8.5950187792,610
76114,192366,228268,0.9583254512999999,-4.9698925402,-8.5950187792,611
76220,192360,228341,0.9355936366,-4.8011985469,-8.538787448099999,612
76355,192417,228333,0.9595218625999999,-4.965106895,-8.3856468017,613
76170,192375,228272,0.9511469834999999,-4.9196432655999995,-8.3940216808,614
75288,192175,228150,0.9595218625999999,-4.8382872972,-8.530412569000001,615
74744,192030,227988,1.0013962581,-4.9794638306,-8.5040915204,616
74654,192028,228034,0.9355936366,-5.0380879843,-8.4550386571,617
74786,192062,228103,0.9355936366,-5.0380879843,-8.4550386571,618
74955,192101,228162,0.9355936366,-5.0380879843,-8.4550386571,619
75137,192123,228132,0.9355936366,-5.0380879843,-8.4550386571,620
75298,192156,228110,0.9355936366,-5.0380879843,-8.4550386571,621
75341,192140,228108,0.9355936366,-5.0380879843,-8.4550386571,622
75340,192146,228103,0.9355936366,-5.0380879843,-8.4550386571,623
75379,192185,228124,0.9355936366,-5.0380879843,-8.4550386571,624
75441,192192,228104,0.9355936366,-5.0380879843,-8.4550386571,625
75490,192179,228117,0.9355936366,-5.0380879843,-8.4550386571,626
75573,192172,228108,0.9355936366,-5.0380879843,-8.4550386571,627
75692,192239,228119,0.9355936366,-5.0380879843,-8.4550386571,628
75838,192251,228126,0.9355936366,-5.0380879843,-8.4550386571,629
75963,192235,228162,0.9355936366,-5.0380879843,-8.4550386571,630
76064,192273,228103,0.9355936366,-5.0380879843,-8.4550386571,631
76150,192273,228143,0.9355936366,-5.0380879843,-8.4550386571,632
76139,192280,228105,0.9355936366,-5.0380879843,-8.4550386571,633
75498,192131,228025,0.9355936366,-5.0380879843,-8.4550386571,634
74717,191923,227939,0.9355936366,-5.0380879843,-8.4550386571,635
74445,191850,227851,0.9355936366,-5.0380879843,-8.4550386571,636
74454,191866,227825,0.9355936366,-5.0380879843,-8.4550386571,637
74602,191930,227836,0.9355936366,-5.0380879843,-8.4550386571,638
74759,191962,227868,0.9355936366,-5.0380879843,-8.4550386571,639
74953,191979,227915,0.9355936366,-5.0380879843,-8.4550386571,640
75036,191946,227927,0.9355936366,-5.0380879843,-8.4550386571,641
75070,191965,227892,0.9355936366,-5.0380879843,-8.4550386571,642
75099,191981,227927,0.9355936366,-5.0380879843,-8.4550386571,643
75163,191979,227901,0.9355936366,-5.0380879843,-8.4550386571,644
75237,192013,227895,0.9355936366,-5.0380879843,-8.4550386571,645
75328,192039,227952,0.9355936366,-5.0380879843,-8.4550386571,646
75474,192049,227953,0.9355936366,-5.0380879843,-8.4550386571,647
75634,192111,227952,0.9355936366,-5.0380879843,-8.4550386571,648
75793,192146,228017,0.9355936366,-5.0380879843,-8.4550386571,649
75920,192151,227950,0.9355936366,-5.0380879843,-8.4550386571,650
76063,192169,227966,0.9355936366,-5.0380879843,-8.4550386571,651
76201,192237,228024,0.9355936366,-5.0380879843,-8.4550386571,652
75821,192190,228001,0.9355936366,-5.0380879843,-8.4550386571,653
74983,191976,227828,0.7585247642,-4.797609313,-8.530412569000001,654
74526,191835,227741,0.7585247642,-4.797609313,-8.530412569000001,655
74490,191856,227771,0.7585247642,-4.797609313,-8.530412569000001,656
74633,191921,227803,0.7585247642,-4.797609313,-8.530412569000001,657
74789,191953,227870,0.7585247642,-4.797609313,-8.530412569000001,658
74987,191986,227858,0.7585247642,-4.797609313,-8.530412569000001,659
75126,192039,227880,0.7585247642,-4.797609313,-8.530412569000001,660
75214,192059,227880,0.7585247642,-4.797609313,-8.530412569000001,661
75260,192076,227936,0.7585247642,-4.797609313,-8.530412569000001,662
75310,192109,227889,0.7585247642,-4.797609313,-8.530412569000001,663
75404,192157,227913,0.7585247642,-4.797609313,-8.530412569000001,664
75504,192120,227936,0.7585247642,-4.797609313,-8.530412569000001,665
75625,192164,227916,0.7585247642,-4.797609313,-8.530412569000001,666
75770,192204,227976,0.7585247642,-4.797609313,-8.530412569000001,667
75913,192239,227979,0.7585247642,-4.797609313,-8.530412569000001,668
76034,192272,227983,0.7585247642,-4.797609313,-8.530412569000001,669
76098,192240,227959,0.7585247642,-4.797609313,-8.530412569000001,670
76207,192278,228010,0.7585247642,-4.797609313,-8.530412569000001,671
75839,192246,227944,0.7585247642,-4.797609313,-8.530412569000001,672
74901,191982,227766,0.7585247642,-4.797609313,-8.530412569000001,673
74385,191869,227696,0.7585247642,-4.797609313,-8.530412569000001,674
74364,191850,227689,0.7585247642,-4.797609313,-8.530412569000001,675
74449,191919,227675,0.7585247642,-4.797609313,-8.530412569000001,676
74555,191922,227751,0.7585247642,-4.797609313,-8.530412569000001,677
74688,191945,227725,0.7585247642,-4.797609313,-8.530412569000001,678
74776,191913,227766,0.7585247642,-4.797609313,-8.530412569000001,679
74770,191924,227692,0.7585247642,-4.797609313,-8.530412569000001,680
74793,191910,227761,0.7585247642,-4.797609313,-8.530412569000001,681
74827,191934,227732,0.7585247642,-4.797609313,-8.530412569000001,682
74920,191956,227680,0.7585247642,-4.797609313,-8.530412569000001,683
74991,191943,227740,0.7585247642,-4.797609313,-8.530412569000001,684
75091,191966,227707,0.7585247642,-4.797609313,-8.530412569000001,685
75227,192006,227740,0.7585247642,-4.797609313,-8.530412569000001,686
75340,192032,227705,0.7585247642,-4.797609313,-8.530412569000001,687
75449,192054,227767,0.7585247642,-4.797609313,-8.530412569000001,688
75537,192051,227773,0.7585247642,-4.797609313,-8.530412569000001,689
75599,192114,227754,0.7585247642,-4.797609313,-8.530412569000001,690
75178,191983,227721,0.7585247642,-4.797609313,-8.530412569000001,691
74316,191772,227557,0.7585247642,-4.797609313,-8.530412569000001,692
73875,191689,227493,0.7585247642,-4.797609313,-8.530412569000001,693
73855,191672,227482,0.7585247642,-4.797609313,-8.530412569000001,694
73955,191728,227490,0.7585247642,-4.797609313,-8.530412569000001,695
73991,191728,227432,0.9499505722,-4.8741796362,-8.4765740605,696
73938,191711,227437,0.9499505722,-4.8741796362,-8.4765740605,697
74075,191772,227500,0.9499505722,-4.8741796362,-8.4765740605,698
74241,191837,227528,0.9499505722,-4.8741796362,-8.4765740605,699
74447,191865,227526,0.9499505722,-4.8741796362,-8.4765740605,700
74572,191891,227555,0.9499505722,-4.8741796362,-8.4765740605,701
74603,191909,227498,0.9499505722,-4.8741796362,-8.4765740605,702
74600,191907,227547,0.9499505722,-4.8741796362,-8.4765740605,703
74633,191890,227531,0.9499505722,-4.8741796362,-8.4765740605,704
74677,191904,227524,0.9499505722,-4.8741796362,-8.4765740605,705
74724,191926,227531,0.9499505722,-4.8741796362,-8.4765740605,706
74803,191930,227576,0.9499505722,-4.8741796362,-8.4765740605,707
74915,191923,227533,0.9499505722,-4.8741796362,-8.4765740605,708
75049,191969,227588,0.9499505722,-4.8741796362,-8.4765740605,709
75149,192007,227586,0.9499505722,-4.8741796362,-8.4765740605,710
75231,192013,227569,0.9499505722,-4.8741796362,-8.4765740605,711
75329,192022,227611,0.9499505722,-4.8741796362,-8.4765740605,712
75258,191987,227559,0.9499505722,-4.8741796362,-8.4765740605,713
74514,191864,227455,0.9499505722,-4.8741796362,-8.4765740605,714
73832,191652,227302,0.9499505722,-4.8741796362,-8.4765740605,715
73643,191598,227293,0.9499505722,-4.8741796362,-8.4765740605,716
73721,191624,227307,0.9499505722,-4.8741796362,-8.4765740605,717
73877,191652,227354,0.9499505722,-4.8741796362,-8.4765740605,718
74031,191675,227379,0.9499505722,-4.8741796362,-8.4765740605,719
74197,191679,227385,0.9499505722,-4.8741796362,-8.4765740605,720
74293,191715,227368,0.9308079913999999,-4.9028935074,-8.4681991814,721
74322,191739,227387,0.9308079913999999,-4.9028935074,-8.4681991814,722
74391,191753,227393,0.9308079913999999,-4.9028935074,-8.4681991814,723
74504,191791,227398,0.9308079913999999,-4.9028935074,-8.4681991814,724
74619,191811,227455,0.9308079913999999,-4.9028935074,-8.4681991814,725
74741,191834,227475,0.9308079913999999,-4.9028935074,-8.4681991814,726
74891,191868,227460,0.9308079913999999,-4.9028935074,-8.4681991814,727
75034,191918,227522,0.9308079913999999,-4.9028935074,-8.4681991814,728
75186,191948,227562,0.9308079913999999,-4.9028935074,-8.4681991814,729
75322,192003,227561,0.9308079913999999,-4.9028935074,-8.4681991814,730
75450,192017,227517,0.9308079913999999,-4.9028935074,-8.4681991814,731
75589,192045,227603,0.9308079913999999,-4.9028935074,-8.4681991814,732
75524,192082,227550,0.9308079913999999,-4.9028935074,-8.4681991814,733
74745,191882,227437,0.9152546444999999,-4.701896409,-8.4358960763,734
74116,191686,227323,0.9152546444999999,-4.701896409,-8.4358960763,735
73990,191676,227298,0.9152546444999999,-4.701896409,-8.4358960763,736
74093,191698,227328,0.9152546444999999,-4.701896409,-8.4358960763,737
74262,191732,227412,0.9152546444999999,-4.701896409,-8.4358960763,738
74449,191801,227458,0.9152546444999999,-4.701896409,-8.4358960763,739
74626,191820,227461,0.9152546444999999,-4.701896409,-8.4358960763,740
74707,191805,227496,0.9152546444999999,-4.701896409,-8.4358960763,741
74755,191866,227497,0.9152546444999999,-4.701896409,-8.4358960763,742
74798,191870,227473,0.9152546444999999,-4.701896409,-8.4358960763,743
74843,191885,227505,0.9152546444999999,-4.701896409,-8.4358960763,744
74907,191897,227505,0.9152546444999999,-4.701896409,-8.4358960763,745
74995,191918,227524,0.9152546444999999,-4.701896409,-8.4358960763,746
75115,191940,227505,0.9499505722,-4.9220360882000005,-8.427521197199999,747
75260,191988,227564,0.9499505722,-4.9220360882000005,-8.427521197199999,748
75372,192015,227572,0.8518448456000001,-4.878965281399999,-8.4490566006,749
75502,192039,227612,0.8961120637,-4.965106895,-8.4287176085,750
75550,192034,227571,0.9786644433999999,-4.9040899186999996,-8.459824302300001,751
75624,192010,227557,1.0325029519,-4.917250443,-8.4430745441,752
75599,192040,227562,0.8159525066,-4.8191447164,-8.482556117,753
74914,191834,227453,0.9475577495999999,-4.7688954418,-8.360522164399999,754
74230,191645,227327,0.9834500885999999,-4.929214556,-8.4921274074,755
73942,191612,227341,0.95712904,-4.9567320159,-8.463413536200001,756
74020,191664,227317,0.9188438784,-4.8981078622,-8.5076807543,757
74174,191693,227407,0.9367900479,-4.8741796362,-8.4873417622,758
74360,191697,227405,0.9044869428,-4.9591248385,-8.4670027701,759
74484,191753,227413,0.885344362,-4.9758745967,-8.404789382499999,760
74558,191766,227424,0.8638089586000001,-4.816751893799999,-8.4873417622,761
74603,191767,227434,0.7920242806,-4.845465765,-8.417949906799999,762
74652,191766,227412,1.0277173067,-4.9148576204,-8.4681991814,763
74742,191860,227465,0.9140582332,-4.869393991,-8.4658063588,764
74840,191848,227489,0.9140582332,-4.8909293944,-8.4095750277,765
74968,191845,227493,1.052841944,-4.7940200791,-8.446663778,766
75099,191867,227486,0.873380249,-4.9160540317,-8.5268233351,767
75229,191921,227517,0.9942177902999999,-4.8765724588,-8.3904324469,768
75392,191984,227557,1.0073783146,-4.9722853628,-8.4658063588,769
75563,192014,227578,0.9726823869,-4.9196432655999995,-8.5351982142,770
75645,192002,227621,0.7501498851,-4.8287160068,-8.4610207136,771
75739,192083,227603,0.8374879099999999,-4.90528633,-8.5088771656,772
75833,192117,227610,1.0396814197,-4.8011985469,-8.4514494232,773
75257,191993,227487,0.9080761767,-4.8000021356,-8.4131642616,774
74475,191743,227381,0.9870393224999999,-4.8765724588,-8.484948939599999,775
74137,191675,227314,0.9786644433999999,-4.8562334667,-8.518448456,776
74133,191702,227382,0.8482556117000001,-4.8777688701,-8.5328053916,777
74266,191741,227414,1.0109675485,-4.881358104,-8.470592004,778
74333,191794,227435,0.8578269021,-4.8275195955,-8.5232341012,779
74578,191809,227525,0.9834500885999999,-4.926821733400001,-8.5088771656,780
74696,191814,227478,0.945164927,-4.9340002012,-8.4969130526,781
74734,191834,227492,0.8338986760999999,-4.7832523774,-8.4789668831,782
74752,191849,227501,0.9068797654,-4.8909293944,-8.4658063588,783
74771,191845,227518,0.9164510558,-4.8119662486,-8.3665042209,784
74763,191846,227478,0.9296115801,-4.8478585876,-8.4681991814,785
74888,191883,227507,0.9068797654,-4.8765724588,-8.364111398299999,786
74970,191897,227476,0.8757730716000001,-4.850251410199999,-8.4287176085,787
75090,191920,227520,0.9367900479,-4.8753760475,-8.5100735769,788
75165,191973,227526,0.873380249,-4.917250443,-8.4562350684,789
75310,191973,227574,0.9846464999,-4.90528633,-8.4311104311,790
75370,191972,227539,0.9008977089,-4.788038022599999,-8.482556117,791
75439,191965,227509,0.9128618219,-4.8849473379,-8.404789382499999,792
75529,192007,227569,0.9188438784,-4.9579284272,-8.4729848266,793
75050,191906,227458,0.8889335959,-4.995017177499999,-8.4167534955,794
74174,191693,227412,0.9439685157,-4.8873401605,-8.4239319633,795
73839,191604,227261,0.8925228298,-4.8717868136,-8.4741812379,796
73808,191600,227314,0.9320044027,-4.899304273499999,-8.4023965599,797
73959,191648,227366,0.8997012976000001,-4.7210389898,-8.4693955927,798
74104,191672,227364,1.0540383553,-4.845465765,-8.516055633399999,799
74292,191725,227419,0.9008977089,-4.8275195955,-8.4490566006,800
74427,191747,227398,0.8877371846000001,-4.9567320159,-8.4873417622,801
74490,191731,227436,1.0695917021999999,-4.899304273499999,-8.4538422458,802
74557,191788,227468,0.9559326287,-4.8550370553999995,-8.4777704718,803
74617,191821,227447,0.9427721043999999,-4.9674997176,-8.5675013193,804
74672,191818,227505,0.9858429111999999,-4.90528633,-8.4251283746,805
74749,191860,227483,0.9140582332,-4.9555356046000005,-8.4610207136,806
74881,191875,227533,0.7920242806,-4.8634119345,-8.4155570842,807
75051,191933,227572,0.9870393224999999,-4.7270210463,-8.4562350684,808
75211,191972,227567,0.9403792818,-4.9100719752,-8.364111398299999,809
75362,192008,227660,1.0600204118,-4.8418765311,-8.3832539791,810
75488,192029,227628,0.945164927,-4.8562334667,-8.4969130526,811
75589,192040,227658,0.9547362173999999,-4.926821733400001,-8.5639120854,812
75709,192116,227659,0.9296115801,-4.7772703209000005,-8.49452023,813
75173,192021,227595,0.9128618219,-4.7892344339,-8.4789668831,814
74347,191798,227441,0.8709874264,-4.8478585876,-8.525626923799999,815
73997,191733,227431,0.9619146851999999,-4.8705904022999995,-8.5040915204,816
73958,191739,227377,0.8470592004,-4.8203411277,-8.5232341012,817
74146,191787,227490,0.9068797654,-4.8406801198,-8.4478601893,818
74291,191832,227508,0.9236295236,-4.8035913695,-8.3533436966,819
74430,191841,227515,0.9320044027,-4.8418765311,-8.4909309961,820
74567,191863,227544,0.8829515394,-4.8861437492,-8.5136628108,821
74574,191894,227538,0.7764709337,-4.9447679029,-8.446663778,822
74603,191889,227571,0.8985048863,-4.7748774982999995,-8.4574314797,823
74669,191953,227624,0.8147560952999999,-4.9124647978,-8.4658063588,824
74719,191894,227628,0.933200814,-4.8382872972,-8.4263247859,825
74772,191920,227597,0.9284151688,-4.8646083458,-8.4382888989,826
74876,191934,227582,0.9032905315,-4.8514478215,-8.4693955927,827
75017,191998,227672,0.8027919822999999,-4.9196432655999995,-8.556733617599999,828
75157,192001,227672,0.9822536772999999,-4.7808595548,-8.458627890999999,829
75303,192021,227673,1.0157531937,-4.8418765311,-8.4969130526,830
75357,192004,227639,0.8841479507000001,-4.878965281399999,-8.4646099475,831
75448,192031,227665,0.8949156524,-4.941178669,-8.3928252695,832
75425,192027,227672,0.8937192411,-4.8550370553999995,-8.4370924876,833
74716,191876,227538,0.95712904,-4.9028935074,-8.3820575678,834
73975,191708,227432,0.9774680320999999,-4.8741796362,-8.5818582549,835
73762,191651,227421,0.945164927,-4.9256253221,-8.475377649199999,836
73839,191656,227462,0.7645068207,-4.8622155232,-8.4897345848,837
73987,191714,227439,0.7645068207,-4.8622155232,-8.4897345848,838
74169,191801,227509,0.7645068207,-4.8622155232,-8.4897345848,839
74360,191794,227560,0.7645068207,-4.8622155232,-8.4897345848,840
74461,191821,227532,0.7645068207,-4.8622155232,-8.4897345848,841
74525,191849,227600,0.7645068207,-4.8622155232,-8.4897345848,842
74591,191886,227595,0.7645068207,-4.8622155232,-8.4897345848,843
74666,191911,227696,0.7645068207,-4.8622155232,-8.4897345848,844
74770,191929,227638,0.7645068207,-4.8622155232,-8.4897345848,845
74882,191932,227656,0.7645068207,-4.8622155232,-8.4897345848,846
75029,191984,227679,0.7645068207,-4.8622155232,-8.4897345848,847
75209,192020,227718,0.7645068207,-4.8622155232,-8.4897345848,848
75372,192092,227733,0.7645068207,-4.8622155232,-8.4897345848,849
75508,192130,227782,0.7645068207,-4.8622155232,-8.4897345848,850
75621,192119,227830,0.7645068207,-4.8622155232,-8.4897345848,851
75760,192150,227795,0.7645068207,-4.8622155232,-8.4897345848,852
75605,192145,227799,0.7645068207,-4.8622155232,-8.4897345848,853
74792,191982,227737,0.7645068207,-4.8622155232,-8.4897345848,854
74239,191816,227602,0.7645068207,-4.8622155232,-8.4897345848,855
74179,191797,227591,0.7645068207,-4.8622155232,-8.4897345848,856
74321,191882,227619,0.7645068207,-4.8622155232,-8.4897345848,857
74492,191926,227685,0.7645068207,-4.8622155232,-8.4897345848,858
74662,191934,227726,0.7645068207,-4.8622155232,-8.4897345848,859
74825,191970,227703,0.7645068207,-4.8622155232,-8.4897345848,860
74874,191968,227719,0.7645068207,-4.8622155232,-8.4897345848,861
74910,191979,227719,0.7645068207,-4.8622155232,-8.4897345848,862
74960,191970,227728,0.7645068207,-4.8622155232,-8.4897345848,863
75010,192001,227747,0.7645068207,-4.8622155232,-8.4897345848,864
75073,192006,227760,0.7645068207,-4.8622155232,-8.4897345848,865
75161,192017,227769,0.7645068207,-4.8622155232,-8.4897345848,866
75264,192025,227766,0.7645068207,-4.8622155232,-8.4897345848,867
75383,192064,227784,0.7645068207,-4.8622155232,-8.4897345848,868
75512,192071,227840,0.7645068207,-4.8622155232,-8.4897345848,869
75628,192083,227829,0.7645068207,-4.8622155232,-8.4897345848,870
75720,192092,227800,0.7645068207,-4.8622155232,-8.4897345848,871
75682,192103,227815,0.7645068207,-4.8622155232,-8.4897345848,872
74951,191917,227732,0.7645068207,-4.8622155232,-8.4897345848,873
74283,191756,227581,0.7645068207,-4.8622155232,-8.4897345848,874
74123,191745,227564,0.7645068207,-4.8622155232,-8.4897345848,875
74206,191756,227595,0.7645068207,-4.8622155232,-8.4897345848,876
74348,191766,227646,0.7645068207,-4.8622155232,-8.4897345848,877
74508,191810,227685,0.7645068207,-4.8622155232,-8.4897345848,878
75557,192046,227841,0.8925228298,-4.869393991,-8.4442709554,879
75699,192106,227878,0.8925228298,-4.869393991,-8.4442709554,880
75844,192131,227918,0.8925228298,-4.869393991,-8.4442709554,881
75977,192166,227909,0.8925228298,-4.869393991,-8.4442709554,882
76093,192200,227884,0.8925228298,-4.869393991,-8.4442709554,883
75623,192130,227879,0.8925228298,-4.869393991,-8.4442709554,884
74810,191898,227724,0.8925228298,-4.869393991,-8.4442709554,885
74463,191826,227685,0.8925228298,-4.869393991,-8.4442709554,886
74472,191837,227745,0.8925228298,-4.869393991,-8.4442709554,887
74606,191881,227756,0.8925228298,-4.869393991,-8.4442709554,888
74771,191966,227786,0.8925228298,-4.869393991,-8.4442709554,889
74955,191967,227807,0.8925228298,-4.869393991,-8.4442709554,890
75055,191953,227847,0.8925228298,-4.869393991,-8.4442709554,891
75093,191976,227813,0.8925228298,-4.869393991,-8.4442709554,892
75103,192019,227876,0.8925228298,-4.869393991,-8.4442709554,893
75170,192011,227847,0.8925228298,-4.869393991,-8.4442709554,894
75238,191989,227857,0.8925228298,-4.869393991,-8.4442709554,895
75296,191982,227886,0.8925228298,-4.869393991,-8.4442709554,896
75406,192037,227908,0.8925228298,-4.869393991,-8.4442709554,897
75514,192074,227958,0.8925228298,-4.869393991,-8.4442709554,898
75615,192054,227900,0.8925228298,-4.869393991,-8.4442709554,899
75717,192105,227934,0.8925228298,-4.869393991,-8.4442709554,900
75796,192093,227885,0.8925228298,-4.869393991,-8.4442709554,901
75902,192150,227940,0.8925228298,-4.869393991,-8.4442709554,902
75593,192066,227896,0.8925228298,-4.869393991,-8.4442709554,903
74752,191875,227752,0.8925228298,-4.869393991,-8.4442709554,904
74278,191764,227694,0.8925228298,-4.869393991,-8.4442709554,905
74229,191750,227696,0.8925228298,-4.869393991,-8.4442709554,906
74344,191808,227731,0.8925228298,-4.869393991,-8.4442709554,907
74467,191806,227760,0.8925228298,-4.869393991,-8.4442709554,908
74633,191846,227792,0.8925228298,-4.869393991,-8.4442709554,909
74800,191860,227799,0.8925228298,-4.869393991,-8.4442709554,910
74867,191896,227850,0.8925228298,-4.869393991,-8.4442709554,911
74931,191919,227786,0.8925228298,-4.869393991,-8.4442709554,912
74999,191951,227822,0.8925228298,-4.869393991,-8.4442709554,913
75122,191946,227849,0.8925228298,-4.869393991,-8.4442709554,914
75219,191996,227878,0.8925228298,-4.869393991,-8.4442709554,915
75347,192013,227920,0.8925228298,-4.869393991,-8.4442709554,916
75493,192061,227964,0.8925228298,-4.869393991,-8.4442709554,917
75646,192094,227982,0.8925228298,-4.869393991,-8.4442709554,918
75806,192140,227990,0.8925228298,-4.869393991,-8.4442709554,919
75940,192124,227988,0.8925228298,-4.869393991,-8.4442709554,920
76081,192111,227960,0.8997012976000001,-4.8777688701,-8.4263247859,921
75359,191956,227837,0.8997012976000001,-4.8777688701,-8.4263247859,922
74723,191837,227736,0.8997012976000001,-4.8777688701,-8.4263247859,923
74575,191773,227763,0.8997012976000001,-4.8777688701,-8.4263247859,924
74646,191788,227784,0.8997012976000001,-4.8777688701,-8.4263247859,925
74790,191870,227765,0.8997012976000001,-4.8777688701,-8.4263247859,926
74953,191905,227795,0.8997012976000001,-4.8777688701,-8.4263247859,927
75116,191912,227843,0.8997012976000001,-4.8777688701,-8.4263247859,928
75207,191933,227809,0.8997012976000001,-4.8777688701,-8.4263247859,929
75276,191958,227811,0.8997012976000001,-4.8777688701,-8.4263247859,930
75344,191995,227872,0.8997012976000001,-4.8777688701,-8.4263247859,931
75443,192013,227831,0.8997012976000001,-4.8777688701,-8.4263247859,932
75526,192044,227880,0.8997012976000001,-4.8777688701,-8.4263247859,933
75651,192048,227938,0.8997012976000001,-4.8777688701,-8.4263247859,934
75791,192089,227934,0.8997012976000001,-4.8777688701,-8.4263247859,935
75946,192110,227947,0.8997012976000001,-4.8777688701,-8.4263247859,936
76093,192201,227982,0.8997012976000001,-4.8777688701,-8.4263247859,937
76240,192210,227993,0.8997012976000001,-4.8777688701,-8.4263247859,938
76380,192223,227989,0.8997012976000001,-4.8777688701,-8.4263247859,939
76483,192257,228054,0.8997012976000001,-4.8777688701,-8.4263247859,940
76535,192268,228058,0.8997012976000001,-4.8777688701,-8.4263247859,941
75914,192161,227920,0.8997012976000001,-4.8777688701,-8.4263247859,942
75143,191952,227787,0.8997012976000001,-4.8777688701,-8.4263247859,943
74872,191907,227787,0.8997012976000001,-4.8777688701,-8.4263247859,944
74911,191907,227746,0.8997012976000001,-4.8777688701,-8.4263247859,945
75065,191940,227757,0.8997012976000001,-4.8777688701,-8.4263247859,946
75200,191996,227820,0.8997012976000001,-4.8777688701,-8.4263247859,947
75331,192033,227798,0.8997012976000001,-4.8777688701,-8.4263247859,948
75396,192012,227838,0.8997012976000001,-4.8777688701,-8.4263247859,949
75412,192031,227809,0.8997012976000001,-4.8777688701,-8.4263247859,950
75432,192050,227812,0.8997012976000001,-4.8777688701,-8.4263247859,951
75476,192069,227837,0.8997012976000001,-4.8777688701,-8.4263247859,952
75540,192025,227784,0.8997012976000001,-4.8777688701,-8.4263247859,953
75601,192012,227817,0.8997012976000001,-4.8777688701,-8.4263247859,954
75718,192055,227829,0.8997012976000001,-4.8777688701,-8.4263247859,955
75830,192068,227796,0.8997012976000001,-4.8777688701,-8.4263247859,956
75958,192116,227854,0.8997012976000001,-4.8777688701,-8.4263247859,957
76047,192126,227843,0.8997012976000001,-4.8777688701,-8.4263247859,958
76144,192146,227831,0.8997012976000001,-4.8777688701,-8.4263247859,959
76221,192150,227829,0.8997012976000001,-4.8777688701,-8.4263247859,960
76198,192129,227846,0.8997012976000001,-4.8777688701,-8.4263247859,961
75506,192002,227750,0.8997012976000001,-4.8777688701,-8.4263247859,962
75092,191983,227573,0.8709874264,-4.7844487887,-8.484948939599999,963
75168,191991,227532,0.8709874264,-4.7844487887,-8.484948939599999,964
75235,191983,227559,0.8709874264,-4.7844487887,-8.484948939599999,965
75325,192025,227557,0.8709874264,-4.7844487887,-8.484948939599999,966
75444,192055,227580,0.8709874264,-4.7844487887,-8.484948939599999,967
75572,192107,227572,0.8709874264,-4.7844487887,-8.484948939599999,968
75723,192163,227617,0.8709874264,-4.7844487887,-8.484948939599999,969
75870,192167,227609,0.8709874264,-4.7844487887,-8.484948939599999,970
76009,192227,227669,0.8709874264,-4.7844487887,-8.484948939599999,971
76107,192218,227646,0.8709874264,-4.7844487887,-8.484948939599999,972
76231,192249,227695,0.8709874264,-4.7844487887,-8.484948939599999,973
76138,192274,227668,0.8709874264,-4.7844487887,-8.484948939599999,974
75334,192078,227575,0.8709874264,-4.7844487887,-8.484948939599999,975
74685,191897,227410,0.9427721043999999,-4.9567320159,-8.4969130526,976
74521,191868,227410,0.9427721043999999,-4.9567320159,-8.4969130526,977
74613,191925,227386,0.9427721043999999,-4.9567320159,-8.4969130526,978
74740,191918,227449,0.9427721043999999,-4.9567320159,-8.4969130526,979
74899,191948,227446,0.9427721043999999,-4.9567320159,-8.4969130526,980
75035,191969,227451,0.9427721043999999,-4.9567320159,-8.4969130526,981
75069,191977,227387,0.9427721043999999,-4.9567320159,-8.4969130526,982
75077,192001,227455,0.9427721043999999,-4.9567320159,-8.4969130526,983
75085,191990,227415,0.9427721043999999,-4.9567320159,-8.4969130526,984
75130,191987,227405,0.9427721043999999,-4.9567320159,-8.4969130526,985
75158,191976,227447,0.9427721043999999,-4.9567320159,-8.4969130526,986
75225,191996,227457,0.9427721043999999,-4.9567320159,-8.4969130526,987
75343,192004,227418,0.9427721043999999,-4.9567320159,-8.4969130526,988
75474,192041,227437,0.9355936366,-4.9914279436,-8.4538422458,989
75611,192102,227460,0.9355936366,-4.9914279436,-8.4538422458,990
75719,192111,227458,0.9355936366,-4.9914279436,-8.4538422458,991
75804,192104,227429,0.9355936366,-4.9914279436,-8.4538422458,992
75923,192124,227438,0.9355936366,-4.9914279436,-8.4538422458,993
75650,192077,227429,0.9355936366,-4.9914279436,-8.4538422458,994
74822,191891,227217,0.9355936366,-4.9914279436,-8.4538422458,995
74295,191727,227145,0.9355936366,-4.9914279436,-8.4538422458,996
74223,191731,227172,0.9355936366,-4.9914279436,-8.4538422458,997
74316,191743,227169,0.9355936366,-4.9914279436,-8.4538422458,998
74475,191792,227203,0.9355936366,-4.9914279436,-8.4538422458,999
74650,191849,227203,0.9355936366,-4.9914279436,-8.4538422458,1000
74796,191864,227263,0.9355936366,-4.9914279436,-8.4538422458,1001
74897,191902,227247,0.9355936366,-4.9914279436,-8.4538422458,1002
74962,191913,227254,0.9355936366,-4.9914279436,-8.4538422458,1003
75033,191938,227270,0.9355936366,-4.9914279436,-8.4538422458,1004
75115,191997,227283,0.9355936366,-4.9914279436,-8.4538422458,1005
75218,191968,227328,0.9355936366,-4.9914279436,-8.4538422458,1006
75326,191990,227272,0.9355936366,-4.9914279436,-8.4538422458,1007
75496,192039,227342,0.9355936366,-4.9914279436,-8.4538422458,1008
75657,192108,227331,0.9355936366,-4.9914279436,-8.4538422458,1009
75814,192135,227394,0.9355936366,-4.9914279436,-8.4538422458,1010
75929,192177,227408,0.9355936366,-4.9914279436,-8.4538422458,1011
76048,192170,227388,0.9355936366,-4.9914279436,-8.4538422458,1012
76183,192231,227469,0.9355936366,-4.9914279436,-8.4538422458,1013
76004,192222,227383,0.9355936366,-4.9914279436,-8.4538422458,1014
75193,192009,227261,0.9355936366,-4.9914279436,-8.4538422458,1015
74623,191858,227162,0.9355936366,-4.9914279436,-8.4538422458,1016
74535,191844,227156,0.9355936366,-4.9914279436,-8.4538422458,1017
74640,191892,227153,0.9355936366,-4.9914279436,-8.4538422458,1018
74801,191955,227157,0.9355936366,-4.9914279436,-8.4538422458,1019
74975,191959,227198,0.9355936366,-4.9914279436,-8.4538422458,1020
75112,192018,227181,0.9355936366,-4.9914279436,-8.4538422458,1021
75180,192044,227219,0.9355936366,-4.9914279436,-8.4538422458,1022
75211,192018,227226,0.9355936366,-4.9914279436,-8.4538422458,1023
75256,192046,227216,0.9355936366,-4.9914279436,-8.4538422458,1024
75305,192064,227255,0.9355936366,-4.9914279436,-8.4538422458,1025
75355,192071,227208,0.9355936366,-4.9914279436,-8.4538422458,1026
75437,192065,227270,0.9355936366,-4.9914279436,-8.4538422458,1027
75551,192094,227279,0.9355936366,-4.9914279436,-8.4538422458,1028
75687,192136,227287,0.9355936366,-4.9914279436,-8.4538422458,1029
75803,192135,227300,0.9355936366,-4.9914279436,-8.4538422458,1030
75000,191891,227010,0.9978070242,-4.9220360882000005,-8.4658063588,1031
75113,191913,226979,0.9978070242,-4.9220360882000005,-8.4658063588,1032
75249,191937,227034,0.9978070242,-4.9220360882000005,-8.4658063588,1033
75377,191971,227042,0.9978070242,-4.9220360882000005,-8.4658063588,1034
75484,191995,227025,0.9978070242,-4.9220360882000005,-8.4658063588,1035
75610,192011,227057,0.9978070242,-4.9220360882000005,-8.4658063588,1036
75738,192061,227071,0.9978070242,-4.9220360882000005,-8.4658063588,1037
75635,192072,227065,0.9978070242,-4.9220360882000005,-8.4658063588,1038
74873,191865,226943,0.9978070242,-4.9220360882000005,-8.4658063588,1039
74234,191686,226799,0.9978070242,-4.9220360882000005,-8.4658063588,1040
74059,191678,226827,0.9978070242,-4.9220360882000005,-8.4658063588,1041
74122,191720,226793,0.9978070242,-4.9220360882000005,-8.4658063588,1042
74244,191747,226812,0.9978070242,-4.9220360882000005,-8.4658063588,1043
74393,191782,226856,0.9978070242,-4.9220360882000005,-8.4658063588,1044
74540,191804,226853,0.9978070242,-4.9220360882000005,-8.4658063588,1045
74645,191831,226885,0.9978070242,-4.9220360882000005,-8.4658063588,1046
74708,191883,226873,0.9978070242,-4.9220360882000005,-8.4658063588,1047
74764,191922,226861,0.9978070242,-4.9220360882000005,-8.4658063588,1048
74837,191935,226966,0.9978070242,-4.9220360882000005,-8.4658063588,1049
74897,191924,226946,0.9978070242,-4.9220360882000005,-8.4658063588,1050
75009,191957,226966,0.9978070242,-4.9220360882000005,-8.4658063588,1051
75138,191993,226948,0.9978070242,-4.9220360882000005,-8.4658063588,1052
75292,192052,227058,0.9978070242,-4.9220360882000005,-8.4658063588,1053
75425,192088,227031,0.9978070242,-4.9220360882000005,-8.4658063588,1054
75543,192091,227030,0.9978070242,-4.9220360882000005,-8.4658063588,1055
75655,192124,227050,0.9978070242,-4.9220360882000005,-8.4658063588,1056
75723,192183,227085,0.9978070242,-4.9220360882000005,-8.4658063588,1057
75108,192027,226984,0.9978070242,-4.9220360882000005,-8.4658063588,1058
74304,191827,226800,0.9978070242,-4.9220360882000005,-8.4658063588,1059
74032,191760,226794,0.9978070242,-4.9220360882000005,-8.4658063588,1060
74098,191779,226773,0.9978070242,-4.9220360882000005,-8.4658063588,1061
74230,191855,226836,0.9978070242,-4.9220360882000005,-8.4658063588,1062
74405,191854,226874,0.9978070242,-4.9220360882000005,-8.4658063588,1063
74556,191924,226855,0.9978070242,-4.9220360882000005,-8.4658063588,1064
74634,191887,226807,0.9978070242,-4.9220360882000005,-8.4658063588,1065
74615,191891,226844,0.9978070242,-4.9220360882000005,-8.4658063588,1066
74607,191936,226856,0.9978070242,-4.9220360882000005,-8.4658063588,1067
74647,191900,226895,0.9978070242,-4.9220360882000005,-8.4658063588,1068
74695,191902,226860,0.9978070242,-4.9220360882000005,-8.4658063588,1069
74774,191933,226860,0.9978070242,-4.9220360882000005,-8.4658063588,1070
74909,191984,226884,0.9978070242,-4.9220360882000005,-8.4658063588,1071
75026,192012,226900,0.9978070242,-4.9220360882000005,-8.4658063588,1072
74686,191978,226906,0.9296115801,-4.8346980633,-8.556733617599999,1073
74858,192045,226950,0.9296115801,-4.8346980633,-8.556733617599999,1074
74782,192053,226948,0.9296115801,-4.8346980633,-8.556733617599999,1075
74104,191942,226934,0.9296115801,-4.8346980633,-8.556733617599999,1076
73693,191883,226771,0.9296115801,-4.8346980633,-8.556733617599999,1077
73709,191907,226871,0.9296115801,-4.8346980633,-8.556733617599999,1078
73850,191944,226893,0.9296115801,-4.8346980633,-8.556733617599999,1079
74025,191982,226895,0.9296115801,-4.8346980633,-8.556733617599999,1080
74290,192076,226972,0.9296115801,-4.8346980633,-8.556733617599999,1081
74513,192133,227026,0.9296115801,-4.8346980633,-8.556733617599999,1082
74650,192179,227059,0.9296115801,-4.8346980633,-8.556733617599999,1083
74762,192241,227081,0.9296115801,-4.8346980633,-8.556733617599999,1084
74885,192283,227095,0.9296115801,-4.8346980633,-8.556733617599999,1085
75022,192297,227199,0.9296115801,-4.8346980633,-8.556733617599999,1086
75164,192380,227163,0.9296115801,-4.8346980633,-8.556733617599999,1087
75363,192442,227195,0.9296115801,-4.8346980633,-8.556733617599999,1088
75547,192485,227227,0.9296115801,-4.8346980633,-8.556733617599999,1089
75762,192551,227262,0.9296115801,-4.8346980633,-8.556733617599999,1090
75972,192618,227318,0.9296115801,-4.8346980633,-8.556733617599999,1091
76136,192657,227331,0.9296115801,-4.8346980633,-8.556733617599999,1092
76300,192693,227321,0.9296115801,-4.8346980633,-8.556733617599999,1093
76334,192736,227327,0.9296115801,-4.8346980633,-8.556733617599999,1094
75670,192685,227286,0.9296115801,-4.8346980633,-8.556733617599999,1095
75126,192581,227221,0.9296115801,-4.8346980633,-8.556733617599999,1096
75058,192552,227259,0.9296115801,-4.8346980633,-8.556733617599999,1097
75167,192594,227263,0.9296115801,-4.8346980633,-8.556733617599999,1098
75329,192633,227302,0.9296115801,-4.8346980633,-8.556733617599999,1099
75546,192707,227318,0.9296115801,-4.8346980633,-8.556733617599999,1100
75749,192732,227328,0.9296115801,-4.8346980633,-8.556733617599999,1101
75841,192720,227351,0.9296115801,-4.8346980633,-8.556733617599999,1102
75900,192738,227348,0.9296115801,-4.8346980633,-8.556733617599999,1103
76003,192797,227334,0.9296115801,-4.8346980633,-8.556733617599999,1104
76105,192831,227388,0.9296115801,-4.8346980633,-8.556733617599999,1105
76234,192821,227367,0.9296115801,-4.8346980633,-8.556733617599999,1106
76359,192836,227373,0.9296115801,-4.8346980633,-8.556733617599999,1107
76518,192843,227376,0.9296115801,-4.8346980633,-8.556733617599999,1108
76677,192921,227472,0.9296115801,-4.8346980633,-8.556733617599999,1109
76842,192947,227401,0.9296115801,-4.8346980633,-8.556733617599999,1110
76992,192970,227409,0.9296115801,-4.8346980633,-8.556733617599999,1111
77116,192961,227395,0.9296115801,-4.8346980633,-8.556733617599999,1112
77229,192957,227401,0.9296115801,-4.8346980633,-8.556733617599999,1113
77279,192968,227405,0.9296115801,-4.8346980633,-8.556733617599999,1114
78108,193624,227657,0.9272187574999999,-5.0536413312,-8.4562350684,1115
78250,193634,227581,0.9272187574999999,-5.0536413312,-8.4562350684,1116
78305,193617,227593,0.9272187574999999,-5.0536413312,-8.4562350684,1117
78334,193629,227553,0.9272187574999999,-5.0536413312,-8.4562350684,1118
78402,193695,227602,0.9272187574999999,-5.0536413312,-8.4562350684,1119
78475,193693,227583,0.9272187574999999,-5.0536413312,-8.4562350684,1120
78519,193647,227583,0.9272187574999999,-5.0536413312,-8.4562350684,1121
78618,193621,227573,0.9272187574999999,-5.0536413312,-8.4562350684,1122
78729,193646,227532,0.9272187574999999,-5.0536413312,-8.4562350684,1123
78850,193656,227564,0.9272187574999999,-5.0536413312,-8.4562350684,1124
78914,193643,227508,0.9272187574999999,-5.0536413312,-8.4562350684,1125
78998,193676,227551,0.9272187574999999,-5.0536413312,-8.4562350684,1126
79126,193703,227529,0.9272187574999999,-5.0536413312,-8.4562350684,1127
79195,193688,227534,0.9272187574999999,-5.0536413312,-8.4562350684,1128
79265,193665,227496,0.9272187574999999,-5.0536413312,-8.4562350684,1129
79320,193620,227439,0.9272187574999999,-5.0536413312,-8.4562350684,1130
79309,193622,227414,0.9272187574999999,-5.0536413312,-8.4562350684,1131
78765,193660,227416,0.9272187574999999,-5.0536413312,-8.4562350684,1132
78078,193600,227377,0.9272187574999999,-5.0536413312,-8.4562350684,1133
77756,193538,227345,0.9272187574999999,-5.0536413312,-8.4562350684,1134
77672,193534,227330,0.9272187574999999,-5.0536413312,-8.4562350684,1135
77706,193575,227355,0.9272187574999999,-5.0536413312,-8.4562350684,1136
77777,193594,227356,0.9272187574999999,-5.0536413312,-8.4562350684,1137
77900,193600,227326,0.9272187574999999,-5.0536413312,-8.4562350684,1138
77970,193582,227319,0.9272187574999999,-5.0536413312,-8.4562350684,1139
78021,193593,227340,0.9272187574999999,-5.0536413312,-8.4562350684,1140
78084,193663,227352,0.9272187574999999,-5.0536413312,-8.4562350684,1141
78128,193689,227417,0.9272187574999999,-5.0536413312,-8.4562350684,1142
78199,193666,227380,0.9272187574999999,-5.0536413312,-8.4562350684,1143
78280,193693,227437,0.9272187574999999,-5.0536413312,-8.4562350684,1144
78406,193700,227453,0.9272187574999999,-5.0536413312,-8.4562350684,1145
78531,193746,227364,0.9272187574999999,-5.0536413312,-8.4562350684,1146
78650,193744,227411,0.9272187574999999,-5.0536413312,-8.4562350684,1147
78752,193752,227437,0.9272187574999999,-5.0536413312,-8.4562350684,1148
78845,193762,227406,0.9272187574999999,-5.0536413312,-8.4562350684,1149
78910,193780,227400,0.9272187574999999,-5.0536413312,-8.4562350684,1150
79032,193802,227393,0.9272187574999999,-5.0536413312,-8.4562350684,1151
79116,193811,227377,0.9272187574999999,-5.0536413312,-8.4562350684,1152
79170,193822,227372,0.9272187574999999,-5.0536413312,-8.4562350684,1153
79227,193787,227347,0.9272187574999999,-5.0536413312,-8.4562350684,1154
79277,193805,227327,0.9272187574999999,-5.0536413312,-8.4562350684,1155
79040,193817,227318,0.9272187574999999,-5.0536413312,-8.4562350684,1156
76760,193524,227066,0.9942177902999999,-4.9340002012,-8.4430745441,1157
76865,193550,227184,0.9942177902999999,-4.9340002012,-8.4430745441,1158
76923,193591,227132,0.9942177902999999,-4.9340002012,-8.4430745441,1159
77009,193603,227170,0.9942177902999999,-4.9340002012,-8.4430745441,1160
77114,193634,227180,0.9942177902999999,-4.9340002012,-8.4430745441,1161
77249,193655,227195,0.9942177902999999,-4.9340002012,-8.4430745441,1162
77407,193677,227222,0.9942177902999999,-4.9340002012,-8.4430745441,1163
77560,193692,227233,0.9942177902999999,-4.9340002012,-8.4430745441,1164
77694,193734,227243,0.9942177902999999,-4.9340002012,-8.4430745441,1165
77840,193720,227300,0.9942177902999999,-4.9340002012,-8.4430745441,1166
77977,193785,227286,0.9942177902999999,-4.9340002012,-8.4430745441,1167
78143,193789,227320,0.9942177902999999,-4.9340002012,-8.4430745441,1168
78251,193791,227306,0.9942177902999999,-4.9340002012,-8.4430745441,1169
78344,193788,227289,0.9942177902999999,-4.9340002012,-8.4430745441,1170
78448,193760,227267,0.9942177902999999,-4.9340002012,-8.4430745441,1171
78310,193805,227284,0.9942177902999999,-4.9340002012,-8.4430745441,1172
77554,193768,227255,0.9942177902999999,-4.9340002012,-8.4430745441,1173
77001,193671,227238,0.9942177902999999,-4.9340002012,-8.4430745441,1174
76923,193612,227250,0.9942177902999999,-4.9340002012,-8.4430745441,1175
77061,193630,227232,0.9942177902999999,-4.9340002012,-8.4430745441,1176
77245,193693,227270,0.9942177902999999,-4.9340002012,-8.4430745441,1177
77420,193665,227279,0.9942177902999999,-4.9340002012,-8.4430745441,1178
77590,193638,227265,0.9942177902999999,-4.9340002012,-8.4430745441,1179
77703,193649,227288,0.9942177902999999,-4.9340002012,-8.4430745441,1180
77777,193657,227289,0.9942177902999999,-4.9340002012,-8.4430745441,1181
77793,193655,227290,0.9032905315,-4.965106895,-8.4023965599,1182
77857,193666,227320,0.9032905315,-4.965106895,-8.4023965599,1183
77934,193619,227247,0.9032905315,-4.965106895,-8.4023965599,1184
78042,193633,227260,0.9032905315,-4.965106895,-8.4023965599,1185
78195,193671,227253,0.9032905315,-4.965106895,-8.4023965599,1186
78308,193629,227293,0.9631110964999999,-5.000999234,-8.4358960763,1187
78441,193656,227247,0.9619146851999999,-4.9746781854,-8.4358960763,1188
78575,193683,227283,0.8901300072,-4.941178669,-8.3976109147,1189
78686,193658,227274,0.95712904,-4.8382872972,-8.4251283746,1190
78813,193687,227298,0.9355936366,-5.0189454035,-8.5316089803,1191
78892,193641,227235,0.9296115801,-4.9064827413000005,-8.4442709554,1192
78936,193649,227232,1.0540383553,-4.9399822577,-8.4873417622,1193
78722,193647,227206,0.9463613382999999,-4.878965281399999,-8.5351982142,1194
77951,193587,227245,0.9415756931,-4.9387858464,-8.3569329305,1195
77551,193559,227229,0.9379864592,-4.8622155232,-8.4897345848,1196
77389,193587,227220,0.9116654106,-4.9866422984,-8.484948939599999,1197
77698,193619,227282,0.9870393224999999,-4.7653062079,-8.398807326,1198
77836,193648,227294,0.9116654106,-4.8598227006,-8.4777704718,1199
78024,193658,227324,0.9798608547,-4.7964129017,-8.4215391407,1200
78227,193687,227326,0.9798608547,-4.7964129017,-8.4215391407,1201
78353,193674,227320,0.9798608547,-4.7964129017,-8.4215391407,1202
78420,193701,227365,0.9798608547,-4.7964129017,-8.4215391407,1203
78490,193721,227398,0.9798608547,-4.7964129017,-8.4215391407,1204
78599,193734,227425,0.9798608547,-4.7964129017,-8.4215391407,1205
78693,193742,227421,0.9798608547,-4.7964129017,-8.4215391407,1206
78814,193780,227435,0.9798608547,-4.7964129017,-8.4215391407,1207
78924,193794,227435,0.9798608547,-4.7964129017,-8.4215391407,1208
79067,193820,227417,0.9798608547,-4.7964129017,-8.4215391407,1209
79199,193834,227517,0.9798608547,-4.7964129017,-8.4215391407,1210
79319,193904,227481,0.9798608547,-4.7964129017,-8.4215391407,1211
79438,193883,227555,0.9798608547,-4.7964129017,-8.4215391407,1212
79503,193857,227509,0.9798608547,-4.7964129017,-8.4215391407,1213
79581,193854,227498,0.9798608547,-4.7964129017,-8.4215391407,1214
79580,193888,227514,0.9798608547,-4.7964129017,-8.4215391407,1215
78924,193804,227486,0.9798608547,-4.7964129017,-8.4215391407,1216
78101,193681,227408,0.9798608547,-4.7964129017,-8.4215391407,1217
77769,193610,227358,0.9798608547,-4.7964129017,-8.4215391407,1218
77761,193632,227368,0.9798608547,-4.7964129017,-8.4215391407,1219
77860,193682,227387,0.9798608547,-4.7964129017,-8.4215391407,1220
77984,193644,227442,0.9798608547,-4.7964129017,-8.4215391407,1221
78106,193626,227417,0.9798608547,-4.7964129017,-8.4215391407,1222
78186,193613,227402,0.9798608547,-4.7964129017,-8.4215391407,1223
78184,193620,227450,0.9798608547,-4.7964129017,-8.4215391407,1224
78179,193650,227456,0.9798608547,-4.7964129017,-8.4215391407,1225
78204,193633,227457,0.9798608547,-4.7964129017,-8.4215391407,1226
78217,193570,227449,0.9750752094999999,-4.9196432655999995,-8.4358960763,1227
78277,193578,227373,0.9750752094999999,-4.9196432655999995,-8.4358960763,1228
78343,193553,227390,0.9750752094999999,-4.9196432655999995,-8.4358960763,1229
78424,193575,227408,0.9750752094999999,-4.9196432655999995,-8.4358960763,1230
78535,193593,227412,0.9750752094999999,-4.9196432655999995,-8.4358960763,1231
78640,193621,227445,0.9750752094999999,-4.9196432655999995,-8.4358960763,1232
78712,193599,227445,0.9750752094999999,-4.9196432655999995,-8.4358960763,1233
78754,193578,227374,0.9750752094999999,-4.9196432655999995,-8.4358960763,1234
78821,193530,227319,0.9750752094999999,-4.9196432655999995,-8.4358960763,1235
78686,193569,227379,0.9750752094999999,-4.9196432655999995,-8.4358960763,1236
77904,193453,227360,0.9750752094999999,-4.9196432655999995,-8.4358960763,1237
77090,193352,227297,0.9750752094999999,-4.9196432655999995,-8.4358960763,1238
76788,193278,227256,0.9750752094999999,-4.9196432655999995,-8.4358960763,1239
76796,193324,227325,0.9750752094999999,-4.9196432655999995,-8.4358960763,1240
76938,193346,227348,0.9750752094999999,-4.9196432655999995,-8.4358960763,1241
77100,193380,227357,0.9750752094999999,-4.9196432655999995,-8.4358960763,1242
77263,193362,227318,0.9750752094999999,-4.9196432655999995,-8.4358960763,1243
77394,193394,227405,0.9750752094999999,-4.9196432655999995,-8.4358960763,1244
77445,193391,227381,0.9750752094999999,-4.9196432655999995,-8.4358960763,1245
77513,193446,227436,0.9750752094999999,-4.9196432655999995,-8.4358960763,1246
77571,193447,227443,0.9750752094999999,-4.9196432655999995,-8.4358960763,1247
77632,193431,227466,0.9750752094999999,-4.9196432655999995,-8.4358960763,1248
77717,193460,227485,0.9750752094999999,-4.9196432655999995,-8.4358960763,1249
77843,193487,227473,0.9750752094999999,-4.9196432655999995,-8.4358960763,1250
77980,193516,227512,0.9750752094999999,-4.9196432655999995,-8.4358960763,1251
78108,193557,227521,0.9750752094999999,-4.9196432655999995,-8.4358960763,1252
78216,193585,227537,0.9750752094999999,-4.9196432655999995,-8.4358960763,1253
78330,193593,227564,0.9750752094999999,-4.9196432655999995,-8.4358960763,1254
78408,193568,227564,0.9750752094999999,-4.9196432655999995,-8.4358960763,1255
78480,193603,227542,0.9750752094999999,-4.9196432655999995,-8.4358960763,1256
78274,193592,227566,0.9750752094999999,-4.9196432655999995,-8.4358960763,1257
77396,193446,227454,0.9750752094999999,-4.9196432655999995,-8.4358960763,1258
76726,193341,227415,0.9750752094999999,-4.9196432655999995,-8.4358960763,1259
76578,193278,227388,0.9750752094999999,-4.9196432655999995,-8.4358960763,1260
76681,193297,227487,0.9750752094999999,-4.9196432655999995,-8.4358960763,1261
76852,193347,227486,0.9750752094999999,-4.9196432655999995,-8.4358960763,1262
77025,193347,227499,0.9750752094999999,-4.9196432655999995,-8.4358960763,1263
77173,193337,227489,0.9750752094999999,-4.9196432655999995,-8.4358960763,1264
77263,193361,227570,0.9750752094999999,-4.9196432655999995,-8.4358960763,1265
77297,193373,227500,0.9750752094999999,-4.9196432655999995,-8.4358960763,1266
77327,193354,227496,0.9750752094999999,-4.9196432655999995,-8.4358960763,1267
77363,193364,227523,0.9750752094999999,-4.9196432655999995,-8.4358960763,1268
77696,193337,227536,0.9355936366,-5.0177489922000005,-8.463413536200001,1269
77791,193375,227534,0.9355936366,-5.0177489922000005,-8.463413536200001,1270
77894,193413,227536,0.9355936366,-5.0177489922000005,-8.463413536200001,1271
78000,193378,227515,0.9355936366,-5.0177489922000005,-8.463413536200001,1272
78054,193371,227560,0.9355936366,-5.0177489922000005,-8.463413536200001,1273
78111,193361,227508,0.9355936366,-5.0177489922000005,-8.463413536200001,1274
77612,193309,227526,0.9355936366,-5.0177489922000005,-8.463413536200001,1275
76795,193185,227459,0.9355936366,-5.0177489922000005,-8.463413536200001,1276
76437,193071,227393,0.9355936366,-5.0177489922000005,-8.463413536200001,1277
76454,193068,227387,0.9355936366,-5.0177489922000005,-8.463413536200001,1278
76638,193115,227461,0.9355936366,-5.0177489922000005,-8.463413536200001,1279
76833,193147,227477,0.9355936366,-5.0177489922000005,-8.463413536200001,1280
77043,193161,227524,0.9355936366,-5.0177489922000005,-8.463413536200001,1281
77221,193186,227472,0.9355936366,-5.0177489922000005,-8.463413536200001,1282
77322,193179,227492,0.9355936366,-5.0177489922000005,-8.463413536200001,1283
77438,193216,227579,0.9355936366,-5.0177489922000005,-8.463413536200001,1284
77544,193254,227552,0.9355936366,-5.0177489922000005,-8.463413536200001,1285
77649,193256,227617,0.9355936366,-5.0177489922000005,-8.463413536200001,1286
77755,193262,227649,0.9355936366,-5.0177489922000005,-8.463413536200001,1287
77881,193290,227619,0.9355936366,-5.0177489922000005,-8.463413536200001,1288
78024,193315,227689,0.9355936366,-5.0177489922000005,-8.463413536200001,1289
78197,193367,227704,0.9355936366,-5.0177489922000005,-8.463413536200001,1290
78350,193405,227674,0.9355936366,-5.0177489922000005,-8.463413536200001,1291
78505,193399,227732,0.9355936366,-5.0177489922000005,-8.463413536200001,1292
78616,193430,227716,0.9355936366,-5.0177489922000005,-8.463413536200001,1293
78733,193440,227732,0.9355936366,-5.0177489922000005,-8.463413536200001,1294
78656,193480,227742,0.9355936366,-5.0177489922000005,-8.463413536200001,1295
77941,193362,227703,0.9355936366,-5.0177489922000005,-8.463413536200001,1296
77358,193214,227620,0.9355936366,-5.0177489922000005,-8.463413536200001,1297
77265,193181,227580,0.9355936366,-5.0177489922000005,-8.463413536200001,1298
77425,193221,227650,0.9355936366,-5.0177489922000005,-8.463413536200001,1299
77621,193261,227683,0.9355936366,-5.0177489922000005,-8.463413536200001,1300
77840,193257,227744,0.9355936366,-5.0177489922000005,-8.463413536200001,1301
78011,193273,227733,0.9355936366,-5.0177489922000005,-8.463413536200001,1302
78095,193289,227711,0.9355936366,-5.0177489922000005,-8.463413536200001,1303
78145,193268,227763,0.9355936366,-5.0177489922000005,-8.463413536200001,1304
78202,193326,227771,0.9355936366,-5.0177489922000005,-8.463413536200001,1305
78301,193376,227783,0.9355936366,-5.0177489922000005,-8.463413536200001,1306
78369,193309,227775,0.9355936366,-5.0177489922000005,-8.463413536200001,1307
78454,193317,227757,0.9355936366,-5.0177489922000005,-8.463413536200001,1308
78559,193343,227788,0.9355936366,-5.0177489922000005,-8.463413536200001,1309
78690,193374,227795,0.9355936366,-5.0177489922000005,-8.463413536200001,1310
77368,192802,227913,0.9595218625999999,-4.9184468543,-8.4550386571,1311
77492,192809,227963,0.9595218625999999,-4.9184468543,-8.4550386571,1312
77597,192832,227946,0.9595218625999999,-4.9184468543,-8.4550386571,1313
77725,192838,227987,0.9595218625999999,-4.9184468543,-8.4550386571,1314
77813,192830,228030,0.9595218625999999,-4.9184468543,-8.4550386571,1315
77888,192837,227977,0.9595218625999999,-4.9184468543,-8.4550386571,1316
77967,192844,228044,0.9595218625999999,-4.9184468543,-8.4550386571,1317
77506,192799,227967,0.9595218625999999,-4.9184468543,-8.4550386571,1318
76679,192631,227892,0.9595218625999999,-4.9184468543,-8.4550386571,1319
76299,192551,227835,0.9595218625999999,-4.9184468543,-8.4550386571,1320
76290,192554,227868,0.9595218625999999,-4.9184468543,-8.4550386571,1321
76441,192578,227919,0.9595218625999999,-4.9184468543,-8.4550386571,1322
76609,192648,227976,0.9595218625999999,-4.9184468543,-8.4550386571,1323
76776,192665,227981,0.9595218625999999,-4.9184468543,-8.4550386571,1324
76885,192662,227987,0.9595218625999999,-4.9184468543,-8.4550386571,1325
76947,192695,228021,0.9595218625999999,-4.9184468543,-8.4550386571,1326
76981,192716,228015,0.9595218625999999,-4.9184468543,-8.4550386571,1327
77038,192705,228013,0.9595218625999999,-4.9184468543,-8.4550386571,1328
77120,192754,228049,0.9595218625999999,-4.9184468543,-8.4550386571,1329
77213,192739,228051,0.9595218625999999,-4.9184468543,-8.4550386571,1330
77341,192804,228079,0.9595218625999999,-4.9184468543,-8.4550386571,1331
77492,192834,228126,0.9595218625999999,-4.9184468543,-8.4550386571,1332
77649,192846,228120,0.9595218625999999,-4.9184468543,-8.4550386571,1333
77806,192868,228169,0.9595218625999999,-4.9184468543,-8.4550386571,1334
77946,192909,228184,0.9595218625999999,-4.9184468543,-8.4550386571,1335
78069,192932,228186,0.7549355303,-4.9184468543,-8.4550386571,1336
78180,192920,228172,0.7549355303,-4.9184468543,-8.4550386571,1337
78174,192993,228222,0.7549355303,-4.9184468543,-8.4550386571,1338
77488,192802,228143,0.7549355303,-4.9184468543,-8.4550386571,1339
76814,192636,228051,0.7549355303,-4.9184468543,-8.4550386571,1340
76638,192630,228033,0.7549355303,-4.9184468543,-8.4550386571,1341
76741,192661,228067,0.7549355303,-4.9184468543,-8.4550386571,1342
76905,192719,228126,0.7549355303,-4.9184468543,-8.4550386571,1343
77072,192763,228175,0.7549355303,-4.9184468543,-8.4550386571,1344
77234,192764,228151,0.7549355303,-4.9184468543,-8.4550386571,1345
77283,192736,228129,0.7549355303,-4.9184468543,-8.4550386571,1346
77308,192759,228122,0.7549355303,-4.9184468543,-8.4550386571,1347
77321,192794,228123,0.7549355303,-4.9184468543,-8.4550386571,1348
77368,192812,228141,1.0193424276,-4.8323052407,-8.4490566006,1349
77418,192790,228145,1.0193424276,-4.8323052407,-8.4490566006,1350
77505,192764,228191,1.0193424276,-4.8323052407,-8.4490566006,1351
77604,192785,228151,1.0193424276,-4.8323052407,-8.4490566006,1352
77722,192812,228181,1.0193424276,-4.8323052407,-8.4490566006,1353
77863,192808,228213,1.0193424276,-4.8323052407,-8.4490566006,1354
77970,192886,228183,1.0193424276,-4.8323052407,-8.4490566006,1355
78073,192860,228196,1.0193424276,-4.8323052407,-8.4490566006,1356
78153,192846,228163,1.0193424276,-4.8323052407,-8.4490566006,1357
78142,192846,228196,1.0193424276,-4.8323052407,-8.4490566006,1358
77531,192734,228070,1.0193424276,-4.8323052407,-8.4490566006,1359
76803,192545,228032,1.0193424276,-4.8323052407,-8.4490566006,1360
76551,192460,227987,1.0193424276,-4.8323052407,-8.4490566006,1361
76594,192501,228029,1.0193424276,-4.8323052407,-8.4490566006,1362
76740,192532,228035,1.0193424276,-4.8323052407,-8.4490566006,1363
76890,192556,228043,1.0193424276,-4.8323052407,-8.4490566006,1364
77064,192585,228061,1.0193424276,-4.8323052407,-8.4490566006,1365
77142,192563,228068,1.0193424276,-4.8323052407,-8.4490566006,1366
77172,192595,228044,1.0193424276,-4.8323052407,-8.4490566006,1367
77203,192568,228079,1.0193424276,-4.8323052407,-8.4490566006,1368
77265,192603,228046,1.0193424276,-4.8323052407,-8.4490566006,1369
77330,192605,228088,1.0193424276,-4.8323052407,-8.4490566006,1370
77422,192600,228064,1.0193424276,-4.8323052407,-8.4490566006,1371
77540,192607,228092,1.0193424276,-4.8323052407,-8.4490566006,1372
77656,192660,228120,1.0193424276,-4.8323052407,-8.4490566006,1373
77767,192689,228140,1.0193424276,-4.8323052407,-8.4490566006,1374
77885,192691,228155,1.0193424276,-4.8323052407,-8.4490566006,1375
78000,192703,228141,1.0193424276,-4.8323052407,-8.4490566006,1376
78091,192710,228148,1.0193424276,-4.8323052407,-8.4490566006,1377
78162,192739,228142,1.0193424276,-4.8323052407,-8.4490566006,1378
77729,192668,228146,1.0193424276,-4.8323052407,-8.4490566006,1379
76966,192460,227952,1.0193424276,-4.8323052407,-8.4490566006,1380
76641,192405,228045,1.0193424276,-4.8323052407,-8.4490566006,1381
76663,192462,227980,1.0193424276,-4.8323052407,-8.4490566006,1382
76820,192508,228089,1.0193424276,-4.8323052407,-8.4490566006,1383
76982,192554,228085,1.0193424276,-4.8323052407,-8.4490566006,1384
77157,192558,228100,1.0193424276,-4.8323052407,-8.4490566006,1385
77252,192579,228101,1.0193424276,-4.8323052407,-8.4490566006,1386
77321,192564,228105,1.0193424276,-4.8323052407,-8.4490566006,1387
77361,192602,228100,1.0193424276,-4.8323052407,-8.4490566006,1388
77425,192632,228150,1.0193424276,-4.8323052407,-8.4490566006,1389
77503,192629,228144,1.0193424276,-4.8323052407,-8.4490566006,1390
78043,192749,228208,0.9164510558,-4.7605205627,-8.4681991814,1391
77705,192687,228176,0.9164510558,-4.7605205627,-8.4681991814,1392
76805,192463,228035,0.9164510558,-4.7605205627,-8.4681991814,1393
76305,192356,227935,0.9164510558,-4.7605205627,-8.4681991814,1394
76220,192315,227998,0.9164510558,-4.7605205627,-8.4681991814,1395
76301,192382,228002,0.9164510558,-4.7605205627,-8.4681991814,1396
76416,192403,227992,0.9164510558,-4.7605205627,-8.4681991814,1397
76534,192407,227992,0.9164510558,-4.7605205627,-8.4681991814,1398
76633,192413,227995,0.9164510558,-4.7605205627,-8.4681991814,1399
76622,192388,227987,0.9164510558,-4.7605205627,-8.4681991814,1400
76617,192379,228033,0.9164510558,-4.7605205627,-8.4681991814,1401
76647,192396,227988,0.9164510558,-4.7605205627,-8.4681991814,1402
76683,192382,227968,0.9164510558,-4.7605205627,-8.4681991814,1403
76738,192376,228009,0.9164510558,-4.7605205627,-8.4681991814,1404
76822,192374,228019,0.9164510558,-4.7605205627,-8.4681991814,1405
76924,192422,227998,0.9164510558,-4.7605205627,-8.4681991814,1406
77043,192450,228012,0.9164510558,-4.7605205627,-8.4681991814,1407
77149,192468,228032,0.9164510558,-4.7605205627,-8.4681991814,1408
77252,192463,228013,0.9164510558,-4.7605205627,-8.4681991814,1409
77329,192515,228038,0.9164510558,-4.7605205627,-8.4681991814,1410
77421,192514,228030,0.9164510558,-4.7605205627,-8.4681991814,1411
77127,192440,228008,0.9164510558,-4.7605205627,-8.4681991814,1412
76302,192277,227892,0.9164510558,-4.7605205627,-8.4681991814,1413
75799,192153,227812,0.9164510558,-4.7605205627,-8.4681991814,1414
75689,192120,227852,0.9164510558,-4.7605205627,-8.4681991814,1415
75805,192171,227834,0.9164510558,-4.7605205627,-8.4681991814,1416
75983,192217,227827,0.9164510558,-4.7605205627,-8.4681991814,1417
76134,192261,227903,0.9164510558,-4.7605205627,-8.4681991814,1418
76293,192297,227865,0.9164510558,-4.7605205627,-8.4681991814,1419
76365,192318,227961,0.9164510558,-4.7605205627,-8.4681991814,1420
76381,192325,227937,0.9164510558,-4.7605205627,-8.4681991814,1421
76429,192330,227959,0.9164510558,-4.7605205627,-8.4681991814,1422
76487,192335,227959,0.9164510558,-4.7605205627,-8.4681991814,1423
76589,192378,227976,0.9164510558,-4.7605205627,-8.4681991814,1424
76693,192419,227980,0.9164510558,-4.7605205627,-8.4681991814,1425
76819,192431,227979,0.9164510558,-4.7605205627,-8.4681991814,1426
76980,192493,228057,0.9164510558,-4.7605205627,-8.4681991814,1427
77114,192511,228033,0.9164510558,-4.7605205627,-8.4681991814,1428
77257,192559,228040,0.9164510558,-4.7605205627,-8.4681991814,1429
77354,192556,228053,0.9164510558,-4.7605205627,-8.4681991814,1430
77473,192563,228054,0.9164510558,-4.7605205627,-8.4681991814,1431
77453,192600,228075,0.9164510558,-4.7605205627,-8.4681991814,1432
76932,192333,227692,0.8219345630999999,-4.9124647978,-8.470592004,1433
77032,192368,227709,0.8219345630999999,-4.9124647978,-8.470592004,1434
77140,192347,227682,0.8219345630999999,-4.9124647978,-8.470592004,1435
77244,192366,227724,0.8219345630999999,-4.9124647978,-8.470592004,1436
77066,192379,227682,0.8219345630999999,-4.9124647978,-8.470592004,1437
76294,192186,227547,0.8219345630999999,-4.9124647978,-8.470592004,1438
75744,192013,227439,0.8219345630999999,-4.9124647978,-8.470592004,1439
75614,192006,227508,0.8219345630999999,-4.9124647978,-8.470592004,1440
75680,192051,227492,0.8219345630999999,-4.9124647978,-8.470592004,1441
75834,192102,227599,0.8219345630999999,-4.9124647978,-8.470592004,1442
75953,192113,227528,0.8219345630999999,-4.9124647978,-8.470592004,1443
76079,192151,227573,0.8219345630999999,-4.9124647978,-8.470592004,1444
76128,192145,227606,0.8219345630999999,-4.9124647978,-8.470592004,1445
76175,192167,227596,0.8219345630999999,-4.9124647978,-8.470592004,1446
76207,192196,227624,0.8219345630999999,-4.9124647978,-8.470592004,1447
76277,192207,227629,0.8219345630999999,-4.9124647978,-8.470592004,1448
76349,192208,227627,0.8219345630999999,-4.9124647978,-8.470592004,1449
76407,192220,227605,0.8219345630999999,-4.9124647978,-8.470592004,1450
76525,192229,227632,0.8219345630999999,-4.9124647978,-8.470592004,1451
76643,192287,227664,0.8219345630999999,-4.9124647978,-8.470592004,1452
76756,192289,227641,0.8219345630999999,-4.9124647978,-8.470592004,1453
76868,192344,227662,0.9643075078,-4.9028935074,-8.419146318100001,1454
76955,192340,227648,0.9643075078,-4.9028935074,-8.419146318100001,1455
77024,192356,227649,0.9643075078,-4.9028935074,-8.419146318100001,1456
77086,192319,227611,0.9403792818,-5.0309095165,-8.4370924876,1457
77108,192349,227704,0.8590233134,-4.8861437492,-8.458627890999999,1458
76547,192206,227589,0.9499505722,-4.8741796362,-8.5005022865,1459
75725,192058,227468,0.9607182739,-4.8526442328,-8.516055633399999,1460
75384,191982,227407,0.921236701,-4.8981078622,-8.482556117,1461
75336,191972,227434,0.8949156524,-4.8909293944,-8.5088771656,1462
75446,192008,227425,0.9224331123,-4.9040899186999996,-8.5351982142,1463
75533,191996,227445,0.8829515394,-4.869393991,-8.482556117,1464
75656,192013,227424,1.0325029519,-4.9220360882000005,-8.434699665,1465
75703,192004,227445,0.8626125473,-4.8155554825,-8.4000037373,1466
75720,192016,227475,0.9188438784,-4.9746781854,-8.4658063588,1467
75739,192031,227453,0.921236701,-4.8155554825,-8.4981094639,1468
75786,192067,227439,0.8003991597,-4.8957150396,-8.463413536200001,1469
75839,192053,227498,0.8315058535,-4.881358104,-8.4143606729,1470
75937,192085,227472,0.8195417405,-4.929214556,-8.4358960763,1471
76053,192122,227519,0.9726823869,-4.917250443,-8.470592004,1472
76181,192089,227560,0.8183453291999999,-4.9483571368,-8.5076807543,1473
76357,192202,227568,1.0360921858,-4.8430729424,-8.5794654323,1474
76456,192250,227542,1.1186445655,-4.953142782,-8.4251283746,1475
76578,192215,227618,0.8685946038000001,-4.9555356046000005,-8.4394853102,1476
76679,192305,227577,0.8590233134,-4.8346980633,-8.5758761984,1477
76705,192309,227621,1.0384850084,-4.8514478215,-8.4646099475,1478
76901,192325,227673,0.9164510558,-4.7964129017,-8.4251283746,1479
76487,192252,227609,0.9750752094999999,-4.850251410199999,-8.4741812379,1480
75681,192074,227455,0.9020941202,-4.7928236678,-8.482556117,1481
75228,191987,227411,0.9678967417,-4.9148576204,-8.5399838594,1482
75176,191991,227410,0.9643075078,-4.9555356046000005,-8.4897345848,1483
75292,192069,227456,0.9894321450999999,-4.893322217,-8.4969130526,1484
75409,192059,227449,0.9487541609,-4.7940200791,-8.4263247859,1485
75459,192077,227490,0.9882357338,-4.883750926599999,-8.4801632944,1486
75688,192089,227451,0.9140582332,-4.8705904022999995,-8.4550386571,1487
75746,192125,227512,0.9260223462,-4.9639104837,-8.4203427294,1488
75784,192180,227527,1.0899306943,-4.8131626599,-8.4921274074,1489
75846,192183,227560,0.801595571,-4.869393991,-8.4335032537,1490
75913,192177,227555,0.8051848049,-4.797609313,-8.4095750277,1491
76007,192181,227571,0.9631110964999999,-4.7413779819,-8.551947972399999,1492
76118,192231,227605,0.8626125473,-5.0177489922000005,-8.4921274074,1493
76234,192250,227638,0.9284151688,-4.8586262893,-8.463413536200001,1494
76414,192278,227655,0.9487541609,-4.9603212498,-8.4681991814,1495
76478,192312,227640,0.7453642399,-4.8981078622,-8.4993058752,1496
76660,192363,227625,0.9020941202,-4.9722853628,-8.373682688699999,1497
76716,192363,227665,0.7573283529,-4.8227339503,-8.4693955927,1498
76797,192354,227635,1.0193424276,-4.8634119345,-8.525626923799999,1499
76927,192413,227651,0.9702895642999999,-4.9375894351,-8.4239319633,1500
76893,192426,227640,0.9272187574999999,-4.8382872972,-8.4729848266,1501
76201,192302,227594,0.8566304908000001,-4.883750926599999,-8.4538422458,1502
75505,192102,227474,0.9427721043999999,-4.9627140724,-8.5340018029,1503
75325,192057,227451,1.0001998468,-4.8562334667,-8.4729848266,1504
75401,192093,227462,0.9990034355,-4.8658047571,-8.5112699882,1505
75533,192133,227501,0.9499505722,-4.9148576204,-8.4083786164,1506
75697,192165,227519,0.9164510558,-4.8670011684,-8.4670027701,1507
75845,192179,227525,0.9631110964999999,-4.8610191119,-8.4406817215,1508
75940,192209,227517,0.9870393224999999,-4.816751893799999,-8.5076807543,1509
75981,192211,227558,0.9355936366,-4.8981078622,-8.4538422458,1510
76030,192258,227572,0.9774680320999999,-4.8622155232,-8.542376681999999,1511
76093,192205,227569,0.981057266,-5.0141597583,-8.3688970435,1512
76178,192210,227554,0.9774680320999999,-5.0201418148,-8.475377649199999,1513
76276,192280,227628,1.0205388389,-4.9387858464,-8.4562350684,1514
76380,192272,227565,1.1461620254,-4.8370908858999995,-8.4394853102,1515
76564,192291,227603,0.9188438784,-4.8729832249000005,-8.4012001486,1516
76694,192342,227609,1.0516455327,-4.9794638306,-8.4538422458,1517
76848,192401,227671,1.0624132344,-4.9794638306,-8.484948939599999,1518
