green,red,IR,acc_x,acc_y,acc_z,sample_index
51734,149155,144531,-3.46959277,7.0444697344,5.9066825881,1
51782,149177,144572,-3.5928231339,7.1485575175,5.9150574672000005,2
51830,149196,144579,-3.5641092626999997,6.9116680801,6.029912952,3
51853,149244,144609,-3.3511480513,6.9439711852,5.9533426288,4
51832,149255,144617,-3.3559336964999997,6.9116680801,5.8492548457,5
51782,149203,144595,-3.517449222,6.9296142496,5.9294144028,6
51695,149193,144589,-3.4504501892,7.071987194299999,5.967699564399999,7
51618,149125,144568,-3.2027930501,6.9918276372,6.0287165407000005,8
51561,149113,144546,-3.2219356309,7.0504517909,5.9808600887,9
51527,149082,144541,-3.4983066412,7.0636123152,6.0107703712000005,10
51523,149078,144534,-3.493520996,6.93918554,5.967699564399999,11
51522,149099,144562,-3.3607193417,7.1377898158,6.005984725999999,12
51543,149146,144560,-3.4660035360999997,7.030112798799999,5.9485569836,13
51567,149105,144550,-3.5270205124,6.987041992,5.9808600887,14
51587,149099,144572,-3.2841490185,6.9212393704999995,5.967699564399999,15
51616,149151,144543,-3.4085757937,6.9583281208,5.9629139192,16
51645,149149,144574,-3.4552358344000003,7.0672015491,6.0574304119,17
51584,149137,144614,-3.3367911156999996,7.1150580011,5.967699564399999,18
51716,149220,144596,-3.3738798660000002,6.9403819513,6.0765729927,19
51754,149179,144627,-3.5605200288,7.0205415084,5.9569318627,20
51789,149224,144654,-3.4085757937,7.0289163875,5.9868421452,21
51852,149253,144625,-3.3846475676999996,6.8925254993,6.034698597199999,22
51893,149278,144640,-3.409772205,7.1449682836,6.009573959900001,23
51945,149302,144668,-3.493520996,7.0576302587,5.9617175078999995,24
52000,149363,144693,-3.242274623,6.987041992,5.9724852096,25
52003,149348,144727,-3.4683963587,7.010970218,5.9916277904,26
52036,149347,144718,-3.3547372851999997,7.0205415084,5.9724852096,27
52006,149357,144724,-3.445664544,7.0253271536,5.9377892819,28
51958,149288,144661,-3.4791640604,7.0492553796,5.958128274,29
51859,149131,144660,-3.3834511564,7.138986227099999,6.0287165407000005,30
51798,149213,144656,-3.4253255519,7.0253271536,5.8528440796,31
51744,149147,144646,-3.4683963587,6.9583281208,5.9437713384,32
51731,149188,144610,-3.5162528107,7.0253271536,6.0047883147,33
51726,149152,144618,-3.3595229304,7.030112798799999,5.9353964593,34
51738,149170,144637,-3.4827532943,7.073183605600001,5.9772708547999995,35
51763,149147,144644,-3.3834511564,7.125825702799999,5.9808600887,36
51768,149144,144631,-3.46959277,6.897311144500001,6.038287831100001,37
51780,149128,144592,-3.3032915993,7.014559451899999,5.9246287576,38
51803,149132,144615,-3.5365918028000003,6.836294168199999,6.0143596051,39
51831,149139,144606,-3.3930224468000003,7.0540410248,5.996413435599999,40
51844,149187,144601,-3.2841490185,6.9678994112,5.958128274,41
51884,149158,144634,-3.4145578502,7.0205415084,5.9665031531,42
51841,149116,144593,-3.4313076084,7.0013989275999995,5.934200048,43
51932,149144,144577,-3.3786655112000004,7.0767728395,5.9856457339,44
51969,149079,144555,-3.3834511564,7.0205415084,5.9724852096,45
52000,149113,144598,-3.4372896648999998,6.9918276372,5.9760744435,46
52034,149100,144578,-3.5796626096,6.9451675965,5.938985693199999,47
52078,149006,144584,-3.397808092,7.034898444,6.0681981136,48
52103,149110,144561,-3.3176485349,6.9403819513,5.9629139192,49
52065,149118,144625,-3.3702906320999997,7.0002025163,5.9294144028,50
51929,149027,144578,-3.3367911156999996,6.9822563468,5.8205409745,51
51931,149039,144496,-3.4002009146,7.004988161499999,5.9916277904,52
51841,148954,144476,-3.46959277,7.0480589683,5.967699564399999,53
51771,148916,144483,-3.4277183745,7.0492553796,6.0909299283,54
51769,148900,144450,-3.4420753101,7.0444697344,6.034698597199999,55
51732,148893,144443,-3.3511480513,6.9499532417,5.900700531599999,56
51772,148919,144438,-3.4085757937,6.9547388869,5.9533426288,57
51750,148801,144450,-3.3930224468000003,6.9966132824,5.9916277904,58
51761,148845,144413,-3.5557343836,6.987041992,6.0239308954999995,59
51766,148811,144398,-3.3332018818,7.0193450971,6.0335021859,60
51771,148790,144422,-3.517449222,7.0013989275999995,5.9150574672000005,61
51786,148817,144398,-3.5318061576,6.9822563468,5.9437713384,62
51814,148822,144424,-3.4121650276000004,7.0492553796,5.9868421452,63
51833,148864,144417,-3.4037901484999997,7.0253271536,5.8049876276,64
51864,148831,144437,-3.5222348672,7.0492553796,6.029912952,65
51890,148844,144416,-3.5078779316,7.0253271536,5.9820565,66
51919,148863,144420,-3.4360932536,6.9966132824,6.0873406944,67
51937,148857,144412,-3.4540394231000002,6.9535424756,6.0622160571,68
52002,148890,144447,-3.4648071248,7.0444697344,5.8815579507999995,69
52019,148893,144454,-3.5318061576,7.0959154203,5.9916277904,70
52008,148927,144457,-3.4923245847,6.9164537253,5.968895975700001,71
52033,148950,144490,-3.4265219632000004,7.0779692508,5.958128274,72
51985,148924,144458,-3.4564322457,7.087540541199999,6.0107703712000005,73
51942,148892,144438,-3.3415767608999998,7.0815584846999995,5.9868421452,74
51822,148867,144433,-3.3990045032999996,7.1856462678,5.9054861768,75
51744,148877,144453,-3.46959277,7.0815584846999995,5.9569318627,76
51687,148867,144432,-3.5126635768,6.9822563468,5.9306108141000005,77
51693,148924,144440,-3.5114671655,7.046862557000001,5.9533426288,78
51685,148893,144442,-3.4169506728,6.9678994112,6.0191452503,79
51683,148943,144444,-3.6263226502999997,6.9200429592,5.9437713384,80
51696,148927,144451,-3.3990045032999996,7.100701065499999,5.9808600887,81
51696,148914,144459,-3.3607193417,6.9535424756,5.8959148864,82
51719,148937,144453,-3.3990045032999996,7.0002025163,5.9198431124,83
51728,148954,144502,-3.3128628897,6.9439711852,6.009573959900001,84
51752,148973,144496,-3.4408788988000003,7.0444697344,6.0909299283,85
51775,149004,144515,-3.3367911156999996,7.0767728395,6.0335021859,86
51809,149010,144544,-3.3272198253,6.977470701600001,5.8923256525,87
51851,149062,144545,-3.2889346637,7.0396840892,5.8827543621,88
51865,149072,144576,-3.3499516399999996,7.0576302587,5.938985693199999,89
51904,149096,144601,-3.3702906320999997,7.0169522744999995,5.858826136099999,90
51942,149147,144619,-3.3798619225,7.0444697344,5.996413435599999,91
51989,149190,144617,-3.4707891813,7.0624159039,5.9066825881,92
52014,149180,144643,-3.2554351473,7.129414936699999,6.025127306799999,93
52010,149203,144631,-3.4169506728,6.9595245321,6.034698597199999,94
51943,149189,144616,-3.3702906320999997,7.1808606226,5.9150574672000005,95
51853,149154,144638,-3.4887353508000003,7.167700098299999,5.9102718219999995,96
51682,149122,144632,-3.3750762773,7.0025953389,6.0143596051,97
51699,149100,144614,-3.4875389395,6.9439711852,5.952146217499999,98
51644,149103,144552,-3.4600214796,7.0444697344,5.938985693199999,99
51600,149081,144555,-3.5030922864000003,7.0253271536,5.9916277904,100
51617,149077,144577,-3.3308090592,7.0540410248,5.9246287576,101
51617,149129,144578,-3.3786655112000004,7.1485575175,5.9868421452,102
51634,149113,144525,-3.3511480513,7.0767728395,5.9198431124,103
51641,149119,144614,-3.6358939407,7.034898444,6.000002669500001,104
51651,149140,144618,-3.517449222,6.9248286044,5.9904313791,105
51673,149121,144593,-3.4743784152000003,7.045666145699999,5.9485569836,106
51698,149128,144600,-3.5162528107,7.010970218,6.0335021859,107
51719,149141,144586,-3.4325040196999996,7.0253271536,5.9102718219999995,108
51762,149120,144633,-3.4779676491,7.129414936699999,6.0191452503,109
51787,149188,144651,-3.4408788988000003,6.8638116281,5.9102718219999995,110
51827,149253,144665,-3.4791640604,7.1162544124,5.938985693199999,111
51868,149236,144644,-3.3176485349,7.1054867107,5.9294144028,112
51910,149253,144666,-3.3846475676999996,6.9714886451,6.0813586379,113
51948,149281,144677,-3.3798619225,7.0073809841,5.9437713384,114
51986,149271,144700,-3.3080772444999997,7.196413969499999,6.034698597199999,115
52029,149289,144675,-3.4600214796,6.8877398540999994,5.9150574672000005,116
51945,149235,144663,-3.3595229304,7.0384876779,5.9856457339,117
51874,149196,144638,-3.4540394231000002,6.9104716688000005,5.9868421452,118
51787,149134,144627,-3.4037901484999997,7.0157558632,5.9772708547999995,119
51700,149085,144577,-3.397808092,7.0253271536,5.934200048,120
51640,149033,144550,-3.4396824875,7.252645300599999,5.8289158536,121
51590,148981,144536,-3.3559336964999997,7.0815584846999995,5.9294144028,122
51580,148960,144512,-3.3559336964999997,7.0815584846999995,5.9294144028,123
51588,148947,144505,-3.3559336964999997,7.0815584846999995,5.9294144028,124
51602,148919,144474,-3.3559336964999997,7.0815584846999995,5.9294144028,125
51611,148894,144447,-3.3559336964999997,7.0815584846999995,5.9294144028,126
51625,148877,144421,-3.3559336964999997,7.0815584846999995,5.9294144028,127
51651,148909,144462,-3.3559336964999997,7.0815584846999995,5.9294144028,128
51668,148868,144429,-3.3559336964999997,7.0815584846999995,5.9294144028,129
51697,148861,144453,-3.3559336964999997,7.0815584846999995,5.9294144028,130
51721,148890,144431,-3.3559336964999997,7.0815584846999995,5.9294144028,131
51766,148889,144458,-3.3559336964999997,7.0815584846999995,5.9294144028,132
51794,148889,144433,-3.3559336964999997,7.0815584846999995,5.9294144028,133
51840,148915,144439,-3.3559336964999997,7.0815584846999995,5.9294144028,134
51865,148907,144467,-3.3559336964999997,7.0815584846999995,5.9294144028,135
51913,148924,144474,-3.3559336964999997,7.0815584846999995,5.9294144028,136
51944,148941,144448,-3.3559336964999997,7.0815584846999995,5.9294144028,137
51959,148973,144480,-3.3559336964999997,7.0815584846999995,5.9294144028,138
51921,148923,144469,-3.3559336964999997,7.0815584846999995,5.9294144028,139
51849,148905,144439,-3.3559336964999997,7.0815584846999995,5.9294144028,140
51767,148820,144381,-3.3559336964999997,7.0815584846999995,5.9294144028,141
51687,148781,144401,-3.3559336964999997,7.0815584846999995,5.9294144028,142
51630,148747,144364,-3.3559336964999997,7.0815584846999995,5.9294144028,143
51615,148760,144331,-3.3559336964999997,7.0815584846999995,5.9294144028,144
51602,148732,144341,-3.3559336964999997,7.0815584846999995,5.9294144028,145
51617,148742,144348,-3.3559336964999997,7.0815584846999995,5.9294144028,146
51628,148733,144342,-3.3559336964999997,7.0815584846999995,5.9294144028,147
51639,148721,144320,-3.3559336964999997,7.0815584846999995,5.9294144028,148
51654,148723,144335,-3.3559336964999997,7.0815584846999995,5.9294144028,149
51678,148750,144308,-3.3559336964999997,7.0815584846999995,5.9294144028,150
51705,148791,144377,-3.3559336964999997,7.0815584846999995,5.9294144028,151
51738,148808,144371,-3.3559336964999997,7.0815584846999995,5.9294144028,152
51773,148852,144426,-3.3559336964999997,7.0815584846999995,5.9294144028,153
51804,148876,144425,-3.3559336964999997,7.0815584846999995,5.9294144028,154
51842,148904,144444,-3.3559336964999997,7.0815584846999995,5.9294144028,155
51875,148982,144431,-3.3559336964999997,7.0815584846999995,5.9294144028,156
51920,148965,144490,-3.3559336964999997,7.0815584846999995,5.9294144028,157
51970,149058,144535,-3.3559336964999997,7.0815584846999995,5.9294144028,158
51996,149088,144541,-3.3559336964999997,7.0815584846999995,5.9294144028,159
51995,149090,144589,-3.3559336964999997,7.0815584846999995,5.9294144028,160
51958,149096,144569,-3.3559336964999997,7.0815584846999995,5.9294144028,161
51897,149083,144543,-3.3559336964999997,7.0815584846999995,5.9294144028,162
51802,149027,144518,-3.3559336964999997,7.0815584846999995,5.9294144028,163
51666,148742,144342,-3.3367911156999996,7.1150580011,5.9198431124,164
51672,148771,144371,-3.3367911156999996,7.1150580011,5.9198431124,165
51691,148778,144405,-3.3367911156999996,7.1150580011,5.9198431124,166
51721,148792,144374,-3.3367911156999996,7.1150580011,5.9198431124,167
51737,148808,144408,-3.3367911156999996,7.1150580011,5.9198431124,168
51753,148840,144412,-3.3367911156999996,7.1150580011,5.9198431124,169
51792,148889,144469,-3.3367911156999996,7.1150580011,5.9198431124,170
51822,148926,144470,-3.3367911156999996,7.1150580011,5.9198431124,171
51849,148947,144473,-3.3367911156999996,7.1150580011,5.9198431124,172
51878,148969,144505,-3.3367911156999996,7.1150580011,5.9198431124,173
51912,149011,144496,-3.3367911156999996,7.1150580011,5.9198431124,174
51941,149007,144526,-3.3367911156999996,7.1150580011,5.9198431124,175
52005,149056,144562,-3.3367911156999996,7.1150580011,5.9198431124,176
52032,149066,144568,-3.3367911156999996,7.1150580011,5.9198431124,177
52022,149090,144547,-3.3367911156999996,7.1150580011,5.9198431124,178
51981,149101,144568,-3.3367911156999996,7.1150580011,5.9198431124,179
51902,149056,144571,-3.3367911156999996,7.1150580011,5.9198431124,180
51822,149038,144526,-3.3367911156999996,7.1150580011,5.9198431124,181
51756,148970,144531,-3.3367911156999996,7.1150580011,5.9198431124,182
51704,148972,144529,-3.3367911156999996,7.1150580011,5.9198431124,183
51682,148964,144491,-3.3367911156999996,7.1150580011,5.9198431124,184
51681,148978,144503,-3.3367911156999996,7.1150580011,5.9198431124,185
51695,149001,144542,-3.3367911156999996,7.1150580011,5.9198431124,186
51705,149013,144531,-3.3367911156999996,7.1150580011,5.9198431124,187
51723,149021,144520,-3.3367911156999996,7.1150580011,5.9198431124,188
51738,149037,144543,-3.3367911156999996,7.1150580011,5.9198431124,189
51757,149040,144565,-3.3367911156999996,7.1150580011,5.9198431124,190
51780,149072,144574,-3.3367911156999996,7.1150580011,5.9198431124,191
51805,149060,144536,-3.3367911156999996,7.1150580011,5.9198431124,192
51833,149094,144568,-3.3367911156999996,7.1150580011,5.9198431124,193
51865,149121,144600,-3.3367911156999996,7.1150580011,5.9198431124,194
51906,149119,144604,-3.3367911156999996,7.1150580011,5.9198431124,195
51945,149194,144635,-3.3367911156999996,7.1150580011,5.9198431124,196
51984,149190,144663,-3.3367911156999996,7.1150580011,5.9198431124,197
52031,149196,144666,-3.3367911156999996,7.1150580011,5.9198431124,198
52069,149203,144692,-3.3367911156999996,7.1150580011,5.9198431124,199
52069,149235,144678,-3.3367911156999996,7.1150580011,5.9198431124,200
52029,149190,144658,-3.3367911156999996,7.1150580011,5.9198431124,201
51940,149132,144667,-3.3367911156999996,7.1150580011,5.9198431124,202
51870,149094,144625,-3.3367911156999996,7.1150580011,5.9198431124,203
51793,149070,144560,-3.3367911156999996,7.1150580011,5.9198431124,204
51751,149030,144579,-3.3367911156999996,7.1150580011,5.9198431124,205
51779,148914,144486,-3.4325040196999996,6.9690958225,5.9952170243,206
51789,148945,144529,-3.4325040196999996,6.9690958225,5.9952170243,207
51804,148954,144511,-3.4325040196999996,6.9690958225,5.9952170243,208
51806,148969,144525,-3.4325040196999996,6.9690958225,5.9952170243,209
51824,148980,144510,-3.4325040196999996,6.9690958225,5.9952170243,210
51829,148986,144539,-3.4325040196999996,6.9690958225,5.9952170243,211
51868,148987,144540,-3.4325040196999996,6.9690958225,5.9952170243,212
51893,148994,144566,-3.4325040196999996,6.9690958225,5.9952170243,213
51908,149030,144562,-3.4325040196999996,6.9690958225,5.9952170243,214
51937,149055,144567,-3.4325040196999996,6.9690958225,5.9952170243,215
51981,149093,144612,-3.4325040196999996,6.9690958225,5.9952170243,216
52006,149083,144612,-3.4325040196999996,6.9690958225,5.9952170243,217
52046,149120,144649,-3.4325040196999996,6.9690958225,5.9952170243,218
52070,149178,144673,-3.4325040196999996,6.9690958225,5.9952170243,219
52118,149201,144667,-3.4325040196999996,6.9690958225,5.9952170243,220
52147,149243,144692,-3.4325040196999996,6.9690958225,5.9952170243,221
52143,149222,144685,-3.4325040196999996,6.9690958225,5.9952170243,222
52092,149186,144682,-3.4325040196999996,6.9690958225,5.9952170243,223
51996,149121,144631,-3.4325040196999996,6.9690958225,5.9952170243,224
51920,149059,144610,-3.4325040196999996,6.9690958225,5.9952170243,225
51838,149013,144584,-3.4325040196999996,6.9690958225,5.9952170243,226
51791,148962,144497,-3.4325040196999996,6.9690958225,5.9952170243,227
51770,148910,144508,-3.4325040196999996,6.9690958225,5.9952170243,228
51753,148884,144503,-3.4325040196999996,6.9690958225,5.9952170243,229
51751,148859,144491,-3.4325040196999996,6.9690958225,5.9952170243,230
51763,148807,144405,-3.4325040196999996,6.9690958225,5.9952170243,231
51767,148796,144430,-3.4325040196999996,6.9690958225,5.9952170243,232
51782,148785,144403,-3.4325040196999996,6.9690958225,5.9952170243,233
51785,148800,144389,-3.4325040196999996,6.9690958225,5.9952170243,234
51808,148799,144404,-3.4325040196999996,6.9690958225,5.9952170243,235
51825,148793,144405,-3.4325040196999996,6.9690958225,5.9952170243,236
51855,148806,144418,-3.4325040196999996,6.9690958225,5.9952170243,237
51880,148815,144449,-3.4325040196999996,6.9690958225,5.9952170243,238
51903,148788,144422,-3.4325040196999996,6.9690958225,5.9952170243,239
51936,148811,144451,-3.4325040196999996,6.9690958225,5.9952170243,240
51971,148825,144436,-3.4325040196999996,6.9690958225,5.9952170243,241
52008,148832,144443,-3.4325040196999996,6.9690958225,5.9952170243,242
52029,148858,144484,-3.4325040196999996,6.9690958225,5.9952170243,243
52012,148869,144474,-3.4325040196999996,6.9690958225,5.9952170243,244
51958,148833,144431,-3.4325040196999996,6.9690958225,5.9952170243,245
51886,148784,144400,-3.4325040196999996,6.9690958225,5.9952170243,246
51806,148720,144402,-3.4325040196999996,6.9690958225,5.9952170243,247
52084,149089,144607,-3.4648071248,6.993024048500001,5.938985693199999,248
52100,149044,144620,-3.4648071248,6.993024048500001,5.938985693199999,249
52130,149039,144595,-3.4648071248,6.993024048500001,5.938985693199999,250
52132,149051,144567,-3.4648071248,6.993024048500001,5.938985693199999,251
52157,149033,144566,-3.4648071248,6.993024048500001,5.938985693199999,252
52164,149004,144571,-3.4648071248,6.993024048500001,5.938985693199999,253
52186,149026,144561,-3.4648071248,6.993024048500001,5.938985693199999,254
52209,149014,144552,-3.4648071248,6.993024048500001,5.938985693199999,255
52240,148996,144578,-3.4648071248,6.993024048500001,5.938985693199999,256
52278,148994,144552,-3.4648071248,6.993024048500001,5.938985693199999,257
52291,149040,144571,-3.4648071248,6.993024048500001,5.938985693199999,258
52333,149019,144579,-3.4648071248,6.993024048500001,5.938985693199999,259
52373,149019,144607,-3.4648071248,6.993024048500001,5.938985693199999,260
52386,149051,144596,-3.4648071248,6.993024048500001,5.938985693199999,261
52386,149060,144620,-3.4648071248,6.993024048500001,5.938985693199999,262
52340,149066,144613,-3.4648071248,6.993024048500001,5.938985693199999,263
52272,149002,144539,-3.4648071248,6.993024048500001,5.938985693199999,264
52188,148981,144541,-3.4648071248,6.993024048500001,5.938985693199999,265
52138,148958,144497,-3.4648071248,6.993024048500001,5.938985693199999,266
52092,148924,144538,-3.4648071248,6.993024048500001,5.938985693199999,267
52075,148926,144511,-3.4648071248,6.993024048500001,5.938985693199999,268
52067,148955,144504,-3.4648071248,6.993024048500001,5.938985693199999,269
52094,148934,144483,-3.4648071248,6.993024048500001,5.938985693199999,270
52092,148953,144461,-3.4648071248,6.993024048500001,5.938985693199999,271
52099,148902,144456,-3.4648071248,6.993024048500001,5.938985693199999,272
52113,148958,144511,-3.4648071248,6.993024048500001,5.938985693199999,273
52121,148983,144481,-3.4648071248,6.993024048500001,5.938985693199999,274
52140,148993,144508,-3.4648071248,6.993024048500001,5.938985693199999,275
52173,149061,144551,-3.4648071248,6.993024048500001,5.938985693199999,276
52192,149116,144572,-3.4648071248,6.993024048500001,5.938985693199999,277
52227,149118,144593,-3.4648071248,6.993024048500001,5.938985693199999,278
52254,149162,144660,-3.4648071248,6.993024048500001,5.938985693199999,279
52268,149181,144629,-3.4648071248,6.993024048500001,5.938985693199999,280
52315,149231,144655,-3.4648071248,6.993024048500001,5.938985693199999,281
52329,149246,144704,-3.4648071248,6.993024048500001,5.938985693199999,282
52358,149242,144699,-3.4648071248,6.993024048500001,5.938985693199999,283
52356,149290,144709,-3.4648071248,6.993024048500001,5.938985693199999,284
52299,149291,144710,-3.4648071248,6.993024048500001,5.938985693199999,285
52207,149274,144692,-3.4648071248,6.993024048500001,5.938985693199999,286
52121,149261,144685,-3.4648071248,6.993024048500001,5.938985693199999,287
52023,149218,144652,-3.4648071248,6.993024048500001,5.938985693199999,288
51971,149224,144653,-3.4648071248,6.993024048500001,5.938985693199999,289
51907,149252,144665,-3.4731820039,6.9020967897,6.029912952,290
51934,149268,144632,-3.4731820039,6.9020967897,6.029912952,291
51931,149264,144662,-3.4731820039,6.9020967897,6.029912952,292
51949,149303,144656,-3.4731820039,6.9020967897,6.029912952,293
51960,149293,144694,-3.4731820039,6.9020967897,6.029912952,294
51990,149320,144703,-3.4731820039,6.9020967897,6.029912952,295
52004,149370,144699,-3.4731820039,6.9020967897,6.029912952,296
52042,149381,144734,-3.4731820039,6.9020967897,6.029912952,297
52060,149386,144748,-3.4731820039,6.9020967897,6.029912952,298
52112,149430,144759,-3.4552358344000003,7.0157558632,5.9665031531,299
52141,149457,144809,-3.4552358344000003,7.0157558632,5.9665031531,300
52175,149462,144787,-3.4552358344000003,7.0157558632,5.9665031531,301
52174,149450,144804,-3.4552358344000003,7.0157558632,5.9665031531,302
52137,149453,144820,-3.4552358344000003,7.0157558632,5.9665031531,303
52065,149451,144816,-3.4552358344000003,7.0157558632,5.9665031531,304
51955,149405,144769,-3.4552358344000003,7.0157558632,5.9665031531,305
51869,149365,144773,-3.4552358344000003,7.0157558632,5.9665031531,306
51783,149328,144736,-3.4552358344000003,7.0157558632,5.9665031531,307
51727,149299,144715,-3.4552358344000003,7.0157558632,5.9665031531,308
51707,149286,144716,-3.4552358344000003,7.0157558632,5.9665031531,309
51703,149292,144696,-3.4121650276000004,7.0241307423,5.9629139192,310
51709,149308,144680,-3.4121650276000004,7.0241307423,5.9629139192,311
51712,149320,144705,-3.5700913192,6.9535424756,5.9820565,312
51710,149257,144651,-3.5018958750999998,7.0073809841,6.0155560164,313
51716,149263,144617,-3.2470602682000003,7.071987194299999,5.9018969429000006,314
51736,149267,144645,-3.5449666819,7.0971118315999995,5.996413435599999,315
51741,149229,144645,-3.326023414,7.0624159039,5.8492548457,316
51766,149229,144603,-3.5150563993999997,7.014559451899999,5.9952170243,317
51788,149204,144631,-3.2554351473,7.027719976199999,6.1148581543,318
51813,149223,144613,-3.5030922864000003,7.1150580011,5.9772708547999995,319
51838,149170,144594,-3.5844482548,7.087540541199999,6.0011990808,320
51868,149186,144599,-3.5844482548,7.087540541199999,6.0011990808,321
51895,149201,144637,-3.5844482548,7.087540541199999,6.0011990808,322
51936,149183,144609,-3.5844482548,7.087540541199999,6.0011990808,323
51962,149176,144625,-3.5844482548,7.087540541199999,6.0011990808,324
51935,149163,144617,-3.5844482548,7.087540541199999,6.0011990808,325
51854,149129,144583,-3.5844482548,7.087540541199999,6.0011990808,326
51762,149063,144564,-3.5844482548,7.087540541199999,6.0011990808,327
51664,148985,144513,-3.5844482548,7.087540541199999,6.0011990808,328
51571,148997,144468,-3.5844482548,7.087540541199999,6.0011990808,329
51524,148924,144432,-3.5844482548,7.087540541199999,6.0011990808,330
51505,148913,144437,-3.5844482548,7.087540541199999,6.0011990808,331
51499,148911,144460,-3.5844482548,7.087540541199999,6.0011990808,332
51506,148904,144442,-3.5844482548,7.087540541199999,6.0011990808,333
51526,148890,144397,-3.5844482548,7.087540541199999,6.0011990808,334
51525,148867,144402,-3.5844482548,7.087540541199999,6.0011990808,335
51590,148869,144397,-3.2410782117,7.0265235649,5.8528440796,336
51557,148840,144356,-3.2410782117,7.0265235649,5.8528440796,337
51577,148887,144388,-3.2410782117,7.0265235649,5.8528440796,338
51602,148906,144385,-3.2410782117,7.0265235649,5.8528440796,339
51653,148922,144404,-3.2410782117,7.0265235649,5.8528440796,340
51686,148928,144401,-3.2410782117,7.0265235649,5.8528440796,341
51725,148953,144431,-3.2410782117,7.0265235649,5.8528440796,342
51772,148992,144494,-3.2410782117,7.0265235649,5.8528440796,343
51806,148975,144466,-3.2410782117,7.0265235649,5.8528440796,344
51852,149007,144503,-3.2410782117,7.0265235649,5.8528440796,345
51883,149051,144515,-3.2410782117,7.0265235649,5.8528440796,346
51891,149103,144511,-3.2410782117,7.0265235649,5.8528440796,347
51847,149121,144555,-3.2410782117,7.0265235649,5.8528440796,348
51789,149119,144530,-3.2410782117,7.0265235649,5.8528440796,349
51693,149119,144528,-3.2410782117,7.0265235649,5.8528440796,350
51609,149082,144541,-3.2410782117,7.0265235649,5.8528440796,351
51564,149081,144523,-3.2410782117,7.0265235649,5.8528440796,352
51540,149071,144499,-3.2410782117,7.0265235649,5.8528440796,353
51534,149084,144526,-3.2410782117,7.0265235649,5.8528440796,354
51549,149097,144505,-3.2410782117,7.0265235649,5.8528440796,355
51546,149083,144524,-3.5557343836,7.0253271536,6.0442698876,356
51575,149089,144534,-3.5557343836,7.0253271536,6.0442698876,357
51578,149099,144509,-3.5557343836,7.0253271536,6.0442698876,358
51606,149121,144521,-3.5557343836,7.0253271536,6.0442698876,359
51638,149154,144538,-3.5557343836,7.0253271536,6.0442698876,360
51668,149170,144561,-3.5557343836,7.0253271536,6.0442698876,361
51700,149196,144579,-3.5557343836,7.0253271536,6.0442698876,362
51731,149195,144601,-3.5557343836,7.0253271536,6.0442698876,363
51778,149197,144603,-3.5557343836,7.0253271536,6.0442698876,364
51816,149239,144634,-3.5557343836,7.0253271536,6.0442698876,365
51865,149294,144665,-3.5557343836,7.0253271536,6.0442698876,366
51911,149327,144708,-3.5557343836,7.0253271536,6.0442698876,367
51956,149346,144724,-3.5557343836,7.0253271536,6.0442698876,368
51979,149396,144744,-3.5557343836,7.0253271536,6.0442698876,369
51972,149367,144746,-3.5557343836,7.0253271536,6.0442698876,370
51909,149353,144707,-3.5557343836,7.0253271536,6.0442698876,371
51832,149310,144713,-3.5557343836,7.0253271536,6.0442698876,372
51758,149312,144667,-3.5557343836,7.0253271536,6.0442698876,373
51702,149257,144662,-3.5557343836,7.0253271536,6.0442698876,374
51662,149261,144637,-3.5557343836,7.0253271536,6.0442698876,375
51667,149222,144654,-3.5557343836,7.0253271536,6.0442698876,376
51680,149227,144654,-3.5557343836,7.0253271536,6.0442698876,377
51702,149219,144604,-3.5557343836,7.0253271536,6.0442698876,378
51721,149192,144658,-3.5557343836,7.0253271536,6.0442698876,379
51745,149211,144622,-3.5557343836,7.0253271536,6.0442698876,380
51774,149238,144652,-3.5557343836,7.0253271536,6.0442698876,381
51794,149238,144624,-3.5557343836,7.0253271536,6.0442698876,382
51824,149231,144647,-3.5557343836,7.0253271536,6.0442698876,383
51864,149253,144670,-3.5557343836,7.0253271536,6.0442698876,384
51894,149276,144655,-3.5557343836,7.0253271536,6.0442698876,385
51944,149269,144688,-3.5557343836,7.0253271536,6.0442698876,386
51976,149291,144699,-3.5557343836,7.0253271536,6.0442698876,387
52014,149340,144713,-3.5557343836,7.0253271536,6.0442698876,388
52077,149319,144690,-3.5557343836,7.0253271536,6.0442698876,389
52122,149328,144712,-3.5557343836,7.0253271536,6.0442698876,390
52152,149344,144736,-3.5557343836,7.0253271536,6.0442698876,391
52158,149357,144706,-3.5557343836,7.0253271536,6.0442698876,392
52120,149309,144698,-3.5557343836,7.0253271536,6.0442698876,393
52048,149224,144664,-3.5557343836,7.0253271536,6.0442698876,394
51967,149171,144625,-3.5557343836,7.0253271536,6.0442698876,395
51907,149095,144578,-3.5557343836,7.0253271536,6.0442698876,396
51862,149035,144529,-3.5557343836,7.0253271536,6.0442698876,397
51888,148942,144453,-3.3643085755999995,7.0253271536,5.9533426288,398
51894,148918,144430,-3.3643085755999995,7.0253271536,5.9533426288,399
51909,148911,144412,-3.3643085755999995,7.0253271536,5.9533426288,400
51945,148876,144410,-3.3643085755999995,7.0253271536,5.9533426288,401
51970,148907,144445,-3.3643085755999995,7.0253271536,5.9533426288,402
52000,148909,144418,-3.3643085755999995,7.0253271536,5.9533426288,403
52036,148916,144441,-3.3643085755999995,7.0253271536,5.9533426288,404
52061,148920,144436,-3.3643085755999995,7.0253271536,5.9533426288,405
52091,148918,144447,-3.3643085755999995,7.0253271536,5.9533426288,406
52136,148937,144495,-3.3643085755999995,7.0253271536,5.9533426288,407
52176,148958,144494,-3.3643085755999995,7.0253271536,5.9533426288,408
52228,148967,144476,-3.3643085755999995,7.0253271536,5.9533426288,409
52239,148967,144483,-3.3643085755999995,7.0253271536,5.9533426288,410
52217,148961,144508,-3.3643085755999995,7.0253271536,5.9533426288,411
52170,148938,144461,-3.3643085755999995,7.0253271536,5.9533426288,412
52111,148912,144414,-3.3643085755999995,7.0253271536,5.9533426288,413
52039,148857,144420,-3.3643085755999995,7.0253271536,5.9533426288,414
51998,148823,144404,-3.3643085755999995,7.0253271536,5.9533426288,415
51974,148828,144373,-3.3643085755999995,7.0253271536,5.9533426288,416
51971,148829,144375,-3.3643085755999995,7.0253271536,5.9533426288,417
51981,148852,144386,-3.3643085755999995,7.0253271536,5.9533426288,418
51990,148822,144368,-3.3643085755999995,7.0253271536,5.9533426288,419
52003,148847,144390,-3.3643085755999995,7.0253271536,5.9533426288,420
52015,148863,144400,-3.3643085755999995,7.0253271536,5.9533426288,421
52040,148904,144399,-3.3643085755999995,7.0253271536,5.9533426288,422
52060,148902,144436,-3.3643085755999995,7.0253271536,5.9533426288,423
52101,148957,144459,-3.3643085755999995,7.0253271536,5.9533426288,424
52132,149004,144461,-3.3643085755999995,7.0253271536,5.9533426288,425
52159,149029,144541,-3.3643085755999995,7.0253271536,5.9533426288,426
52181,149038,144557,-3.3643085755999995,7.0253271536,5.9533426288,427
52218,149074,144539,-3.3643085755999995,7.0253271536,5.9533426288,428
52248,149107,144605,-3.3643085755999995,7.0253271536,5.9533426288,429
52291,149138,144603,-3.3643085755999995,7.0253271536,5.9533426288,430
52315,149155,144611,-3.3643085755999995,7.0253271536,5.9533426288,431
52356,149194,144645,-3.3643085755999995,7.0253271536,5.9533426288,432
52335,149222,144644,-3.3643085755999995,7.0253271536,5.9533426288,433
52297,149224,144642,-3.3643085755999995,7.0253271536,5.9533426288,434
52212,149192,144605,-3.3643085755999995,7.0253271536,5.9533426288,435
52125,149149,144602,-3.3643085755999995,7.0253271536,5.9533426288,436
52063,149134,144603,-3.3643085755999995,7.0253271536,5.9533426288,437
52017,149124,144594,-3.3643085755999995,7.0253271536,5.9533426288,438
51981,149104,144552,-3.3643085755999995,7.0253271536,5.9533426288,439
52175,149268,144706,-3.445664544,7.030112798799999,5.9856457339,440
52076,149186,144635,-3.445664544,7.030112798799999,5.9856457339,441
51985,149158,144585,-3.445664544,7.030112798799999,5.9856457339,442
51900,149094,144606,-3.445664544,7.030112798799999,5.9856457339,443
51862,149106,144547,-3.445664544,7.030112798799999,5.9856457339,444
51841,149069,144591,-3.445664544,7.030112798799999,5.9856457339,445
51827,149064,144553,-3.445664544,7.030112798799999,5.9856457339,446
51823,149055,144547,-3.445664544,7.030112798799999,5.9856457339,447
51824,148989,144550,-3.445664544,7.030112798799999,5.9856457339,448
51826,148981,144465,-3.445664544,7.030112798799999,5.9856457339,449
51832,148966,144483,-3.445664544,7.030112798799999,5.9856457339,450
51850,148929,144470,-3.5748769644,7.0253271536,5.958128274,451
51858,148909,144507,-3.5748769644,7.0253271536,5.958128274,452
51873,148936,144494,-3.6263226502999997,7.0396840892,6.0442698876,453
51890,148921,144492,-3.6263226502999997,7.0396840892,6.0442698876,454
51922,148949,144464,-3.6263226502999997,7.0396840892,6.0442698876,455
51942,148910,144471,-3.6263226502999997,7.0396840892,6.0442698876,456
51977,148926,144472,-3.6263226502999997,7.0396840892,6.0442698876,457
52005,148943,144481,-3.6263226502999997,7.0396840892,6.0442698876,458
52047,148943,144488,-3.6263226502999997,7.0396840892,6.0442698876,459
52074,148977,144469,-3.6263226502999997,7.0396840892,6.0442698876,460
52064,148975,144505,-3.6263226502999997,7.0396840892,6.0442698876,461
52000,148948,144445,-3.6263226502999997,7.0396840892,6.0442698876,462
51924,148877,144420,-3.6263226502999997,7.0396840892,6.0442698876,463
51820,148789,144388,-3.6263226502999997,7.0396840892,6.0442698876,464
51727,148758,144372,-3.6263226502999997,7.0396840892,6.0442698876,465
51668,148744,144368,-3.6263226502999997,7.0396840892,6.0442698876,466
51625,148706,144342,-3.3942188581,7.0492553796,5.996413435599999,467
51601,148748,144323,-3.3942188581,7.0492553796,5.996413435599999,468
51612,148735,144334,-3.3942188581,7.0492553796,5.996413435599999,469
51610,148722,144325,-3.3942188581,7.0492553796,5.996413435599999,470
51602,148723,144326,-3.3942188581,7.0492553796,5.996413435599999,471
51622,148733,144354,-3.3942188581,7.0492553796,5.996413435599999,472
51634,148747,144371,-3.3942188581,7.0492553796,5.996413435599999,473
51650,148803,144364,-3.3942188581,7.0492553796,5.996413435599999,474
51674,148824,144399,-3.3942188581,7.0492553796,5.996413435599999,475
51705,148853,144404,-3.3942188581,7.0492553796,5.996413435599999,476
51724,148915,144400,-3.3942188581,7.0492553796,5.996413435599999,477
51756,148915,144433,-3.3942188581,7.0492553796,5.996413435599999,478
51784,148945,144428,-3.3942188581,7.0492553796,5.996413435599999,479
51817,148999,144449,-3.3942188581,7.0492553796,5.996413435599999,480
51867,149038,144492,-3.3942188581,7.0492553796,5.996413435599999,481
51892,149081,144522,-3.3942188581,7.0492553796,5.996413435599999,482
51911,149118,144546,-3.3942188581,7.0492553796,5.996413435599999,483
51879,149129,144564,-3.3942188581,7.0492553796,5.996413435599999,484
51814,149078,144530,-3.3942188581,7.0492553796,5.996413435599999,485
51705,149088,144545,-3.3942188581,7.0492553796,5.996413435599999,486
51601,149048,144498,-3.421736318,6.9726850564,5.9150574672000005,487
51533,149023,144484,-3.421736318,6.9726850564,5.9150574672000005,488
51456,149006,144473,-3.421736318,6.9726850564,5.9150574672000005,489
51448,148988,144483,-3.421736318,6.9726850564,5.9150574672000005,490
51440,149014,144497,-3.421736318,6.9726850564,5.9150574672000005,491
51444,149047,144505,-3.421736318,6.9726850564,5.9150574672000005,492
51455,149011,144515,-3.3415767608999998,7.100701065499999,5.8959148864,493
51456,149029,144522,-3.4971102299,7.034898444,5.9808600887,494
51406,149059,144517,-3.3463624061,6.9260250157000005,5.9629139192,495
51496,149063,144512,-3.4360932536,7.0193450971,6.0155560164,496
51512,149053,144558,-3.4360932536,7.0193450971,6.0155560164,497
51531,149083,144545,-3.4360932536,7.0193450971,6.0155560164,498
51569,149096,144566,-3.4360932536,7.0193450971,6.0155560164,499
51604,149129,144550,-3.4360932536,7.0193450971,6.0155560164,500
51647,149134,144563,-3.4360932536,7.0193450971,6.0155560164,501
51689,149165,144590,-3.4360932536,7.0193450971,6.0155560164,502
51733,149201,144623,-3.4360932536,7.0193450971,6.0155560164,503
51766,149193,144628,-3.4360932536,7.0193450971,6.0155560164,504
51799,149228,144644,-3.4360932536,7.0193450971,6.0155560164,505
51791,149238,144606,-3.4360932536,7.0193450971,6.0155560164,506
51746,149198,144602,-3.4360932536,7.0193450971,6.0155560164,507
51654,149157,144583,-3.4360932536,7.0193450971,6.0155560164,508
51548,149081,144551,-3.4360932536,7.0193450971,6.0155560164,509
51469,149048,144508,-3.4360932536,7.0193450971,6.0155560164,510
51402,149011,144475,-3.4360932536,7.0193450971,6.0155560164,511
51365,148951,144459,-3.4360932536,7.0193450971,6.0155560164,512
51356,148906,144453,-3.3846475676999996,6.8590259828999995,5.9724852096,513
51372,148944,144422,-3.3846475676999996,6.8590259828999995,5.9724852096,514
51389,148874,144430,-3.3846475676999996,6.8590259828999995,5.9724852096,515
51384,148895,144396,-3.3846475676999996,6.8590259828999995,5.9724852096,516
51392,148860,144378,-3.3846475676999996,6.8590259828999995,5.9724852096,517
51433,148838,144395,-3.3846475676999996,6.8590259828999995,5.9724852096,518
51459,148811,144393,-3.3846475676999996,6.8590259828999995,5.9724852096,519
51483,148845,144390,-3.3846475676999996,6.8590259828999995,5.9724852096,520
51499,148845,144405,-3.3846475676999996,6.8590259828999995,5.9724852096,521
51549,148867,144382,-3.3846475676999996,6.8590259828999995,5.9724852096,522
51581,148845,144373,-3.3846475676999996,6.8590259828999995,5.9724852096,523
51611,148838,144357,-3.3846475676999996,6.8590259828999995,5.9724852096,524
51652,148887,144398,-3.3846475676999996,6.8590259828999995,5.9724852096,525
51706,148884,144405,-3.3846475676999996,6.8590259828999995,5.9724852096,526
51749,148886,144396,-3.3846475676999996,6.8590259828999995,5.9724852096,527
51773,148891,144420,-3.3846475676999996,6.8590259828999995,5.9724852096,528
51753,148890,144464,-3.3846475676999996,6.8590259828999995,5.9724852096,529
51704,148872,144384,-3.3846475676999996,6.8590259828999995,5.9724852096,530
51623,148805,144371,-3.3846475676999996,6.8590259828999995,5.9724852096,531
51549,148760,144359,-3.3846475676999996,6.8590259828999995,5.9724852096,532
51519,148748,144335,-3.3284162366,7.0492553796,5.9018969429000006,533
51475,148727,144327,-3.3284162366,7.0492553796,5.9018969429000006,534
51466,148754,144356,-3.3284162366,7.0492553796,5.9018969429000006,535
51489,148757,144296,-3.3284162366,7.0492553796,5.9018969429000006,536
51502,148727,144317,-3.3284162366,7.0492553796,5.9018969429000006,537
51519,148703,144323,-3.3284162366,7.0492553796,5.9018969429000006,538
51537,148684,144295,-3.2745777280999997,6.976274290299999,5.942574927099999,539
51558,148726,144340,-3.2745777280999997,6.976274290299999,5.942574927099999,540
51593,148775,144349,-3.4133614389,6.9439711852,5.8911292412,541
51621,148818,144375,-3.4133614389,6.9439711852,5.8911292412,542
51655,148826,144365,-3.4133614389,6.9439711852,5.8911292412,543
51700,148858,144394,-3.4133614389,6.9439711852,5.8911292412,544
51741,148898,144399,-3.4133614389,6.9439711852,5.8911292412,545
51775,148954,144435,-3.4133614389,6.9439711852,5.8911292412,546
51822,148964,144443,-3.4133614389,6.9439711852,5.8911292412,547
51865,148996,144505,-3.4133614389,6.9439711852,5.8911292412,548
51913,149046,144490,-3.4133614389,6.9439711852,5.8911292412,549
51940,149087,144530,-3.4133614389,6.9439711852,5.8911292412,550
51936,149109,144551,-3.4133614389,6.9439711852,5.8911292412,551
51886,149085,144545,-3.4037901484999997,6.948756830400001,5.8672010152,552
51807,149052,144539,-3.4037901484999997,6.948756830400001,5.8672010152,553
51732,149000,144543,-3.4037901484999997,6.948756830400001,5.8672010152,554
51680,149031,144516,-3.4121650276000004,6.987041992,5.9772708547999995,555
51647,148988,144502,-3.4683963587,6.977470701600001,5.996413435599999,556
51634,149004,144477,-3.5509487384000002,7.0205415084,5.938985693199999,557
51642,148997,144520,-3.4444681327,7.1150580011,5.9724852096,558
51640,149011,144541,-3.5222348672,7.087540541199999,5.967699564399999,559
51703,149033,144527,-3.4827532943,7.0444697344,6.0526447667,560
51688,149062,144544,-3.4169506728,6.9499532417,6.0526447667,561
51705,149042,144572,-3.3930224468000003,6.9583281208,5.9485569836,562
51732,149050,144588,-3.4827532943,6.9834527581,5.9629139192,563
51759,149077,144589,-3.4839497056,7.0396840892,6.005984725999999,564
51786,149110,144592,-3.4121650276000004,6.9966132824,5.9533426288,565
51868,149141,144588,-3.3224341800999997,6.9966132824,5.9820565,566
51856,149114,144611,-3.4731820039,7.0480589683,6.025127306799999,567
51893,149194,144637,-3.4516466004999997,7.0815584846999995,5.934200048,568
51936,149198,144639,-3.3164521235999995,6.9966132824,5.9868421452,569
51964,149223,144641,-3.3894332128999998,7.058826669999999,6.009573959900001,570
52012,149317,144689,-3.397808092,7.113861589800001,5.9186467011,571
52060,149265,144693,-3.3834511564,7.142575461000001,5.8767723056,572
52052,149274,144681,-3.5318061576,7.0396840892,6.0203416616,573
52017,149264,144681,-3.3427731722,7.004988161499999,5.871986660399999,574
51858,149198,144627,-3.3451659948,7.0157558632,6.038287831100001,575
51866,149156,144628,-3.4313076084,6.9810599355,5.9533426288,576
51787,149115,144580,-3.4265219632000004,7.1401826384,5.996413435599999,577
51736,149075,144598,-3.4121650276000004,7.010970218,5.9102718219999995,578
51701,149030,144570,-3.2518459134,7.0121666293,6.0717873475,579
51723,149028,144549,-3.4313076084,7.0863441299,5.996413435599999,580
51699,148978,144545,-3.4121650276000004,7.0492553796,5.900700531599999,581
51708,148967,144511,-3.46959277,7.0540410248,5.9246287576,582
51717,148952,144505,-3.3738798660000002,7.0672015491,5.8875400073,583
51731,148936,144486,-3.3224341800999997,7.2191457842,5.9150574672000005,584
51749,148930,144472,-3.3224341800999997,7.2191457842,5.9150574672000005,585
51759,148918,144498,-3.3224341800999997,7.2191457842,5.9150574672000005,586
51791,148927,144474,-3.3224341800999997,7.2191457842,5.9150574672000005,587
51823,148906,144480,-3.3224341800999997,7.2191457842,5.9150574672000005,588
51842,148915,144451,-3.3224341800999997,7.2191457842,5.9150574672000005,589
51870,148910,144491,-3.3224341800999997,7.2191457842,5.9150574672000005,590
51915,148904,144505,-3.3224341800999997,7.2191457842,5.9150574672000005,591
51955,148943,144521,-3.3224341800999997,7.2191457842,5.9150574672000005,592
51979,148945,144531,-3.3224341800999997,7.2191457842,5.9150574672000005,593
52018,148974,144482,-3.3224341800999997,7.2191457842,5.9150574672000005,594
52033,148987,144530,-3.3224341800999997,7.2191457842,5.9150574672000005,595
52008,148985,144472,-3.3224341800999997,7.2191457842,5.9150574672000005,596
51938,148913,144490,-3.3224341800999997,7.2191457842,5.9150574672000005,597
51853,148846,144468,-3.3224341800999997,7.2191457842,5.9150574672000005,598
51788,148847,144442,-3.4755748265,6.9954168711,6.009573959900001,599
51719,148794,144425,-3.4755748265,6.9954168711,6.009573959900001,600
51691,148742,144388,-3.4755748265,6.9954168711,6.009573959900001,601
51692,148685,144388,-3.4181470840999997,6.9403819513,5.8636117813,602
51691,148810,144407,-3.4504501892,7.034898444,6.067001702300001,603
51694,148756,144417,-3.493520996,7.0959154203,5.9856457339,604
51702,148770,144390,-3.4313076084,7.1078795333,5.9904313791,605
51704,148780,144393,-3.4313076084,7.0971118315999995,5.8815579507999995,606
51733,148770,144394,-3.6071800695,6.948756830400001,5.934200048,607
51760,148816,144415,-3.4600214796,6.915257314,5.8959148864,608
51774,148851,144431,-3.3403803495999997,7.0576302587,5.9916277904,609
51814,148901,144459,-3.4971102299,7.0169522744999995,5.9904313791,610
51837,148965,144512,-3.3236305914,7.030112798799999,5.9066825881,611
51883,148925,144517,-3.4516466004999997,7.1688965096,5.9437713384,612
51918,148983,144521,-3.4265219632000004,7.1114687672,5.8815579507999995,613
51945,149072,144562,-3.3595229304,6.9726850564,6.005984725999999,614
51965,149088,144593,-3.421736318,6.9726850564,6.0047883147,615
52030,149146,144643,-3.445664544,6.963113765999999,5.9485569836,616
52034,149180,144629,-3.3882368016,6.8721865072,5.9018969429000006,617
52011,149174,144656,-3.2506495021,6.8829542089,5.9724852096,618
51928,149149,144643,-3.3702906320999997,6.897311144500001,5.9198431124,619
51859,149113,144636,-3.4073793824000003,6.9822563468,6.0023954921,620
51747,149094,144589,-3.4121650276000004,7.0193450971,5.996413435599999,621
51687,149051,144608,-3.4468609552999996,7.1629144531,5.996413435599999,622
51624,149042,144599,-3.4313076084,7.0636123152,5.913861055899999,623
51602,149043,144578,-3.4169506728,7.0683979604,5.958128274,624
51639,149072,144567,-3.4600214796,6.9726850564,5.9952170243,625
51619,149012,144591,-3.517449222,7.1916283243,6.1052868639,626
51619,149088,144586,-3.4229327293,7.1210400576,5.9246287576,627
51620,149065,144613,-3.4492537779,7.0672015491,5.9952170243,628
51644,149091,144622,-3.4492537779,7.0672015491,5.9952170243,629
51660,149100,144570,-3.4492537779,7.0672015491,5.9952170243,630
51682,149096,144612,-3.4492537779,7.0672015491,5.9952170243,631
51712,149121,144651,-3.4492537779,7.0672015491,5.9952170243,632
51742,149151,144637,-3.4492537779,7.0672015491,5.9952170243,633
51782,149196,144641,-3.4492537779,7.0672015491,5.9952170243,634
51816,149221,144661,-3.4492537779,7.0672015491,5.9952170243,635
51849,149233,144689,-3.4492537779,7.0672015491,5.9952170243,636
51899,149265,144702,-3.4492537779,7.0672015491,5.9952170243,637
51926,149290,144720,-3.4492537779,7.0672015491,5.9952170243,638
51964,149277,144707,-3.4492537779,7.0672015491,5.9952170243,639
51939,149284,144730,-3.4492537779,7.0672015491,5.9952170243,640
51868,149278,144725,-3.4492537779,7.0672015491,5.9952170243,641
51784,149191,144668,-3.4492537779,7.0672015491,5.9952170243,642
51672,149150,144666,-3.4492537779,7.0672015491,5.9952170243,643
51597,149119,144649,-3.4492537779,7.0672015491,5.9952170243,644
51543,149069,144614,-3.3547372851999997,7.0253271536,6.0203416616,645
51506,149056,144571,-3.3547372851999997,7.0253271536,6.0203416616,646
51506,149055,144573,-3.3547372851999997,7.0253271536,6.0203416616,647
51512,149027,144593,-3.3547372851999997,7.0253271536,6.0203416616,648
51509,148983,144555,-3.3547372851999997,7.0253271536,6.0203416616,649
51522,148963,144545,-3.3547372851999997,7.0253271536,6.0203416616,650
51522,148939,144516,-3.3547372851999997,7.0253271536,6.0203416616,651
51540,148951,144535,-3.3547372851999997,7.0253271536,6.0203416616,652
51568,148913,144508,-3.3547372851999997,7.0253271536,6.0203416616,653
51589,148937,144504,-3.3547372851999997,7.0253271536,6.0203416616,654
51618,148909,144512,-3.3547372851999997,7.0253271536,6.0203416616,655
51643,148955,144475,-3.3547372851999997,7.0253271536,6.0203416616,656
51677,148903,144500,-3.3547372851999997,7.0253271536,6.0203416616,657
51719,148939,144520,-3.3547372851999997,7.0253271536,6.0203416616,658
51758,148937,144526,-3.3547372851999997,7.0253271536,6.0203416616,659
51797,148967,144520,-3.3547372851999997,7.0253271536,6.0203416616,660
51828,148957,144531,-3.3547372851999997,7.0253271536,6.0203416616,661
51819,148977,144530,-3.3547372851999997,7.0253271536,6.0203416616,662
51761,148898,144521,-3.3547372851999997,7.0253271536,6.0203416616,663
51691,148880,144446,-3.3547372851999997,7.0253271536,6.0203416616,664
51605,148820,144437,-3.3547372851999997,7.0253271536,6.0203416616,665
51524,148775,144450,-3.3547372851999997,7.0253271536,6.0203416616,666
51470,148724,144398,-3.3547372851999997,7.0253271536,6.0203416616,667
51453,148719,144403,-3.3547372851999997,7.0253271536,6.0203416616,668
51458,148761,144366,-3.3547372851999997,7.0253271536,6.0203416616,669
51460,148732,144344,-3.3547372851999997,7.0253271536,6.0203416616,670
51479,148698,144377,-3.3547372851999997,7.0253271536,6.0203416616,671
51495,148704,144351,-3.3547372851999997,7.0253271536,6.0203416616,672
51502,148705,144373,-3.3547372851999997,7.0253271536,6.0203416616,673
51528,148711,144379,-3.3547372851999997,7.0253271536,6.0203416616,674
51549,148704,144404,-3.3547372851999997,7.0253271536,6.0203416616,675
51572,148766,144389,-3.3547372851999997,7.0253271536,6.0203416616,676
51611,148777,144385,-3.3547372851999997,7.0253271536,6.0203416616,677
51659,148770,144420,-3.3547372851999997,7.0253271536,6.0203416616,678
51681,148785,144405,-3.3547372851999997,7.0253271536,6.0203416616,679
51733,148815,144413,-3.3547372851999997,7.0253271536,6.0203416616,680
51766,148866,144487,-3.3547372851999997,7.0253271536,6.0203416616,681
51814,148910,144472,-3.3547372851999997,7.0253271536,6.0203416616,682
51849,148930,144507,-3.3547372851999997,7.0253271536,6.0203416616,683
51853,148968,144514,-3.3655049869,6.9918276372,5.8767723056,684
51805,148959,144539,-3.3655049869,6.9918276372,5.8767723056,685
51744,148932,144544,-3.3655049869,6.9918276372,5.8767723056,686
51672,148920,144530,-3.3655049869,6.9918276372,5.8767723056,687
51606,148931,144507,-3.3655049869,6.9918276372,5.8767723056,688
51550,148885,144508,-3.3655049869,6.9918276372,5.8767723056,689
51528,148861,144494,-3.3655049869,6.9918276372,5.8767723056,690
51521,148921,144518,-3.3655049869,6.9918276372,5.8767723056,691
51534,148912,144547,-3.3655049869,6.9918276372,5.8767723056,692
51540,148910,144529,-3.3655049869,6.9918276372,5.8767723056,693
51564,148937,144564,-3.3655049869,6.9918276372,5.8767723056,694
51584,148937,144518,-3.3655049869,6.9918276372,5.8767723056,695
51606,149011,144565,-3.3655049869,6.9918276372,5.8767723056,696
51624,149001,144574,-3.3655049869,6.9918276372,5.8767723056,697
51669,149052,144610,-3.3655049869,6.9918276372,5.8767723056,698
51694,149070,144607,-3.3655049869,6.9918276372,5.8767723056,699
51726,149084,144603,-3.3655049869,6.9918276372,5.8767723056,700
51769,149111,144628,-3.3655049869,6.9918276372,5.8767723056,701
51808,149135,144681,-3.3655049869,6.9918276372,5.8767723056,702
51847,149156,144697,-3.3655049869,6.9918276372,5.8767723056,703
51884,149197,144695,-3.3655049869,6.9918276372,5.8767723056,704
51933,149246,144702,-3.3655049869,6.9918276372,5.8767723056,705
51934,149234,144719,-3.3655049869,6.9918276372,5.8767723056,706
51906,149225,144739,-3.3655049869,6.9918276372,5.8767723056,707
51838,149205,144714,-3.3655049869,6.9918276372,5.8767723056,708
51761,149142,144675,-3.3655049869,6.9918276372,5.8767723056,709
51681,149101,144643,-3.3655049869,6.9918276372,5.8767723056,710
51618,149080,144622,-3.3655049869,6.9918276372,5.8767723056,711
51589,149031,144611,-3.3655049869,6.9918276372,5.8767723056,712
51583,149004,144575,-3.3655049869,6.9918276372,5.8767723056,713
51594,149061,144592,-3.3655049869,6.9918276372,5.8767723056,714
51610,149074,144599,-3.3655049869,6.9918276372,5.8767723056,715
51627,149040,144600,-3.3655049869,6.9918276372,5.8767723056,716
51648,149061,144638,-3.3655049869,6.9918276372,5.8767723056,717
51665,149075,144617,-3.3655049869,6.9918276372,5.8767723056,718
51684,149093,144641,-3.3655049869,6.9918276372,5.8767723056,719
51710,149107,144646,-3.3655049869,6.9918276372,5.8767723056,720
51750,149118,144648,-3.3655049869,6.9918276372,5.8767723056,721
51781,149140,144652,-3.3655049869,6.9918276372,5.8767723056,722
51817,149135,144681,-3.3655049869,6.9918276372,5.8767723056,723
51854,149150,144681,-3.3655049869,6.9918276372,5.8767723056,724
51894,149196,144684,-3.3655049869,6.9918276372,5.8767723056,725
51534,148985,144595,-3.4277183745,6.8961147332,5.9772708547999995,726
51459,148993,144586,-3.4277183745,6.8961147332,5.9772708547999995,727
51431,148981,144600,-3.4277183745,6.8961147332,5.9772708547999995,728
51414,148964,144575,-3.4277183745,6.8961147332,5.9772708547999995,729
51437,148972,144604,-3.4277183745,6.8961147332,5.9772708547999995,730
51427,148999,144592,-3.4277183745,6.8961147332,5.9772708547999995,731
51436,148998,144582,-3.4277183745,6.8961147332,5.9772708547999995,732
51464,149020,144621,-3.4277183745,6.8961147332,5.9772708547999995,733
51477,149047,144617,-3.4277183745,6.8961147332,5.9772708547999995,734
51501,149035,144607,-3.4277183745,6.8961147332,5.9772708547999995,735
51526,149026,144615,-3.4277183745,6.8961147332,5.9772708547999995,736
51548,149075,144657,-3.4277183745,6.8961147332,5.9772708547999995,737
51585,149086,144650,-3.4277183745,6.8961147332,5.9772708547999995,738
51625,149143,144686,-3.4277183745,6.8961147332,5.9772708547999995,739
51658,149128,144672,-3.4277183745,6.8961147332,5.9772708547999995,740
51722,149169,144723,-3.4277183745,6.8961147332,5.9772708547999995,741
51741,149216,144736,-3.4277183745,6.8961147332,5.9772708547999995,742
51785,149217,144727,-3.4277183745,6.8961147332,5.9772708547999995,743
51820,149224,144771,-3.4277183745,6.8961147332,5.9772708547999995,744
51802,149219,144721,-3.4277183745,6.8961147332,5.9772708547999995,745
51732,149163,144719,-3.4360932536,7.0169522744999995,5.9724852096,746
51647,149126,144665,-3.4360932536,7.0169522744999995,5.9724852096,747
51552,149067,144694,-3.4360932536,7.0169522744999995,5.9724852096,748
51476,149046,144621,-3.4360932536,7.0169522744999995,5.9724852096,749
51430,149017,144634,-3.4360932536,7.0169522744999995,5.9724852096,750
51405,149000,144619,-3.4360932536,7.0169522744999995,5.9724852096,751
51405,149024,144621,-3.4360932536,7.0169522744999995,5.9724852096,752
51417,149029,144602,-3.4360932536,7.0169522744999995,5.9724852096,753
51430,149002,144610,-3.4360932536,7.0169522744999995,5.9724852096,754
51430,148980,144588,-3.4360932536,7.0169522744999995,5.9724852096,755
51450,148976,144604,-3.4360932536,7.0169522744999995,5.9724852096,756
51460,148963,144601,-3.4360932536,7.0169522744999995,5.9724852096,757
51492,148973,144600,-3.4360932536,7.0169522744999995,5.9724852096,758
51520,148963,144588,-3.4360932536,7.0169522744999995,5.9724852096,759
51538,148977,144593,-3.4360932536,7.0169522744999995,5.9724852096,760
51573,148936,144587,-3.4360932536,7.0169522744999995,5.9724852096,761
51604,148949,144563,-3.4360932536,7.0169522744999995,5.9724852096,762
51647,148951,144589,-3.4360932536,7.0169522744999995,5.9724852096,763
51680,148986,144577,-3.4360932536,7.0169522744999995,5.9724852096,764
51723,148977,144574,-3.4360932536,7.0169522744999995,5.9724852096,765
51760,148954,144563,-3.4360932536,7.0169522744999995,5.9724852096,766
51759,148989,144569,-3.4360932536,7.0169522744999995,5.9724852096,767
51723,148932,144550,-3.4360932536,7.0169522744999995,5.9724852096,768
51652,148849,144545,-3.4360932536,7.0169522744999995,5.9724852096,769
51570,148806,144467,-3.4360932536,7.0169522744999995,5.9724852096,770
51502,148749,144456,-3.4360932536,7.0169522744999995,5.9724852096,771
51457,148752,144454,-3.4360932536,7.0169522744999995,5.9724852096,772
51421,148703,144449,-3.4360932536,7.0169522744999995,5.9724852096,773
51423,148705,144415,-3.4360932536,7.0169522744999995,5.9724852096,774
51434,148694,144432,-3.4360932536,7.0169522744999995,5.9724852096,775
51440,148692,144416,-3.4360932536,7.0169522744999995,5.9724852096,776
51451,148679,144373,-3.4360932536,7.0169522744999995,5.9724852096,777
51473,148668,144376,-3.4360932536,7.0169522744999995,5.9724852096,778
51500,148704,144428,-3.4360932536,7.0169522744999995,5.9724852096,779
51513,148661,144397,-3.4360932536,7.0169522744999995,5.9724852096,780
51542,148720,144423,-3.4360932536,7.0169522744999995,5.9724852096,781
51571,148739,144420,-3.4360932536,7.0169522744999995,5.9724852096,782
51613,148750,144446,-3.4360932536,7.0169522744999995,5.9724852096,783
51644,148772,144415,-3.4360932536,7.0169522744999995,5.9724852096,784
51685,148746,144469,-3.4360932536,7.0169522744999995,5.9724852096,785
51728,148809,144504,-3.4360932536,7.0169522744999995,5.9724852096,786
51753,148844,144498,-3.4360932536,7.0169522744999995,5.9724852096,787
51540,148986,144636,-3.5988051904000002,7.0767728395,5.9533426288,788
51535,149023,144629,-3.5988051904000002,7.0767728395,5.9533426288,789
51535,149026,144624,-3.5988051904000002,7.0767728395,5.9533426288,790
51568,149050,144649,-3.5988051904000002,7.0767728395,5.9533426288,791
51570,149040,144644,-3.5988051904000002,7.0767728395,5.9533426288,792
51583,149046,144660,-3.5988051904000002,7.0767728395,5.9533426288,793
51604,149047,144658,-3.5988051904000002,7.0767728395,5.9533426288,794
51631,149076,144661,-3.5988051904000002,7.0767728395,5.9533426288,795
51648,149048,144662,-3.5988051904000002,7.0767728395,5.9533426288,796
51688,149094,144703,-3.5988051904000002,7.0767728395,5.9533426288,797
51735,149096,144695,-3.5988051904000002,7.0767728395,5.9533426288,798
51764,149129,144715,-3.5988051904000002,7.0767728395,5.9533426288,799
51797,149128,144718,-3.5988051904000002,7.0767728395,5.9533426288,800
51839,149168,144736,-3.5988051904000002,7.0767728395,5.9533426288,801
51872,149216,144774,-3.5988051904000002,7.0767728395,5.9533426288,802
51910,149192,144731,-3.5988051904000002,7.0767728395,5.9533426288,803
51911,149222,144782,-3.5988051904000002,7.0767728395,5.9533426288,804
51865,149172,144753,-3.5988051904000002,7.0767728395,5.9533426288,805
51782,149112,144726,-3.5988051904000002,7.0767728395,5.9533426288,806
51708,149024,144633,-3.5988051904000002,7.0767728395,5.9533426288,807
51631,148969,144622,-3.5988051904000002,7.0767728395,5.9533426288,808
51565,148915,144574,-3.5988051904000002,7.0767728395,5.9533426288,809
51548,148880,144537,-3.5988051904000002,7.0767728395,5.9533426288,810
51525,148897,144526,-3.5988051904000002,7.0767728395,5.9533426288,811
51532,148848,144548,-3.5988051904000002,7.0767728395,5.9533426288,812
51547,148851,144502,-3.5988051904000002,7.0767728395,5.9533426288,813
51543,148815,144521,-3.5988051904000002,7.0767728395,5.9533426288,814
51565,148796,144488,-3.5988051904000002,7.0767728395,5.9533426288,815
51587,148802,144491,-3.5988051904000002,7.0767728395,5.9533426288,816
51600,148816,144502,-3.5988051904000002,7.0767728395,5.9533426288,817
51629,148798,144506,-3.5988051904000002,7.0767728395,5.9533426288,818
51663,148817,144522,-3.5988051904000002,7.0767728395,5.9533426288,819
51684,148825,144528,-3.5988051904000002,7.0767728395,5.9533426288,820
51715,148836,144538,-3.5988051904000002,7.0767728395,5.9533426288,821
51750,148811,144538,-3.5988051904000002,7.0767728395,5.9533426288,822
51791,148865,144564,-3.5988051904000002,7.0767728395,5.9533426288,823
51824,148871,144554,-3.5988051904000002,7.0767728395,5.9533426288,824
51860,148876,144548,-3.5988051904000002,7.0767728395,5.9533426288,825
51889,148916,144563,-3.5988051904000002,7.0767728395,5.9533426288,826
51870,148884,144561,-3.5988051904000002,7.0767728395,5.9533426288,827
51795,148832,144538,-3.5988051904000002,7.0767728395,5.9533426288,828
51711,148792,144517,-3.5988051904000002,7.0767728395,5.9533426288,829
51471,148887,144548,-3.4181470840999997,7.0097738067,5.9820565,830
51474,148860,144532,-3.4181470840999997,7.0097738067,5.9820565,831
51486,148824,144543,-3.4181470840999997,7.0097738067,5.9820565,832
51511,148847,144553,-3.4181470840999997,7.0097738067,5.9820565,833
51527,148838,144551,-3.4181470840999997,7.0097738067,5.9820565,834
51553,148831,144522,-3.4181470840999997,7.0097738067,5.9820565,835
51574,148834,144556,-3.4181470840999997,7.0097738067,5.9820565,836
51601,148831,144547,-3.4181470840999997,7.0097738067,5.9820565,837
51640,148865,144541,-3.4181470840999997,7.0097738067,5.9820565,838
51666,148831,144553,-3.4181470840999997,7.0097738067,5.9820565,839
51708,148862,144585,-3.4181470840999997,7.0097738067,5.9820565,840
51750,148872,144585,-3.4181470840999997,7.0097738067,5.9820565,841
51779,148897,144567,-3.4181470840999997,7.0097738067,5.9820565,842
51812,148888,144550,-3.4181470840999997,7.0097738067,5.9820565,843
51800,148882,144573,-3.4181470840999997,7.0097738067,5.9820565,844
51736,148847,144528,-3.4181470840999997,7.0097738067,5.9820565,845
51652,148802,144518,-3.4181470840999997,7.0097738067,5.9820565,846
51565,148751,144469,-3.4181470840999997,7.0097738067,5.9820565,847
51491,148719,144482,-3.4181470840999997,7.0097738067,5.9820565,848
51445,148695,144453,-3.4181470840999997,7.0097738067,5.9820565,849
51426,148680,144445,-3.4025937372,6.9726850564,5.9533426288,850
51419,148687,144474,-3.4025937372,6.9726850564,5.9533426288,851
51435,148705,144476,-3.4025937372,6.9726850564,5.9533426288,852
51432,148682,144460,-3.4025937372,6.9726850564,5.9533426288,853
51451,148705,144462,-3.4025937372,6.9726850564,5.9533426288,854
51470,148744,144474,-3.4025937372,6.9726850564,5.9533426288,855
51492,148769,144487,-3.4025937372,6.9726850564,5.9533426288,856
51524,148809,144526,-3.4492537779,7.0013989275999995,5.8815579507999995,857
51549,148847,144560,-3.3320054705,6.9726850564,6.0478591215,858
51586,148881,144546,-3.5030922864000003,6.947560419099999,5.9724852096,859
51604,148899,144586,-3.5030922864000003,6.947560419099999,5.9724852096,860
51638,148909,144600,-3.5030922864000003,6.947560419099999,5.9724852096,861
51687,148969,144651,-3.5030922864000003,6.947560419099999,5.9724852096,862
51722,148989,144632,-3.5030922864000003,6.947560419099999,5.9724852096,863
51750,149023,144658,-3.5030922864000003,6.947560419099999,5.9724852096,864
51785,149032,144656,-3.5030922864000003,6.947560419099999,5.9724852096,865
51770,149045,144653,-3.5030922864000003,6.947560419099999,5.9724852096,866
51719,149065,144667,-3.5030922864000003,6.947560419099999,5.9724852096,867
51635,148985,144637,-3.5030922864000003,6.947560419099999,5.9724852096,868
51542,148985,144634,-3.5030922864000003,6.947560419099999,5.9724852096,869
51457,148934,144598,-3.5030922864000003,6.947560419099999,5.9724852096,870
51381,148906,144615,-3.5030922864000003,6.947560419099999,5.9724852096,871
51355,148887,144608,-3.5030922864000003,6.947560419099999,5.9724852096,872
51334,148920,144579,-3.5030922864000003,6.947560419099999,5.9724852096,873
51347,148919,144586,-3.5030922864000003,6.947560419099999,5.9724852096,874
51362,148910,144596,-3.5030922864000003,6.947560419099999,5.9724852096,875
51370,148943,144579,-3.5030922864000003,6.947560419099999,5.9724852096,876
51404,148960,144599,-3.517449222,7.0061845728000005,6.1196437994999995,877
51419,148983,144603,-3.517449222,7.0061845728000005,6.1196437994999995,878
51441,148975,144660,-3.517449222,7.0061845728000005,6.1196437994999995,879
51475,149002,144652,-3.517449222,7.0061845728000005,6.1196437994999995,880
51497,149022,144667,-3.517449222,7.0061845728000005,6.1196437994999995,881
51543,149065,144676,-3.517449222,7.0061845728000005,6.1196437994999995,882
51566,149087,144700,-3.517449222,7.0061845728000005,6.1196437994999995,883
51621,149100,144718,-3.517449222,7.0061845728000005,6.1196437994999995,884
51654,149120,144721,-3.517449222,7.0061845728000005,6.1196437994999995,885
51711,149207,144770,-3.517449222,7.0061845728000005,6.1196437994999995,886
51741,149205,144827,-3.517449222,7.0061845728000005,6.1196437994999995,887
51757,149206,144785,-3.517449222,7.0061845728000005,6.1196437994999995,888
51726,149172,144787,-3.517449222,7.0061845728000005,6.1196437994999995,889
51657,149165,144732,-3.517449222,7.0061845728000005,6.1196437994999995,890
51560,149080,144755,-3.517449222,7.0061845728000005,6.1196437994999995,891
51472,149034,144718,-3.517449222,7.0061845728000005,6.1196437994999995,892
51408,148987,144659,-3.517449222,7.0061845728000005,6.1196437994999995,893
51360,148960,144634,-3.517449222,7.0061845728000005,6.1196437994999995,894
51347,148973,144607,-3.517449222,7.0061845728000005,6.1196437994999995,895
51342,148950,144619,-3.517449222,7.0061845728000005,6.1196437994999995,896
51361,148939,144636,-3.517449222,7.0061845728000005,6.1196437994999995,897
51367,148926,144601,-3.517449222,7.0061845728000005,6.1196437994999995,898
51385,148890,144578,-3.517449222,7.0061845728000005,6.1196437994999995,899
51392,148837,144557,-3.517449222,7.0061845728000005,6.1196437994999995,900
51431,148853,144585,-3.517449222,7.0061845728000005,6.1196437994999995,901
51456,148868,144551,-3.517449222,7.0061845728000005,6.1196437994999995,902
51479,148851,144579,-3.517449222,7.0061845728000005,6.1196437994999995,903
51525,148858,144601,-3.517449222,7.0061845728000005,6.1196437994999995,904
51545,148865,144588,-3.517449222,7.0061845728000005,6.1196437994999995,905
51596,148868,144589,-3.517449222,7.0061845728000005,6.1196437994999995,906
51634,148888,144564,-3.517449222,7.0061845728000005,6.1196437994999995,907
51673,148890,144595,-3.517449222,7.0061845728000005,6.1196437994999995,908
51730,148903,144622,-3.517449222,7.0061845728000005,6.1196437994999995,909
51762,148914,144620,-3.4564322457,7.030112798799999,6.1052868639,910
51756,148925,144621,-3.4564322457,7.030112798799999,6.1052868639,911
51702,148898,144593,-3.4564322457,7.030112798799999,6.1052868639,912
51623,148835,144562,-3.4564322457,7.030112798799999,6.1052868639,913
51560,148764,144532,-3.4564322457,7.030112798799999,6.1052868639,914
51477,148742,144473,-3.4564322457,7.030112798799999,6.1052868639,915
51442,148700,144459,-3.4564322457,7.030112798799999,6.1052868639,916
51426,148666,144457,-3.4564322457,7.030112798799999,6.1052868639,917
51425,148669,144447,-3.4564322457,7.030112798799999,6.1052868639,918
51442,148672,144457,-3.4564322457,7.030112798799999,6.1052868639,919
51454,148636,144432,-3.4564322457,7.030112798799999,6.1052868639,920
51479,148671,144427,-3.4564322457,7.030112798799999,6.1052868639,921
51490,148657,144450,-3.4564322457,7.030112798799999,6.1052868639,922
51527,148677,144489,-3.4564322457,7.030112798799999,6.1052868639,923
51566,148712,144490,-3.4564322457,7.030112798799999,6.1052868639,924
51598,148698,144484,-3.4564322457,7.030112798799999,6.1052868639,925
51635,148769,144530,-3.4564322457,7.030112798799999,6.1052868639,926
51674,148767,144548,-3.4564322457,7.030112798799999,6.1052868639,927
51725,148801,144559,-3.4564322457,7.030112798799999,6.1052868639,928
51768,148868,144618,-3.4564322457,7.030112798799999,6.1052868639,929
51819,148923,144626,-3.4564322457,7.030112798799999,6.1052868639,930
51880,148963,144645,-3.4564322457,7.030112798799999,6.1052868639,931
51905,148964,144628,-3.4564322457,7.030112798799999,6.1052868639,932
51919,149013,144694,-3.4564322457,7.030112798799999,6.1052868639,933
51880,148990,144654,-3.4564322457,7.030112798799999,6.1052868639,934
51817,148957,144633,-3.4564322457,7.030112798799999,6.1052868639,935
51764,148937,144616,-3.4564322457,7.030112798799999,6.1052868639,936
51692,148913,144605,-3.4564322457,7.030112798799999,6.1052868639,937
51650,148890,144573,-3.4564322457,7.030112798799999,6.1052868639,938
51626,148878,144578,-3.4564322457,7.030112798799999,6.1052868639,939
51628,148887,144586,-3.4564322457,7.030112798799999,6.1052868639,940
51656,148918,144588,-3.4564322457,7.030112798799999,6.1052868639,941
51664,148942,144649,-3.4564322457,7.030112798799999,6.1052868639,942
51683,148938,144633,-3.4564322457,7.030112798799999,6.1052868639,943
51706,148973,144657,-3.4564322457,7.030112798799999,6.1052868639,944
51734,148986,144672,-3.4564322457,7.030112798799999,6.1052868639,945
51768,148983,144676,-3.4564322457,7.030112798799999,6.1052868639,946
51800,149006,144712,-3.4564322457,7.030112798799999,6.1052868639,947
51838,149056,144742,-3.4564322457,7.030112798799999,6.1052868639,948
51878,149074,144729,-3.4564322457,7.030112798799999,6.1052868639,949
51908,149117,144776,-3.4564322457,7.030112798799999,6.1052868639,950
51963,149137,144809,-3.4564322457,7.030112798799999,6.1052868639,951
52124,149174,144811,-3.4073793824000003,7.0923261864,5.9712887983,952
52152,149161,144774,-3.4073793824000003,7.0923261864,5.9712887983,953
52137,149148,144803,-3.4073793824000003,7.0923261864,5.9712887983,954
52085,149089,144748,-3.4073793824000003,7.0923261864,5.9712887983,955
52002,149027,144691,-3.4073793824000003,7.0923261864,5.9712887983,956
51904,148904,144646,-3.4073793824000003,7.0923261864,5.9712887983,957
51832,148861,144592,-3.4073793824000003,7.0923261864,5.9712887983,958
51777,148832,144581,-3.4073793824000003,7.0923261864,5.9712887983,959
51746,148796,144583,-3.4073793824000003,7.0923261864,5.9712887983,960
51754,148804,144530,-3.4073793824000003,7.0923261864,5.9712887983,961
51751,148755,144557,-3.4073793824000003,7.0923261864,5.9712887983,962
51752,148737,144544,-3.4073793824000003,7.0923261864,5.9712887983,963
51766,148736,144539,-3.4073793824000003,7.0923261864,5.9712887983,964
51775,148716,144536,-3.4073793824000003,7.0923261864,5.9712887983,965
51784,148712,144531,-3.4073793824000003,7.0923261864,5.9712887983,966
51801,148755,144547,-3.4073793824000003,7.0923261864,5.9712887983,967
51823,148751,144551,-3.4073793824000003,7.0923261864,5.9712887983,968
51858,148753,144556,-3.4073793824000003,7.0923261864,5.9712887983,969
51881,148791,144595,-3.4073793824000003,7.0923261864,5.9712887983,970
51902,148805,144581,-3.4073793824000003,7.0923261864,5.9712887983,971
51934,148796,144550,-3.4073793824000003,7.0923261864,5.9712887983,972
51976,148850,144603,-3.4073793824000003,7.0923261864,5.9712887983,973
52018,148876,144589,-3.4073793824000003,7.0923261864,5.9712887983,974
52047,148886,144614,-3.4073793824000003,7.0923261864,5.9712887983,975
52064,148906,144590,-3.4073793824000003,7.0923261864,5.9712887983,976
52037,148903,144609,-3.4073793824000003,7.0923261864,5.9712887983,977
51959,148838,144608,-3.4073793824000003,7.0923261864,5.9712887983,978
51880,148807,144560,-3.4073793824000003,7.0923261864,5.9712887983,979
51791,148808,144542,-3.4073793824000003,7.0923261864,5.9712887983,980
51719,148785,144540,-3.4073793824000003,7.0923261864,5.9712887983,981
51686,148788,144541,-3.4073793824000003,7.0923261864,5.9712887983,982
51676,148819,144559,-3.4073793824000003,7.0923261864,5.9712887983,983
51692,148813,144564,-3.4073793824000003,7.0923261864,5.9712887983,984
51682,148816,144590,-3.4540394231000002,7.0624159039,6.0047883147,985
51677,148831,144599,-3.4540394231000002,7.0624159039,6.0047883147,986
51695,148871,144545,-3.4540394231000002,7.0624159039,6.0047883147,987
51704,148889,144616,-3.4540394231000002,7.0624159039,6.0047883147,988
51726,148927,144644,-3.4540394231000002,7.0624159039,6.0047883147,989
51739,148927,144637,-3.4540394231000002,7.0624159039,6.0047883147,990
51766,148977,144681,-3.4540394231000002,7.0624159039,6.0047883147,991
51782,148949,144665,-3.4540394231000002,7.0624159039,6.0047883147,992
51812,149008,144691,-3.4540394231000002,7.0624159039,6.0047883147,993
51859,149028,144687,-3.4540394231000002,7.0624159039,6.0047883147,994
51890,149079,144729,-3.4540394231000002,7.0624159039,6.0047883147,995
51928,149093,144761,-3.4540394231000002,7.0624159039,6.0047883147,996
51964,149138,144761,-3.4540394231000002,7.0624159039,6.0047883147,997
51982,149176,144776,-3.4540394231000002,7.0624159039,6.0047883147,998
51978,149175,144753,-3.4540394231000002,7.0624159039,6.0047883147,999
51923,149182,144773,-3.4540394231000002,7.0624159039,6.0047883147,1000
51807,149117,144747,-3.4540394231000002,7.0624159039,6.0047883147,1001
51730,149060,144703,-3.4540394231000002,7.0624159039,6.0047883147,1002
51635,149003,144665,-3.4540394231000002,7.0624159039,6.0047883147,1003
51577,149013,144646,-3.4540394231000002,7.0624159039,6.0047883147,1004
51544,148981,144676,-3.4540394231000002,7.0624159039,6.0047883147,1005
51536,149006,144643,-3.4540394231000002,7.0624159039,6.0047883147,1006
51540,149007,144683,-3.4540394231000002,7.0624159039,6.0047883147,1007
51554,149007,144686,-3.4540394231000002,7.0624159039,6.0047883147,1008
51560,149021,144697,-3.4540394231000002,7.0624159039,6.0047883147,1009
51591,149025,144695,-3.4540394231000002,7.0624159039,6.0047883147,1010
51601,149019,144710,-3.4540394231000002,7.0624159039,6.0047883147,1011
51624,149044,144728,-3.4540394231000002,7.0624159039,6.0047883147,1012
51638,149088,144726,-3.4540394231000002,7.0624159039,6.0047883147,1013
51675,149110,144768,-3.4540394231000002,7.0624159039,6.0047883147,1014
51713,149137,144782,-3.4540394231000002,7.0624159039,6.0047883147,1015
51751,149130,144784,-3.4540394231000002,7.0624159039,6.0047883147,1016
51776,149145,144803,-3.4540394231000002,7.0624159039,6.0047883147,1017
51823,149188,144788,-3.4540394231000002,7.0624159039,6.0047883147,1018
51861,149223,144820,-3.4540394231000002,7.0624159039,6.0047883147,1019
51920,149221,144832,-3.4540394231000002,7.0624159039,6.0047883147,1020
51928,149257,144838,-3.4540394231000002,7.0624159039,6.0047883147,1021
51883,149199,144815,-3.4540394231000002,7.0624159039,6.0047883147,1022
51796,149168,144797,-3.4540394231000002,7.0624159039,6.0047883147,1023
51707,149078,144761,-3.4540394231000002,7.0624159039,6.0047883147,1024
51610,149021,144719,-3.4540394231000002,7.0624159039,6.0047883147,1025
51529,148987,144671,-3.4540394231000002,7.0624159039,6.0047883147,1026
51669,149011,144659,-3.5066815203,7.043273323099999,5.9772708547999995,1027
51606,148946,144667,-3.5066815203,7.043273323099999,5.9772708547999995,1028
51583,148964,144667,-3.5066815203,7.043273323099999,5.9772708547999995,1029
51585,148959,144668,-3.5066815203,7.043273323099999,5.9772708547999995,1030
51590,149002,144660,-3.5066815203,7.043273323099999,5.9772708547999995,1031
51607,148995,144672,-3.5066815203,7.043273323099999,5.9772708547999995,1032
51617,149001,144695,-3.5066815203,7.043273323099999,5.9772708547999995,1033
51637,149048,144708,-3.5066815203,7.043273323099999,5.9772708547999995,1034
51655,149047,144718,-3.5066815203,7.043273323099999,5.9772708547999995,1035
51690,149021,144713,-3.5066815203,7.043273323099999,5.9772708547999995,1036
51722,149009,144688,-3.5066815203,7.043273323099999,5.9772708547999995,1037
51748,149073,144781,-3.5066815203,7.043273323099999,5.9772708547999995,1038
51784,149079,144745,-3.5066815203,7.043273323099999,5.9772708547999995,1039
51822,149111,144768,-3.5066815203,7.043273323099999,5.9772708547999995,1040
51860,149134,144774,-3.5066815203,7.043273323099999,5.9772708547999995,1041
51903,149158,144812,-3.5066815203,7.043273323099999,5.9772708547999995,1042
51947,149193,144830,-3.5066815203,7.043273323099999,5.9772708547999995,1043
51986,149224,144796,-3.5066815203,7.043273323099999,5.9772708547999995,1044
52022,149239,144833,-3.5066815203,7.043273323099999,5.9772708547999995,1045
52015,149225,144794,-3.5066815203,7.043273323099999,5.9772708547999995,1046
51959,149170,144797,-3.5066815203,7.043273323099999,5.9772708547999995,1047
51882,149142,144760,-3.5066815203,7.043273323099999,5.9772708547999995,1048
51799,149074,144755,-3.5066815203,7.043273323099999,5.9772708547999995,1049
51711,149016,144688,-3.5066815203,7.043273323099999,5.9772708547999995,1050
51666,148971,144679,-3.5066815203,7.043273323099999,5.9772708547999995,1051
51655,148981,144658,-3.5066815203,7.043273323099999,5.9772708547999995,1052
51650,148964,144643,-3.5066815203,7.043273323099999,5.9772708547999995,1053
51657,148983,144664,-3.5066815203,7.043273323099999,5.9772708547999995,1054
51660,148981,144634,-3.5066815203,7.043273323099999,5.9772708547999995,1055
51671,148948,144633,-3.5066815203,7.043273323099999,5.9772708547999995,1056
51680,148943,144687,-3.5066815203,7.043273323099999,5.9772708547999995,1057
51709,148908,144642,-3.5066815203,7.043273323099999,5.9772708547999995,1058
51732,148866,144641,-3.5066815203,7.043273323099999,5.9772708547999995,1059
51746,148940,144626,-3.5066815203,7.043273323099999,5.9772708547999995,1060
51773,148933,144654,-3.5066815203,7.043273323099999,5.9772708547999995,1061
51811,148962,144658,-3.5066815203,7.043273323099999,5.9772708547999995,1062
51840,148949,144662,-3.5066815203,7.043273323099999,5.9772708547999995,1063
51872,148924,144648,-3.5066815203,7.043273323099999,5.9772708547999995,1064
51908,148952,144685,-3.5066815203,7.043273323099999,5.9772708547999995,1065
51954,148960,144696,-3.5066815203,7.043273323099999,5.9772708547999995,1066
51984,148945,144652,-3.5066815203,7.043273323099999,5.9772708547999995,1067
51991,148968,144675,-3.5066815203,7.043273323099999,5.9772708547999995,1068
51391,148787,144596,-3.3367911156999996,6.9738814677,5.938985693199999,1069
51416,148806,144553,-3.3367911156999996,6.9738814677,5.938985693199999,1070
51437,148780,144582,-3.3367911156999996,6.9738814677,5.938985693199999,1071
51471,148765,144570,-3.3367911156999996,6.9738814677,5.938985693199999,1072
51507,148782,144590,-3.3367911156999996,6.9738814677,5.938985693199999,1073
51537,148815,144615,-3.3367911156999996,6.9738814677,5.938985693199999,1074
51576,148830,144616,-3.3367911156999996,6.9738814677,5.938985693199999,1075
51613,148820,144626,-3.3367911156999996,6.9738814677,5.938985693199999,1076
51649,148859,144599,-3.3367911156999996,6.9738814677,5.938985693199999,1077
51684,148868,144620,-3.3367911156999996,6.9738814677,5.938985693199999,1078
51723,148880,144656,-3.3367911156999996,6.9738814677,5.938985693199999,1079
51726,148902,144616,-3.3367911156999996,6.9738814677,5.938985693199999,1080
51635,148861,144594,-3.3367911156999996,6.9738814677,5.938985693199999,1081
51553,148811,144577,-3.3367911156999996,6.9738814677,5.938985693199999,1082
51452,148747,144559,-3.3367911156999996,6.9738814677,5.938985693199999,1083
51381,148724,144533,-3.3367911156999996,6.9738814677,5.938985693199999,1084
51331,148675,144479,-3.3367911156999996,6.9738814677,5.938985693199999,1085
51304,148665,144519,-3.3367911156999996,6.9738814677,5.938985693199999,1086
51316,148690,144464,-3.3367911156999996,6.9738814677,5.938985693199999,1087
51337,148676,144467,-3.3367911156999996,6.9738814677,5.938985693199999,1088
51349,148670,144447,-3.3367911156999996,6.9738814677,5.938985693199999,1089
51364,148675,144483,-3.3367911156999996,6.9738814677,5.938985693199999,1090
51398,148698,144488,-3.3367911156999996,6.9738814677,5.938985693199999,1091
51420,148712,144500,-3.3367911156999996,6.9738814677,5.938985693199999,1092
51442,148727,144504,-3.3367911156999996,6.9738814677,5.938985693199999,1093
51481,148781,144549,-3.3367911156999996,6.9738814677,5.938985693199999,1094
51523,148823,144573,-3.3367911156999996,6.9738814677,5.938985693199999,1095
51570,148868,144604,-3.3367911156999996,6.9738814677,5.938985693199999,1096
51616,148897,144633,-3.3367911156999996,6.9738814677,5.938985693199999,1097
51647,148932,144631,-3.3367911156999996,6.9738814677,5.938985693199999,1098
51701,148984,144644,-3.3367911156999996,6.9738814677,5.938985693199999,1099
51738,149017,144664,-3.3367911156999996,6.9738814677,5.938985693199999,1100
51773,149050,144723,-3.3367911156999996,6.9738814677,5.938985693199999,1101
51753,149049,144684,-3.3367911156999996,6.9738814677,5.938985693199999,1102
51683,149038,144694,-3.3367911156999996,6.9738814677,5.938985693199999,1103
51587,149046,144698,-3.3367911156999996,6.9738814677,5.938985693199999,1104
51495,149015,144671,-3.3367911156999996,6.9738814677,5.938985693199999,1105
51409,149015,144692,-3.3367911156999996,6.9738814677,5.938985693199999,1106
51365,149003,144698,-3.3367911156999996,6.9738814677,5.938985693199999,1107
51362,149014,144685,-3.3367911156999996,6.9738814677,5.938985693199999,1108
51354,149020,144673,-3.3367911156999996,6.9738814677,5.938985693199999,1109
51376,149053,144685,-3.3367911156999996,6.9738814677,5.938985693199999,1110
51948,149152,144697,-3.4504501892,7.034898444,6.0574304119,1111
52001,149192,144759,-3.4504501892,7.034898444,6.0574304119,1112
52002,149212,144781,-3.4504501892,7.034898444,6.0574304119,1113
51983,149230,144796,-3.4504501892,7.034898444,6.0574304119,1114
51908,149217,144763,-3.4504501892,7.034898444,6.0574304119,1115
51808,149186,144752,-3.4504501892,7.034898444,6.0574304119,1116
51735,149208,144743,-3.4504501892,7.034898444,6.0574304119,1117
51667,149186,144738,-3.4504501892,7.034898444,6.0574304119,1118
51637,149187,144727,-3.4504501892,7.034898444,6.0574304119,1119
51634,149192,144743,-3.4504501892,7.034898444,6.0574304119,1120
51646,149225,144785,-3.4504501892,7.034898444,6.0574304119,1121
51672,149237,144770,-3.4504501892,7.034898444,6.0574304119,1122
51688,149236,144750,-3.4504501892,7.034898444,6.0574304119,1123
51706,149231,144755,-3.4504501892,7.034898444,6.0574304119,1124
51728,149275,144771,-3.4504501892,7.034898444,6.0574304119,1125
51755,149313,144782,-3.4504501892,7.034898444,6.0574304119,1126
51794,149297,144787,-3.4504501892,7.034898444,6.0574304119,1127
51833,149308,144801,-3.4504501892,7.034898444,6.0574304119,1128
51879,149351,144820,-3.4504501892,7.034898444,6.0574304119,1129
51911,149383,144837,-3.4504501892,7.034898444,6.0574304119,1130
51974,149387,144861,-3.4504501892,7.034898444,6.0574304119,1131
52002,149441,144878,-3.4504501892,7.034898444,6.0574304119,1132
52060,149462,144926,-3.4504501892,7.034898444,6.0574304119,1133
52113,149495,144906,-3.4504501892,7.034898444,6.0574304119,1134
52129,149491,144926,-3.4504501892,7.034898444,6.0574304119,1135
52114,149490,144942,-3.4504501892,7.034898444,6.0574304119,1136
52042,149507,144946,-3.290131075,7.0863441299,5.9724852096,1137
51966,149450,144906,-3.290131075,7.0863441299,5.9724852096,1138
51880,149441,144873,-3.290131075,7.0863441299,5.9724852096,1139
51802,149392,144863,-3.290131075,7.0863441299,5.9724852096,1140
51771,149373,144852,-3.290131075,7.0863441299,5.9724852096,1141
51744,149356,144852,-3.290131075,7.0863441299,5.9724852096,1142
51772,149371,144835,-3.290131075,7.0863441299,5.9724852096,1143
51771,149341,144793,-3.290131075,7.0863441299,5.9724852096,1144
51791,149357,144804,-3.290131075,7.0863441299,5.9724852096,1145
51808,149339,144786,-3.290131075,7.0863441299,5.9724852096,1146
51824,149279,144750,-3.290131075,7.0863441299,5.9724852096,1147
51846,149325,144785,-3.290131075,7.0863441299,5.9724852096,1148
51879,149277,144759,-3.290131075,7.0863441299,5.9724852096,1149
51904,149278,144777,-3.290131075,7.0863441299,5.9724852096,1150
51949,149299,144767,-3.290131075,7.0863441299,5.9724852096,1151
51977,149274,144788,-3.290131075,7.0863441299,5.9724852096,1152
52004,149266,144733,-3.290131075,7.0863441299,5.9724852096,1153
52062,149250,144758,-3.290131075,7.0863441299,5.9724852096,1154
52093,149247,144792,-3.290131075,7.0863441299,5.9724852096,1155
52128,149272,144729,-3.290131075,7.0863441299,5.9724852096,1156
52154,149226,144751,-3.3846475676999996,7.0205415084,5.9102718219999995,1157
52140,149262,144794,-3.3846475676999996,7.0205415084,5.9102718219999995,1158
52087,149228,144732,-3.3846475676999996,7.0205415084,5.9102718219999995,1159
52017,149182,144718,-3.3846475676999996,7.0205415084,5.9102718219999995,1160
51963,149091,144641,-3.3846475676999996,7.0205415084,5.9102718219999995,1161
51892,149079,144638,-3.3846475676999996,7.0205415084,5.9102718219999995,1162
51870,149030,144580,-3.3846475676999996,7.0205415084,5.9102718219999995,1163
51874,148997,144547,-3.3846475676999996,7.0205415084,5.9102718219999995,1164
51886,148995,144555,-3.3846475676999996,7.0205415084,5.9102718219999995,1165
51898,148975,144539,-3.3846475676999996,7.0205415084,5.9102718219999995,1166
51905,148976,144584,-3.3846475676999996,7.0205415084,5.9102718219999995,1167
51936,148899,144496,-3.3846475676999996,7.0205415084,5.9102718219999995,1168
51959,148937,144464,-3.3846475676999996,7.0205415084,5.9102718219999995,1169
51987,148922,144508,-3.3846475676999996,7.0205415084,5.9102718219999995,1170
52021,148908,144491,-3.3846475676999996,7.0205415084,5.9102718219999995,1171
52049,148909,144506,-3.3846475676999996,7.0205415084,5.9102718219999995,1172
52085,148948,144503,-3.3846475676999996,7.0205415084,5.9102718219999995,1173
52121,148970,144504,-3.3846475676999996,7.0205415084,5.9102718219999995,1174
52157,148955,144513,-3.3846475676999996,7.0205415084,5.9102718219999995,1175
52197,148950,144546,-3.3846475676999996,7.0205415084,5.9102718219999995,1176
52237,148996,144559,-3.3846475676999996,7.0205415084,5.9102718219999995,1177
52273,149002,144558,-3.3846475676999996,7.0205415084,5.9102718219999995,1178
52309,149064,144562,-3.3846475676999996,7.0205415084,5.9102718219999995,1179
52331,149088,144580,-3.3846475676999996,7.0205415084,5.9102718219999995,1180
52316,149092,144638,-3.3846475676999996,7.0205415084,5.9102718219999995,1181
52260,149082,144634,-3.3846475676999996,7.0205415084,5.9102718219999995,1182
52210,149092,144579,-3.3846475676999996,7.0205415084,5.9102718219999995,1183
52179,149096,144617,-3.3846475676999996,7.0205415084,5.9102718219999995,1184
52152,149101,144651,-3.3846475676999996,7.0205415084,5.9102718219999995,1185
52141,149114,144645,-3.3846475676999996,7.0205415084,5.9102718219999995,1186
52152,149168,144616,-3.3846475676999996,7.0205415084,5.9102718219999995,1187
52170,149159,144618,-3.3846475676999996,7.0205415084,5.9102718219999995,1188
52200,149157,144644,-3.3846475676999996,7.0205415084,5.9102718219999995,1189
52214,149176,144631,-3.3846475676999996,7.0205415084,5.9102718219999995,1190
52222,149196,144643,-3.3846475676999996,7.0205415084,5.9102718219999995,1191
52247,149204,144639,-3.3846475676999996,7.0205415084,5.9102718219999995,1192
52283,149228,144638,-3.3846475676999996,7.0205415084,5.9102718219999995,1193
52295,149242,144689,-3.3846475676999996,7.0205415084,5.9102718219999995,1194
52339,149273,144681,-3.3846475676999996,7.0205415084,5.9102718219999995,1195
52374,149279,144702,-3.3846475676999996,7.0205415084,5.9102718219999995,1196
52404,149317,144714,-3.3846475676999996,7.0205415084,5.9102718219999995,1197
52438,149332,144752,-3.3846475676999996,7.0205415084,5.9102718219999995,1198
52106,148983,144473,-3.4265219632000004,6.9116680801,5.934200048,1199
52021,148948,144485,-3.4265219632000004,6.9116680801,5.934200048,1200
51985,148918,144458,-3.4265219632000004,6.9116680801,5.934200048,1201
51951,148915,144416,-3.4265219632000004,6.9116680801,5.934200048,1202
51940,148906,144407,-3.4265219632000004,6.9116680801,5.934200048,1203
51963,148919,144418,-3.4265219632000004,6.9116680801,5.934200048,1204
51974,148919,144425,-3.4265219632000004,6.9116680801,5.934200048,1205
51991,148917,144406,-3.4265219632000004,6.9116680801,5.934200048,1206
52005,148921,144401,-3.4265219632000004,6.9116680801,5.934200048,1207
52026,148975,144425,-3.4265219632000004,6.9116680801,5.934200048,1208
52048,149010,144457,-3.4265219632000004,6.9116680801,5.934200048,1209
52079,149034,144518,-3.4265219632000004,6.9116680801,5.934200048,1210
52111,149046,144517,-3.4265219632000004,6.9116680801,5.934200048,1211
52158,149108,144522,-3.4265219632000004,6.9116680801,5.934200048,1212
52199,149135,144545,-3.4265219632000004,6.9116680801,5.934200048,1213
52230,149159,144542,-3.4265219632000004,6.9116680801,5.934200048,1214
52272,149229,144581,-3.4265219632000004,6.9116680801,5.934200048,1215
52317,149261,144657,-3.4504501892,7.0624159039,5.9868421452,1216
52357,149273,144647,-3.4504501892,7.0624159039,5.9868421452,1217
52374,149309,144659,-3.4504501892,7.0624159039,5.9868421452,1218
52351,149362,144693,-3.4504501892,7.0624159039,5.9868421452,1219
52323,149323,144672,-3.4504501892,7.0624159039,5.9868421452,1220
52283,149284,144656,-3.4504501892,7.0624159039,5.9868421452,1221
52243,149318,144662,-3.4504501892,7.0624159039,5.9868421452,1222
52226,149329,144643,-3.4504501892,7.0624159039,5.9868421452,1223
52216,149317,144634,-3.4504501892,7.0624159039,5.9868421452,1224
52236,149325,144620,-3.4504501892,7.0624159039,5.9868421452,1225
52257,149311,144681,-3.4504501892,7.0624159039,5.9868421452,1226
52283,149300,144666,-3.4504501892,7.0624159039,5.9868421452,1227
52311,149305,144699,-3.4504501892,7.0624159039,5.9868421452,1228
52340,149349,144663,-3.4504501892,7.0624159039,5.9868421452,1229
52369,149355,144680,-3.4504501892,7.0624159039,5.9868421452,1230
52397,149341,144673,-3.4504501892,7.0624159039,5.9868421452,1231
52437,149380,144660,-3.4504501892,7.0624159039,5.9868421452,1232
52458,149397,144701,-3.4504501892,7.0624159039,5.9868421452,1233
52516,149424,144741,-3.4504501892,7.0624159039,5.9868421452,1234
52551,149443,144715,-3.4504501892,7.0624159039,5.9868421452,1235
52593,149452,144755,-3.4504501892,7.0624159039,5.9868421452,1236
52633,149493,144732,-3.4504501892,7.0624159039,5.9868421452,1237
52681,149543,144780,-3.4504501892,7.0624159039,5.9868421452,1238
52722,149525,144758,-3.4504501892,7.0624159039,5.9868421452,1239
52730,149550,144791,-3.4504501892,7.0624159039,5.9868421452,1240
52730,149549,144789,-3.4504501892,7.0624159039,5.9868421452,1241
52710,149537,144805,-3.4504501892,7.0624159039,5.9868421452,1242
52688,149514,144779,-3.4504501892,7.0624159039,5.9868421452,1243
52668,149479,144792,-3.4504501892,7.0624159039,5.9868421452,1244
52647,149475,144787,-3.4504501892,7.0624159039,5.9868421452,1245
52654,149468,144763,-3.4504501892,7.0624159039,5.9868421452,1246
52680,149440,144776,-3.4504501892,7.0624159039,5.9868421452,1247
52702,149479,144796,-3.4504501892,7.0624159039,5.9868421452,1248
52719,149474,144751,-3.4504501892,7.0624159039,5.9868421452,1249
52744,149423,144746,-3.4504501892,7.0624159039,5.9868421452,1250
52770,149401,144701,-3.4504501892,7.0624159039,5.9868421452,1251
52786,149345,144733,-3.4504501892,7.0624159039,5.9868421452,1252
52803,149338,144635,-3.4504501892,7.0624159039,5.9868421452,1253
52842,149324,144664,-3.4504501892,7.0624159039,5.9868421452,1254
52846,149280,144662,-3.4504501892,7.0624159039,5.9868421452,1255
52896,149284,144642,-3.4504501892,7.0624159039,5.9868421452,1256
52931,149294,144618,-3.4504501892,7.0624159039,5.9868421452,1257
53381,149482,144734,-3.3020951879999996,6.9583281208,5.9485569836,1258
53370,149486,144720,-3.3020951879999996,6.9583281208,5.9485569836,1259
53345,149450,144736,-3.3020951879999996,6.9583281208,5.9485569836,1260
53326,149462,144705,-3.3020951879999996,6.9583281208,5.9485569836,1261
53297,149483,144737,-3.3020951879999996,6.9583281208,5.9485569836,1262
53300,149501,144730,-3.3020951879999996,6.9583281208,5.9485569836,1263
53309,149511,144779,-3.3020951879999996,6.9583281208,5.9485569836,1264
53316,149506,144754,-3.3020951879999996,6.9583281208,5.9485569836,1265
53314,149533,144739,-3.3020951879999996,6.9583281208,5.9485569836,1266
53332,149535,144773,-3.3020951879999996,6.9583281208,5.9485569836,1267
53336,149526,144774,-3.3020951879999996,6.9583281208,5.9485569836,1268
53345,149540,144761,-3.3020951879999996,6.9583281208,5.9485569836,1269
53375,149559,144762,-3.3020951879999996,6.9583281208,5.9485569836,1270
53383,149521,144771,-3.3020951879999996,6.9583281208,5.9485569836,1271
53401,149546,144725,-3.3020951879999996,6.9583281208,5.9485569836,1272
53422,149551,144774,-3.3020951879999996,6.9583281208,5.9485569836,1273
53440,149567,144756,-3.3020951879999996,6.9583281208,5.9485569836,1274
53466,149589,144815,-3.3020951879999996,6.9583281208,5.9485569836,1275
53496,149615,144800,-3.3020951879999996,6.9583281208,5.9485569836,1276
53511,149656,144819,-3.3020951879999996,6.9583281208,5.9485569836,1277
53533,149687,144819,-3.3020951879999996,6.9583281208,5.9485569836,1278
53531,149669,144820,-3.3020951879999996,6.9583281208,5.9485569836,1279
53516,149667,144834,-3.3020951879999996,6.9583281208,5.9485569836,1280
53471,149671,144796,-3.3020951879999996,6.9583281208,5.9485569836,1281
53396,149650,144764,-3.3020951879999996,6.9583281208,5.9485569836,1282
53346,149614,144761,-3.3020951879999996,6.9583281208,5.9485569836,1283
53287,149574,144771,-3.3020951879999996,6.9583281208,5.9485569836,1284
53238,149567,144775,-3.3020951879999996,6.9583281208,5.9485569836,1285
53209,149553,144772,-3.3020951879999996,6.9583281208,5.9485569836,1286
53196,149567,144793,-3.3020951879999996,6.9583281208,5.9485569836,1287
53190,149549,144783,-3.3020951879999996,6.9583281208,5.9485569836,1288
53166,149540,144767,-3.3020951879999996,6.9583281208,5.9485569836,1289
53158,149525,144760,-3.3020951879999996,6.9583281208,5.9485569836,1290
53148,149535,144734,-3.3020951879999996,6.9583281208,5.9485569836,1291
53140,149545,144768,-3.3020951879999996,6.9583281208,5.9485569836,1292
53137,149528,144733,-3.3020951879999996,6.9583281208,5.9485569836,1293
53148,149511,144756,-3.3020951879999996,6.9583281208,5.9485569836,1294
53155,149509,144725,-3.3020951879999996,6.9583281208,5.9485569836,1295
53169,149550,144752,-3.3020951879999996,6.9583281208,5.9485569836,1296
53162,149536,144758,-3.3020951879999996,6.9583281208,5.9485569836,1297
53177,149557,144746,-3.3020951879999996,6.9583281208,5.9485569836,1298
53185,149565,144742,-3.3020951879999996,6.9583281208,5.9485569836,1299
51013,149322,144537,-3.4731820039,6.963113765999999,5.996413435599999,1300
50938,149312,144490,-3.4731820039,6.963113765999999,5.996413435599999,1301
50909,149332,144492,-3.4731820039,6.963113765999999,5.996413435599999,1302
50902,149312,144529,-3.4731820039,6.963113765999999,5.996413435599999,1303
50905,149309,144533,-3.4731820039,6.963113765999999,5.996413435599999,1304
50927,149317,144537,-3.4731820039,6.963113765999999,5.996413435599999,1305
50930,149301,144506,-3.4731820039,6.963113765999999,5.996413435599999,1306
50951,149309,144514,-3.4731820039,6.963113765999999,5.996413435599999,1307
50966,149324,144525,-3.4731820039,6.963113765999999,5.996413435599999,1308
50988,149330,144516,-3.4731820039,6.963113765999999,5.996413435599999,1309
51027,149328,144532,-3.4731820039,6.963113765999999,5.996413435599999,1310
51060,149320,144529,-3.4731820039,6.963113765999999,5.996413435599999,1311
51100,149381,144540,-3.4731820039,6.963113765999999,5.996413435599999,1312
51147,149365,144532,-3.4731820039,6.963113765999999,5.996413435599999,1313
51195,149371,144542,-3.4731820039,6.963113765999999,5.996413435599999,1314
51255,149417,144558,-3.4731820039,6.963113765999999,5.996413435599999,1315
51288,149416,144593,-3.4731820039,6.963113765999999,5.996413435599999,1316
51313,149439,144607,-3.4731820039,6.963113765999999,5.996413435599999,1317
51271,149427,144583,-3.4731820039,6.963113765999999,5.996413435599999,1318
51177,149412,144612,-3.4731820039,6.963113765999999,5.996413435599999,1319
51065,149367,144571,-3.4013973259,6.9906312259000005,6.0287165407000005,1320
50973,149337,144558,-3.4013973259,6.9906312259000005,6.0287165407000005,1321
50899,149301,144533,-3.4013973259,6.9906312259000005,6.0287165407000005,1322
50891,149292,144529,-3.4013973259,6.9906312259000005,6.0287165407000005,1323
50890,149271,144539,-3.3798619225,7.071987194299999,5.9150574672000005,1324
50919,149315,144548,-3.3798619225,7.071987194299999,5.9150574672000005,1325
50961,149267,144526,-3.3798619225,7.071987194299999,5.9150574672000005,1326
50995,149234,144503,-3.3798619225,7.071987194299999,5.9150574672000005,1327
51028,149183,144484,-3.3798619225,7.071987194299999,5.9150574672000005,1328
51077,149165,144492,-3.3798619225,7.071987194299999,5.9150574672000005,1329
51109,149177,144445,-3.3798619225,7.071987194299999,5.9150574672000005,1330
51157,149131,144431,-3.3798619225,7.071987194299999,5.9150574672000005,1331
51204,149118,144392,-3.3798619225,7.071987194299999,5.9150574672000005,1332
51259,149134,144427,-3.3798619225,7.071987194299999,5.9150574672000005,1333
51318,149112,144402,-3.3798619225,7.071987194299999,5.9150574672000005,1334
51381,149079,144401,-3.3798619225,7.071987194299999,5.9150574672000005,1335
51452,149099,144413,-3.3798619225,7.071987194299999,5.9150574672000005,1336
51510,149102,144393,-3.3798619225,7.071987194299999,5.9150574672000005,1337
51576,149117,144416,-3.3798619225,7.071987194299999,5.9150574672000005,1338
51604,149104,144438,-3.3798619225,7.071987194299999,5.9150574672000005,1339
51623,149072,144445,-3.3272198253,6.8769721524,5.8109696841,1340
51602,149043,144400,-3.3272198253,6.8769721524,5.8109696841,1341
51573,148998,144395,-3.3272198253,6.8769721524,5.8109696841,1342
51540,148954,144353,-3.4552358344000003,7.0672015491,6.0574304119,1343
51523,148956,144325,-3.4552358344000003,7.0672015491,6.0574304119,1344
51539,148928,144335,-3.4552358344000003,7.0672015491,6.0574304119,1345
51566,148908,144330,-3.4552358344000003,7.0672015491,6.0574304119,1346
51603,148912,144316,-3.4552358344000003,7.0672015491,6.0574304119,1347
51647,148903,144288,-3.4552358344000003,7.0672015491,6.0574304119,1348
51696,148899,144312,-3.4552358344000003,7.0672015491,6.0574304119,1349
51723,148904,144284,-3.4552358344000003,7.0672015491,6.0574304119,1350
51782,148905,144273,-3.4552358344000003,7.0672015491,6.0574304119,1351
51832,148896,144271,-3.4552358344000003,7.0672015491,6.0574304119,1352
51883,148951,144322,-3.4552358344000003,7.0672015491,6.0574304119,1353
51953,148937,144327,-3.4552358344000003,7.0672015491,6.0574304119,1354
52009,148976,144312,-3.4552358344000003,7.0672015491,6.0574304119,1355
52066,148970,144357,-3.4552358344000003,7.0672015491,6.0574304119,1356
52109,149035,144364,-3.4552358344000003,7.0672015491,6.0574304119,1357
52178,149069,144398,-3.4552358344000003,7.0672015491,6.0574304119,1358
52235,149112,144421,-3.4552358344000003,7.0672015491,6.0574304119,1359
52292,149145,144430,-3.3846475676999996,7.004988161499999,6.1148581543,1360
52344,149207,144485,-3.3846475676999996,7.004988161499999,6.1148581543,1361
52350,149204,144485,-3.3846475676999996,7.004988161499999,6.1148581543,1362
52343,149184,144522,-3.4660035360999997,7.034898444,5.9198431124,1363
52321,149185,144488,-3.5078779316,7.1449682836,5.9868421452,1364
52297,149165,144475,-3.3882368016,6.849454692499999,5.9724852096,1365
52310,149152,144471,-3.2458638569,7.0480589683,5.886343596000001,1366
52317,149120,144455,-3.2841490185,6.9595245321,5.9760744435,1367
52347,149157,144469,-3.5126635768,6.9954168711,5.9102718219999995,1368
52352,149143,144447,-3.4600214796,6.9918276372,5.938985693199999,1369
52396,149152,144481,-3.4133614389,7.0959154203,5.9820565,1370
52315,149175,144478,-3.6071800695,6.9966132824,5.938985693199999,1371
52457,149211,144463,-3.3547372851999997,7.030112798799999,5.9617175078999995,1372
52489,149180,144487,-3.5258241011,6.963113765999999,5.9437713384,1373
52521,149195,144486,-3.4301111971,6.891329088,5.9246287576,1374
52560,149186,144491,-3.5210384559,6.9726850564,5.9916277904,1375
52620,149226,144501,-3.3655049869,7.110272355899999,5.9485569836,1376
52639,149156,144530,-3.493520996,6.977470701600001,5.9808600887,1377
52676,149276,144542,-3.5138599880999997,7.214360139,5.967699564399999,1378
52715,149302,144540,-3.3882368016,6.9918276372,5.958128274,1379
52687,149310,144569,-3.3284162366,7.0492553796,6.0526447667,1380
52814,149396,144625,-3.4887353508000003,7.0923261864,5.9904313791,1381
52916,149402,144649,-3.4899317621,6.9726850564,6.0490555328,1382
52888,149390,144662,-3.4277183745,7.0492553796,6.0442698876,1383
52893,149437,144611,-3.4229327293,6.977470701600001,6.029912952,1384
52882,149401,144654,-3.4755748265,7.0444697344,6.0813586379,1385
52835,149378,144615,-3.3092736558,6.9296142496,6.0526447667,1386
52816,149321,144607,-3.4348968423,6.9678994112,6.0047883147,1387
52790,149290,144580,-3.4073793824000003,6.934399894799999,5.967699564399999,1388
52783,149254,144580,-3.3463624061,7.1246292915,5.958128274,1389
52787,149285,144539,-3.4313076084,6.8829542089,5.9772708547999995,1390
52800,149275,144573,-3.5210384559,6.977470701600001,5.9485569836,1391
52813,149313,144562,-3.5318061576,7.0683979604,5.9952170243,1392
52846,149313,144532,-3.3798619225,7.030112798799999,6.0239308954999995,1393
52850,149269,144537,-3.4360932536,7.0911297751,5.9306108141000005,1394
52868,149241,144571,-3.5270205124,7.0672015491,5.934200048,1395
52913,149240,144518,-3.3690942208,7.0624159039,6.0239308954999995,1396
52897,149234,144519,-3.242274623,7.030112798799999,6.0526447667,1397
52909,149242,144511,-3.3415767608999998,7.0205415084,6.0047883147,1398
52943,149212,144533,-3.3415767608999998,7.0205415084,6.0047883147,1399
52958,149179,144518,-3.3415767608999998,7.0205415084,6.0047883147,1400
52991,149175,144493,-3.3415767608999998,7.0205415084,6.0047883147,1401
53020,149163,144502,-3.3415767608999998,7.0205415084,6.0047883147,1402
53042,149173,144514,-3.3415767608999998,7.0205415084,6.0047883147,1403
53075,149144,144488,-3.3415767608999998,7.0205415084,6.0047883147,1404
53089,149164,144509,-3.3415767608999998,7.0205415084,6.0047883147,1405
53079,149155,144472,-3.3415767608999998,7.0205415084,6.0047883147,1406
53036,149093,144448,-3.3415767608999998,7.0205415084,6.0047883147,1407
52990,149049,144405,-3.3415767608999998,7.0205415084,6.0047883147,1408
52942,148982,144365,-3.3415767608999998,7.0205415084,6.0047883147,1409
52881,148965,144349,-3.3415767608999998,7.0205415084,6.0047883147,1410
52858,148912,144330,-3.3415767608999998,7.0205415084,6.0047883147,1411
52844,148894,144302,-3.3415767608999998,7.0205415084,6.0047883147,1412
52847,148903,144325,-3.3415767608999998,7.0205415084,6.0047883147,1413
52845,148894,144290,-3.3415767608999998,7.0205415084,6.0047883147,1414
52841,148882,144294,-3.3415767608999998,7.0205415084,6.0047883147,1415
52841,148874,144278,-3.3415767608999998,7.0205415084,6.0047883147,1416
52858,148873,144270,-3.3415767608999998,7.0205415084,6.0047883147,1417
52869,148863,144272,-3.3415767608999998,7.0205415084,6.0047883147,1418
52873,148882,144276,-3.3415767608999998,7.0205415084,6.0047883147,1419
52879,148862,144292,-3.3415767608999998,7.0205415084,6.0047883147,1420
52902,148899,144305,-3.3415767608999998,7.0205415084,6.0047883147,1421
52911,148929,144304,-3.3415767608999998,7.0205415084,6.0047883147,1422
52940,148916,144309,-3.3415767608999998,7.0205415084,6.0047883147,1423
52962,148960,144352,-3.3415767608999998,7.0205415084,6.0047883147,1424
52984,148973,144370,-3.3415767608999998,7.0205415084,6.0047883147,1425
53016,149023,144397,-3.3308090592,6.9738814677,5.8971112976999995,1426
53033,149048,144395,-3.3308090592,6.9738814677,5.8971112976999995,1427
53026,149056,144398,-3.3308090592,6.9738814677,5.8971112976999995,1428
52974,149063,144444,-3.3308090592,6.9738814677,5.8971112976999995,1429
52921,149054,144395,-3.3308090592,6.9738814677,5.8971112976999995,1430
52862,149042,144392,-3.3308090592,6.9738814677,5.8971112976999995,1431
52790,149052,144379,-3.4420753101,7.0492553796,5.9916277904,1432
52728,149036,144401,-3.4420753101,7.0492553796,5.9916277904,1433
52704,148993,144393,-3.4420753101,7.0492553796,5.9916277904,1434
52684,149047,144386,-3.4420753101,7.0492553796,5.9916277904,1435
52678,149060,144402,-3.4420753101,7.0492553796,5.9916277904,1436
52655,149063,144372,-3.4420753101,7.0492553796,5.9916277904,1437
52645,149065,144354,-3.4420753101,7.0492553796,5.9916277904,1438
52645,149048,144367,-3.4420753101,7.0492553796,5.9916277904,1439
52649,149078,144367,-3.4420753101,7.0492553796,5.9916277904,1440
52641,149095,144401,-3.4420753101,7.0492553796,5.9916277904,1441
52644,149124,144449,-3.4420753101,7.0492553796,5.9916277904,1442
52647,149142,144432,-3.4420753101,7.0492553796,5.9916277904,1443
52675,149166,144472,-3.4420753101,7.0492553796,5.9916277904,1444
52696,149195,144436,-3.4420753101,7.0492553796,5.9916277904,1445
52717,149208,144464,-3.4420753101,7.0492553796,5.9916277904,1446
52749,149267,144518,-3.4420753101,7.0492553796,5.9916277904,1447
52756,149303,144555,-3.4420753101,7.0492553796,5.9916277904,1448
52769,149339,144553,-3.4420753101,7.0492553796,5.9916277904,1449
52777,149335,144580,-3.4420753101,7.0492553796,5.9916277904,1450
52716,149355,144587,-3.4420753101,7.0492553796,5.9916277904,1451
52638,149301,144583,-3.4420753101,7.0492553796,5.9916277904,1452
52535,149246,144572,-3.4420753101,7.0492553796,5.9916277904,1453
52436,149236,144506,-3.4420753101,7.0492553796,5.9916277904,1454
52347,149225,144498,-3.4420753101,7.0492553796,5.9916277904,1455
52293,149186,144470,-3.4420753101,7.0492553796,5.9916277904,1456
52256,149169,144448,-3.4420753101,7.0492553796,5.9916277904,1457
52228,149154,144428,-3.4420753101,7.0492553796,5.9916277904,1458
52220,149158,144417,-3.4420753101,7.0492553796,5.9916277904,1459
52196,149112,144389,-3.4420753101,7.0492553796,5.9916277904,1460
52205,149060,144365,-3.4420753101,7.0492553796,5.9916277904,1461
52187,149047,144344,-3.4420753101,7.0492553796,5.9916277904,1462
52209,149028,144340,-3.4420753101,7.0492553796,5.9916277904,1463
52189,149057,144362,-3.4420753101,7.0492553796,5.9916277904,1464
52211,149051,144371,-3.4420753101,7.0492553796,5.9916277904,1465
52212,149052,144351,-3.4420753101,7.0492553796,5.9916277904,1466
52246,149040,144370,-3.4420753101,7.0492553796,5.9916277904,1467
52264,149055,144364,-3.4420753101,7.0492553796,5.9916277904,1468
52270,149048,144359,-3.4420753101,7.0492553796,5.9916277904,1469
52307,149072,144356,-3.4420753101,7.0492553796,5.9916277904,1470
52337,149111,144387,-3.4420753101,7.0492553796,5.9916277904,1471
52344,149127,144418,-3.5509487384000002,7.0767728395,5.9629139192,1472
52304,149148,144399,-3.5509487384000002,7.0767728395,5.9629139192,1473
52227,149107,144397,-3.5509487384000002,7.0767728395,5.9629139192,1474
52116,149041,144355,-3.5509487384000002,7.0767728395,5.9629139192,1475
52020,149036,144360,-3.5509487384000002,7.0767728395,5.9629139192,1476
51959,149022,144325,-3.5509487384000002,7.0767728395,5.9629139192,1477
51890,149011,144309,-3.5509487384000002,7.0767728395,5.9629139192,1478
51864,149044,144328,-3.5509487384000002,7.0767728395,5.9629139192,1479
51857,149072,144333,-3.3559336964999997,7.0157558632,6.0430734763,1480
51860,149055,144339,-3.5605200288,6.9535424756,5.9437713384,1481
51841,149064,144340,-3.3415767608999998,7.034898444,5.958128274,1482
51839,149108,144352,-3.3930224468000003,7.1162544124,5.9569318627,1483
51864,149100,144356,-3.4277183745,6.9499532417,5.938985693199999,1484
51877,149090,144361,-3.3176485349,6.9786671129,5.858826136099999,1485
51890,149116,144368,-3.2602207924999997,6.9822563468,6.029912952,1486
51906,149143,144398,-3.2602207924999997,6.9822563468,6.029912952,1487
51928,149161,144442,-3.2602207924999997,6.9822563468,6.029912952,1488
51959,149202,144437,-3.2602207924999997,6.9822563468,6.029912952,1489
51987,149178,144442,-3.2602207924999997,6.9822563468,6.029912952,1490
52008,149231,144452,-3.2602207924999997,6.9822563468,6.029912952,1491
52062,149272,144495,-3.2602207924999997,6.9822563468,6.029912952,1492
52086,149291,144500,-3.2602207924999997,6.9822563468,6.029912952,1493
52108,149302,144522,-3.2602207924999997,6.9822563468,6.029912952,1494
52074,149294,144521,-3.2602207924999997,6.9822563468,6.029912952,1495
51996,149287,144445,-3.2602207924999997,6.9822563468,6.029912952,1496
51894,149219,144405,-3.2602207924999997,6.9822563468,6.029912952,1497
51811,149173,144448,-3.2602207924999997,6.9822563468,6.029912952,1498
51745,149105,144406,-3.2602207924999997,6.9822563468,6.029912952,1499
51688,149123,144395,-3.2602207924999997,6.9822563468,6.029912952,1500
51670,149126,144371,-3.2602207924999997,6.9822563468,6.029912952,1501
51674,149131,144405,-3.2602207924999997,6.9822563468,6.029912952,1502
51679,149161,144414,-3.2602207924999997,6.9822563468,6.029912952,1503
51676,149148,144389,-3.2602207924999997,6.9822563468,6.029912952,1504
51702,149127,144391,-3.2602207924999997,6.9822563468,6.029912952,1505
51714,149121,144399,-3.2602207924999997,6.9822563468,6.029912952,1506
51740,149134,144398,-3.2602207924999997,6.9822563468,6.029912952,1507
51757,149166,144404,-3.2602207924999997,6.9822563468,6.029912952,1508
51801,149169,144422,-3.2602207924999997,6.9822563468,6.029912952,1509
51831,149154,144445,-3.2602207924999997,6.9822563468,6.029912952,1510
51862,149223,144484,-3.2602207924999997,6.9822563468,6.029912952,1511
51885,149190,144462,-3.2602207924999997,6.9822563468,6.029912952,1512
51937,149267,144477,-3.2602207924999997,6.9822563468,6.029912952,1513
51985,149268,144501,-3.2602207924999997,6.9822563468,6.029912952,1514
52011,149313,144465,-3.2602207924999997,6.9822563468,6.029912952,1515
52031,149276,144504,-3.2602207924999997,6.9822563468,6.029912952,1516
52020,149270,144516,-3.2602207924999997,6.9822563468,6.029912952,1517
51951,149229,144465,-3.2602207924999997,6.9822563468,6.029912952,1518
