green,red,IR,acc_x,acc_y,acc_z,sample_index
114506,193205,252318,-0.191425808,-9.9673025403,-0.7465606512,1
114696,193231,252327,-0.2237289131,-9.8500542329,-0.7920242806,2
114850,193233,252376,-0.2799602442,-9.9038927414,-0.7561319416,3
115034,193246,252387,-0.33140593009999997,-9.8237331843,-0.765703232,4
115181,193301,252411,-0.14476576730000001,-9.8261260069,-0.6891329087999999,5
115063,193274,252425,-0.3278166962,-9.6538427797,-0.6915257314000001,6
114470,193210,252364,-0.39122649509999996,-9.911071209200001,-0.6173482308,7
113672,192999,252237,-0.2703889538,-9.8895358058,-0.729810893,8
113132,192851,252135,-0.3792623821,-9.9565348386,-0.6783652070999999,9
112855,192755,252090,-0.24765713909999998,-9.865607579799999,-0.729810893,10
112781,192731,252009,-0.1304088317,-9.853643466800001,-0.7142575461,11
112765,192661,252000,-0.2261217357,-9.8668039911,-0.7250252478,12
112810,192626,251966,-0.2799602442,-9.8991070962,-0.6867400861999999,13
112873,192628,251984,-0.370887503,-9.924231733500001,-0.6927221427000001,14
112878,192582,251919,-0.4271188341,-9.8249295956,-0.7154539574000001,15
112840,192519,251884,-0.2847458894,-9.9601240725,-0.6999006105000001,16
112765,192517,251894,-0.24646072779999997,-9.8596255233,-0.7334001269,17
112742,192452,251858,-0.22492532440000002,-9.9086783866,-0.7010970218,18
112817,192440,251829,-0.18783657410000001,-9.865607579799999,-0.6568298037,19
112860,192416,251879,-0.3493520996,-9.8309116521,-0.7944171031999999,20
112952,192408,251837,-0.1734796385,-9.8907322171,-0.6759723845,21
113071,192381,251817,-0.2596212521,-9.9349994352,-0.6041877065,22
113183,192432,251857,-0.3278166962,-9.8596255233,-0.6711867393,23
113343,192397,251845,-0.311066938,-9.9134640318,-0.7369893608,24
113478,192440,251870,-0.24646072779999997,-9.8775716928,-0.753739119,25
113594,192436,251895,-0.3278166962,-9.8895358058,-0.7310073043,26
113730,192488,251852,-0.2727817764,-9.8273224182,-0.7010970218,27
113842,192441,251905,-0.2943171798,-9.937392257800001,-0.7154539574000001,28
114019,192519,251910,-0.27517459899999996,-9.8368937086,-0.6400800455,29
114183,192504,251959,-0.2943171798,-9.7639126193,-0.789631458,30
114287,192520,251976,-0.2309073809,-9.7962157244,-0.6113661743,31
113928,192482,251905,-0.3780659708,-9.8033941922,-0.6723831506,32
113119,192367,251841,-0.2823530668,-9.9433743143,-0.7513462964000001,33
112303,192077,251676,-0.2715853651,-9.911071209200001,-0.765703232,34
111815,191927,251545,-0.3026920589,-9.8751788702,-0.753739119,35
111567,191795,251485,-0.1902293967,-9.9469635482,-0.7226324252,36
111442,191758,251438,-0.2703889538,-9.7423772159,-0.7357929495000001,37
111373,191659,251419,-0.2739781877,-9.8093762487,-0.741775006,38
111401,191666,251303,-0.34337004309999997,-9.8309116521,-0.7130611348,39
111493,191623,251372,-0.3206382284,-9.852447055499999,-0.8673981925,40
111550,191624,251330,-0.3792623821,-9.9158568544,-0.7609175868,41
111572,191567,251342,-0.3038884702,-9.844072176400001,-0.7345965382,42
111508,191530,251286,-0.4199403663,-9.870393225,-0.6951149653,43
111528,191496,251293,-0.2823530668,-9.8596255233,-0.7106683122,44
111574,191477,251285,-0.2380858487,-9.9014999188,-0.7609175868,45
111679,191477,251311,-0.2943171798,-9.9708917742,-0.741775006,46
111804,191457,251293,-0.2021935097,-9.8967142736,-0.7094719009,47
111930,191489,251335,-0.3086741154,-9.8751788702,-0.7130611348,48
112106,191502,251328,-0.2177468566,-9.8237331843,-0.7106683122,49
112274,191518,251331,-0.2739781877,-9.7591269741,-0.6891329087999999,50
112390,191577,251363,-0.3158525832,-9.834500886,-0.7728816998,51
112555,191589,251394,-0.3050848815,-9.8751788702,-0.7932206919,52
112724,191613,251438,-0.35174492220000003,-9.8775716928,-0.729810893,53
112867,191642,251389,-0.3493520996,-9.8775716928,-0.8159525066,54
113024,191639,251436,-0.2452643165,-9.8847501606,-0.7992027483999999,55
113169,191672,251528,-0.33260234139999995,-9.9984092341,-0.6400800455,56
113287,191709,251511,-0.2321037922,-9.888339394499999,-0.7034898444000001,57
113057,191680,251528,-0.3337987527,-9.8201439504,-0.7477570625,58
112289,191514,251346,-0.3062812928,-9.8715896363,-0.7920242806,59
111462,191257,251203,-0.215354034,-9.8644111685,-0.7369893608,60
110956,191094,251117,-0.34456645439999994,-9.9254281448,-0.7154539574000001,61
110718,191006,251005,-0.2943171798,-9.8309116521,-0.7465606512,62
110620,190955,251000,-0.2344966148,-9.8644111685,-0.6843472636,63
110610,190894,251025,-0.3242274623,-9.906285564,-0.7992027483999999,64
110698,190873,250978,-0.2225325018,-9.9984092341,-0.7214360139,65
110827,190888,250987,-0.3397808092,-9.9134640318,-0.7202396026000001,66
110918,190895,251016,-0.25363919560000003,-9.9170532657,-0.693918554,67
110894,190917,250954,-0.35413774480000004,-9.808179837399999,-0.741775006,68
110952,190865,250925,-0.42831524540000004,-9.7423772159,-0.6532405698,69
110990,190869,250938,-0.3302095188,-9.932606612599999,-0.7645068207,70
111081,190851,250946,-0.299102825,-9.7603233854,-0.6999006105000001,71
111167,190877,250999,-0.19980068709999999,-9.834500886,-0.789631458,72
111352,190918,251023,-0.21894326790000002,-9.9397850804,-0.7202396026000001,73
111508,190906,251096,-0.33260234139999995,-9.8476614103,-0.7633104094,74
111711,190937,251109,-0.39361931769999997,-9.8620183459,-0.8183453291999999,75
111868,190996,251114,-0.2069791549,-9.8644111685,-0.7633104094,76
112054,191069,251118,-0.3206382284,-9.853643466800001,-0.7465606512,77
112252,191081,251188,-0.2261217357,-9.8177511278,-0.7465606512,78
112437,191130,251231,-0.263210486,-9.8368937086,-0.7609175868,79
112602,191187,251204,-0.2943171798,-9.8859465719,-0.8315058535,80
112784,191224,251268,-0.1483550012,-9.7782695549,-0.71784678,81
112968,191256,251281,-0.2620140747,-10.0163554036,-0.6687939167,82
113157,191357,251333,-0.2943171798,-9.9050891527,-0.741775006,83
113320,191369,251347,-0.3421736318,-9.9278209674,-0.7561319416,84
113486,191433,251409,-0.2608176634,-9.8907322171,-0.7262216591,85
113667,191447,251439,-0.18783657410000001,-9.8967142736,-0.7082754896000001,86
113847,191494,251501,-0.2177468566,-9.8608219346,-0.6664010940999999,87
114021,191482,251528,-0.179461695,-9.799804958300001,-0.7274180704000001,88
114191,191617,251563,-0.3661018578,-9.8560362894,-0.7824529901999999,89
114356,191656,251576,-0.34337004309999997,-10.0008020567,-0.7680960546,90
114514,191756,251646,-0.42233318890000004,-9.821340361699999,-0.7106683122,91
114705,191779,251688,-0.394815729,-9.8811609267,-0.7453642399,92
114855,191835,251717,-0.23928226,-9.7471628611,-0.6640082715,93
115038,191922,251740,-0.346959277,-9.6993064091,-0.7680960546,94
115124,191932,251797,-0.16151552549999998,-9.8991070962,-0.6209374647,95
115039,191955,251775,-0.35174492220000003,-9.767501853199999,-0.5730810127,96
114348,191829,251716,-0.24885355039999998,-9.8069834261,-0.7740781111,97
113494,191614,251513,-0.191425808,-9.844072176400001,-0.7357929495000001,98
112888,191439,251406,-0.3014956476,-9.7878408453,-0.6915257314000001,99
112675,191384,251301,-0.34456645439999994,-9.9206424996,-0.7800601676,100
112586,191311,251316,-0.35413774480000004,-9.822536773,-0.7824529901999999,101
112523,191314,251326,-0.3397808092,-9.7591269741,-0.7609175868,102
112601,191301,251257,-0.3182454058,-9.9744810081,-0.7465606512,103
112672,191299,251293,-0.38763726119999997,-9.7890372566,-0.7489534738,104
112738,191311,251242,-0.2380858487,-9.9038927414,-0.6532405698,105
112739,191277,251261,-0.2321037922,-9.8799645154,-0.7824529901999999,106
112737,191279,251287,-0.3122633493,-9.8476614103,-0.7489534738,107
112744,191311,251256,-0.33260234139999995,-9.8955178623,-0.6759723845,108
112809,191267,251276,-0.2967100024,-9.8189475391,-0.6544369810999999,109
112915,191330,251297,-0.19381863059999999,-9.963713306399999,-0.7932206919,110
113035,191306,251243,-0.2500499617,-9.9026963301,-0.7022934331,111
113164,191345,251276,-0.2656033086,-9.839286531199999,-0.6592226263,112
113320,191374,251337,-0.2572284295,-9.9206424996,-0.7274180704000001,113
113538,191408,251381,-0.2440679052,-9.9864451211,-0.6711867393,114
113655,191472,251403,-0.287138712,-9.7471628611,-0.7824529901999999,115
113857,191496,251408,-0.2572284295,-10.057033387799999,-0.729810893,116
113973,191525,251468,-0.28953153460000003,-9.9134640318,-0.7501498851,117
114147,191574,251506,-0.24765713909999998,-9.8261260069,-0.71784678,118
114314,191610,251552,-0.263210486,-9.858429112,-0.7668996433,119
114480,191645,251572,-0.1842473402,-9.8297152408,-0.7968099258,120
114651,191683,251547,-0.3672982691,-9.8153583052,-0.7609175868,121
114800,191748,251601,-0.23569302609999998,-9.8285188295,-0.7848458128,122
114942,191761,251654,-0.30747770409999997,-9.8680004024,-0.6795616184,123
115152,191810,251710,-0.3613162126,-9.9290173787,-0.7872386353999999,124
115300,191849,251702,-0.1579262916,-10.0366943957,-0.6879364975,125
115237,191854,251753,-0.3493520996,-9.8237331843,-0.71784678,126
114668,191753,251630,-0.23688943739999999,-9.811769071299999,-0.8721838377000001,127
113892,191521,251503,-0.1710868159,-9.9732845968,-0.8446663778000001,128
113362,191411,251358,-0.1399801221,-9.870393225,-0.6951149653,129
113066,191291,251292,-0.34097722049999996,-9.966106129,-0.6867400861999999,130
112949,191269,251242,-0.215354034,-9.8093762487,-0.7250252478,131
112883,191236,251216,-0.3182454058,-9.8452685877,-0.7609175868,132
112967,191208,251250,-0.2656033086,-9.8835537493,-0.6424728680999999,133
113054,191219,251254,-0.1351944769,-9.9613204838,-0.7202396026000001,134
113092,191202,251225,-0.2967100024,-9.8297152408,-0.7034898444000001,135
113052,191197,251259,-0.23928226,-10.0008020567,-0.7334001269,136
113004,191163,251200,-0.2919243572,-9.799804958300001,-0.7561319416,137
112994,191158,251216,-0.18783657410000001,-9.894321451,-0.8171489179,138
113051,191150,251194,-0.3026920589,-9.870393225,-0.7214360139,139
113152,191195,251202,-0.24047867129999997,-9.8237331843,-0.6664010940999999,140
113223,191219,251227,-0.3864408499,-9.9577312499,-0.7728816998,141
113374,191238,251227,-0.2321037922,-9.8608219346,-0.7609175868,142
113419,191276,251296,-0.31704899449999996,-9.937392257800001,-0.7585247642,143
113627,191308,251260,-0.36370903520000003,-9.8727860476,-0.5898307709,144
113798,191303,251337,-0.2237289131,-9.8488578216,-0.7010970218,145
113949,191365,251361,-0.32542387359999997,-9.7663054419,-0.741775006,146
114120,191398,251396,-0.3302095188,-9.963713306399999,-0.7202396026000001,147
114266,191446,251407,-0.2344966148,-9.8895358058,-0.6771687957999999,148
114402,191452,251444,-0.2967100024,-9.8261260069,-0.7716852885,149
114571,191494,251419,-0.3098705267,-9.738787982,-0.7082754896000001,150
114697,191561,251479,-0.40319060809999996,-9.964909717700001,-0.7022934331,151
114806,191559,251523,-0.2344966148,-9.9314102013,-0.6640082715,152
114998,191606,251555,-0.1543370577,-9.811769071299999,-0.741775006,153
115143,191635,251566,-0.2787638329,-9.888339394499999,-0.8841479507000001,154
115288,191707,251579,-0.2297109696,-9.9972128228,-0.7465606512,155
115187,191692,251628,-0.35174492220000003,-9.852447055499999,-0.5706881900999999,156
114520,191536,251511,-0.2560320182,-9.7639126193,-0.8075776275,157
113614,191283,251345,-0.2667997199,-9.8668039911,-0.7884350467,158
113001,191146,251218,-0.263210486,-9.918249677,-0.7142575461,159
112649,191029,251130,-0.1806581063,-9.846464999,-0.741775006,160
112472,190945,251079,-0.24646072779999997,-9.9278209674,-0.6508477471999999,161
112376,190874,251024,-0.3361915753,-9.8416793538,-0.7345965382,162
112361,190890,251006,-0.4582255279,-9.9026963301,-0.6448656907,163
112415,190841,251023,-0.3613162126,-9.811769071299999,-0.7429714173,164
112462,190875,251056,-0.3002992363,-9.8919286284,-0.7082754896000001,165
112467,190854,250997,-0.2081755662,-9.858429112,-0.6448656907,166
112409,190817,250968,-0.2703889538,-9.8967142736,-0.8303094421999999,167
112381,190826,250965,-0.33499516399999996,-9.8297152408,-0.7716852885,168
112408,190801,251024,-0.2117648001,-9.7878408453,-0.7322037156,169
112486,190798,250988,-0.2763710103,-9.8428757651,-0.741775006,170
112591,190831,251042,-0.3900300838,-9.8488578216,-0.7561319416,171
112732,190838,251060,-0.1962114532,-9.8428757651,-0.7944171031999999,172
112809,190883,251051,-0.299102825,-9.882357338,-0.7728816998,173
113035,190924,251082,-0.1962114532,-9.8452685877,-0.8039883936,174
113186,190943,251118,-0.3780659708,-9.8045906035,-0.7465606512,175
113350,191006,251167,-0.21296121140000002,-9.8368937086,-0.6795616184,176
113505,191046,251198,-0.3493520996,-9.882357338,-0.7704888772,177
113654,191080,251218,-0.42233318890000004,-9.822536773,-0.8338986760999999,178
113835,191102,251231,-0.2919243572,-10.04985492,-0.7142575461,179
114000,191128,251256,-0.2620140747,-9.980463064599999,-0.7968099258,180
114171,191191,251281,-0.2548356069,-9.834500886,-0.6628118601999999,181
114304,191231,251342,-0.2261217357,-9.8620183459,-0.7465606512,182
114491,191252,251336,-0.2931207685,-9.852447055499999,-0.6999006105000001,183
114695,191295,251395,-0.21415762270000002,-9.8596255233,-0.7585247642,184
114835,191390,251412,-0.1974078645,-9.9481599595,-0.765703232,185
114982,191398,251487,-0.1806581063,-9.8895358058,-0.741775006,186
115178,191454,251481,-0.3361915753,-9.853643466800001,-0.7262216591,187
115338,191483,251536,-0.35174492220000003,-9.8249295956,-0.7393821834000001,188
115501,191572,251578,-0.2667997199,-9.8321080634,-0.7525427077,189
115662,191584,251622,-0.2081755662,-9.936195846499999,-0.7393821834000001,190
115508,191608,251601,-0.3421736318,-9.8907322171,-0.6963113766000001,191
114779,191444,251500,-0.394815729,-9.8141618939,-0.7704888772,192
113760,191136,251309,-0.1052841944,-9.9349994352,-0.7956135145,193
113184,190953,251143,-0.3337987527,-9.858429112,-0.6352944003,194
112875,190895,251096,-0.3038884702,-9.9960164115,-0.7848458128,195
112781,190851,250973,-0.2847458894,-9.9014999188,-0.6520441585,196
112717,190779,251020,-0.4271188341,-9.8859465719,-0.7226324252,197
112736,190752,251045,-0.044267218100000005,-9.9086783866,-0.6759723845,198
112850,190788,251009,-0.48933222169999996,-9.822536773,-0.7022934331,199
112863,190811,251031,-0.3002992363,-9.918249677,-0.7609175868,200
112937,190799,251031,-0.12083754129999999,-9.8261260069,-0.7692924659,201
112892,190756,251008,-0.24167508259999998,-9.7710910871,-0.7345965382,202
112905,190756,251003,-0.33738798659999997,-9.950552782099999,-0.6687939167,203
112976,190783,250994,-0.2919243572,-9.8907322171,-0.6795616184,204
113059,190802,251021,-0.24167508259999998,-9.8488578216,-0.7369893608,205
113179,190784,251062,-0.3625126239,-9.8919286284,-0.6568298037,206
113328,190830,251079,-0.2931207685,-9.882357338,-0.7633104094,207
113503,190859,251088,-0.16630117069999997,-9.8847501606,-0.7441678286,208
113674,190870,251125,-0.1387837108,-9.8021977809,-0.6963113766000001,209
113886,190999,251199,-0.3038884702,-9.9433743143,-0.801595571,210
114035,190963,251175,-0.2344966148,-9.7770731436,-0.8231309743999999,211
114217,191014,251208,-0.40917266459999996,-9.7926264905,-0.8183453291999999,212
114372,191064,251230,-0.251246373,-9.9074819753,-0.7322037156,213
114555,191156,251268,-0.34456645439999994,-9.8500542329,-0.7800601676,214
114770,191172,251322,-0.2333002035,-9.7710910871,-0.6831508522999999,215
114915,191174,251379,-0.1639083481,-9.852447055499999,-0.7680960546,216
115102,191218,251435,-0.2440679052,-9.811769071299999,-0.7250252478,217
115272,191264,251455,-0.2452643165,-9.858429112,-0.7046862557000001,218
115447,191320,251462,-0.1974078645,-9.93021379,-0.7680960546,219
115592,191367,251537,-0.2237289131,-9.8895358058,-0.7369893608,220
115771,191357,251536,-0.2344966148,-9.93021379,-0.7441678286,221
115943,191489,251567,-0.2165504453,-9.9278209674,-0.7226324252,222
115934,191504,251605,-0.4043870194,-9.8404829425,-0.6376872229,223
115396,191382,251512,-0.2500499617,-9.8201439504,-0.7369893608,224
114539,191095,251348,-0.3182454058,-9.924231733500001,-0.7561319416,225
113851,190948,251192,-0.2919243572,-9.9756774194,-0.7680960546,226
113500,190828,251116,-0.3792623821,-9.7591269741,-0.7082754896000001,227
113376,190785,251055,-0.2620140747,-9.7878408453,-0.6616154488999999,228
113291,190744,251074,-0.3900300838,-9.834500886,-0.8159525066,229
113414,190777,251052,-0.2309073809,-9.9014999188,-0.7848458128,230
113521,190796,251075,-0.382851616,-9.9445707256,-0.7250252478,231
113580,190787,251146,-0.32303105099999996,-9.8033941922,-0.765703232,232
113578,190800,251103,-0.2344966148,-9.7830552001,-0.7034898444000001,233
113534,190715,251065,-0.3397808092,-9.9158568544,-0.6831508522999999,234
113485,190714,251102,-0.40558343069999997,-9.9732845968,-0.7429714173,235
113501,190730,251080,-0.287138712,-9.7974121357,-0.6903293201,236
113559,190744,251097,-0.2548356069,-9.8847501606,-0.7238288365000001,237
113686,190734,251057,-0.1339980656,-9.8033941922,-0.7250252478,238
113827,190768,251104,-0.28953153460000003,-9.8632147572,-0.7680960546,239
114001,190804,251119,-0.20458633229999998,-9.8033941922,-0.8039883936,240
114191,190853,251157,-0.2823530668,-9.8991070962,-0.8578269021,241
114391,190912,251196,-0.2679961312,-9.858429112,-0.6616154488999999,242
114599,190931,251249,-0.3014956476,-9.7782695549,-0.7872386353999999,243
114794,191017,251275,-0.2763710103,-9.7782695549,-0.7118647235000001,244
114960,191041,251307,-0.179461695,-9.8907322171,-0.7010970218,245
115032,191086,251314,-0.24885355039999998,-9.8919286284,-0.6041877065,246
114654,191023,251298,-0.2644068973,-9.8871429832,-0.6855436748999999,247
113794,190806,251100,-0.3014956476,-9.9696953629,-0.7286144817,248
113229,190578,250986,-0.3505485109,-9.865607579799999,-0.8374879099999999,249
112874,190469,250878,-0.32542387359999997,-9.865607579799999,-0.6963113766000001,250
112730,190404,250837,-0.1734796385,-9.834500886,-0.7561319416,251
112717,190333,250859,-0.28115665549999996,-9.8835537493,-0.7070790783,252
112779,190366,250810,-0.2452643165,-9.8356972973,-0.729810893,253
112917,190391,250861,-0.2775674216,-9.8560362894,-0.7142575461,254
112949,190364,250868,-0.2979064137,-9.8991070962,-0.7070790783,255
112872,190326,250822,-0.2799602442,-9.834500886,-0.6963113766000001,256
112800,190292,250754,-0.34456645439999994,-9.7710910871,-0.6867400861999999,257
112818,190246,250769,-0.32542387359999997,-9.8321080634,-0.753739119,258
112811,190267,250754,-0.33738798659999997,-9.911071209200001,-0.7082754896000001,259
112873,190280,250817,-0.1950150419,-9.812965482600001,-0.729810893,260
112975,190326,250813,-0.2943171798,-9.8500542329,-0.6652046827999999,261
113110,190323,250810,-0.32303105099999996,-9.785448022699999,-0.7549355303,262
113247,190355,250886,-0.27517459899999996,-9.8608219346,-0.6771687957999999,263
113414,190398,250895,-0.1639083481,-9.8368937086,-0.7130611348,264
113551,190337,250906,-0.1423729447,-9.906285564,-0.7585247642,265
113719,190462,250906,-0.24885355039999998,-9.8871429832,-0.7585247642,266
113845,190508,250912,-0.2967100024,-9.9517491934,-0.7010970218,267
113986,190542,251009,-0.2667997199,-9.8093762487,-0.7393821834000001,268
114132,190617,250994,-0.39122649509999996,-9.857232700700001,-0.7393821834000001,269
114250,190604,251033,-0.1399801221,-9.7914300792,-0.7489534738,270
114428,190595,251052,-0.36969109170000003,-9.9086783866,-0.6879364975,271
114549,190680,251108,-0.13758729949999998,-9.9445707256,-0.741775006,272
114556,190659,251120,-0.2584248408,-9.8799645154,-0.7106683122,273
113843,190516,250998,-0.3397808092,-9.8368937086,-0.6819544409999999,274
112828,190201,250734,-0.2440679052,-9.9038927414,-0.7704888772,275
112042,189960,250585,-0.28953153460000003,-9.844072176400001,-0.741775006,276
111644,189837,250484,-0.382851616,-9.8751788702,-0.7441678286,277
111453,189742,250427,-0.3038884702,-9.8512506442,-0.6544369810999999,278
111329,189680,250361,-0.2297109696,-9.8416793538,-0.7609175868,279
111333,189674,250345,-0.3146561719,-10.0187482262,-0.7357929495000001,280
111443,189656,250364,-0.2679961312,-9.9266245561,-0.8135596839999999,281
111562,189663,250366,-0.34456645439999994,-9.954142016,-0.6807580296999999,282
111604,189689,250340,-0.4390829471,-9.846464999,-0.71784678,283
111598,189607,250323,-0.2165504453,-9.9003035075,-0.7477570625,284
111600,189640,250326,-0.33858439789999994,-9.8309116521,-0.6783652070999999,285
111688,189649,250339,-0.3302095188,-9.858429112,-0.7226324252,286
111787,189728,250359,-0.32303105099999996,-9.8249295956,-0.753739119,287
111946,189673,250353,-0.3098705267,-9.8153583052,-0.71784678,288
112114,189715,250353,-0.1806581063,-9.9349994352,-0.7585247642,289
112248,189768,250413,-0.2608176634,-9.7639126193,-0.7465606512,290
112488,189852,250473,-0.1806581063,-9.8404829425,-0.7848458128,291
112607,189850,250563,-0.2715853651,-9.8608219346,-0.8434699665000001,292
112812,189902,250572,-0.20458633229999998,-9.8333044747,-0.7405785947,293
112998,189979,250568,-0.2691925425,-9.9708917742,-0.6915257314000001,294
113177,190004,250585,-0.3002992363,-9.8727860476,-0.741775006,295
113342,190061,250657,-0.2560320182,-9.911071209200001,-0.8386843212999999,296
113519,190115,250730,-0.1806581063,-9.8189475391,-0.7800601676,297
113681,190162,250754,-0.3852444386,-9.9086783866,-0.5778666579,298
113870,190245,250781,-0.24765713909999998,-9.9074819753,-0.7489534738,299
114034,190271,250899,-0.23928226,-9.7399843933,-0.729810893,300
114192,190352,250914,-0.1040877831,-9.8249295956,-0.7130611348,301
114354,190442,250917,-0.1830509289,-9.9050891527,-0.729810893,302
114536,190459,251006,-0.33260234139999995,-9.8775716928,-0.6305087550999999,303
114703,190564,250968,-0.2201396792,-9.8763752815,-0.6951149653,304
114885,190610,251101,-0.3493520996,-9.8165547165,-0.7022934331,305
115035,190675,251098,-0.2644068973,-9.7567341515,-0.6041877065,306
115176,190740,251170,-0.263210486,-9.9278209674,-0.8159525066,307
115356,190821,251203,-0.2380858487,-9.9349994352,-0.7286144817,308
115487,190867,251250,-0.2321037922,-9.894321451,-0.7561319416,309
115330,190912,251237,-0.2667997199,-9.6993064091,-0.6161518195,310
114514,190753,251148,-0.2452643165,-9.9876415324,-0.8111668613999999,311
113375,190420,250883,-0.2608176634,-9.918249677,-0.8566304908000001,312
112509,190214,250782,-0.32303105099999996,-9.8141618939,-0.7022934331,313
112017,190095,250692,-0.28115665549999996,-9.8727860476,-0.7082754896000001,314
111793,190075,250658,-0.2309073809,-9.980463064599999,-0.7944171031999999,315
111680,190017,250608,-0.33858439789999994,-9.9026963301,-0.7214360139,316
111605,190007,250616,-0.1902293967,-9.811769071299999,-0.7704888772,317
111657,189999,250560,-0.2548356069,-9.8189475391,-0.8087740388,318
111725,190036,250656,-0.3792623821,-9.8991070962,-0.7106683122,319
111688,190067,250618,-0.27517459899999996,-9.9050891527,-0.6711867393,320
111616,190042,250662,-0.3505485109,-9.799804958300001,-0.7561319416,321
111564,190041,250607,-0.1974078645,-9.9278209674,-0.7824529901999999,322
111551,190061,250651,-0.2261217357,-9.7615197967,-0.7202396026000001,323
111578,190080,250695,-0.2297109696,-9.8955178623,-0.7369893608,324
111658,190126,250688,-0.3038884702,-10.0103733471,-0.6843472636,325
111786,190164,250741,-0.2919243572,-9.8261260069,-0.6915257314000001,326
111904,190207,250786,-0.3553341561,-9.923035322199999,-0.7238288365000001,327
112067,190311,250832,-0.1052841944,-9.942177903,-0.7848458128,328
112207,190355,250841,-0.38763726119999997,-9.8560362894,-0.6915257314000001,329
112353,190410,250930,-0.20937197749999997,-9.950552782099999,-0.729810893,330
112515,190472,250895,-0.31345976059999997,-9.8632147572,-0.7142575461,331
112639,190543,250998,-0.18783657410000001,-9.894321451,-0.7561319416,332
112799,190612,251072,-0.23928226,-9.8727860476,-0.6520441585,333
112935,190674,251040,-0.2763710103,-9.9086783866,-0.693918554,334
113096,190722,251156,-0.21894326790000002,-9.7256274577,-0.7381857721,335
113228,190828,251187,-0.1172483074,-9.858429112,-0.7393821834000001,336
113381,190868,251203,-0.2943171798,-9.7651090306,-0.6699903279999999,337
113526,190926,251260,-0.34337004309999997,-9.918249677,-0.7860422241,338
113668,191030,251290,-0.263210486,-9.9003035075,-0.7202396026000001,339
113806,191082,251362,-0.31704899449999996,-9.811769071299999,-0.6448656907,340
113940,191180,251408,-0.2548356069,-9.844072176400001,-0.8279166196,341
114093,191185,251434,-0.4354937132,-9.978070242000001,-0.6855436748999999,342
114251,191278,251478,-0.2560320182,-9.888339394499999,-0.8697910151,343
114318,191439,251531,-0.2500499617,-9.8321080634,-0.6161518195,344
113989,191364,251590,-0.299102825,-9.8297152408,-0.7561319416,345
112907,191209,251441,-0.2201396792,-9.9014999188,-0.801595571,346
111853,191002,251271,-0.1830509289,-9.8919286284,-0.7465606512,347
111188,190890,251202,-0.33858439789999994,-9.865607579799999,-0.7920242806,348
110885,190806,251107,-0.299102825,-9.923035322199999,-0.7884350467,349
110780,190800,251099,-0.2201396792,-9.8309116521,-0.6879364975,350
110745,190798,251075,-0.16151552549999998,-9.8644111685,-0.7369893608,351
110796,190802,251131,-0.35174492220000003,-9.8799645154,-0.741775006,352
110909,190871,251122,-0.2799602442,-9.853643466800001,-0.7106683122,353
111018,190873,251150,-0.346959277,-9.7064848769,-0.6592226263,354
110927,190870,251146,-0.2943171798,-9.8991070962,-0.7824529901999999,355
110893,190865,251143,-0.1902293967,-9.894321451,-0.8386843212999999,356
110885,190917,251161,-0.2656033086,-9.9122676205,-0.8039883936,357
110926,190898,251181,-0.2667997199,-9.8668039911,-0.765703232,358
111029,190966,251152,-0.346959277,-9.8141618939,-0.8135596839999999,359
111144,190973,251239,-0.2177468566,-9.812965482600001,-0.7226324252,360
111292,190991,251252,-0.3804587934,-9.853643466800001,-0.7154539574000001,361
111462,190996,251358,-0.3182454058,-9.932606612599999,-0.7848458128,362
111617,191116,251309,-0.2117648001,-9.865607579799999,-0.7752745223999999,363
111816,191220,251408,-0.3206382284,-9.852447055499999,-0.6975077879,364
111954,191248,251425,-0.1387837108,-9.8871429832,-0.7441678286,365
112129,191305,251473,-0.24287149389999999,-9.8512506442,-0.861416136,366
112298,191339,251485,-0.24885355039999998,-9.906285564,-0.7322037156,367
112454,191416,251536,-0.28115665549999996,-9.9708917742,-0.7118647235000001,368
112623,191516,251505,-0.20338992099999997,-9.8488578216,-0.7704888772,369
112787,191521,251602,-0.1603191142,-9.7962157244,-0.7238288365000001,370
112949,191559,251601,-0.12681959780000002,-9.853643466800001,-0.8506484343,371
113118,191617,251702,-0.2967100024,-9.906285564,-0.7680960546,372
113290,191696,251711,-0.2333002035,-9.8380901199,-0.6687939167,373
113419,191729,251703,-0.12323036389999999,-10.0295159279,-0.5898307709,374
113159,191787,251749,-0.2333002035,-9.8010013696,-0.741775006,375
112261,191642,251654,-0.2799602442,-9.8404829425,-0.7968099258,376
111276,191504,251510,-0.2644068973,-9.8751788702,-0.7322037156,377
110696,191375,251393,-0.1280160091,-9.8368937086,-0.7609175868,378
110447,191301,251399,-0.2823530668,-9.9158568544,-0.7752745223999999,379
110406,191264,251378,-0.2608176634,-9.9493563708,-0.7106683122,380
110425,191264,251346,-0.1830509289,-9.870393225,-0.7489534738,381
110580,191287,251344,-0.2847458894,-9.8153583052,-0.7752745223999999,382
110694,191288,251389,-0.2943171798,-9.9038927414,-0.7262216591,383
110735,191290,251384,-0.3529413335,-9.812965482600001,-0.7070790783,384
110690,191308,251357,-0.3649054465,-9.9433743143,-0.8315058535,385
110600,191280,251340,-0.3421736318,-9.865607579799999,-0.6855436748999999,386
110629,191270,251393,-0.31345976059999997,-9.950552782099999,-0.741775006,387
110642,191269,251326,-0.2105683888,-9.8680004024,-0.6783652070999999,388
110730,191280,251364,-0.24885355039999998,-9.8476614103,-0.71784678,389
110842,191319,251354,-0.2823530668,-9.858429112,-0.7286144817,390
110957,191336,251430,-0.1483550012,-9.8416793538,-0.7034898444000001,391
111098,191388,251443,-0.1136590735,-9.8871429832,-0.7226324252,392
111253,191414,251475,-0.39720855159999996,-9.8763752815,-0.789631458,393
111388,191449,251474,-0.3302095188,-9.870393225,-0.8685946038000001,394
111554,191488,251509,-0.2333002035,-9.8488578216,-0.7262216591,395
111699,191517,251512,-0.19381863059999999,-9.839286531199999,-0.7441678286,396
111635,191538,251574,-0.2500499617,-9.8500542329,-0.7154539574000001,397
111008,191466,251537,-0.21415762270000002,-9.8608219346,-0.7393821834000001,398
110039,191248,251329,-0.33738798659999997,-9.9445707256,-0.6472585133,399
109379,191100,251212,-0.1806581063,-9.9409814917,-0.7585247642,400
109094,191055,251198,-0.2847458894,-9.8955178623,-0.6795616184,401
109025,191016,251159,-0.2165504453,-9.8416793538,-0.7513462964000001,402
109067,190977,251088,-0.2703889538,-9.7615197967,-0.7345965382,403
109206,190998,251161,-0.2225325018,-9.7483592724,-0.6759723845,404
109418,190987,251134,-0.27517459899999996,-9.858429112,-0.8159525066,405
109578,191030,251212,-0.2560320182,-9.93021379,-0.7034898444000001,406
109614,191000,251181,-0.24167508259999998,-9.812965482600001,-0.7465606512,407
109624,191014,251156,-0.2979064137,-9.9445707256,-0.7118647235000001,408
109695,191009,251165,-0.251246373,-9.9014999188,-0.7369893608,409
109785,190953,251176,-0.299102825,-9.811769071299999,-0.7441678286,410
109939,191065,251218,-0.2165504453,-9.8237331843,-0.7345965382,411
110102,191069,251226,-0.2333002035,-9.853643466800001,-0.7441678286,412
110345,191066,251249,-0.2572284295,-9.7902336679,-0.7561319416,413
110485,191119,251281,-0.3038884702,-9.9481599595,-0.789631458,414
110697,191156,251307,-0.24167508259999998,-9.9433743143,-0.7250252478,415
110885,191195,251351,-0.1304088317,-9.9050891527,-0.8243273857,416
111097,191250,251346,-0.3206382284,-9.9038927414,-0.8303094421999999,417
111270,191298,251451,-0.2943171798,-9.8488578216,-0.7226324252,418
111464,191335,251456,-0.1698904046,-9.812965482600001,-0.7752745223999999,419
111637,191373,251441,-0.41754754369999997,-10.0127661697,-0.7944171031999999,420
111854,191426,251504,-0.3421736318,-9.762716208,-0.6855436748999999,421
112039,191483,251545,-0.43429730190000004,-9.8811609267,-0.6903293201,422
112228,191549,251601,-0.3553341561,-9.882357338,-0.7274180704000001,423
112381,191601,251545,-0.2069791549,-9.8608219346,-0.7345965382,424
112595,191623,251603,-0.24765713909999998,-9.8021977809,-0.7525427077,425
112786,191695,251660,-0.27517459899999996,-9.858429112,-0.7106683122,426
112973,191699,251667,-0.1842473402,-9.8177511278,-0.7142575461,427
113133,191751,251682,-0.3505485109,-9.7710910871,-0.7094719009,428
113337,191799,251713,-0.3625126239,-9.919446088299999,-0.741775006,429
113432,191860,251753,-0.2584248408,-9.9349994352,-0.753739119,430
113048,191829,251777,-0.2667997199,-9.767501853199999,-0.5946164161,431
111975,191630,251583,-0.179461695,-9.9493563708,-0.8279166196,432
110973,191389,251408,-0.2524427843,-9.9625168951,-0.6927221427000001,433
110426,191284,251312,-0.3565305674,-9.9038927414,-0.6915257314000001,434
110199,191175,251273,-0.2021935097,-9.9481599595,-0.7286144817,435
110097,191142,251226,-0.1926222193,-9.9014999188,-0.8063812161999999,436
110144,191063,251209,-0.2739781877,-9.8452685877,-0.7106683122,437
110205,191036,251206,-0.2691925425,-9.9254281448,-0.789631458,438
110344,191049,251158,-0.24047867129999997,-9.8093762487,-0.6687939167,439
110409,191090,251191,-0.31944181709999997,-9.8560362894,-0.8219345630999999,440
110441,191051,251187,-0.2727817764,-9.8165547165,-0.741775006,441
110446,191028,251151,-0.4007977855,-9.8871429832,-0.7728816998,442
110510,190988,251202,-0.2344966148,-9.844072176400001,-0.7166503687,443
110586,191020,251171,-0.14476576730000001,-9.8488578216,-0.6735795618999999,444
110726,191000,251183,-0.2859423007,-9.8273224182,-0.5946164161,445
110889,191032,251207,-0.4163511324,-9.853643466800001,-0.6089733517,446
111051,191054,251246,-0.2644068973,-9.894321451,-0.7489534738,447
111268,191129,251305,-0.311066938,-9.8763752815,-0.7345965382,448
111458,191124,251284,-0.21415762270000002,-9.798608546999999,-0.7800601676,449
111719,191161,251313,-0.1639083481,-9.882357338,-0.777667345,450
111851,191193,251400,-0.21894326790000002,-9.888339394499999,-0.8039883936,451
112044,191250,251368,-0.3218346397,-9.8727860476,-0.7250252478,452
112212,191308,251430,-0.2775674216,-9.8847501606,-0.7345965382,453
112376,191339,251456,-0.32901310749999996,-9.7950193131,-0.729810893,454
112553,191376,251510,-0.1806581063,-10.0103733471,-0.753739119,455
112758,191398,251524,-0.1890329854,-9.8488578216,-0.729810893,456
112909,191436,251523,-0.2081755662,-9.839286531199999,-0.6376872229,457
113064,191479,251546,-0.3493520996,-9.741180804599999,-0.6592226263,458
113237,191515,251572,-0.1782652837,-9.7591269741,-0.7633104094,459
113372,191557,251648,-0.2644068973,-9.7639126193,-0.7345965382,460
113606,191600,251678,-0.16630117069999997,-9.918249677,-0.7585247642,461
113625,191673,251683,-0.2440679052,-9.8273224182,-0.6305087550999999,462
113021,191580,251667,-0.31345976059999997,-9.8249295956,-0.7704888772,463
112033,191349,251481,-0.28953153460000003,-9.785448022699999,-0.801595571,464
111226,191125,251300,-0.3732803256,-9.9445707256,-0.6640082715,465
110858,191027,251263,-0.2309073809,-9.822536773,-0.6305087550999999,466
110710,190990,251227,-0.2715853651,-9.8835537493,-0.8039883936,467
110677,190908,251175,-0.3421736318,-9.8931250397,-0.6687939167,468
110739,190875,251164,-0.20937197749999997,-9.7363951594,-0.7944171031999999,469
110868,190887,251137,-0.263210486,-9.7938229018,-0.8087740388,470
111029,190906,251168,-0.2261217357,-9.8141618939,-0.7393821834000001,471
111074,190932,251173,-0.2021935097,-9.8955178623,-0.6975077879,472
111080,190901,251164,-0.2799602442,-9.821340361699999,-0.7621139981,473
111079,190860,251157,-0.2608176634,-9.8093762487,-0.753739119,474
111158,190838,251194,-0.40319060809999996,-9.8404829425,-0.7250252478,475
111283,190882,251205,-0.3014956476,-9.8680004024,-0.8566304908000001,476
111430,190891,251206,-0.19980068709999999,-10.0534441539,-0.7154539574000001,477
111621,190919,251187,-0.33260234139999995,-9.834500886,-0.8793623055,478
111813,190940,251267,-0.2727817764,-9.945767136899999,-0.6927221427000001,479
111979,191024,251285,-0.33858439789999994,-9.8045906035,-0.7633104094,480
112177,191031,251374,-0.3182454058,-9.8201439504,-0.8135596839999999,481
112377,191107,251330,-0.31944181709999997,-9.7471628611,-0.6305087550999999,482
112543,191129,251382,-0.19980068709999999,-9.919446088299999,-0.729810893,483
112761,191174,251373,-0.31345976059999997,-9.8093762487,-0.7513462964000001,484
112915,191183,251445,-0.28953153460000003,-9.8069834261,-0.8315058535,485
113105,191226,251507,-0.3505485109,-9.9314102013,-0.6711867393,486
113042,191239,251495,-0.346959277,-9.9756774194,-0.6652046827999999,487
112395,191111,251413,-0.3924229064,-9.839286531199999,-0.7561319416,488
111497,190881,251236,-0.3684946804,-9.9756774194,-0.7944171031999999,489
110932,190702,251125,-0.2775674216,-9.8069834261,-0.6580262149999999,490
110710,190629,251060,-0.18783657410000001,-9.8476614103,-0.8243273857,491
110654,190589,250992,-0.35174492220000003,-9.9134640318,-0.7202396026000001,492
110739,190560,250992,-0.2560320182,-9.8799645154,-0.741775006,493
110783,190570,251030,-0.0945164927,-9.945767136899999,-0.7405785947,494
111059,190600,251007,-0.28953153460000003,-9.906285564,-0.7561319416,495
111142,190606,251019,-0.2979064137,-9.9469635482,-0.7561319416,496
111112,190573,251012,-0.311066938,-9.8333044747,-0.6484549246,497
111119,190560,250987,-0.1495514125,-9.8751788702,-0.7130611348,498
111093,190499,251007,-0.2596212521,-9.8775716928,-0.6999006105000001,499
111185,190538,251043,-0.1459621786,-9.932606612599999,-0.789631458,500
111288,190522,251046,-0.22492532440000002,-9.853643466800001,-0.7345965382,501
111457,190522,251065,-0.28115665549999996,-9.8404829425,-0.8207381518,502
111555,190574,251019,-0.2309073809,-9.7878408453,-0.7322037156,503
111710,190594,251085,-0.2679961312,-9.8416793538,-0.7082754896000001,504
111861,190638,251112,-0.23928226,-9.8512506442,-0.6999006105000001,505
112004,190700,251138,-0.3182454058,-9.9218389109,-0.8063812161999999,506
112148,190694,251155,-0.215354034,-9.8596255233,-0.6687939167,507
112342,190724,251198,-0.28953153460000003,-9.870393225,-0.729810893,508
112460,190759,251207,-0.24646072779999997,-9.8380901199,-0.7142575461,509
112608,190788,251241,-0.1782652837,-9.7842516114,-0.753739119,510
112771,190830,251272,-0.2679961312,-9.8727860476,-0.7106683122,511
112929,190863,251242,-0.2297109696,-9.882357338,-0.71784678,512
113090,190917,251300,-0.24287149389999999,-9.9517491934,-0.801595571,513
113265,190945,251357,-0.1962114532,-9.8010013696,-0.7274180704000001,514
113406,190984,251380,-0.32901310749999996,-9.8895358058,-0.71784678,515
113542,191083,251377,-0.3038884702,-9.812965482600001,-0.7621139981,516
113698,191098,251436,-0.19860427579999998,-9.865607579799999,-0.7070790783,517
113873,191140,251503,-0.23928226,-9.9158568544,-0.7369893608,518
114024,191150,251489,-0.2596212521,-9.8871429832,-0.8159525066,519
114149,191214,251523,-0.2333002035,-9.9086783866,-0.765703232,520
114054,191258,251527,-0.251246373,-9.7734839097,-0.7166503687,521
113232,191066,251447,-0.3684946804,-9.7555377402,-0.7525427077,522
112150,190787,251240,-0.2213360905,-9.918249677,-0.7716852885,523
111419,190564,251037,-0.311066938,-9.858429112,-0.8135596839999999,524
111074,190446,250937,-0.3804587934,-9.9744810081,-0.7812565789,525
110911,190347,250900,-0.2679961312,-9.8500542329,-0.7561319416,526
110803,190321,250886,-0.3732803256,-9.8416793538,-0.6927221427000001,527
110807,190291,250845,-0.24287149389999999,-9.853643466800001,-0.7680960546,528
110937,190259,250858,-0.2919243572,-9.9134640318,-0.8039883936,529
111023,190299,250862,-0.2967100024,-9.8608219346,-0.7226324252,530
111031,190253,250851,-0.3684946804,-9.8297152408,-0.6927221427000001,531
111018,190241,250838,-0.1639083481,-9.9206424996,-0.7226324252,532
111058,190158,250835,-0.3062812928,-9.8751788702,-0.7118647235000001,533
111097,190200,250837,-0.3421736318,-9.8919286284,-0.8051848049,534
111188,190200,250826,-0.3278166962,-9.966106129,-0.789631458,535
111348,190208,250848,-0.1543370577,-9.7926264905,-0.6245266986,536
111495,190251,250901,-0.2069791549,-9.8333044747,-0.7513462964000001,537
111675,190286,250884,-0.23928226,-9.8967142736,-0.7561319416,538
111843,190321,250965,-0.2560320182,-9.8763752815,-0.7010970218,539
112046,190368,250997,-0.227318147,-9.8644111685,-0.6963113766000001,540
112219,190359,251032,-0.3672982691,-9.8021977809,-0.7585247642,541
112421,190446,251044,-0.1328016543,-9.799804958300001,-0.7585247642,542
112577,190493,251109,-0.2644068973,-9.799804958300001,-0.7585247642,543
112735,190554,251130,-0.3266202849,-9.9206424996,-0.7393821834000001,544
112917,190558,251133,-0.2440679052,-9.865607579799999,-0.7034898444000001,545
113102,190599,251168,-0.3421736318,-9.8919286284,-0.6089733517,546
113271,190649,251238,-0.3613162126,-9.937392257800001,-0.6891329087999999,547
113444,190687,251301,-0.2656033086,-9.8512506442,-0.7022934331,548
113598,190685,251274,-0.20338992099999997,-9.675378183100001,-0.7369893608,549
113773,190774,251345,-0.3158525832,-9.9086783866,-0.753739119,550
113936,190822,251422,-0.2081755662,-9.7806623775,-0.7250252478,551
114116,190904,251434,-0.28953153460000003,-9.9038927414,-0.8039883936,552
114264,190902,251452,-0.1902293967,-9.9014999188,-0.7357929495000001,553
114047,190919,251433,-0.2572284295,-9.8632147572,-0.6819544409999999,554
113149,190710,251281,-0.2907279459,-9.8799645154,-0.8434699665000001,555
112171,190434,251121,-0.1220339526,-10.0414800409,-0.777667345,556
111604,190223,250938,-0.2524427843,-9.8045906035,-0.8195417405,557
111350,190116,250852,-0.263210486,-10.0079805245,-0.789631458,558
111260,190118,250895,-0.2787638329,-9.9158568544,-0.7489534738,559
111251,190056,250873,-0.2703889538,-9.888339394499999,-0.8159525066,560
111321,190074,250825,-0.2177468566,-9.844072176400001,-0.8039883936,561
111469,190084,250815,-0.2715853651,-9.8991070962,-0.765703232,562
111571,190019,250849,-0.287138712,-9.8632147572,-0.7369893608,563
111617,190073,250860,-0.1351944769,-9.808179837399999,-0.6711867393,564
111595,190020,250842,-0.2560320182,-9.8261260069,-0.8279166196,565
111661,190072,250845,-0.3553341561,-9.9888379437,-0.6771687957999999,566
111756,190050,250874,-0.3086741154,-9.9828558872,-0.8458627891,567
111930,190068,250922,-0.2859423007,-9.7663054419,-0.7465606512,568
112070,190063,250921,-0.2847458894,-9.8775716928,-0.8087740388,569
112234,190136,250979,-0.370887503,-10.001998468,-0.6819544409999999,570
112415,190173,251000,-0.24646072779999997,-9.7710910871,-0.6520441585,571
112622,190241,251084,-0.1256231865,-9.937392257800001,-0.753739119,572
112822,190276,251126,-0.2081755662,-9.8668039911,-0.705882667,573
113001,190333,251127,-0.3744767369,-9.7351987481,-0.7728816998,574
113204,190375,251154,-0.33260234139999995,-9.8847501606,-0.7106683122,575
113406,190440,251212,-0.3086741154,-9.8476614103,-0.7226324252,576
113561,190509,251256,-0.2560320182,-9.8991070962,-0.7202396026000001,577
113750,190545,251302,-0.2177468566,-9.8751788702,-0.7274180704000001,578
113948,190571,251299,-0.1710868159,-9.8416793538,-0.7393821834000001,579
114046,190618,251373,-0.2500499617,-9.7663054419,-0.7274180704000001,580
114299,190689,251377,-0.2069791549,-9.7232346351,-0.7680960546,581
114476,190766,251482,-0.251246373,-9.8644111685,-0.8745766603,582
114665,190787,251486,-0.3182454058,-9.7686982645,-0.7441678286,583
114862,190878,251531,-0.3038884702,-9.932606612599999,-0.6903293201,584
115033,190877,251558,-0.2799602442,-9.8967142736,-0.6867400861999999,585
115205,190967,251633,-0.2105683888,-9.853643466800001,-0.6448656907,586
115384,191023,251661,-0.4689932296,-9.8201439504,-0.6891329087999999,587
115576,191058,251697,-0.2739781877,-9.9684989516,-0.8087740388,588
115520,191125,251756,-0.2309073809,-9.8165547165,-0.6532405698,589
114985,191031,251635,-0.2608176634,-9.7830552001,-0.7357929495000001,590
114000,190727,251466,-0.35413774480000004,-9.932606612599999,-0.7513462964000001,591
113275,190518,251329,-0.2201396792,-9.7950193131,-0.8003991597,592
112898,190431,251191,-0.1830509289,-9.846464999,-0.765703232,593
112778,190318,251159,-0.4534398827,-10.025926694,-0.7848458128,594
112713,190337,251202,-0.3182454058,-9.8045906035,-0.8386843212999999,595
112764,190325,251144,-0.2344966148,-9.858429112,-0.7429714173,596
112880,190330,251163,-0.3014956476,-9.853643466800001,-0.7369893608,597
112945,190338,251174,-0.2081755662,-9.882357338,-0.7106683122,598
112901,190267,251132,-0.4271188341,-9.8991070962,-0.789631458,599
112793,190288,251136,-0.3182454058,-9.9565348386,-0.71784678,600
112767,190232,251093,-0.1830509289,-9.911071209200001,-0.777667345,601
112771,190208,251068,-0.3158525832,-9.8057870148,-0.7585247642,602
112826,190207,251096,-0.3421736318,-9.9445707256,-0.6963113766000001,603
112945,190219,251116,-0.24885355039999998,-9.7782695549,-0.7489534738,604
113039,190263,251167,-0.2165504453,-9.8057870148,-0.6616154488999999,605
113119,190293,251150,-0.3014956476,-10.0091769358,-0.7465606512,606
113293,190282,251216,-0.3206382284,-9.865607579799999,-0.777667345,607
113446,190329,251215,-0.1950150419,-9.990034354999999,-0.7884350467,608
113559,190384,251254,-0.2117648001,-9.9278209674,-0.7561319416,609
113713,190440,251290,-0.2380858487,-9.7663054419,-0.7226324252,610
113840,190473,251253,-0.16271193679999998,-9.844072176400001,-0.8159525066,611
114007,190503,251356,-0.2165504453,-9.8895358058,-0.7728816998,612
114145,190479,251351,-0.3278166962,-9.7615197967,-0.6317051664,613
114289,190598,251371,-0.16749758199999998,-9.9278209674,-0.8159525066,614
114423,190624,251470,-0.4019941968,-9.8847501606,-0.7692924659,615
114586,190663,251451,-0.28953153460000003,-9.93021379,-0.7477570625,616
114669,190710,251479,-0.2644068973,-9.8309116521,-0.6711867393,617
114258,190651,251448,-0.33260234139999995,-9.7842516114,-0.6412764568,618
113310,190345,251266,-0.35174492220000003,-9.9840522985,-0.7142575461,619
112433,190062,251021,-0.3086741154,-9.8620183459,-0.7429714173,620
111963,189899,250948,-0.2799602442,-9.7351987481,-0.6628118601999999,621
111778,189855,250888,-0.31345976059999997,-9.9852487098,-0.7010970218,622
111665,189806,250896,-0.34576286570000003,-9.7567341515,-0.7226324252,623
111605,189786,250785,-0.33738798659999997,-9.7615197967,-0.7106683122,624
111714,189774,250841,-0.32303105099999996,-9.844072176400001,-0.7393821834000001,625
111831,189810,250878,-0.3062812928,-9.9888379437,-0.7369893608,626
111896,189840,250891,-0.28953153460000003,-9.9074819753,-0.7274180704000001,627
111877,189817,250890,-0.2644068973,-9.865607579799999,-0.6891329087999999,628
111900,189791,250864,-0.3661018578,-9.822536773,-0.7202396026000001,629
111916,189766,250840,-0.36370903520000003,-9.8153583052,-0.6795616184,630
111990,189811,250879,-0.2105683888,-9.799804958300001,-0.8135596839999999,631
112134,189847,250875,-0.2201396792,-9.9278209674,-0.8207381518,632
112286,189885,250923,-0.2823530668,-9.7926264905,-0.6675975054,633
112445,189932,250962,-0.3218346397,-9.8967142736,-0.8207381518,634
112625,189985,251009,-0.2775674216,-9.846464999,-0.7992027483999999,635
112833,190048,251078,-0.32303105099999996,-9.9936235889,-0.6185446421,636
113050,190074,251074,-0.2823530668,-9.9349994352,-0.7369893608,637
113192,190148,251131,-0.2237289131,-9.942177903,-0.7489534738,638
113384,190172,251133,-0.2775674216,-9.93021379,-0.7046862557000001,639
113565,190244,251209,-0.1782652837,-9.8141618939,-0.8159525066,640
113733,190284,251259,-0.1519442351,-9.834500886,-0.7585247642,641
113893,190325,251264,-0.251246373,-9.8428757651,-0.7322037156,642
114057,190388,251327,-0.1842473402,-9.846464999,-0.7848458128,643
114256,190486,251355,-0.2261217357,-9.7603233854,-0.777667345,644
114434,190515,251368,-0.36370903520000003,-9.9385886691,-0.7824529901999999,645
114564,190562,251418,-0.3672982691,-9.7926264905,-0.7082754896000001,646
114332,190535,251399,-0.35174492220000003,-9.808179837399999,-0.765703232,647
113453,190323,251243,-0.3302095188,-9.8428757651,-0.7334001269,648
112511,190029,251025,-0.2524427843,-9.8045906035,-0.6891329087999999,649
111954,189763,250875,-0.3278166962,-9.6622176588,-0.7633104094,650
111712,189753,250846,-0.1351944769,-9.932606612599999,-0.8757730716000001,651
111625,189704,250801,-0.2608176634,-9.741180804599999,-0.7322037156,652
111632,189682,250779,-0.3732803256,-9.8871429832,-0.7034898444000001,653
111770,189648,250818,-0.3014956476,-9.8476614103,-0.8183453291999999,654
111903,189735,250776,-0.394815729,-9.882357338,-0.7381857721,655
112005,189725,250829,-0.12681959780000002,-9.7064848769,-0.6640082715,656
112026,189717,250833,-0.2799602442,-9.9278209674,-0.7872386353999999,657
112013,189765,250845,-0.11844471869999999,-9.8632147572,-0.6999006105000001,658
112051,189701,250834,-0.40558343069999997,-9.8069834261,-0.7214360139,659
112135,189705,250850,-0.1806581063,-9.7112705221,-0.6987041992,660
112270,189771,250841,-0.18185451760000002,-9.9206424996,-0.7429714173,661
112432,189799,250906,-0.35892339,-9.8261260069,-0.6915257314000001,662
112567,189833,250893,-0.3098705267,-9.8033941922,-0.7585247642,663
112800,189898,250896,-0.2213360905,-9.923035322199999,-0.6795616184,664
112995,189962,250980,-0.1363908882,-9.7794659662,-0.6496513358999999,665
113168,190063,251035,-0.36370903520000003,-9.9756774194,-0.7704888772,666
113405,190081,251062,-0.36370903520000003,-9.8368937086,-0.6891329087999999,667
113545,190132,251115,-0.1088734283,-9.9338030239,-0.8147560952999999,668
113742,190176,251147,-0.1806581063,-9.9613204838,-0.6640082715,669
113913,190207,251180,-0.35772697870000003,-9.799804958300001,-0.7513462964000001,670
114063,190271,251234,-0.3014956476,-9.870393225,-0.6735795618999999,671
114279,190352,251236,-0.4139583098,-10.0055877019,-0.693918554,672
114452,190399,251309,-0.19980068709999999,-9.7363951594,-0.6999006105000001,673
114646,190449,251401,-0.33738798659999997,-9.8751788702,-0.7106683122,674
114767,190495,251420,-0.3672982691,-9.911071209200001,-0.8135596839999999,675
114959,190551,251467,-0.2440679052,-9.8680004024,-0.6376872229,676
115149,190621,251471,-0.2907279459,-9.9397850804,-0.8374879099999999,677
115295,190681,251474,-0.1040877831,-9.846464999,-0.7393821834000001,678
115106,190663,251561,-0.20937197749999997,-9.878768104099999,-0.6699903279999999,679
114268,190480,251405,-0.16749758199999998,-9.8967142736,-0.6855436748999999,680
113301,190159,251168,-0.2739781877,-9.7902336679,-0.8673981925,681
112672,189948,251027,-0.2500499617,-9.774680321,-0.6664010940999999,682
112442,189870,250944,-0.3206382284,-9.8775716928,-0.789631458,683
112374,189874,250936,-0.2703889538,-9.844072176400001,-0.7238288365000001,684
112400,189841,250884,-0.40558343069999997,-9.8871429832,-0.7202396026000001,685
112500,189823,250908,-0.33858439789999994,-9.8177511278,-0.6855436748999999,686
112621,189885,250922,-0.4007977855,-9.8751788702,-0.8207381518,687
112738,189893,250943,-0.3182454058,-9.7902336679,-0.7226324252,688
112777,189889,250960,-0.346959277,-9.8608219346,-0.7465606512,689
112758,189878,250987,-0.33499516399999996,-9.9565348386,-0.8482556117000001,690
112795,189845,250944,-0.22492532440000002,-9.8775716928,-0.8111668613999999,691
112846,189848,250941,-0.4139583098,-9.7495556837,-0.753739119,692
112967,189939,250993,-0.3984049629,-9.9397850804,-0.7704888772,693
113114,189936,251023,-0.3206382284,-9.852447055499999,-0.7609175868,694
113289,189992,251044,-0.3493520996,-9.966106129,-0.6711867393,695
113454,190055,251077,-0.1806581063,-9.8512506442,-0.6628118601999999,696
113655,190080,251114,-0.0945164927,-9.7734839097,-0.729810893,697
113843,190153,251162,-0.370887503,-9.7686982645,-0.7944171031999999,698
114041,190230,251221,-0.2656033086,-9.8512506442,-0.7477570625,699
114220,190277,251220,-0.2691925425,-9.894321451,-0.7262216591,700
114407,190331,251324,-0.10169496049999999,-9.8428757651,-0.6807580296999999,701
114595,190366,251310,-0.3278166962,-9.858429112,-0.8697910151,702
114688,190432,251384,-0.2261217357,-9.911071209200001,-0.6771687957999999,703
114925,190484,251387,-0.2177468566,-9.8189475391,-0.7513462964000001,704
115082,190548,251449,-0.1926222193,-9.8799645154,-0.8446663778000001,705
115224,190601,251465,-0.2907279459,-9.857232700700001,-0.7561319416,706
115438,190627,251501,-0.10648060570000001,-9.906285564,-0.6281159325,707
115610,190713,251561,-0.2739781877,-9.9684989516,-0.8470592004,708
115763,190817,251636,-0.2847458894,-9.8476614103,-0.6867400861999999,709
115984,190833,251628,-0.36969109170000003,-9.9696953629,-0.7489534738,710
116113,190878,251697,-0.2656033086,-9.954142016,-0.8350950873999999,711
116241,190932,251762,-0.2213360905,-9.7962157244,-0.705882667,712
115859,190893,251697,-0.1902293967,-9.9003035075,-0.8027919822999999,713
114926,190620,251530,-0.299102825,-9.911071209200001,-0.7752745223999999,714
113985,190375,251288,-0.23928226,-9.9206424996,-0.7310073043,715
113476,190118,251161,-0.3086741154,-9.8608219346,-0.7369893608,716
113232,190132,251087,-0.2656033086,-9.8356972973,-0.7477570625,717
113159,190063,251052,-0.20578274359999998,-9.8249295956,-0.693918554,718
113163,190058,251095,-0.29551359110000003,-9.9529456047,-0.7680960546,719
113238,190084,251079,-0.31345976059999997,-9.8608219346,-0.7345965382,720
113305,190040,251074,-0.2943171798,-9.8715896363,-0.6999006105000001,721
113262,190074,251041,-0.3613162126,-9.9086783866,-0.7920242806,722
113174,190048,251060,-0.1328016543,-9.8333044747,-0.7872386353999999,723
113085,190054,251021,-0.2667997199,-9.8919286284,-0.6664010940999999,724
113078,190002,250955,-0.215354034,-9.869196813699999,-0.7022934331,725
113145,189995,251030,-0.263210486,-9.857232700700001,-0.8685946038000001,726
113221,189945,251036,-0.29551359110000003,-9.9038927414,-0.693918554,727
113330,190055,251056,-0.1926222193,-10.021141048799999,-0.7022934331,728
113491,190060,251075,-0.2344966148,-9.8273224182,-0.6915257314000001,729
113604,190127,251126,-0.3026920589,-10.0055877019,-0.729810893,730
113760,190144,251135,-0.3038884702,-9.9278209674,-0.6843472636,731
113927,190189,251188,-0.16869399329999998,-9.7304131029,-0.7920242806,732
114075,190231,251193,-0.3302095188,-9.7938229018,-0.7130611348,733
114195,190324,251266,-0.32542387359999997,-9.9565348386,-0.6903293201,734
114363,190332,251229,-0.3242274623,-9.9529456047,-0.7621139981,735
114533,190416,251280,-0.3062812928,-9.8045906035,-0.7166503687,736
114672,190425,251339,-0.34456645439999994,-9.8285188295,-0.7800601676,737
114829,190490,251383,-0.4295116567,-9.857232700700001,-0.693918554,738
114984,190497,251409,-0.19980068709999999,-9.8428757651,-0.8327022648,739
115062,190581,251436,-0.31704899449999996,-9.923035322199999,-0.8087740388,740
114659,190516,251396,-0.4043870194,-9.798608546999999,-0.7010970218,741
113687,190244,251217,-0.2943171798,-9.8380901199,-0.7728816998,742
112719,189932,250970,-0.227318147,-9.919446088299999,-0.7226324252,743
112158,189742,250815,-0.2787638329,-9.9038927414,-0.7238288365000001,744
111870,189679,250754,-0.1902293967,-9.882357338,-0.8207381518,745
111735,189626,250751,-0.19860427579999998,-9.8739824589,-0.6867400861999999,746
111706,189590,250713,-0.311066938,-9.942177903,-0.7070790783,747
111759,189557,250765,-0.16630117069999997,-10.0079805245,-0.7920242806,748
111882,189604,250694,-0.2572284295,-9.799804958300001,-0.8207381518,749
111956,189641,250728,-0.2452643165,-9.798608546999999,-0.8051848049,750
111935,189634,250729,-0.2117648001,-9.942177903,-0.6963113766000001,751
111932,189571,250699,-0.2656033086,-9.932606612599999,-0.741775006,752
111902,189588,250673,-0.2177468566,-9.906285564,-0.7968099258,753
111974,189591,250771,-0.31345976059999997,-9.8895358058,-0.7202396026000001,754
112070,189640,250768,-0.2967100024,-9.8356972973,-0.8422735552,755
112211,189644,250757,-0.2009970984,-9.8668039911,-0.7046862557000001,756
112361,189703,250814,-0.2859423007,-9.822536773,-0.7848458128,757
112516,189750,250836,-0.3014956476,-9.9038927414,-0.6855436748999999,758
112701,189799,250871,-0.2967100024,-9.7340023368,-0.6867400861999999,759
112865,189857,250902,-0.287138712,-9.888339394499999,-0.71784678,760
113024,189908,250949,-0.3146561719,-9.865607579799999,-0.7334001269,761
113213,189954,250943,-0.3038884702,-9.9852487098,-0.7310073043,762
113359,190019,251018,-0.2608176634,-9.8847501606,-0.7573283529,763
113491,190063,251018,-0.41515472109999996,-9.918249677,-0.8303094421999999,764
113668,190115,251095,-0.2715853651,-9.857232700700001,-0.6831508522999999,765
113823,190155,251098,-0.3158525832,-9.8835537493,-0.7704888772,766
113983,190193,251151,-0.2309073809,-9.9876415324,-0.7884350467,767
113888,190240,251154,-0.28953153460000003,-9.7136633447,-0.6233302873,768
113160,190068,251051,-0.2727817764,-9.870393225,-0.7154539574000001,769
112060,189724,250821,-0.191425808,-9.8835537493,-0.8183453291999999,770
111257,189478,250553,-0.1471585899,-9.8273224182,-0.741775006,771
110880,189359,250566,-0.2452643165,-9.9014999188,-0.7728816998,772
110715,189288,250533,-0.30747770409999997,-9.9349994352,-0.7357929495000001,773
110665,189245,250472,-0.33499516399999996,-9.8967142736,-0.6089733517,774
110741,189258,250446,-0.25363919560000003,-9.8871429832,-0.7274180704000001,775
110869,189315,250480,-0.32303105099999996,-9.8763752815,-0.8446663778000001,776
110992,189345,250507,-0.3206382284,-9.9589276612,-0.6831508522999999,777
111019,189349,250476,-0.2261217357,-9.9003035075,-0.7668996433,778
111019,189322,250457,-0.21894326790000002,-9.7890372566,-0.7322037156,779
110986,189319,250470,-0.2823530668,-9.853643466800001,-0.753739119,780
111048,189320,250454,-0.3038884702,-9.8715896363,-0.8039883936,781
111148,189360,250553,-0.2823530668,-9.9146604431,-0.8650053699,782
111267,189407,250563,-0.33140593009999997,-9.8775716928,-0.8362914987,783
111410,189467,250604,-0.2931207685,-9.667003304,-0.7369893608,784
111585,189560,250641,-0.251246373,-9.8799645154,-0.7429714173,785
111812,189616,250664,-0.1830509289,-9.8847501606,-0.777667345,786
111994,189672,250711,-0.3720839143,-9.870393225,-0.8063812161999999,787
112150,189696,250743,-0.3182454058,-9.8895358058,-0.8063812161999999,788
112356,189755,250799,-0.2081755662,-9.937392257800001,-0.8398807326,789
112470,189806,250837,-0.21415762270000002,-9.9625168951,-0.729810893,790
112641,189818,250846,-0.2835494781,-9.870393225,-0.6987041992,791
112803,189909,250922,-0.35413774480000004,-9.7926264905,-0.7238288365000001,792
112978,189990,250992,-0.1471585899,-9.8739824589,-0.705882667,793
113168,190004,250968,-0.2823530668,-9.8548398781,-0.7609175868,794
113291,190092,251039,-0.24167508259999998,-9.9673025403,-0.7908278692999999,795
112986,190057,251004,-0.20338992099999997,-9.6957171752,-0.6628118601999999,796
112069,189797,250800,-0.3505485109,-9.8428757651,-0.7609175868,797
111066,189508,250579,-0.2715853651,-9.882357338,-0.6975077879,798
110496,189318,250462,-0.1495514125,-9.9014999188,-0.6664010940999999,799
110258,189224,250449,-0.28953153460000003,-9.9469635482,-0.7214360139,800
110189,189209,250415,-0.2644068973,-9.7974121357,-0.777667345,801
110203,189210,250392,-0.2967100024,-9.8751788702,-0.7824529901999999,802
110327,189252,250410,-0.2727817764,-9.906285564,-0.7393821834000001,803
110448,189257,250467,-0.34576286570000003,-9.8811609267,-0.8063812161999999,804
110487,189288,250455,-0.2081755662,-9.8967142736,-0.7585247642,805
110434,189241,250452,-0.23928226,-9.8488578216,-0.8195417405,806
110394,189235,250419,-0.25363919560000003,-9.799804958300001,-0.7633104094,807
110393,189221,250419,-0.28953153460000003,-9.846464999,-0.6807580296999999,808
110449,189275,250476,-0.2081755662,-9.9026963301,-0.7274180704000001,809
110558,189294,250456,-0.32542387359999997,-9.8321080634,-0.8279166196,810
110671,189325,250527,-0.1088734283,-9.7890372566,-0.7214360139,811
110731,189368,250492,-0.2440679052,-9.8835537493,-0.7142575461,812
110935,189401,250564,-0.28953153460000003,-9.8141618939,-0.729810893,813
111075,189447,250543,-0.28953153460000003,-10.0271231053,-0.7010970218,814
111186,189471,250628,-0.3086741154,-9.8404829425,-0.7561319416,815
111338,189530,250623,-0.095712904,-9.812965482600001,-0.7513462964000001,816
111452,189569,250657,-0.27517459899999996,-9.865607579799999,-0.7118647235000001,817
111582,189605,250688,-0.227318147,-9.8775716928,-0.7992027483999999,818
111729,189655,250762,-0.2608176634,-9.911071209200001,-0.6496513358999999,819
111902,189653,250735,-0.3780659708,-9.9158568544,-0.6472585133,820
112029,189754,250796,-0.346959277,-9.9397850804,-0.7010970218,821
111949,189774,250808,-0.1806581063,-9.8680004024,-0.7728816998,822
111195,189564,250668,-0.2440679052,-9.8632147572,-0.7836494015,823
110233,189235,250419,-0.3302095188,-9.9278209674,-0.7680960546,824
109550,189029,250253,-0.32303105099999996,-9.7914300792,-0.7250252478,825
109267,188940,250241,-0.3302095188,-9.9397850804,-0.6879364975,826
109149,188903,250170,-0.2703889538,-9.7878408453,-0.777667345,827
109131,188846,250165,-0.2021935097,-9.8727860476,-0.6999006105000001,828
109238,188878,250141,-0.346959277,-9.9026963301,-0.777667345,829
109382,188936,250202,-0.2859423007,-9.853643466800001,-0.7980063370999999,830
109499,188980,250207,-0.17587246110000002,-9.93021379,-0.8147560952999999,831
109517,188895,250187,-0.20937197749999997,-9.8380901199,-0.801595571,832
109534,188931,250215,-0.215354034,-9.7770731436,-0.7848458128,833
109564,188957,250208,-0.16630117069999997,-9.9397850804,-0.777667345,834
109680,188987,250272,-0.25363919560000003,-9.821340361699999,-0.7872386353999999,835
109806,189047,250304,-0.2823530668,-9.7878408453,-0.6687939167,836
109962,189076,250327,-0.1782652837,-9.7950193131,-0.7513462964000001,837
110141,189113,250398,-0.2261217357,-9.8680004024,-0.7836494015,838
110302,189179,250402,-0.3038884702,-9.7519485063,-0.6879364975,839
110512,189203,250457,-0.2285145583,-9.8727860476,-0.9224331123,840
110713,189288,250480,-0.0693918554,-9.8715896363,-0.8267202082999999,841
110877,189338,250515,-0.13758729949999998,-9.853643466800001,-0.7094719009,842
111084,189425,250541,-0.3158525832,-9.870393225,-0.7202396026000001,843
111299,189478,250612,-0.28953153460000003,-9.906285564,-0.7286144817,844
111477,189528,250691,-0.2644068973,-9.7770731436,-0.7633104094,845
111619,189609,250733,-0.2859423007,-9.8380901199,-0.7525427077,846
111819,189657,250731,-0.1974078645,-9.808179837399999,-0.7609175868,847
112002,189735,250798,-0.23569302609999998,-9.7603233854,-0.6963113766000001,848
112165,189788,250839,-0.2847458894,-9.8871429832,-0.7633104094,849
112333,189864,250886,-0.394815729,-9.9517491934,-0.6843472636,850
112547,189920,250928,-0.2105683888,-9.9338030239,-0.7154539574000001,851
112586,190024,250938,-0.2703889538,-9.839286531199999,-0.7010970218,852
112031,189851,250888,-0.3732803256,-9.822536773,-0.6544369810999999,853
111100,189516,250672,-0.251246373,-9.9134640318,-0.7274180704000001,854
110234,189270,250463,-0.311066938,-9.8177511278,-0.7130611348,855
109758,189165,250331,-0.23928226,-9.8991070962,-0.6759723845,856
109544,189079,250326,-0.1543370577,-9.8847501606,-0.8231309743999999,857
109433,189022,250258,-0.41156548719999997,-9.7890372566,-0.7752745223999999,858
109410,188961,250223,-0.33858439789999994,-9.8285188295,-0.7645068207,859
109497,188969,250268,-0.3086741154,-9.8596255233,-0.921236701,860
109646,189042,250258,-0.1734796385,-9.865607579799999,-0.7992027483999999,861
109694,189029,250289,-0.32901310749999996,-9.942177903,-0.7812565789,862
109719,188990,250269,-0.2775674216,-9.81057266,-0.6233302873,863
109735,189037,250265,-0.2584248408,-9.8895358058,-0.705882667,864
109822,189042,250288,-0.251246373,-9.8644111685,-0.8446663778000001,865
109913,189029,250325,-0.2656033086,-9.9684989516,-0.7118647235000001,866
110033,189079,250355,-0.25363919560000003,-9.9948200002,-0.7226324252,867
110193,189133,250396,-0.19980068709999999,-9.9397850804,-0.7274180704000001,868
110403,189169,250440,-0.2703889538,-9.821340361699999,-0.6652046827999999,869
110556,189241,250500,-0.31345976059999997,-9.844072176400001,-0.7322037156,870
110720,189273,250501,-0.30747770409999997,-9.8955178623,-0.6927221427000001,871
110951,189346,250558,-0.311066938,-9.7938229018,-0.7154539574000001,872
111085,189448,250618,-0.2847458894,-9.9720881855,-0.7154539574000001,873
111277,189490,250645,-0.2285145583,-9.8548398781,-0.6999006105000001,874
111466,189431,250707,-0.39720855159999996,-9.8512506442,-0.7992027483999999,875
111648,189568,250737,-0.35892339,-9.8991070962,-0.7561319416,876
111811,189647,250861,-0.33140593009999997,-9.888339394499999,-0.7956135145,877
112018,189713,250872,-0.2584248408,-9.976873830699999,-0.6879364975,878
112229,189757,250905,-0.2644068973,-9.882357338,-0.7489534738,879
112413,189855,250929,-0.1854437515,-9.9014999188,-0.6879364975,880
112585,189921,250989,-0.31345976059999997,-9.8680004024,-0.7369893608,881
112801,190026,251021,-0.32901310749999996,-9.7962157244,-0.8195417405,882
113001,190069,251075,-0.3397808092,-9.7603233854,-0.7872386353999999,883
113200,190138,251125,-0.2225325018,-9.8680004024,-0.7609175868,884
113368,190189,251199,-0.2261217357,-9.8727860476,-0.6867400861999999,885
113587,190298,251207,-0.3493520996,-9.844072176400001,-0.6831508522999999,886
113766,190334,251262,-0.215354034,-9.918249677,-0.7668996433,887
113934,190424,251288,-0.19381863059999999,-9.811769071299999,-0.7345965382,888
114113,190463,251327,-0.4043870194,-9.923035322199999,-0.6520441585,889
114268,190529,251402,-0.27517459899999996,-9.8428757651,-0.7465606512,890
114040,190545,251405,-0.2943171798,-9.8775716928,-0.6951149653,891
113203,190319,251234,-0.2572284295,-9.7399843933,-0.8817551281,892
112199,190013,250942,-0.2847458894,-9.909874797899999,-0.8303094421999999,893
111543,189825,250851,-0.251246373,-9.8273224182,-0.6711867393,894
111189,189725,250814,-0.2105683888,-9.8368937086,-0.6819544409999999,895
111017,189629,250726,-0.31345976059999997,-9.8715896363,-0.7082754896000001,896
110967,189620,250739,-0.056231331100000004,-9.964909717700001,-0.7465606512,897
110978,189609,250723,-0.23569302609999998,-9.7830552001,-0.7429714173,898
111082,189661,250687,-0.3242274623,-9.894321451,-0.7752745223999999,899
111132,189616,250729,-0.2907279459,-9.8967142736,-0.6544369810999999,900
111118,189633,250684,-0.24885355039999998,-9.8799645154,-0.7812565789,901
111025,189633,250721,-0.3888336725,-9.8249295956,-0.8219345630999999,902
111039,189599,250740,-0.33499516399999996,-9.9014999188,-0.6795616184,903
111055,189623,250685,-0.3182454058,-9.8751788702,-0.7824529901999999,904
111130,189629,250759,-0.15672988029999999,-9.81057266,-0.8183453291999999,905
111280,189660,250764,-0.4079762533,-9.8895358058,-0.6867400861999999,906
111316,189683,250796,-0.16630117069999997,-9.9074819753,-0.7728816998,907
111532,189751,250840,-0.23928226,-9.8297152408,-0.6951149653,908
111702,189747,250880,-0.34456645439999994,-9.8380901199,-0.8159525066,909
111858,189816,250893,-0.3565305674,-9.8763752815,-0.753739119,910
111973,189855,250958,-0.2572284295,-9.8201439504,-0.7070790783,911
112153,189894,250948,-0.3302095188,-9.8177511278,-0.7680960546,912
112290,189922,250981,-0.2943171798,-9.93021379,-0.6616154488999999,913
112437,190023,250992,-0.2907279459,-9.8488578216,-0.6963113766000001,914
112566,189991,250999,-0.24646072779999997,-9.911071209200001,-0.753739119,915
112692,190039,251064,-0.4390829471,-9.9038927414,-0.705882667,916
112840,190115,251093,-0.2703889538,-9.9086783866,-0.6987041992,917
112944,190092,251122,-0.1782652837,-9.8739824589,-0.741775006,918
113105,190166,251154,-0.33738798659999997,-9.9696953629,-0.6652046827999999,919
113249,190204,251173,-0.1639083481,-9.9756774194,-0.7633104094,920
113209,190306,251184,-0.2823530668,-9.8249295956,-0.7441678286,921
112606,190097,251091,-0.2679961312,-9.7974121357,-0.693918554,922
111617,189795,250881,-0.2572284295,-9.93021379,-0.7453642399,923
110801,189570,250720,-0.215354034,-9.906285564,-0.6927221427000001,924
110373,189449,250628,-0.34456645439999994,-9.9086783866,-0.7202396026000001,925
110221,189380,250580,-0.2979064137,-9.9146604431,-0.6915257314000001,926
110122,189324,250565,-0.24646072779999997,-9.8596255233,-0.7166503687,927
110171,189339,250513,-0.1351944769,-9.839286531199999,-0.7082754896000001,928
110292,189343,250557,-0.32303105099999996,-9.8273224182,-0.7094719009,929
110387,189373,250568,-0.2907279459,-9.8380901199,-0.71784678,930
110421,189417,250577,-0.24885355039999998,-9.8141618939,-0.6915257314000001,931
110412,189356,250529,-0.31345976059999997,-9.8201439504,-0.7728816998,932
110415,189329,250552,-0.2009970984,-9.7938229018,-0.7609175868,933
110503,189349,250643,-0.2285145583,-9.8069834261,-0.6867400861999999,934
110638,189359,250636,-0.2572284295,-9.8847501606,-0.8315058535,935
110789,189415,250625,-0.35413774480000004,-9.8045906035,-0.7920242806,936
111022,189455,250652,-0.1495514125,-9.858429112,-0.6867400861999999,937
111129,189498,250676,-0.346959277,-9.7782695549,-0.6855436748999999,938
111358,189542,250741,-0.2608176634,-9.7806623775,-0.6795616184,939
111553,189598,250750,-0.311066938,-9.9278209674,-0.7477570625,940
111738,189659,250819,-0.2620140747,-9.7830552001,-0.7154539574000001,941
111955,189682,250831,-0.24646072779999997,-9.911071209200001,-0.71784678,942
112121,189744,250878,-0.2847458894,-9.844072176400001,-0.7250252478,943
112305,189827,250869,-0.41754754369999997,-9.8644111685,-0.6089733517,944
112510,189836,250955,-0.2823530668,-9.7902336679,-0.6795616184,945
112715,189894,250912,-0.25363919560000003,-9.9349994352,-0.7692924659,946
112899,189986,251054,-0.2309073809,-9.750752095,-0.7728816998,947
113094,190007,251097,-0.2009970984,-9.8010013696,-0.7585247642,948
113259,190069,251101,-0.18185451760000002,-9.8835537493,-0.7800601676,949
113450,190139,251141,-0.3014956476,-10.0151589923,-0.71784678,950
113603,190191,251181,-0.1950150419,-10.0199446375,-0.8350950873999999,951
113791,190232,251200,-0.2440679052,-9.878768104099999,-0.7824529901999999,952
113522,190221,251207,-0.2967100024,-9.846464999,-0.7238288365000001,953
112641,189978,251027,-0.33858439789999994,-9.8895358058,-0.7824529901999999,954
111600,189649,250765,-0.3146561719,-9.8285188295,-0.6675975054,955
110926,189449,250633,-0.3098705267,-9.8452685877,-0.7513462964000001,956
110632,189331,250542,-0.299102825,-9.9732845968,-0.7166503687,957
110508,189298,250510,-0.2584248408,-9.937392257800001,-0.6903293201,958
110455,189221,250438,-0.23928226,-9.798608546999999,-0.6843472636,959
110533,189224,250463,-0.24167508259999998,-9.93021379,-0.7513462964000001,960
110695,189295,250506,-0.2763710103,-9.9349994352,-0.7393821834000001,961
110818,189250,250507,-0.28953153460000003,-9.7950193131,-0.729810893,962
110842,189182,250559,-0.2799602442,-9.839286531199999,-0.7968099258,963
110867,189217,250493,-0.2344966148,-9.8488578216,-0.6987041992,964
110871,189221,250494,-0.2979064137,-9.8404829425,-0.6711867393,965
110998,189263,250535,-0.3924229064,-9.9014999188,-0.71784678,966
111137,189245,250507,-0.32303105099999996,-9.9278209674,-0.6604190376,967
111300,189306,250524,-0.1890329854,-9.857232700700001,-0.7118647235000001,968
111459,189334,250585,-0.3242274623,-9.9290173787,-0.7250252478,969
111667,189381,250625,-0.28953153460000003,-9.9696953629,-0.6628118601999999,970
111848,189432,250647,-0.3852444386,-9.6969135865,-0.7609175868,971
112048,189498,250670,-0.2883351233,-9.839286531199999,-0.7944171031999999,972
112256,189572,250716,-0.311066938,-9.8476614103,-0.753739119,973
112466,189559,250750,-0.1160518961,-9.8249295956,-0.7788637562999999,974
112669,189663,250812,-0.2177468566,-9.8991070962,-0.7381857721,975
112852,189698,250885,-0.2309073809,-9.923035322199999,-0.801595571,976
113075,189781,250891,-0.2021935097,-9.894321451,-0.7609175868,977
113264,189830,250911,-0.3840480273,-9.853643466800001,-0.7214360139,978
113430,189895,251005,-0.1280160091,-9.909874797899999,-0.7310073043,979
113641,189955,251043,-0.3397808092,-9.8201439504,-0.6867400861999999,980
113832,190011,251074,-0.23569302609999998,-9.785448022699999,-0.8027919822999999,981
114018,190063,251116,-0.287138712,-9.8967142736,-0.8159525066,982
114209,190143,251160,-0.35413774480000004,-9.8751788702,-0.7944171031999999,983
114410,190195,251207,-0.13758729949999998,-9.8727860476,-0.6975077879,984
114394,190223,251231,-0.2117648001,-9.8045906035,-0.6795616184,985
113784,190050,251175,-0.33738798659999997,-9.7208418125,-0.7633104094,986
112737,189776,250937,-0.287138712,-9.8727860476,-0.8003991597,987
111950,189544,250722,-0.16151552549999998,-9.9493563708,-0.7609175868,988
111565,189424,250610,-0.1519442351,-9.8249295956,-0.6891329087999999,989
111423,189302,250591,-0.299102825,-9.8799645154,-0.6640082715,990
111389,189317,250555,-0.25363919560000003,-9.932606612599999,-0.7369893608,991
111433,189295,250534,-0.1471585899,-9.8751788702,-0.8685946038000001,992
111580,189309,250563,-0.23688943739999999,-9.9014999188,-0.6520441585,993
111776,189379,250590,-0.31345976059999997,-9.9086783866,-0.7453642399,994
111744,189353,250561,-0.2608176634,-9.955338427300001,-0.8267202082999999,995
111727,189321,250595,-0.21894326790000002,-9.8871429832,-0.7393821834000001,996
111728,189316,250548,-0.33858439789999994,-9.8297152408,-0.7944171031999999,997
111755,189335,250589,-0.18783657410000001,-9.9086783866,-0.8135596839999999,998
111891,189359,250633,-0.1148554848,-9.844072176400001,-0.6185446421,999
111921,189369,250688,-0.27517459899999996,-9.923035322199999,-0.7274180704000001,1000
112209,189423,250598,-0.2919243572,-9.8632147572,-0.7357929495000001,1001
112350,189462,250706,-0.1136590735,-9.906285564,-0.7393821834000001,1002
112526,189526,250749,-0.1351944769,-9.7842516114,-0.7573283529,1003
112703,189542,250738,-0.19980068709999999,-9.9517491934,-0.7369893608,1004
112818,189577,250771,-0.227318147,-10.0163554036,-0.7609175868,1005
113029,189598,250847,-0.263210486,-10.0079805245,-0.6329015777,1006
113164,189651,250862,-0.2500499617,-9.9517491934,-0.7274180704000001,1007
113289,189700,250877,-0.2548356069,-9.8680004024,-0.7465606512,1008
113445,189718,250935,-0.3852444386,-9.7782695549,-0.7274180704000001,1009
113539,189780,250921,-0.24287149389999999,-9.8763752815,-0.8291130308999999,1010
113648,189807,250965,-0.24646072779999997,-9.8727860476,-0.729810893,1011
113826,189853,250962,-0.3278166962,-9.858429112,-0.7477570625,1012
113946,189912,251026,-0.2225325018,-9.9266245561,-0.6771687957999999,1013
113763,189881,251029,-0.2201396792,-9.7758767323,-0.7274180704000001,1014
112948,189696,250878,-0.28953153460000003,-9.882357338,-0.7106683122,1015
111923,189278,250656,-0.2703889538,-9.853643466800001,-0.7992027483999999,1016
111286,189136,250459,-0.2500499617,-9.8727860476,-0.7369893608,1017
110949,189045,250382,-0.4007977855,-9.8309116521,-0.6783652070999999,1018
110808,189018,250367,-0.16630117069999997,-9.8620183459,-0.5874379483000001,1019
110765,188981,250285,-0.1519442351,-9.8010013696,-0.6017948839,1020
110820,188959,250387,-0.2775674216,-9.9014999188,-0.8697910151,1021
110931,188984,250353,-0.3421736318,-9.8751788702,-0.7585247642,1022
110996,189009,250372,-0.3206382284,-9.774680321,-0.7465606512,1023
110959,188992,250328,-0.35413774480000004,-9.8165547165,-0.7238288365000001,1024
110925,188987,250383,-0.263210486,-9.8380901199,-0.6520441585,1025
110924,188962,250351,-0.2679961312,-9.8931250397,-0.7968099258,1026
111009,188992,250379,-0.3302095188,-9.844072176400001,-0.7250252478,1027
111026,189025,250435,-0.1950150419,-9.8608219346,-0.6711867393,1028
111218,189054,250470,-0.3014956476,-9.8991070962,-0.7585247642,1029
111386,189121,250445,-0.10648060570000001,-9.8404829425,-0.7393821834000001,1030
111534,189168,250500,-0.2524427843,-9.9003035075,-0.6999006105000001,1031
111652,189199,250525,-0.3206382284,-9.7806623775,-0.6975077879,1032
111858,189262,250558,-0.287138712,-9.8428757651,-0.7154539574000001,1033
112006,189314,250602,-0.2440679052,-9.7615197967,-0.7728816998,1034
112150,189280,250663,-0.23928226,-9.8775716928,-0.7106683122,1035
112306,189388,250663,-0.2261217357,-9.919446088299999,-0.7262216591,1036
112452,189483,250704,-0.3302095188,-9.9003035075,-0.7573283529,1037
112616,189541,250759,-0.27517459899999996,-9.942177903,-0.7345965382,1038
112775,189611,250805,-0.263210486,-9.8500542329,-0.71784678,1039
112942,189646,250848,-0.1507478238,-9.8799645154,-0.6915257314000001,1040
113082,189706,250909,-0.3038884702,-9.7962157244,-0.6735795618999999,1041
113229,189805,250966,-0.25363919560000003,-9.8680004024,-0.5922235935,1042
113399,189839,250954,-0.17706887240000002,-9.9014999188,-0.801595571,1043
113574,189903,251026,-0.3062812928,-9.8165547165,-0.6544369810999999,1044
113734,189945,251051,-0.23569302609999998,-9.8416793538,-0.7920242806,1045
113789,189945,251078,-0.1902293967,-9.8165547165,-0.7824529901999999,1046
113459,189942,250990,-0.2333002035,-9.767501853199999,-0.586241537,1047
112458,189674,250805,-0.21415762270000002,-9.8177511278,-0.8231309743999999,1048
111432,189345,250538,-0.3182454058,-9.8919286284,-0.6879364975,1049
110828,189146,250445,-0.2584248408,-9.8404829425,-0.6999006105000001,1050
110528,189100,250364,-0.2440679052,-9.9014999188,-0.7800601676,1051
110361,189014,250305,-0.1782652837,-9.7950193131,-0.7381857721,1052
110275,188977,250272,-0.3684946804,-9.774680321,-0.7154539574000001,1053
110305,188968,250232,-0.2859423007,-9.8045906035,-0.7836494015,1054
110386,188971,250275,-0.1830509289,-9.7926264905,-0.8422735552,1055
110449,188991,250309,-0.2285145583,-9.869196813699999,-0.7728816998,1056
110425,188986,250295,-0.28953153460000003,-9.844072176400001,-0.6472585133,1057
110419,188933,250257,-0.4079762533,-9.8644111685,-0.6616154488999999,1058
110447,188930,250310,-0.3122633493,-9.9792666533,-0.7345965382,1059
110511,188948,250323,-0.24287149389999999,-9.8177511278,-0.7130611348,1060
110627,189004,250297,-0.4749752861,-9.8165547165,-0.7992027483999999,1061
110753,189085,250378,-0.2309073809,-9.9038927414,-0.7633104094,1062
110914,189090,250410,-0.1890329854,-9.8871429832,-0.6747759731999999,1063
111075,189132,250491,-0.263210486,-9.932606612599999,-0.7920242806,1064
111237,189143,250519,-0.1854437515,-9.8452685877,-0.6987041992,1065
111402,189233,250470,-0.3014956476,-9.8237331843,-0.765703232,1066
111601,189277,250576,-0.24646072779999997,-9.8799645154,-0.7477570625,1067
111760,189260,250561,-0.2775674216,-9.9206424996,-0.7130611348,1068
111931,189397,250603,-0.33140593009999997,-9.8428757651,-0.7812565789,1069
112099,189475,250679,-0.287138712,-9.8967142736,-0.8135596839999999,1070
112261,189548,250740,-0.251246373,-9.9038927414,-0.741775006,1071
112431,189612,250787,-0.24287149389999999,-9.8847501606,-0.7944171031999999,1072
112594,189670,250790,-0.3421736318,-9.8333044747,-0.6759723845,1073
112801,189729,250837,-0.2835494781,-9.7734839097,-0.789631458,1074
112957,189766,250928,-0.2679961312,-9.8297152408,-0.7106683122,1075
113147,189857,250961,-0.3421736318,-9.8751788702,-0.8434699665000001,1076
113298,189907,250970,-0.23569302609999998,-9.8404829425,-0.7680960546,1077
113502,189962,251055,-0.143569356,-9.8141618939,-0.6592226263,1078
113652,190014,251074,-0.2775674216,-9.8273224182,-0.7561319416,1079
113801,190104,251088,-0.19980068709999999,-9.906285564,-0.7848458128,1080
113968,190139,251193,-0.35174492220000003,-9.7926264905,-0.7166503687,1081
114133,190230,251193,-0.28953153460000003,-9.9050891527,-0.7441678286,1082
114304,190287,251216,-0.3026920589,-9.9948200002,-0.7274180704000001,1083
114347,190350,251261,-0.299102825,-9.7794659662,-0.6305087550999999,1084
113877,190246,251198,-0.382851616,-9.8189475391,-0.7561319416,1085
112930,189940,250952,-0.2763710103,-9.799804958300001,-0.8518448456000001,1086
112077,189618,250747,-0.2177468566,-9.786644434,-0.693918554,1087
111627,189506,250651,-0.311066938,-9.7806623775,-0.7680960546,1088
111394,189404,250568,-0.2919243572,-9.8715896363,-0.7501498851,1089
111299,189350,250547,-0.3062812928,-9.7651090306,-0.7441678286,1090
111243,189323,250510,-0.3062812928,-9.7651090306,-0.7441678286,1091
111308,189346,250532,-0.3062812928,-9.7651090306,-0.7441678286,1092
111424,189343,250557,-0.3062812928,-9.7651090306,-0.7441678286,1093
111453,189363,250543,-0.3062812928,-9.7651090306,-0.7441678286,1094
111419,189363,250550,-0.3062812928,-9.7651090306,-0.7441678286,1095
111414,189325,250564,-0.3062812928,-9.7651090306,-0.7441678286,1096
111438,189334,250571,-0.3062812928,-9.7651090306,-0.7441678286,1097
111523,189345,250551,-0.3062812928,-9.7651090306,-0.7441678286,1098
111627,189364,250573,-0.3062812928,-9.7651090306,-0.7441678286,1099
111779,189398,250612,-0.3062812928,-9.7651090306,-0.7441678286,1100
111920,189464,250653,-0.3062812928,-9.7651090306,-0.7441678286,1101
112097,189509,250688,-0.3062812928,-9.7651090306,-0.7441678286,1102
112259,189549,250738,-0.3062812928,-9.7651090306,-0.7441678286,1103
112418,189609,250743,-0.3062812928,-9.7651090306,-0.7441678286,1104
112599,189664,250804,-0.3038884702,-9.865607579799999,-0.7668996433,1105
112755,189701,250851,-0.3038884702,-9.865607579799999,-0.7668996433,1106
112937,189762,250924,-0.3038884702,-9.865607579799999,-0.7668996433,1107
113100,189811,250942,-0.3038884702,-9.865607579799999,-0.7668996433,1108
113274,189878,250941,-0.3038884702,-9.865607579799999,-0.7668996433,1109
113450,189958,251005,-0.3038884702,-9.865607579799999,-0.7668996433,1110
113610,189994,251039,-0.3038884702,-9.865607579799999,-0.7668996433,1111
113789,190042,251103,-0.3038884702,-9.865607579799999,-0.7668996433,1112
113953,190147,251122,-0.3038884702,-9.865607579799999,-0.7668996433,1113
114120,190210,251203,-0.3038884702,-9.865607579799999,-0.7668996433,1114
114265,190244,251210,-0.3038884702,-9.865607579799999,-0.7668996433,1115
114424,190343,251260,-0.3038884702,-9.865607579799999,-0.7668996433,1116
114214,190288,251257,-0.3038884702,-9.865607579799999,-0.7668996433,1117
113460,190040,251077,-0.3206382284,-9.844072176400001,-0.7968099258,1118
112588,189761,250846,-0.3206382284,-9.844072176400001,-0.7968099258,1119
112029,189613,250719,-0.3206382284,-9.844072176400001,-0.7968099258,1120
111715,189483,250637,-0.21296121140000002,-9.8057870148,-0.8470592004,1121
111558,189459,250616,-0.3002992363,-9.7782695549,-0.6903293201,1122
111510,189422,250554,-0.28115665549999996,-9.7124669334,-0.7992027483999999,1123
111618,189435,250635,-0.2105683888,-9.786644434,-0.8039883936,1124
111651,189456,250581,-0.33499516399999996,-9.808179837399999,-0.8063812161999999,1125
111627,189416,250585,-0.2859423007,-9.865607579799999,-0.6735795618999999,1126
111558,189349,250585,-0.287138712,-9.8333044747,-0.8315058535,1127
111473,189362,250536,-0.2799602442,-9.93021379,-0.7609175868,1128
111490,189387,250520,-0.2344966148,-9.906285564,-0.7513462964000001,1129
111531,189439,250598,-0.1866401628,-9.9936235889,-0.8458627891,1130
111609,189420,250597,-0.1423729447,-10.0079805245,-0.7824529901999999,1131
111703,189446,250654,-0.22492532440000002,-9.8608219346,-0.6352944003,1132
111823,189495,250639,-0.2213360905,-9.8297152408,-0.7908278692999999,1133
111967,189546,250664,-0.2105683888,-9.8596255233,-0.7824529901999999,1134
112112,189580,250743,-0.24885355039999998,-9.8189475391,-0.6915257314000001,1135
112241,189599,250725,-0.08374879099999999,-9.8859465719,-0.6807580296999999,1136
112387,189646,250787,-0.36011980130000004,-9.8045906035,-0.8303094421999999,1137
112561,189741,250808,-0.4007977855,-9.9984092341,-0.7130611348,1138
112703,189744,250855,-0.1974078645,-9.869196813699999,-0.7070790783,1139
112800,189819,250886,-0.370887503,-9.8596255233,-0.7010970218,1140
112512,189765,250836,-0.31704899449999996,-9.7794659662,-0.6675975054,1141
111706,189499,250661,-0.2333002035,-9.7770731436,-0.7034898444000001,1142
110865,189252,250424,-0.3924229064,-9.9122676205,-0.7214360139,1143
110350,189064,250362,-0.2883351233,-9.8680004024,-0.7441678286,1144
110118,189024,250258,-0.311066938,-9.9984092341,-0.8291130308999999,1145
110025,188915,250207,-0.16630117069999997,-9.8368937086,-0.7609175868,1146
109968,188901,250236,-0.33499516399999996,-9.7950193131,-0.6963113766000001,1147
110068,188956,250245,-0.41276189849999995,-9.9074819753,-0.6807580296999999,1148
110214,188954,250268,-0.1148554848,-9.853643466800001,-0.7561319416,1149
110312,189024,250300,-0.3960121403,-9.8811609267,-0.6915257314000001,1150
110282,189010,250268,-0.2321037922,-9.6861458848,-0.7322037156,1151
110313,189021,250279,-0.39122649509999996,-9.9673025403,-0.8039883936,1152
110357,189040,250295,-0.18185451760000002,-9.9397850804,-0.7334001269,1153
110445,189053,250342,-0.31345976059999997,-9.844072176400001,-0.7369893608,1154
110599,189104,250366,-0.2572284295,-9.8991070962,-0.7393821834000001,1155
110749,189142,250424,-0.34456645439999994,-9.799804958300001,-0.7824529901999999,1156
110930,189189,250384,-0.2703889538,-9.844072176400001,-0.801595571,1157
111129,189251,250470,-0.39720855159999996,-9.808179837399999,-0.7274180704000001,1158
111304,189348,250547,-0.1483550012,-9.846464999,-0.7226324252,1159
111505,189386,250564,-0.24646072779999997,-9.8177511278,-0.7082754896000001,1160
111671,189417,250643,-0.17587246110000002,-9.894321451,-0.7513462964000001,1161
111860,189487,250656,-0.3014956476,-9.7663054419,-0.6963113766000001,1162
112031,189551,250686,-0.1926222193,-9.8560362894,-0.7513462964000001,1163
112226,189602,250768,-0.25363919560000003,-9.7914300792,-0.6963113766000001,1164
112399,189688,250812,-0.3014956476,-9.932606612599999,-0.7369893608,1165
112573,189719,250848,-0.263210486,-9.8548398781,-0.7956135145,1166
112747,189827,250876,-0.2847458894,-9.865607579799999,-0.693918554,1167
112941,189903,250940,-0.3744767369,-9.8476614103,-0.7393821834000001,1168
113093,189969,250947,-0.1734796385,-9.9206424996,-0.8063812161999999,1169
113256,189998,250990,-0.3014956476,-9.932606612599999,-0.7082754896000001,1170
113440,190077,251074,-0.2344966148,-9.7974121357,-0.8159525066,1171
113624,190128,251064,-0.2608176634,-9.8368937086,-0.6520441585,1172
113784,190239,251125,-0.32303105099999996,-9.9026963301,-0.8255237969999999,1173
113959,190275,251159,-0.2859423007,-9.7196454012,-0.8350950873999999,1174
114134,190337,251190,-0.3421736318,-9.9517491934,-0.8590233134,1175
114286,190308,251209,-0.2524427843,-9.9086783866,-0.7106683122,1176
114227,190439,251280,-0.27517459899999996,-9.7722874984,-0.6747759731999999,1177
113492,190271,251146,-0.3816552047,-9.936195846499999,-0.7633104094,1178
112401,189958,250868,-0.2847458894,-10.0199446375,-0.7393821834000001,1179
111572,189670,250705,-0.2117648001,-9.8871429832,-0.7322037156,1180
111172,189549,250589,-0.2967100024,-9.7663054419,-0.6664010940999999,1181
110958,189508,250575,-0.21415762270000002,-10.0295159279,-0.6999006105000001,1182
110814,189481,250537,-0.4103690759,-9.9050891527,-0.7944171031999999,1183
110801,189418,250475,-0.24047867129999997,-9.8596255233,-0.729810893,1184
110897,189441,250494,-0.19980068709999999,-9.9756774194,-0.8003991597,1185
110957,189476,250561,-0.2297109696,-9.786644434,-0.7704888772,1186
110949,189479,250563,-0.1782652837,-9.858429112,-0.801595571,1187
110937,189465,250525,-0.2440679052,-9.7950193131,-0.7549355303,1188
110951,189437,250552,-0.30747770409999997,-9.8680004024,-0.7573283529,1189
110996,189437,250556,-0.23928226,-9.9254281448,-0.777667345,1190
111126,189486,250578,-0.24047867129999997,-9.808179837399999,-0.6879364975,1191
111237,189531,250593,-0.2967100024,-9.8237331843,-0.7405785947,1192
111390,189544,250696,-0.3804587934,-9.8512506442,-0.7489534738,1193
111560,189640,250721,-0.2943171798,-9.844072176400001,-0.6807580296999999,1194
111730,189705,250738,-0.1543370577,-9.822536773,-0.8327022648,1195
111921,189735,250794,-0.2309073809,-9.8452685877,-0.849452023,1196
112099,189791,250808,-0.1950150419,-9.853643466800001,-0.7621139981,1197
112295,189852,250859,-0.2261217357,-9.9349994352,-0.6065805291,1198
112499,189948,250962,-0.3158525832,-9.8153583052,-0.8087740388,1199
112638,189960,250979,-0.24646072779999997,-9.8871429832,-0.7633104094,1200
112825,190037,251003,-0.24646072779999997,-9.882357338,-0.6472585133,1201
113000,190105,251068,-0.4366901245,-9.7974121357,-0.6951149653,1202
113162,190164,251103,-0.28953153460000003,-9.7423772159,-0.7345965382,1203
113368,190220,251152,-0.2165504453,-10.0103733471,-0.7130611348,1204
113518,190283,251194,-0.251246373,-10.0031948793,-0.7621139981,1205
113682,190358,251216,-0.2823530668,-9.8368937086,-0.7274180704000001,1206
113874,190416,251275,-0.25363919560000003,-9.9517491934,-0.7944171031999999,1207
114006,190468,251346,-0.34815568830000004,-9.822536773,-0.7082754896000001,1208
114216,190609,251336,-0.16271193679999998,-9.81057266,-0.8087740388,1209
114325,190621,251396,-0.2321037922,-9.9613204838,-0.6735795618999999,1210
114075,190592,251378,-0.2117648001,-9.7914300792,-0.6604190376,1211
113224,190376,251214,-0.2739781877,-9.9840522985,-0.7262216591,1212
112384,190086,251007,-0.2847458894,-9.7483592724,-0.6532405698,1213
111823,189968,250853,-0.40319060809999996,-9.853643466800001,-0.7824529901999999,1214
111593,189911,250808,-0.3002992363,-9.8560362894,-0.8087740388,1215
111486,189828,250825,-0.33140593009999997,-9.7914300792,-0.753739119,1216
111450,189836,250808,-0.2620140747,-9.8715896363,-0.729810893,1217
111518,189871,250756,-0.2847458894,-9.7686982645,-0.7453642399,1218
111616,189860,250811,-0.3086741154,-9.8799645154,-0.8123632727,1219
111626,189848,250825,-0.2763710103,-9.9134640318,-0.8662017812,1220
111566,189825,250815,-0.2285145583,-9.8715896363,-0.7166503687,1221
111510,189819,250815,-0.33738798659999997,-9.888339394499999,-0.7357929495000001,1222
111495,189796,250768,-0.33738798659999997,-9.888339394499999,-0.7357929495000001,1223
111520,189814,250812,-0.33738798659999997,-9.888339394499999,-0.7357929495000001,1224
111579,189802,250802,-0.33738798659999997,-9.888339394499999,-0.7357929495000001,1225
111694,189852,250818,-0.33738798659999997,-9.888339394499999,-0.7357929495000001,1226
111807,189867,250830,-0.33738798659999997,-9.888339394499999,-0.7357929495000001,1227
111935,189895,250858,-0.33738798659999997,-9.888339394499999,-0.7357929495000001,1228
112061,189942,250941,-0.287138712,-9.8991070962,-0.7728816998,1229
112198,189989,250931,-0.287138712,-9.8991070962,-0.7728816998,1230
112342,190004,250948,-0.2584248408,-9.9481599595,-0.8039883936,1231
112497,190041,251004,-0.4019941968,-9.936195846499999,-0.6747759731999999,1232
112656,190078,250983,-0.3361915753,-9.8273224182,-0.7322037156,1233
112694,190131,251037,-0.3361915753,-9.8273224182,-0.7322037156,1234
112342,190060,251003,-0.3361915753,-9.8273224182,-0.7322037156,1235
111527,189837,250784,-0.3361915753,-9.8273224182,-0.7322037156,1236
110845,189550,250650,-0.3062812928,-9.966106129,-0.6616154488999999,1237
110451,189438,250523,-0.1591227029,-9.8644111685,-0.7046862557000001,1238
110275,189387,250507,-0.3014956476,-9.8404829425,-0.6687939167,1239
110178,189366,250454,-0.2177468566,-9.932606612599999,-0.6807580296999999,1240
110223,189353,250458,-0.41276189849999995,-9.774680321,-0.7250252478,1241
110373,189333,250472,-0.191425808,-9.8632147572,-0.8111668613999999,1242
110511,189361,250486,-0.35892339,-9.9876415324,-0.6616154488999999,1243
110598,189413,250514,-0.3206382284,-9.870393225,-0.7908278692999999,1244
110619,189338,250519,-0.3206382284,-9.870393225,-0.7908278692999999,1245
110661,189391,250484,-0.3206382284,-9.870393225,-0.7908278692999999,1246
110740,189411,250516,-0.3206382284,-9.870393225,-0.7908278692999999,1247
110851,189444,250578,-0.3206382284,-9.870393225,-0.7908278692999999,1248
110992,189460,250563,-0.3206382284,-9.870393225,-0.7908278692999999,1249
111135,189551,250584,-0.2644068973,-9.937392257800001,-0.7633104094,1250
111325,189591,250675,-0.28953153460000003,-9.8285188295,-0.7322037156,1251
111520,189646,250687,-0.2967100024,-9.81057266,-0.7561319416,1252
111699,189690,250742,-0.4199403663,-9.7591269741,-0.7609175868,1253
111887,189759,250778,-0.3302095188,-9.8560362894,-0.6927221427000001,1254
112092,189825,250785,-0.2500499617,-9.9397850804,-0.71784678,1255
112269,189863,250873,-0.24167508259999998,-9.7902336679,-0.7214360139,1256
112459,189902,250892,-0.3684946804,-9.7950193131,-0.7034898444000001,1257
112632,189990,250922,-0.2321037922,-9.8476614103,-0.7226324252,1258
112818,190045,251006,-0.3421736318,-9.954142016,-0.7106683122,1259
113009,190097,251008,-0.287138712,-9.8548398781,-0.8518448456000001,1260
113195,190154,251066,-0.3266202849,-9.858429112,-0.7022934331,1261
113369,190228,251072,-0.2907279459,-9.8871429832,-0.7190431913,1262
113575,190317,251172,-0.2775674216,-9.7782695549,-0.777667345,1263
113735,190338,251137,-0.370887503,-9.932606612599999,-0.6831508522999999,1264
113914,190399,251227,-0.2285145583,-9.8512506442,-0.8327022648,1265
114090,190494,251255,-0.43190447930000003,-9.7519485063,-0.6496513358999999,1266
114169,190570,251266,-0.2380858487,-9.8919286284,-0.693918554,1267
114433,190630,251347,-0.1543370577,-9.8141618939,-0.7034898444000001,1268
114588,190670,251350,-0.2596212521,-10.0450692748,-0.8171489179,1269
114766,190747,251377,-0.20338992099999997,-9.8871429832,-0.6915257314000001,1270
114675,190744,251437,-0.2656033086,-9.839286531199999,-0.6173482308,1271
114037,190603,251276,-0.28115665549999996,-9.942177903,-0.7704888772,1272
113086,190241,251022,-0.25363919560000003,-9.8045906035,-0.7920242806,1273
112411,190033,250865,-0.311066938,-9.8967142736,-0.705882667,1274
112031,189884,250815,-0.2321037922,-9.894321451,-0.7764709337,1275
111806,189813,250764,-0.28115665549999996,-9.8285188295,-0.6556333924,1276
111689,189798,250650,-0.1926222193,-9.799804958300001,-0.7226324252,1277
111642,189730,250623,-0.1854437515,-9.9445707256,-0.8578269021,1278
111716,189744,250656,-0.35772697870000003,-9.811769071299999,-0.6807580296999999,1279
111735,189740,250674,-0.2081755662,-9.8596255233,-0.7680960546,1280
111740,189721,250674,-0.2548356069,-9.8033941922,-0.6664010940999999,1281
111718,189676,250650,-0.2321037922,-10.0366943957,-0.7369893608,1282
111681,189563,250639,-0.1591227029,-9.942177903,-0.777667345,1283
111744,189687,250644,-0.2727817764,-9.8799645154,-0.753739119,1284
111804,189689,250648,-0.1950150419,-9.8261260069,-0.7154539574000001,1285
111909,189632,250709,-0.30747770409999997,-9.8919286284,-0.729810893,1286
112064,189710,250789,-0.32303105099999996,-9.8452685877,-0.7441678286,1287
112164,189806,250769,-0.23688943739999999,-9.8680004024,-0.5754738353000001,1288
112332,189816,250856,-0.2105683888,-9.8476614103,-0.7345965382,1289
112493,189896,250845,-0.24167508259999998,-9.9026963301,-0.6795616184,1290
112670,189923,250844,-0.2883351233,-9.7950193131,-0.7956135145,1291
112837,189997,250905,-0.18783657410000001,-9.9086783866,-0.7286144817,1292
112979,190028,250931,-0.3158525832,-9.9038927414,-0.765703232,1293
113159,190076,251040,-0.2967100024,-9.8380901199,-0.8255237969999999,1294
113335,190143,251013,-0.24646072779999997,-9.894321451,-0.7369893608,1295
113507,190194,251044,-0.3158525832,-9.7974121357,-0.8303094421999999,1296
113636,190210,251125,-0.2548356069,-9.812965482600001,-0.6999006105000001,1297
113821,190305,251136,-0.3302095188,-9.936195846499999,-0.6819544409999999,1298
113998,190409,251204,-0.3062812928,-9.8632147572,-0.7728816998,1299
114171,190437,251221,-0.24167508259999998,-9.9086783866,-0.7345965382,1300
114345,190486,251297,-0.31944181709999997,-9.8608219346,-0.6472585133,1301
114512,190527,251333,-0.1543370577,-10.013962581,-0.7286144817,1302
114682,190619,251352,-0.454636294,-9.8680004024,-0.8793623055,1303
114865,190705,251395,-0.17706887240000002,-9.9433743143,-0.8039883936,1304
114910,190726,251415,-0.2703889538,-9.811769071299999,-0.6987041992,1305
114679,190689,251428,-0.3278166962,-9.8273224182,-0.7968099258,1306
113890,190435,251203,-0.2823530668,-9.9565348386,-0.8111668613999999,1307
113077,190189,251028,-0.251246373,-9.8165547165,-0.7046862557000001,1308
112558,189983,250967,-0.346959277,-9.888339394499999,-0.7345965382,1309
112304,189930,250828,-0.06340979890000001,-9.8476614103,-0.8171489179,1310
112131,189865,250790,-0.287138712,-9.9158568544,-0.7848458128,1311
112109,189827,250731,-0.2679961312,-9.9338030239,-0.7549355303,1312
112113,189864,250800,-0.3493520996,-9.8476614103,-0.7106683122,1313
112214,189880,250805,-0.19860427579999998,-9.945767136899999,-0.7202396026000001,1314
112226,189858,250774,-0.20578274359999998,-9.7830552001,-0.7381857721,1315
112195,189833,250828,-0.36011980130000004,-9.8548398781,-0.6592226263,1316
112142,189814,250725,-0.2931207685,-9.8560362894,-0.7944171031999999,1317
112126,189827,250804,-0.2500499617,-9.978070242000001,-0.7680960546,1318
112195,189829,250747,-0.263210486,-9.7375915707,-0.7082754896000001,1319
112241,189807,250831,-0.21894326790000002,-9.8835537493,-0.7704888772,1320
112397,189838,250829,-0.287138712,-9.9684989516,-0.777667345,1321
112496,189920,250849,-0.287138712,-9.9684989516,-0.777667345,1322
112645,189934,250933,-0.287138712,-9.9684989516,-0.777667345,1323
112806,189984,250956,-0.287138712,-9.9684989516,-0.777667345,1324
112964,190006,250961,-0.287138712,-9.9684989516,-0.777667345,1325
113080,190045,250982,-0.287138712,-9.9684989516,-0.777667345,1326
113211,190054,251010,-0.31345976059999997,-9.9003035075,-0.7250252478,1327
113264,190098,251047,-0.30747770409999997,-9.8680004024,-0.7202396026000001,1328
113499,190140,251059,-0.1926222193,-9.8955178623,-0.7633104094,1329
113395,190123,251073,-0.3565305674,-9.7890372566,-0.7465606512,1330
112768,189950,250946,-0.28115665549999996,-9.822536773,-0.7357929495000001,1331
111907,189616,250676,-0.1974078645,-9.9134640318,-0.7980063370999999,1332
111307,189401,250571,-0.1974078645,-9.9134640318,-0.7980063370999999,1333
111016,189326,250488,-0.1974078645,-9.9134640318,-0.7980063370999999,1334
110934,189273,250459,-0.1974078645,-9.9134640318,-0.7980063370999999,1335
110889,189237,250439,-0.1974078645,-9.9134640318,-0.7980063370999999,1336
110995,189277,250440,-0.1974078645,-9.9134640318,-0.7980063370999999,1337
111154,189312,250480,-0.1974078645,-9.9134640318,-0.7980063370999999,1338
111232,189352,250505,-0.1974078645,-9.9134640318,-0.7980063370999999,1339
111259,189311,250511,-0.1974078645,-9.9134640318,-0.7980063370999999,1340
111276,189280,250469,-0.1974078645,-9.9134640318,-0.7980063370999999,1341
111305,189318,250510,-0.1974078645,-9.9134640318,-0.7980063370999999,1342
111431,189352,250563,-0.1974078645,-9.9134640318,-0.7980063370999999,1343
111567,189382,250522,-0.1974078645,-9.9134640318,-0.7980063370999999,1344
111714,189447,250637,-0.1974078645,-9.9134640318,-0.7980063370999999,1345
111893,189487,250654,-0.1974078645,-9.9134640318,-0.7980063370999999,1346
112087,189495,250684,-0.1974078645,-9.9134640318,-0.7980063370999999,1347
112295,189603,250702,-0.1974078645,-9.9134640318,-0.7980063370999999,1348
112502,189653,250731,-0.1974078645,-9.9134640318,-0.7980063370999999,1349
112707,189685,250758,-0.1974078645,-9.9134640318,-0.7980063370999999,1350
112911,189749,250812,-0.1974078645,-9.9134640318,-0.7980063370999999,1351
113076,189819,250872,-0.1974078645,-9.9134640318,-0.7980063370999999,1352
113294,189870,250889,-0.1974078645,-9.9134640318,-0.7980063370999999,1353
113485,189917,250976,-0.1974078645,-9.9134640318,-0.7980063370999999,1354
113681,189964,251000,-0.1974078645,-9.9134640318,-0.7980063370999999,1355
113871,190028,251049,-0.1974078645,-9.9134640318,-0.7980063370999999,1356
114056,190114,251069,-0.1974078645,-9.9134640318,-0.7980063370999999,1357
114250,190159,251117,-0.1974078645,-9.9134640318,-0.7980063370999999,1358
114438,190253,251189,-0.1974078645,-9.9134640318,-0.7980063370999999,1359
114618,190285,251228,-0.1974078645,-9.9134640318,-0.7980063370999999,1360
114828,190366,251258,-0.251246373,-9.9014999188,-0.6951149653,1361
114987,190419,251280,-0.251246373,-9.9014999188,-0.6951149653,1362
115177,190488,251339,-0.251246373,-9.9014999188,-0.6951149653,1363
115346,190562,251390,-0.251246373,-9.9014999188,-0.6951149653,1364
115237,190541,251382,-0.251246373,-9.9014999188,-0.6951149653,1365
114447,190331,251236,-0.251246373,-9.9014999188,-0.6951149653,1366
113434,189967,250942,-0.251246373,-9.9014999188,-0.6951149653,1367
112706,189754,250778,-0.251246373,-9.9014999188,-0.6951149653,1368
112328,189664,250666,-0.251246373,-9.9014999188,-0.6951149653,1369
112157,189564,250673,-0.251246373,-9.9014999188,-0.6951149653,1370
112057,189506,250587,-0.251246373,-9.9014999188,-0.6951149653,1371
112072,189470,250549,-0.251246373,-9.9014999188,-0.6951149653,1372
112164,189494,250584,-0.251246373,-9.9014999188,-0.6951149653,1373
112254,189544,250606,-0.251246373,-9.9014999188,-0.6951149653,1374
112271,189517,250570,-0.251246373,-9.9014999188,-0.6951149653,1375
112281,189483,250539,-0.251246373,-9.9014999188,-0.6951149653,1376
112275,189434,250605,-0.251246373,-9.9014999188,-0.6951149653,1377
112329,189451,250597,-0.251246373,-9.9014999188,-0.6951149653,1378
112410,189483,250604,-0.251246373,-9.9014999188,-0.6951149653,1379
112561,189524,250663,-0.251246373,-9.9014999188,-0.6951149653,1380
112708,189560,250676,-0.251246373,-9.9014999188,-0.6951149653,1381
112848,189574,250740,-0.251246373,-9.9014999188,-0.6951149653,1382
113039,189647,250762,-0.251246373,-9.9014999188,-0.6951149653,1383
113219,189740,250793,-0.251246373,-9.9014999188,-0.6951149653,1384
113402,189746,250841,-0.251246373,-9.9014999188,-0.6951149653,1385
113575,189815,250858,-0.251246373,-9.9014999188,-0.6951149653,1386
113761,189856,250902,-0.251246373,-9.9014999188,-0.6951149653,1387
113955,189907,250959,-0.251246373,-9.9014999188,-0.6951149653,1388
114076,189939,250960,-0.251246373,-9.9014999188,-0.6951149653,1389
114290,190014,251036,-0.251246373,-9.9014999188,-0.6951149653,1390
114445,190079,251070,-0.251246373,-9.9014999188,-0.6951149653,1391
114639,190136,251127,-0.251246373,-9.9014999188,-0.6951149653,1392
114808,190200,251193,-0.251246373,-9.9014999188,-0.6951149653,1393
114971,190258,251218,-0.251246373,-9.9014999188,-0.6951149653,1394
115144,190330,251216,-0.251246373,-9.9014999188,-0.6951149653,1395
115334,190389,251250,-0.37567314820000003,-9.8153583052,-0.7393821834000001,1396
115521,190436,251373,-0.37567314820000003,-9.8153583052,-0.7393821834000001,1397
115621,190512,251363,-0.37567314820000003,-9.8153583052,-0.7393821834000001,1398
115357,190498,251338,-0.37567314820000003,-9.8153583052,-0.7393821834000001,1399
114484,190214,251136,-0.37567314820000003,-9.8153583052,-0.7393821834000001,1400
113595,189924,250900,-0.37567314820000003,-9.8153583052,-0.7393821834000001,1401
112978,189769,250857,-0.37567314820000003,-9.8153583052,-0.7393821834000001,1402
112695,189667,250736,-0.37567314820000003,-9.8153583052,-0.7393821834000001,1403
112552,189600,250718,-0.37567314820000003,-9.8153583052,-0.7393821834000001,1404
112473,189613,250686,-0.37567314820000003,-9.8153583052,-0.7393821834000001,1405
112520,189602,250673,-0.37567314820000003,-9.8153583052,-0.7393821834000001,1406
112620,189632,250705,-0.37567314820000003,-9.8153583052,-0.7393821834000001,1407
112669,189641,250757,-0.37567314820000003,-9.8153583052,-0.7393821834000001,1408
112647,189603,250704,-0.37567314820000003,-9.8153583052,-0.7393821834000001,1409
112594,189569,250683,-0.37567314820000003,-9.8153583052,-0.7393821834000001,1410
112593,189582,250716,-0.37567314820000003,-9.8153583052,-0.7393821834000001,1411
112611,189600,250712,-0.37567314820000003,-9.8153583052,-0.7393821834000001,1412
112691,189626,250682,-0.37567314820000003,-9.8153583052,-0.7393821834000001,1413
112784,189647,250744,-0.37567314820000003,-9.8153583052,-0.7393821834000001,1414
112908,189727,250800,-0.37567314820000003,-9.8153583052,-0.7393821834000001,1415
113036,189763,250855,-0.37567314820000003,-9.8153583052,-0.7393821834000001,1416
113212,189822,250871,-0.2608176634,-9.8141618939,-0.6879364975,1417
113337,189857,250905,-0.2608176634,-9.8141618939,-0.6879364975,1418
113508,189891,250920,-0.2608176634,-9.8141618939,-0.6879364975,1419
113690,189970,250993,-0.2608176634,-9.8141618939,-0.6879364975,1420
113819,190002,250974,-0.2608176634,-9.8141618939,-0.6879364975,1421
113981,190072,251029,-0.2608176634,-9.8141618939,-0.6879364975,1422
114123,190113,251058,-0.2608176634,-9.8141618939,-0.6879364975,1423
114266,190170,251088,-0.2608176634,-9.8141618939,-0.6879364975,1424
114414,190185,251160,-0.2608176634,-9.8141618939,-0.6879364975,1425
114569,190262,251196,-0.2608176634,-9.8141618939,-0.6879364975,1426
114707,190281,251271,-0.2608176634,-9.8141618939,-0.6879364975,1427
114692,190348,251267,-0.2608176634,-9.8141618939,-0.6879364975,1428
114171,190241,251172,-0.2608176634,-9.8141618939,-0.6879364975,1429
113277,189914,250917,-0.2608176634,-9.8141618939,-0.6879364975,1430
112513,189673,250776,-0.2608176634,-9.8141618939,-0.6879364975,1431
112113,189542,250613,-0.2608176634,-9.8141618939,-0.6879364975,1432
111895,189459,250613,-0.2608176634,-9.8141618939,-0.6879364975,1433
111812,189436,250617,-0.2608176634,-9.8141618939,-0.6879364975,1434
111815,189461,250578,-0.2608176634,-9.8141618939,-0.6879364975,1435
111918,189472,250629,-0.2608176634,-9.8141618939,-0.6879364975,1436
111973,189491,250610,-0.2608176634,-9.8141618939,-0.6879364975,1437
111931,189463,250585,-0.2608176634,-9.8141618939,-0.6879364975,1438
111877,189457,250546,-0.2608176634,-9.8141618939,-0.6879364975,1439
111819,189427,250570,-0.2608176634,-9.8141618939,-0.6879364975,1440
111838,189475,250595,-0.2608176634,-9.8141618939,-0.6879364975,1441
111885,189445,250582,-0.2608176634,-9.8141618939,-0.6879364975,1442
111981,189479,250646,-0.2608176634,-9.8141618939,-0.6879364975,1443
112091,189512,250671,-0.2608176634,-9.8141618939,-0.6879364975,1444
112227,189558,250672,-0.2608176634,-9.8141618939,-0.6879364975,1445
112344,189630,250671,-0.2608176634,-9.8141618939,-0.6879364975,1446
112472,189661,250717,-0.2608176634,-9.8141618939,-0.6879364975,1447
112598,189684,250771,-0.2608176634,-9.8141618939,-0.6879364975,1448
112748,189684,250745,-0.2608176634,-9.8141618939,-0.6879364975,1449
112922,189770,250826,-0.2608176634,-9.8141618939,-0.6879364975,1450
112907,189792,250844,-0.24167508259999998,-9.9948200002,-0.7752745223999999,1451
112436,189657,250771,-0.24167508259999998,-9.9948200002,-0.7752745223999999,1452
111531,189349,250522,-0.24167508259999998,-9.9948200002,-0.7752745223999999,1453
110761,189079,250345,-0.24167508259999998,-9.9948200002,-0.7752745223999999,1454
110350,188964,250283,-0.24167508259999998,-9.9948200002,-0.7752745223999999,1455
110177,188891,250181,-0.24167508259999998,-9.9948200002,-0.7752745223999999,1456
110136,188864,250188,-0.24167508259999998,-9.9948200002,-0.7752745223999999,1457
110162,188871,250186,-0.24167508259999998,-9.9948200002,-0.7752745223999999,1458
110317,188887,250208,-0.24167508259999998,-9.9948200002,-0.7752745223999999,1459
110459,188938,250252,-0.24167508259999998,-9.9948200002,-0.7752745223999999,1460
110517,188942,250266,-0.24167508259999998,-9.9948200002,-0.7752745223999999,1461
110515,188954,250285,-0.24167508259999998,-9.9948200002,-0.7752745223999999,1462
110538,188967,250252,-0.24167508259999998,-9.9948200002,-0.7752745223999999,1463
110632,188975,250274,-0.24167508259999998,-9.9948200002,-0.7752745223999999,1464
110723,188992,250291,-0.24167508259999998,-9.9948200002,-0.7752745223999999,1465
110888,189046,250389,-0.24167508259999998,-9.9948200002,-0.7752745223999999,1466
111029,189089,250359,-0.24167508259999998,-9.9948200002,-0.7752745223999999,1467
111233,189159,250405,-0.24167508259999998,-9.9948200002,-0.7752745223999999,1468
111425,189210,250417,-0.24167508259999998,-9.9948200002,-0.7752745223999999,1469
111617,189311,250481,-0.24167508259999998,-9.9948200002,-0.7752745223999999,1470
111818,189350,250555,-0.24167508259999998,-9.9948200002,-0.7752745223999999,1471
112000,189417,250588,-0.28953153460000003,-9.7974121357,-0.7166503687,1472
112170,189447,250593,-0.28953153460000003,-9.7974121357,-0.7166503687,1473
112380,189536,250639,-0.28953153460000003,-9.7974121357,-0.7166503687,1474
112575,189611,250719,-0.28953153460000003,-9.7974121357,-0.7166503687,1475
112770,189667,250728,-0.28953153460000003,-9.7974121357,-0.7166503687,1476
112931,189710,250847,-0.28953153460000003,-9.7974121357,-0.7166503687,1477
113112,189788,250876,-0.28953153460000003,-9.7974121357,-0.7166503687,1478
113284,189875,250900,-0.28953153460000003,-9.7974121357,-0.7166503687,1479
113488,189910,250975,-0.28953153460000003,-9.7974121357,-0.7166503687,1480
113671,189999,250942,-0.28953153460000003,-9.7974121357,-0.7166503687,1481
113820,190048,251004,-0.28953153460000003,-9.7974121357,-0.7166503687,1482
113985,190087,251085,-0.28953153460000003,-9.7974121357,-0.7166503687,1483
114197,190165,251075,-0.28953153460000003,-9.7974121357,-0.7166503687,1484
114339,190216,251205,-0.28953153460000003,-9.7974121357,-0.7166503687,1485
114236,190252,251177,-0.28953153460000003,-9.7974121357,-0.7166503687,1486
113458,190014,251024,-0.28953153460000003,-9.7974121357,-0.7166503687,1487
112410,189660,250712,-0.28953153460000003,-9.7974121357,-0.7166503687,1488
111662,189391,250538,-0.28953153460000003,-9.7974121357,-0.7166503687,1489
111285,189316,250428,-0.28953153460000003,-9.7974121357,-0.7166503687,1490
111115,189234,250394,-0.28953153460000003,-9.7974121357,-0.7166503687,1491
111056,189222,250399,-0.28953153460000003,-9.7974121357,-0.7166503687,1492
111042,189169,250337,-0.28953153460000003,-9.7974121357,-0.7166503687,1493
111162,189193,250377,-0.28953153460000003,-9.7974121357,-0.7166503687,1494
111222,189251,250393,-0.28953153460000003,-9.7974121357,-0.7166503687,1495
111254,189214,250396,-0.28953153460000003,-9.7974121357,-0.7166503687,1496
111245,189179,250381,-0.28953153460000003,-9.7974121357,-0.7166503687,1497
111267,189180,250397,-0.28953153460000003,-9.7974121357,-0.7166503687,1498
111324,189206,250430,-0.28953153460000003,-9.7974121357,-0.7166503687,1499
111473,189229,250425,-0.28953153460000003,-9.7974121357,-0.7166503687,1500
111616,189281,250492,-0.28953153460000003,-9.7974121357,-0.7166503687,1501
111767,189287,250505,-0.28953153460000003,-9.7974121357,-0.7166503687,1502
111949,189364,250578,-0.28953153460000003,-9.7974121357,-0.7166503687,1503
112135,189440,250575,-0.28953153460000003,-9.7974121357,-0.7166503687,1504
112339,189497,250677,-0.28953153460000003,-9.7974121357,-0.7166503687,1505
112538,189498,250638,-0.28953153460000003,-9.7974121357,-0.7166503687,1506
112722,189606,250726,-0.2584248408,-9.7663054419,-0.6987041992,1507
112913,189643,250778,-0.2584248408,-9.7663054419,-0.6987041992,1508
113138,189735,250792,-0.2584248408,-9.7663054419,-0.6987041992,1509
113305,189769,250893,-0.2584248408,-9.7663054419,-0.6987041992,1510
113499,189819,250884,-0.2584248408,-9.7663054419,-0.6987041992,1511
113710,189918,250952,-0.2584248408,-9.7663054419,-0.6987041992,1512
113896,189944,250968,-0.2584248408,-9.7663054419,-0.6987041992,1513
114063,190018,251020,-0.2584248408,-9.7663054419,-0.6987041992,1514
114264,190070,251067,-0.2584248408,-9.7663054419,-0.6987041992,1515
114443,190152,251137,-0.2584248408,-9.7663054419,-0.6987041992,1516
114618,190229,251183,-0.2584248408,-9.7663054419,-0.6987041992,1517
114528,190223,251183,-0.2584248408,-9.7663054419,-0.6987041992,1518
