green,red,IR,acc_x,acc_y,acc_z,sample_index
59909,190449,199473,4.748556449700001,-5.3336015753999995,6.674778642700001,1
60119,190549,199491,4.8035913695,-5.1756752837999995,6.7166530382000005,2
60234,190589,199445,4.9088755639,-5.2833523008,6.7118673929999995,3
60354,190645,199545,4.7270210463,-5.1158547188000005,6.7190458608,4
60499,190770,199557,4.6863430621,-5.2127640341,6.7369920303,5
60635,190793,199535,4.878965281399999,-5.235495848799999,6.6376898924,6
60766,190839,199615,4.8825545153,-5.2127640341,6.6544396506,7
60596,190785,199562,4.7222354011,-5.2546384296,6.6496540054,8
59284,190199,199353,4.7904308452,-5.1613183482,6.7657059015,9
58137,189842,199106,4.8370908858999995,-5.1912286306999995,6.7369920303,10
57694,189595,198998,4.7425743932,-5.1517470578,6.783652071000001,11
57538,189498,198976,4.8873401605,-5.264209719999999,6.7752771919,12
57623,189449,199018,4.8825545153,-5.1433721787,6.7046889252,13
57871,189610,199019,4.881358104,-5.1637111708,6.6161544889999995,14
58212,189758,199146,4.8382872972,-5.1996035098,6.7633130788999996,15
58392,189740,199164,4.8897329831,-5.223531735800001,6.771687958,16
58489,189772,199176,4.8071806034,-5.277370244299999,6.675975054,17
58561,189830,199168,4.941178669,-5.2187460906,6.6891355783,18
58668,189873,199206,4.9447679029,-5.3551369788,6.687939167000001,19
58843,189964,199219,4.748556449700001,-5.2426743166000005,6.759723845,20
58999,190020,199254,4.8311088294,-5.3168518172,6.6544396506,21
59175,190018,199315,4.8299124181,-5.1720860499,6.723831506,22
59373,190230,199347,4.8622155232,-5.2677989539,6.6927248122,23
59616,190349,199402,4.9986064114,-5.1493542352,6.7130638043,24
59774,190423,199405,4.8622155232,-5.1768716951,6.6568324732,25
59924,190473,199465,4.8047877808,-5.2677989539,6.6927248122,26
60070,190523,199488,4.8634119345,-5.182853751600001,6.644868360199999,27
60107,190592,199499,4.7330031028,-5.2127640341,6.7393848529,28
60367,190657,199542,4.9184468543,-5.3168518172,6.632904247199999,29
60493,190761,199563,4.7593241513999995,-5.2570312522,6.7393848529,30
60639,190705,199587,4.8921258057,-5.2295137923,6.7477597320000005,31
60409,190649,199573,4.7928236678,-5.3503513336,6.5706908596,32
59015,190170,199303,4.8287160068,-5.155336291699999,6.6532432393,33
57908,189745,199105,4.8478585876,-5.3084769381,6.7657059015,34
57592,189500,198976,4.8825545153,-5.2378886713999995,6.7118673929999995,35
57535,189434,198972,4.8921258057,-5.2689953652,6.6807606991999995,36
57677,189526,198978,4.9519463707,-5.2007999211,6.7106709817,37
57987,189617,199018,4.845465765,-5.315655405899999,6.740581264199999,38
58289,189711,199112,4.8382872972,-5.2127640341,6.6412791263,39
58411,189743,199137,4.9184468543,-5.1625147595,6.6029939646999996,40
58483,189761,199162,4.8753760475,-5.300102059,6.6257257794,41
58556,189766,199177,4.7940200791,-5.1481578239,6.6496540054,42
58670,189805,199142,4.797609313,-5.194817864599999,6.6532432393,43
58806,189829,199215,4.8119662486,-5.180460929,6.6065831986,44
58980,189989,199268,4.9016970961,-5.2091748002,6.725027917299999,45
59164,190105,199258,4.8239303616,-5.1840501629,6.7022961026,46
59376,190206,199323,4.8849473379,-5.2378886713999995,6.6687965862,47
59554,190260,199298,4.8394837085,-5.1505506465,6.664010941,48
59755,190347,199368,4.7521456836,-5.265406131300001,6.709474570399999,49
59921,190402,199397,4.833501652,-5.1541398804,6.640082715,50
60080,190495,199429,4.8215375389999995,-5.228317381,6.6197437229,51
60200,190562,199487,4.857429878,-5.2331030262,6.7585274337,52
60332,190648,199471,4.9028935074,-5.1744788725,6.6017975534,53
60489,190679,199518,4.7473600384,-5.276173833,6.759723845,54
60458,190688,199536,4.7712882644,-5.1900322194,6.7657059015,55
59349,190288,199319,4.8382872972,-5.2259245584,6.740581264199999,56
58065,189766,199062,4.8658047571,-5.2438707279,6.6903319896,57
57523,189428,198920,4.8406801198,-5.292923591199999,6.7441704981,58
57370,189288,198857,4.8670011684,-5.1744788725,6.6687965862,59
57392,189267,198919,4.995017177499999,-5.2007999211,6.6807606991999995,60
57591,189206,198890,4.9926243549,-5.1720860499,6.6556360619,61
57923,189428,198938,4.8382872972,-5.182853751600001,6.607779609900001,62
58168,189556,199021,4.8035913695,-5.3575298014,6.6855463444,63
58279,189602,199067,4.9806602419,-5.2175496793,6.6221365455,64
58352,189646,199048,4.7904308452,-5.1266224204999995,6.664010941,65
58454,189676,199121,4.8239303616,-5.2534420183,6.6652073523,66
58588,189733,199107,4.883750926599999,-5.2007999211,6.7046889252,67
58763,189854,199101,4.7569313288,-5.3575298014,6.7130638043,68
58937,189970,199209,4.8909293944,-5.2953164138,6.7190458608,69
59151,190022,199226,4.8239303616,-5.1888358081,6.7393848529,70
59359,190087,199225,4.8215375389999995,-5.1613183482,6.7022961026,71
59535,190191,199292,4.8670011684,-5.1996035098,6.723831506,72
59719,190285,199316,4.8478585876,-5.168496815999999,6.7920269500999995,73
59847,190334,199363,4.7808595548,-5.2259245584,6.811169530899999,74
60017,190368,199365,4.8023949582,-5.2677989539,6.7202422721,75
60165,190472,199402,4.8765724588,-5.2666025426,6.664010941,76
60311,190540,199436,4.7066820542,-5.2067819775999995,6.7070817478,77
60449,190600,199453,4.8825545153,-5.1637111708,6.6209401342000005,78
59871,190426,199361,4.754538506199999,-5.228317381,6.6089760212,79
58377,189843,199092,4.8275195955,-5.1493542352,6.6472611828,80
57606,189434,198946,4.7688954418,-5.1194439527,6.7669023128,81
57332,189240,198864,4.7306102802,-5.182853751600001,6.6927248122,82
57320,189180,198834,4.7712882644,-5.3694939144,6.659225295800001,83
57498,189209,198854,4.7952164904,-5.198407098500001,6.642475537599999,84
57793,189340,198914,4.7988057243,-5.1050870171,6.741777675500001,85
58039,189417,198985,4.809573426,-5.1888358081,6.7501525546,86
58196,189540,198989,4.8729832249000005,-5.2618168974,6.6771714653,87
58289,189541,199031,4.7449672158,-5.3180482284999995,6.6903319896,88
58406,189607,199035,4.7617169740000005,-5.2414779053,6.6807606991999995,89
58524,189643,199092,4.797609313,-5.2462635505,6.7477597320000005,90
58652,189697,199065,4.7784667322,-5.252245607000001,6.7513489659,91
58861,189859,199107,4.9627140724,-5.2115676228000005,6.6987068686999995,92
59048,189912,199179,4.773681087,-5.198407098500001,6.7202422721,93
59269,190019,199223,4.7413779819,-5.3264231076,6.7082781591,94
59465,190120,199284,5.0045884679,-5.2019963324,6.675975054,95
59652,190189,199252,4.8035913695,-5.2857451234,6.6831535217999996,96
59812,190270,199318,4.8358944746,-5.228317381,6.675975054,97
59950,190245,199397,4.850251410199999,-5.3862436726,6.6891355783,98
60009,190380,199360,4.816751893799999,-5.3048877041999996,6.592226263000001,99
60239,190433,199429,4.7114676994,-5.2175496793,6.673582231399999,100
60340,190514,199456,4.8035913695,-5.2534420183,6.6496540054,101
59791,190279,199315,4.8550370553999995,-5.265406131300001,6.642475537599999,102
58338,189687,199077,4.7796631435,-5.1266224204999995,6.7944197726999995,103
57573,189358,198961,4.6815574169,-5.210371211499999,6.7070817478,104
57359,189090,198814,4.7760739096,-5.2307102036,6.6687965862,105
57412,189144,198801,4.788038022599999,-5.1302116544,6.6472611828,106
57625,189221,198860,4.8263231842,-5.347958511000001,6.7082781591,107
57965,189358,198955,4.7114676994,-5.197210687199999,6.740581264199999,108
58218,189488,199074,4.7832523774,-5.198407098500001,6.7010996913000005,109
58320,189541,199020,4.7330031028,-5.2187460906,6.7513489659,110
58319,189561,198997,4.8155554825,-5.1744788725,6.6771714653,111
58488,189530,199099,4.9591248385,-5.2474599618,6.7728843693,112
58617,189602,199075,4.9782674193,-5.194817864599999,6.6975104574,113
58764,189691,199143,4.7581277401,-5.2019963324,6.6915284009,114
58945,189798,199143,4.7401815706,-5.1876393968,6.6843499331,115
59140,189855,199180,4.7832523774,-5.2977092364,6.8039910631,116
59340,189974,199226,4.9124647978,-5.288137946,6.8015982405,117
59538,190064,199215,4.9136612091,-5.2115676228000005,6.6903319896,118
59712,190204,199317,4.8729832249000005,-5.1876393968,6.8015982405,119
59891,190248,199335,4.9375894351,-5.2019963324,6.7453669094,120
60014,190336,199336,4.9256253221,-5.1864429855,6.7226350947,121
60080,190383,199371,4.8957150396,-5.2857451234,6.673582231399999,122
60286,190452,199408,4.7856452,-5.2091748002,6.6783678766,123
60410,190479,199404,4.7784667322,-5.2055855663,6.8183479987,124
59804,190239,199314,4.869393991,-5.252245607000001,6.6831535217999996,125
58290,189652,198987,4.8382872972,-5.2331030262,6.674778642700001,126
57437,189295,198837,4.7593241513999995,-5.1541398804,6.728617151199999,127
57143,189073,198766,4.7665026192,-5.2007999211,6.6616181184,128
57100,189012,198745,4.8406801198,-5.235495848799999,6.740581264199999,129
57254,189111,198808,4.8921258057,-5.240281494,6.740581264199999,130
57564,189168,198853,4.9124647978,-5.1852465742,6.6975104574,131
57874,189157,198917,4.850251410199999,-5.2211389132,6.7130638043,132
58018,189359,198945,4.8000021356,-5.2857451234,6.628118602,133
58093,189393,198936,4.8598227006,-5.166103993399999,6.675975054,134
58193,189465,198983,4.773681087,-5.1900322194,6.709474570399999,135
58304,189518,198989,4.9734817741,-5.228317381,6.741777675500001,136
58445,189572,199018,4.7617169740000005,-5.2115676228000005,6.7274207398999994,137
58622,189632,199070,4.8825545153,-5.137390122199999,6.7058853365,138
58826,189768,199089,4.7772703209000005,-5.2630133087,6.7166530382000005,139
59030,189841,199158,4.9160540317,-5.140979356100001,6.709474570399999,140
59232,189914,199173,4.8849473379,-5.1768716951,6.671189408799999,141
59409,190022,199216,4.773681087,-5.239085082699999,6.735795619,142
59580,190073,199241,4.8562334667,-5.1768716951,6.7489561433,143
59651,190159,199250,4.7712882644,-5.1637111708,6.7298135625,144
59878,190248,199305,4.8897329831,-5.213960445400001,6.6317078358999995,145
60016,190337,199330,4.9387858464,-5.2701917765,6.7393848529,146
60174,190411,199347,4.8143590712,-5.1900322194,6.8327049343,147
59891,190292,199323,4.9016970961,-5.060819799,6.6783678766,148
58452,189731,199032,4.961517661099999,-5.2307102036,6.7106709817,149
57357,189262,198779,4.7425743932,-5.1744788725,6.756134611099999,150
57007,188995,198740,4.833501652,-5.2713881878,6.7549381998,151
56934,188911,198690,4.7952164904,-5.4065826647,6.723831506,152
57016,188954,198738,4.8119662486,-5.213960445400001,6.6903319896,153
57306,189038,198789,4.8406801198,-5.182853751600001,6.7070817478,154
57652,189123,198835,4.8921258057,-5.2115676228000005,6.6616181184,155
57843,189275,198879,4.8000021356,-5.235495848799999,6.6436719489,156
57926,189275,198927,4.809573426,-5.0979085493,6.7489561433,157
57998,189305,198935,4.8000021356,-5.1936214533,6.6891355783,158
58125,189329,198962,4.8765724588,-5.276173833,6.6855463444,159
58263,189474,198988,4.8299124181,-5.2857451234,6.7381884416,160
58443,189535,199050,4.8753760475,-5.2342994375,6.6927248122,161
58630,189637,199085,4.8119662486,-5.2594240748,6.7166530382000005,162
58821,189739,199089,4.881358104,-5.3527441562,6.723831506,163
59018,189812,199137,4.809573426,-5.1900322194,6.7441704981,164
59199,189880,199201,4.857429878,-5.1361937109,6.6831535217999996,165
59373,189989,199239,4.9016970961,-5.155336291699999,6.6376898924,166
59555,190112,199230,4.9136612091,-5.288137946,6.782455659699999,167
59690,190158,199255,4.850251410199999,-5.1912286306999995,6.559923157899999,168
59784,190211,199343,4.7724846757,-5.2689953652,6.8147587648000005,169
59954,190316,199261,4.8311088294,-5.2677989539,6.8327049343,170
59963,190299,199293,4.8143590712,-5.321637462399999,6.5778693274,171
58790,189861,199110,4.8909293944,-5.2187460906,6.7274207398999994,172
57461,189264,198852,4.8586262893,-5.114658307499999,6.7381884416,173
56913,188950,198727,4.7712882644,-5.344369277099999,6.723831506,174
56880,188853,198643,4.8071806034,-5.3024948815999995,6.7513489659,175
56978,188830,198659,4.9316073786,-5.180460929,6.6017975534,176
57250,188932,198781,4.8263231842,-5.2307102036,6.7776700145,177
57591,189101,198807,4.8263231842,-5.2307102036,6.7776700145,178
57776,189188,198851,4.8263231842,-5.2307102036,6.7776700145,179
57844,189233,198859,4.8263231842,-5.2307102036,6.7776700145,180
57917,189252,198877,4.8263231842,-5.2307102036,6.7776700145,181
58030,189337,198965,4.8263231842,-5.2307102036,6.7776700145,182
58163,189384,198980,4.8263231842,-5.2307102036,6.7776700145,183
58325,189442,198967,4.8263231842,-5.2307102036,6.7776700145,184
58523,189541,199024,4.8263231842,-5.2307102036,6.7776700145,185
58715,189609,199040,4.8263231842,-5.2307102036,6.7776700145,186
58902,189727,199091,4.8263231842,-5.2307102036,6.7776700145,187
59101,189801,199150,4.8263231842,-5.2307102036,6.7776700145,188
59254,189907,199179,4.8263231842,-5.2307102036,6.7776700145,189
59396,189970,199199,4.8263231842,-5.2307102036,6.7776700145,190
59534,190023,199221,4.8263231842,-5.2307102036,6.7776700145,191
59669,190110,199247,4.8263231842,-5.2307102036,6.7776700145,192
59809,190176,199316,4.8263231842,-5.2307102036,6.7776700145,193
59665,190121,199232,4.8263231842,-5.2307102036,6.7776700145,194
58327,189618,199048,4.8263231842,-5.2307102036,6.7776700145,195
57205,189079,198803,4.8263231842,-5.2307102036,6.7776700145,196
56800,188820,198674,4.8263231842,-5.2307102036,6.7776700145,197
56702,188703,198602,4.8263231842,-5.2307102036,6.7776700145,198
56798,188743,198703,4.8263231842,-5.2307102036,6.7776700145,199
57074,188798,198719,4.8263231842,-5.2307102036,6.7776700145,200
57422,188984,198825,4.8263231842,-5.2307102036,6.7776700145,201
57606,189053,198820,4.8263231842,-5.2307102036,6.7776700145,202
57690,189096,198878,4.8263231842,-5.2307102036,6.7776700145,203
57787,189165,198872,4.8263231842,-5.2307102036,6.7776700145,204
57898,189231,198905,4.8263231842,-5.2307102036,6.7776700145,205
58031,189304,198936,4.8263231842,-5.2307102036,6.7776700145,206
58209,189352,198969,4.8263231842,-5.2307102036,6.7776700145,207
58379,189450,199028,4.8263231842,-5.2307102036,6.7776700145,208
58571,189571,199038,4.8263231842,-5.2307102036,6.7776700145,209
58775,189646,199125,4.8263231842,-5.2307102036,6.7776700145,210
58954,189778,199127,4.8263231842,-5.2307102036,6.7776700145,211
59122,189824,199103,4.8263231842,-5.2307102036,6.7776700145,212
59262,189855,199186,4.8263231842,-5.2307102036,6.7776700145,213
59399,189932,199205,4.8263231842,-5.2307102036,6.7776700145,214
59521,190023,199224,4.8263231842,-5.2307102036,6.7776700145,215
59668,190062,199210,4.8263231842,-5.2307102036,6.7776700145,216
59759,190140,199274,4.8263231842,-5.2307102036,6.7776700145,217
58970,189833,199153,4.8263231842,-5.2307102036,6.7776700145,218
56641,188703,198660,4.8287160068,-5.2666025426,6.644868360199999,219
56666,188661,198626,4.8287160068,-5.2666025426,6.644868360199999,220
56874,188715,198679,4.8287160068,-5.2666025426,6.644868360199999,221
57220,188857,198713,4.8287160068,-5.2666025426,6.644868360199999,222
57506,189008,198803,4.8287160068,-5.2666025426,6.644868360199999,223
57622,189045,198862,4.8287160068,-5.2666025426,6.644868360199999,224
57686,189127,198821,4.8287160068,-5.2666025426,6.644868360199999,225
57799,189191,198872,4.8287160068,-5.2666025426,6.644868360199999,226
57921,189230,198903,4.8287160068,-5.2666025426,6.644868360199999,227
58076,189330,198900,4.8287160068,-5.2666025426,6.644868360199999,228
58231,189397,199018,4.8287160068,-5.2666025426,6.644868360199999,229
58428,189513,198995,4.8287160068,-5.2666025426,6.644868360199999,230
58633,189606,199092,4.8287160068,-5.2666025426,6.644868360199999,231
58831,189662,199133,4.8287160068,-5.2666025426,6.644868360199999,232
59004,189768,199132,4.8287160068,-5.2666025426,6.644868360199999,233
59166,189870,199156,4.8287160068,-5.2666025426,6.644868360199999,234
59307,189940,199204,4.8287160068,-5.2666025426,6.644868360199999,235
59436,189996,199246,4.8287160068,-5.2666025426,6.644868360199999,236
59568,190071,199232,4.8287160068,-5.2666025426,6.644868360199999,237
59715,190130,199284,4.8287160068,-5.2666025426,6.644868360199999,238
59648,190114,199264,4.8287160068,-5.2666025426,6.644868360199999,239
58429,189661,199066,4.8287160068,-5.2666025426,6.644868360199999,240
57251,189120,198852,4.8287160068,-5.2666025426,6.644868360199999,241
56848,188858,198724,4.8287160068,-5.2666025426,6.644868360199999,242
56788,188764,198691,4.8287160068,-5.2666025426,6.644868360199999,243
56907,188779,198689,4.8287160068,-5.2666025426,6.644868360199999,244
57210,188887,198732,4.8287160068,-5.2666025426,6.644868360199999,245
57551,189045,198848,4.8287160068,-5.2666025426,6.644868360199999,246
57747,189133,198892,4.8287160068,-5.2666025426,6.644868360199999,247
57827,189195,198930,4.8287160068,-5.2666025426,6.644868360199999,248
57910,189262,198965,4.8287160068,-5.2666025426,6.644868360199999,249
58030,189298,198984,4.8287160068,-5.2666025426,6.644868360199999,250
58155,189388,198993,4.8287160068,-5.2666025426,6.644868360199999,251
58313,189444,199052,4.8287160068,-5.2666025426,6.644868360199999,252
58502,189551,199031,4.8287160068,-5.2666025426,6.644868360199999,253
58698,189613,199086,4.8287160068,-5.2666025426,6.644868360199999,254
58904,189725,199138,4.8287160068,-5.2666025426,6.644868360199999,255
59103,189782,199180,4.8287160068,-5.2666025426,6.644868360199999,256
59292,189891,199217,4.8287160068,-5.2666025426,6.644868360199999,257
59471,189979,199279,4.8287160068,-5.2666025426,6.644868360199999,258
59622,190063,199316,4.8287160068,-5.2666025426,6.644868360199999,259
59781,190163,199330,4.8287160068,-5.2666025426,6.644868360199999,260
57959,189394,199017,4.7282174576000005,-5.1732824612,6.591029851699999,261
57573,189152,198823,4.7282174576000005,-5.1732824612,6.591029851699999,262
57472,189058,198839,4.7282174576000005,-5.1732824612,6.591029851699999,263
57553,189050,198863,4.7282174576000005,-5.1732824612,6.591029851699999,264
57820,189163,198896,4.7282174576000005,-5.1732824612,6.591029851699999,265
58157,189307,198941,4.7282174576000005,-5.1732824612,6.591029851699999,266
58389,189394,199034,4.7282174576000005,-5.1732824612,6.591029851699999,267
58509,189473,199047,4.7282174576000005,-5.1732824612,6.591029851699999,268
58637,189480,199037,4.7282174576000005,-5.1732824612,6.591029851699999,269
58778,189583,199110,4.7282174576000005,-5.1732824612,6.591029851699999,270
58954,189683,199173,4.7282174576000005,-5.1732824612,6.591029851699999,271
59151,189736,199186,4.7282174576000005,-5.1732824612,6.591029851699999,272
59377,189844,199264,4.7282174576000005,-5.1732824612,6.591029851699999,273
59623,189929,199224,4.7282174576000005,-5.1732824612,6.591029851699999,274
59841,190022,199324,4.7282174576000005,-5.1732824612,6.591029851699999,275
60094,190140,199315,4.7282174576000005,-5.1732824612,6.591029851699999,276
60305,190220,199412,4.7282174576000005,-5.1732824612,6.591029851699999,277
60535,190347,199423,4.7282174576000005,-5.1732824612,6.591029851699999,278
60734,190433,199445,4.7282174576000005,-5.1732824612,6.591029851699999,279
60935,190509,199447,4.7282174576000005,-5.1732824612,6.591029851699999,280
61114,190550,199501,4.7282174576000005,-5.1732824612,6.591029851699999,281
61330,190674,199535,4.7282174576000005,-5.1732824612,6.591029851699999,282
61295,190661,199552,4.7282174576000005,-5.1732824612,6.591029851699999,283
60362,190291,199427,4.7282174576000005,-5.1732824612,6.591029851699999,284
59502,189898,199224,4.7282174576000005,-5.1732824612,6.591029851699999,285
59094,189704,199133,4.7282174576000005,-5.1732824612,6.591029851699999,286
58944,189609,199084,4.7282174576000005,-5.1732824612,6.591029851699999,287
58977,189555,199127,4.7282174576000005,-5.1732824612,6.591029851699999,288
59179,189659,199092,4.7282174576000005,-5.1732824612,6.591029851699999,289
59464,189763,199159,4.7282174576000005,-5.1732824612,6.591029851699999,290
59670,189856,199183,4.7282174576000005,-5.1732824612,6.591029851699999,291
59795,189865,199203,4.7282174576000005,-5.1732824612,6.591029851699999,292
59938,189938,199222,4.7282174576000005,-5.1732824612,6.591029851699999,293
60086,190053,199257,4.7282174576000005,-5.1732824612,6.591029851699999,294
60277,190109,199286,4.7282174576000005,-5.1732824612,6.591029851699999,295
60475,190167,199352,4.7282174576000005,-5.1732824612,6.591029851699999,296
60694,190259,199351,4.7282174576000005,-5.1732824612,6.591029851699999,297
60937,190366,199427,4.7282174576000005,-5.1732824612,6.591029851699999,298
61166,190446,199442,4.7282174576000005,-5.1732824612,6.591029851699999,299
61392,190570,199477,4.7282174576000005,-5.1732824612,6.591029851699999,300
61610,190658,199545,4.7282174576000005,-5.1732824612,6.591029851699999,301
61813,190699,199558,4.7282174576000005,-5.1732824612,6.591029851699999,302
62026,190794,199560,4.8897329831,-5.235495848799999,6.6257257794,303
60648,190304,199274,4.8897329831,-5.235495848799999,6.6257257794,304
59631,189922,199104,4.8897329831,-5.235495848799999,6.6257257794,305
59089,189714,199004,4.8897329831,-5.235495848799999,6.6257257794,306
58857,189567,198967,4.8897329831,-5.235495848799999,6.6257257794,307
58883,189543,198987,4.8897329831,-5.235495848799999,6.6257257794,308
59102,189651,198985,4.8897329831,-5.235495848799999,6.6257257794,309
59300,189749,199074,4.8897329831,-5.235495848799999,6.6257257794,310
59382,189793,199073,4.8897329831,-5.235495848799999,6.6257257794,311
59437,189765,199121,4.8897329831,-5.235495848799999,6.6257257794,312
59533,189821,199113,4.8897329831,-5.235495848799999,6.6257257794,313
59639,189852,199150,4.8897329831,-5.235495848799999,6.6257257794,314
59787,189941,199220,4.8897329831,-5.235495848799999,6.6257257794,315
59946,190045,199191,4.8897329831,-5.235495848799999,6.6257257794,316
60136,190072,199255,4.8897329831,-5.235495848799999,6.6257257794,317
60318,190202,199262,4.8897329831,-5.235495848799999,6.6257257794,318
60498,190257,199319,4.8897329831,-5.235495848799999,6.6257257794,319
60660,190345,199350,4.8897329831,-5.235495848799999,6.6257257794,320
60823,190395,199367,4.8897329831,-5.235495848799999,6.6257257794,321
60969,190523,199397,4.8897329831,-5.235495848799999,6.6257257794,322
61098,190558,199424,4.8897329831,-5.235495848799999,6.6257257794,323
61235,190621,199461,4.8897329831,-5.235495848799999,6.6257257794,324
61361,190673,199442,4.8897329831,-5.235495848799999,6.6257257794,325
61502,190756,199475,4.8897329831,-5.235495848799999,6.6257257794,326
61236,190638,199457,4.8897329831,-5.235495848799999,6.6257257794,327
59801,190123,199196,4.8897329831,-5.235495848799999,6.6257257794,328
58634,189670,199003,4.8897329831,-5.235495848799999,6.6257257794,329
58113,189385,198851,4.8897329831,-5.235495848799999,6.6257257794,330
57924,189236,198832,4.8897329831,-5.235495848799999,6.6257257794,331
57966,189268,198846,4.8897329831,-5.235495848799999,6.6257257794,332
58215,189318,198930,4.8897329831,-5.235495848799999,6.6257257794,333
58513,189422,198970,4.8897329831,-5.235495848799999,6.6257257794,334
58674,189512,199051,4.8897329831,-5.235495848799999,6.6257257794,335
58743,189586,199030,4.8562334667,-5.0524449199,6.7920269500999995,336
58839,189628,199033,4.8562334667,-5.0524449199,6.7920269500999995,337
58947,189681,199053,4.8562334667,-5.0524449199,6.7920269500999995,338
59085,189714,199142,4.8562334667,-5.0524449199,6.7920269500999995,339
59250,189816,199152,4.8562334667,-5.0524449199,6.7920269500999995,340
59442,189891,199158,4.8562334667,-5.0524449199,6.7920269500999995,341
59634,189995,199192,4.8562334667,-5.0524449199,6.7920269500999995,342
59822,190084,199273,4.8562334667,-5.0524449199,6.7920269500999995,343
60003,190169,199283,4.8562334667,-5.0524449199,6.7920269500999995,344
60176,190235,199300,4.8562334667,-5.0524449199,6.7920269500999995,345
60340,190314,199372,4.8562334667,-5.0524449199,6.7920269500999995,346
60475,190394,199368,4.8562334667,-5.0524449199,6.7920269500999995,347
60594,190459,199422,4.8562334667,-5.0524449199,6.7920269500999995,348
60732,190545,199448,4.8562334667,-5.0524449199,6.7920269500999995,349
60877,190567,199424,4.8562334667,-5.0524449199,6.7920269500999995,350
60913,190634,199462,4.8562334667,-5.0524449199,6.7920269500999995,351
59945,190242,199289,4.8562334667,-5.0524449199,6.7920269500999995,352
58508,189706,199057,4.8562334667,-5.0524449199,6.7920269500999995,353
57850,189353,198868,4.8562334667,-5.0524449199,6.7920269500999995,354
57649,189184,198872,4.7521456836,-5.2331030262,6.7609202563,355
57674,189164,198863,4.7521456836,-5.2331030262,6.7609202563,356
57902,189261,198922,4.7521456836,-5.2331030262,6.7609202563,357
58242,189363,199001,4.7521456836,-5.2331030262,6.7609202563,358
58461,189476,199058,4.7521456836,-5.2331030262,6.7609202563,359
58527,189547,199008,4.7521456836,-5.2331030262,6.7609202563,360
58593,189567,199058,4.7521456836,-5.2331030262,6.7609202563,361
58679,189638,199060,4.7521456836,-5.2331030262,6.7609202563,362
58796,189649,199085,4.7521456836,-5.2331030262,6.7609202563,363
58943,189732,199063,4.7521456836,-5.2331030262,6.7609202563,364
59130,189815,199111,4.7521456836,-5.2331030262,6.7609202563,365
59329,189903,199140,4.7521456836,-5.2331030262,6.7609202563,366
59513,190005,199255,4.7521456836,-5.2331030262,6.7609202563,367
59700,190073,199234,4.7521456836,-5.2331030262,6.7609202563,368
59886,190165,199287,4.7521456836,-5.2331030262,6.7609202563,369
60045,190263,199342,4.7521456836,-5.2331030262,6.7609202563,370
60199,190304,199387,4.7521456836,-5.2331030262,6.7609202563,371
60328,190390,199365,4.7521456836,-5.2331030262,6.7609202563,372
60467,190433,199448,4.7521456836,-5.2331030262,6.7609202563,373
60629,190497,199409,4.7521456836,-5.2331030262,6.7609202563,374
60548,190445,199438,4.7521456836,-5.2331030262,6.7609202563,375
59303,189991,199233,4.7521456836,-5.2331030262,6.7609202563,376
58067,189549,198959,4.7521456836,-5.2331030262,6.7609202563,377
57584,189221,198871,4.7521456836,-5.2331030262,6.7609202563,378
57436,189081,198848,4.7521456836,-5.2331030262,6.7609202563,379
57506,189085,198840,4.7521456836,-5.2331030262,6.7609202563,380
57771,189186,198880,4.7521456836,-5.2331030262,6.7609202563,381
58115,189377,198973,4.7521456836,-5.2331030262,6.7609202563,382
58325,189435,199020,4.7521456836,-5.2331030262,6.7609202563,383
58403,189479,199009,4.7521456836,-5.2331030262,6.7609202563,384
58489,189533,199031,4.7521456836,-5.2331030262,6.7609202563,385
58590,189559,199057,4.7521456836,-5.2331030262,6.7609202563,386
58722,189633,199084,4.7521456836,-5.2331030262,6.7609202563,387
58894,189724,199121,4.7521456836,-5.2331030262,6.7609202563,388
59068,189795,199155,4.7521456836,-5.2331030262,6.7609202563,389
59265,189915,199178,4.7521456836,-5.2331030262,6.7609202563,390
59461,189974,199208,4.7521456836,-5.2331030262,6.7609202563,391
59648,190072,199240,4.7521456836,-5.2331030262,6.7609202563,392
59823,190168,199269,4.7521456836,-5.2331030262,6.7609202563,393
59988,190253,199284,4.7521456836,-5.2331030262,6.7609202563,394
60133,190278,199372,4.7521456836,-5.2331030262,6.7609202563,395
60267,190339,199337,4.7521456836,-5.2331030262,6.7609202563,396
58648,189525,199000,4.9459643142,-5.1876393968,6.740581264199999,397
58848,189609,199049,4.9459643142,-5.1876393968,6.740581264199999,398
59028,189730,199098,4.9459643142,-5.1876393968,6.740581264199999,399
59205,189778,199146,4.9459643142,-5.1876393968,6.740581264199999,400
59356,189860,199140,4.9459643142,-5.1876393968,6.740581264199999,401
59480,189944,199133,4.9459643142,-5.1876393968,6.740581264199999,402
59622,190001,199192,4.9459643142,-5.1876393968,6.740581264199999,403
59759,190081,199213,4.9459643142,-5.1876393968,6.740581264199999,404
59873,190153,199273,4.9459643142,-5.1876393968,6.740581264199999,405
59329,189893,199141,4.9459643142,-5.1876393968,6.740581264199999,406
57877,189334,198897,4.9459643142,-5.1876393968,6.740581264199999,407
57094,188919,198684,4.9459643142,-5.1876393968,6.740581264199999,408
56855,188743,198630,4.9459643142,-5.1876393968,6.740581264199999,409
56858,188701,198626,4.9459643142,-5.1876393968,6.740581264199999,410
57035,188784,198663,4.9459643142,-5.1876393968,6.740581264199999,411
57361,188900,198722,4.9459643142,-5.1876393968,6.740581264199999,412
57657,189017,198815,4.9459643142,-5.1876393968,6.740581264199999,413
57777,189083,198814,4.9459643142,-5.1876393968,6.740581264199999,414
57850,189118,198813,4.9459643142,-5.1876393968,6.740581264199999,415
57956,189170,198872,4.9459643142,-5.1876393968,6.740581264199999,416
58084,189217,198856,4.9459643142,-5.1876393968,6.740581264199999,417
58219,189290,198947,4.9459643142,-5.1876393968,6.740581264199999,418
58400,189397,198976,4.9459643142,-5.1876393968,6.740581264199999,419
58592,189476,198964,4.9459643142,-5.1876393968,6.740581264199999,420
58781,189596,199009,4.9459643142,-5.1876393968,6.740581264199999,421
58971,189678,199085,4.9459643142,-5.1876393968,6.740581264199999,422
59154,189753,199130,4.9459643142,-5.1876393968,6.740581264199999,423
59329,189827,199117,4.9459643142,-5.1876393968,6.740581264199999,424
59472,189929,199146,4.9459643142,-5.1876393968,6.740581264199999,425
59598,189990,199205,4.9459643142,-5.1876393968,6.740581264199999,426
59723,190018,199253,4.9459643142,-5.1876393968,6.740581264199999,427
59859,190100,199247,4.9459643142,-5.1876393968,6.740581264199999,428
59937,190157,199285,4.9220360882000005,-5.2821558895,6.687939167000001,429
59146,189827,199111,4.9220360882000005,-5.2821558895,6.687939167000001,430
57691,189252,198836,4.9220360882000005,-5.2821558895,6.687939167000001,431
57007,188875,198659,4.9220360882000005,-5.2821558895,6.687939167000001,432
56793,188709,198597,4.9220360882000005,-5.2821558895,6.687939167000001,433
56817,188679,198621,4.9220360882000005,-5.2821558895,6.687939167000001,434
57017,188740,198666,4.9447679029,-5.216353268,6.6975104574,435
57356,188854,198732,4.9447679029,-5.216353268,6.6975104574,436
57636,188997,198752,4.9447679029,-5.216353268,6.6975104574,437
57762,189082,198828,4.9447679029,-5.216353268,6.6975104574,438
57839,189131,198828,4.9447679029,-5.216353268,6.6975104574,439
57935,189157,198813,4.9447679029,-5.216353268,6.6975104574,440
58065,189236,198843,4.9447679029,-5.216353268,6.6975104574,441
58201,189289,198888,4.9447679029,-5.216353268,6.6975104574,442
58372,189388,198897,4.9447679029,-5.216353268,6.6975104574,443
58585,189510,198971,4.9447679029,-5.216353268,6.6975104574,444
58767,189569,198984,4.9447679029,-5.216353268,6.6975104574,445
58973,189638,199044,4.9447679029,-5.216353268,6.6975104574,446
59139,189744,199084,4.9447679029,-5.216353268,6.6975104574,447
59295,189819,199091,4.9447679029,-5.216353268,6.6975104574,448
59433,189894,199145,4.9447679029,-5.216353268,6.6975104574,449
59564,189953,199173,4.9447679029,-5.216353268,6.6975104574,450
59706,190031,199187,4.9447679029,-5.216353268,6.6975104574,451
59846,190141,199217,4.9447679029,-5.216353268,6.6975104574,452
59868,190120,199215,4.9447679029,-5.216353268,6.6975104574,453
58805,189705,199050,4.9447679029,-5.216353268,6.6975104574,454
57455,189097,198775,4.9447679029,-5.216353268,6.6975104574,455
56923,188783,198618,4.9447679029,-5.216353268,6.6975104574,456
56816,188670,198586,4.9447679029,-5.216353268,6.6975104574,457
56913,188703,198594,4.9447679029,-5.216353268,6.6975104574,458
57173,188786,198642,4.9447679029,-5.216353268,6.6975104574,459
57521,188936,198733,4.9447679029,-5.216353268,6.6975104574,460
57730,189023,198797,4.9447679029,-5.216353268,6.6975104574,461
57781,189078,198834,4.9447679029,-5.216353268,6.6975104574,462
57858,189098,198853,4.9447679029,-5.216353268,6.6975104574,463
57957,189199,198816,4.9447679029,-5.216353268,6.6975104574,464
58066,189226,198885,4.9447679029,-5.216353268,6.6975104574,465
58216,189288,198869,4.9447679029,-5.216353268,6.6975104574,466
58402,189387,198954,4.9447679029,-5.216353268,6.6975104574,467
58603,189484,198950,4.9447679029,-5.216353268,6.6975104574,468
58789,189549,199023,4.9447679029,-5.216353268,6.6975104574,469
58967,189667,199002,4.9447679029,-5.216353268,6.6975104574,470
59136,189743,199098,4.9447679029,-5.216353268,6.6975104574,471
59266,189811,199088,4.9447679029,-5.216353268,6.6975104574,472
59402,189877,199120,4.9447679029,-5.216353268,6.6975104574,473
59525,189949,199155,4.9447679029,-5.216353268,6.6975104574,474
59672,190022,199145,4.9447679029,-5.216353268,6.6975104574,475
59780,190080,199180,4.9447679029,-5.216353268,6.6975104574,476
58800,189561,199000,4.881358104,-5.0835516137,6.7118673929999995,477
58968,189629,199007,4.881358104,-5.0835516137,6.7118673929999995,478
59126,189753,199045,4.881358104,-5.0835516137,6.7118673929999995,479
59260,189805,199098,4.881358104,-5.0835516137,6.7118673929999995,480
59388,189872,199139,4.881358104,-5.0835516137,6.7118673929999995,481
59503,189931,199160,4.881358104,-5.0835516137,6.7118673929999995,482
59621,190028,199154,4.7593241513999995,-5.102694194500001,6.7190458608,483
59711,189949,199166,4.9148576204,-5.213960445400001,6.6831535217999996,484
58820,189699,199016,4.8514478215,-5.2618168974,6.673582231399999,485
57375,189102,198706,4.8514478215,-5.2618168974,6.673582231399999,486
56756,188740,198563,4.8514478215,-5.2618168974,6.673582231399999,487
56583,188543,198488,4.8514478215,-5.2618168974,6.673582231399999,488
56617,188542,198560,4.8514478215,-5.2618168974,6.673582231399999,489
56827,188613,198607,4.8514478215,-5.2618168974,6.673582231399999,490
57178,188779,198629,4.8514478215,-5.2618168974,6.673582231399999,491
57446,188906,198680,4.8514478215,-5.2618168974,6.673582231399999,492
57548,188924,198711,4.8514478215,-5.2618168974,6.673582231399999,493
57641,189001,198715,4.8514478215,-5.2618168974,6.673582231399999,494
57740,189083,198754,4.8514478215,-5.2618168974,6.673582231399999,495
57873,189113,198781,4.8921258057,-5.3575298014,6.6939212235,496
58017,189192,198803,4.8921258057,-5.3575298014,6.6939212235,497
58200,189285,198873,4.8921258057,-5.3575298014,6.6939212235,498
58386,189383,198870,4.8921258057,-5.3575298014,6.6939212235,499
58596,189469,198972,4.8921258057,-5.3575298014,6.6939212235,500
58786,189575,198986,4.8921258057,-5.3575298014,6.6939212235,501
58939,189668,199003,4.8921258057,-5.3575298014,6.6939212235,502
59106,189709,199027,4.8921258057,-5.3575298014,6.6939212235,503
59255,189836,199085,4.8921258057,-5.3575298014,6.6939212235,504
59368,189876,199099,4.8921258057,-5.3575298014,6.6939212235,505
59507,189976,199141,4.8921258057,-5.3575298014,6.6939212235,506
59630,190029,199110,4.8921258057,-5.3575298014,6.6939212235,507
59730,190072,199151,4.8921258057,-5.3575298014,6.6939212235,508
58987,189775,199096,4.8921258057,-5.3575298014,6.6939212235,509
57480,189142,198808,4.8921258057,-5.3575298014,6.6939212235,510
56778,188751,198597,4.8921258057,-5.3575298014,6.6939212235,511
56615,188586,198507,4.8921258057,-5.3575298014,6.6939212235,512
56664,188563,198553,4.8921258057,-5.3575298014,6.6939212235,513
56886,188665,198570,4.8921258057,-5.3575298014,6.6939212235,514
57250,188836,198676,4.809573426,-5.2007999211,6.728617151199999,515
57530,188957,198739,4.809573426,-5.2007999211,6.728617151199999,516
57632,189017,198730,4.809573426,-5.2007999211,6.728617151199999,517
57709,189077,198780,4.809573426,-5.2007999211,6.728617151199999,518
57805,189116,198783,4.809573426,-5.2007999211,6.728617151199999,519
57897,189147,198797,4.809573426,-5.2007999211,6.728617151199999,520
58023,189226,198830,4.809573426,-5.2007999211,6.728617151199999,521
58196,189311,198878,4.809573426,-5.2007999211,6.728617151199999,522
58374,189398,198920,4.809573426,-5.2007999211,6.728617151199999,523
58570,189464,198953,4.809573426,-5.2007999211,6.728617151199999,524
58743,189582,198981,4.809573426,-5.2007999211,6.728617151199999,525
58906,189674,199022,4.809573426,-5.2007999211,6.728617151199999,526
59071,189724,199044,4.809573426,-5.2007999211,6.728617151199999,527
59210,189785,199111,4.809573426,-5.2007999211,6.728617151199999,528
59342,189878,199116,4.809573426,-5.2007999211,6.728617151199999,529
59474,189908,199099,4.809573426,-5.2007999211,6.728617151199999,530
59604,190003,199144,4.809573426,-5.2007999211,6.728617151199999,531
59473,189956,199131,4.809573426,-5.2007999211,6.728617151199999,532
58176,189458,198853,4.809573426,-5.2007999211,6.728617151199999,533
57031,188932,198692,4.8526442328,-5.2977092364,6.6951176348,534
56659,188673,198533,4.8526442328,-5.2977092364,6.6951176348,535
56638,188578,198485,4.8406801198,-5.3024948815999995,6.617350900300001,536
56759,188588,198480,4.7892344339,-5.240281494,6.673582231399999,537
57021,188732,198592,4.8885365718,-5.2570312522,6.7441704981,538
57372,188898,198671,4.7425743932,-5.1840501629,6.6604217071,539
57572,188979,198702,4.9710889515,-5.1912286306999995,6.664010941,540
57625,189006,198759,4.9710889515,-5.1912286306999995,6.664010941,541
57712,189078,198731,4.9710889515,-5.1912286306999995,6.664010941,542
57819,189122,198753,4.9710889515,-5.1912286306999995,6.664010941,543
57953,189154,198784,4.9710889515,-5.1912286306999995,6.664010941,544
58135,189264,198839,4.9710889515,-5.1912286306999995,6.664010941,545
58321,189347,198885,4.9710889515,-5.1912286306999995,6.664010941,546
58507,189446,198918,4.6468614892,-5.2666025426,6.6891355783,547
58695,189554,198961,4.8000021356,-5.1792645177,6.699903279999999,548
58870,189654,199018,4.8550370553999995,-5.1266224204999995,6.723831506,549
59048,189726,199022,4.8000021356,-5.1385865335,6.6317078358999995,550
59206,189783,199059,4.8215375389999995,-5.2666025426,6.7645094902,551
59360,189871,199100,4.8215375389999995,-5.2666025426,6.7645094902,552
59469,189938,199099,4.8215375389999995,-5.2666025426,6.7645094902,553
59600,189968,199084,4.8215375389999995,-5.2666025426,6.7645094902,554
59739,190067,199167,4.8215375389999995,-5.2666025426,6.7645094902,555
59575,190000,199124,4.8215375389999995,-5.2666025426,6.7645094902,556
58203,189474,198890,4.8215375389999995,-5.2666025426,6.7645094902,557
57038,188908,198639,4.8215375389999995,-5.2666025426,6.7645094902,558
56658,188669,198544,4.8215375389999995,-5.2666025426,6.7645094902,559
56582,188572,198497,4.8215375389999995,-5.2666025426,6.7645094902,560
56675,188580,198516,4.8215375389999995,-5.2666025426,6.7645094902,561
56969,188705,198553,4.8215375389999995,-5.2666025426,6.7645094902,562
57310,188853,198623,4.8215375389999995,-5.2666025426,6.7645094902,563
57503,188939,198711,4.8215375389999995,-5.2666025426,6.7645094902,564
57600,189013,198699,4.8215375389999995,-5.2666025426,6.7645094902,565
57687,189002,198705,4.8215375389999995,-5.2666025426,6.7645094902,566
57794,189089,198724,4.8215375389999995,-5.2666025426,6.7645094902,567
57922,189165,198774,4.8215375389999995,-5.2666025426,6.7645094902,568
58092,189233,198828,4.8215375389999995,-5.2666025426,6.7645094902,569
58281,189366,198866,4.8215375389999995,-5.2666025426,6.7645094902,570
58474,189414,198882,4.8215375389999995,-5.2666025426,6.7645094902,571
58672,189518,198957,4.8215375389999995,-5.2666025426,6.7645094902,572
58859,189635,198954,4.8215375389999995,-5.2666025426,6.7645094902,573
59021,189718,199004,4.8215375389999995,-5.2666025426,6.7645094902,574
59179,189806,199037,4.8215375389999995,-5.2666025426,6.7645094902,575
59323,189876,199060,4.8215375389999995,-5.2666025426,6.7645094902,576
59448,189933,199089,4.8215375389999995,-5.2666025426,6.7645094902,577
59598,190027,199145,4.8215375389999995,-5.2666025426,6.7645094902,578
59730,190058,199171,4.8215375389999995,-5.2666025426,6.7645094902,579
59408,189904,199101,4.8215375389999995,-5.2666025426,6.7645094902,580
57918,189363,198823,4.8215375389999995,-5.2666025426,6.7645094902,581
56932,188858,198611,4.8215375389999995,-5.2666025426,6.7645094902,582
56637,188640,198496,4.8215375389999995,-5.2666025426,6.7645094902,583
56647,188576,198471,4.8215375389999995,-5.2666025426,6.7645094902,584
56816,188646,198541,4.8215375389999995,-5.2666025426,6.7645094902,585
57150,188751,198549,4.8215375389999995,-5.2666025426,6.7645094902,586
57469,188940,198654,4.8215375389999995,-5.2666025426,6.7645094902,587
57621,189019,198737,4.8215375389999995,-5.2666025426,6.7645094902,588
57684,189029,198726,4.8215375389999995,-5.2666025426,6.7645094902,589
57753,189089,198719,4.8215375389999995,-5.2666025426,6.7645094902,590
57861,189126,198757,4.8215375389999995,-5.2666025426,6.7645094902,591
57973,189183,198759,4.8215375389999995,-5.2666025426,6.7645094902,592
59040,189697,198980,4.9232324995,-5.2546384296,6.7345992077,593
59173,189767,199012,4.9232324995,-5.2546384296,6.7345992077,594
59299,189855,199060,4.9232324995,-5.2546384296,6.7345992077,595
59442,189907,199051,4.9232324995,-5.2546384296,6.7345992077,596
59569,189973,199127,4.9232324995,-5.2546384296,6.7345992077,597
59441,189928,199083,4.9232324995,-5.2546384296,6.7345992077,598
58116,189401,198797,4.9232324995,-5.2546384296,6.7345992077,599
56990,188875,198561,4.9232324995,-5.2546384296,6.7345992077,600
56620,188598,198483,4.9232324995,-5.2546384296,6.7345992077,601
56563,188526,198455,4.9232324995,-5.2546384296,6.7345992077,602
56673,188548,198482,4.9232324995,-5.2546384296,6.7345992077,603
56958,188678,198498,4.9232324995,-5.2546384296,6.7345992077,604
57307,188819,198601,4.9232324995,-5.2546384296,6.7345992077,605
57503,188898,198611,4.8358944746,-5.2570312522,6.741777675500001,606
57568,188948,198641,4.8358944746,-5.2570312522,6.741777675500001,607
57659,188981,198705,4.8358944746,-5.2570312522,6.741777675500001,608
57754,189052,198711,4.8358944746,-5.2570312522,6.741777675500001,609
57900,189122,198712,4.8358944746,-5.2570312522,6.741777675500001,610
58059,189218,198766,4.8358944746,-5.2570312522,6.741777675500001,611
58243,189302,198780,4.8358944746,-5.2570312522,6.741777675500001,612
58435,189404,198871,4.8191447164,-5.2462635505,6.687939167000001,613
58626,189487,198917,4.8215375389999995,-5.204389154999999,6.7549381998,614
58811,189502,198968,4.8191447164,-5.2474599618,6.6544396506,615
58976,189713,198977,4.7928236678,-5.1589255256,6.709474570399999,616
59097,189705,198999,4.833501652,-5.2474599618,6.728617151199999,617
59274,189869,199015,4.9064827413000005,-5.2570312522,6.723831506,618
59373,189850,199061,4.8478585876,-5.2426743166000005,6.7489561433,619
59516,189956,199070,4.6983071751,-5.1900322194,6.7214386834,620
59634,190038,199132,4.782055966100001,-5.280959478200001,6.709474570399999,621
59260,189850,199025,4.8478585876,-5.2259245584,6.6233329568,622
57735,189244,198798,4.7629133853,-5.1338008883,6.7130638043,623
56838,188795,198529,4.878965281399999,-5.1780681064,6.8015982405,624
56556,188554,198390,4.7844487887,-5.2689953652,6.756134611099999,625
56583,188544,198461,4.9435714916,-5.2211389132,6.6687965862,626
56692,188457,198478,4.7449672158,-5.204389154999999,6.756134611099999,627
57007,188683,198580,5.0021956453,-5.1457650013,6.7106709817,628
57352,188833,198597,5.0021956453,-5.1457650013,6.7106709817,629
57493,188896,198647,5.0021956453,-5.1457650013,6.7106709817,630
57567,188946,198640,5.0021956453,-5.1457650013,6.7106709817,631
57672,189003,198699,5.0021956453,-5.1457650013,6.7106709817,632
57794,189078,198749,5.0021956453,-5.1457650013,6.7106709817,633
57932,189146,198730,5.0021956453,-5.1457650013,6.7106709817,634
58105,189221,198770,5.0021956453,-5.1457650013,6.7106709817,635
58297,189300,198831,5.0021956453,-5.1457650013,6.7106709817,636
58496,189429,198882,5.0021956453,-5.1457650013,6.7106709817,637
58693,189540,198924,5.0021956453,-5.1457650013,6.7106709817,638
58870,189628,198948,5.0021956453,-5.1457650013,6.7106709817,639
59040,189663,198966,5.0021956453,-5.1457650013,6.7106709817,640
59193,189780,199036,5.0021956453,-5.1457650013,6.7106709817,641
59318,189814,199011,5.0021956453,-5.1457650013,6.7106709817,642
59451,189903,199075,5.0021956453,-5.1457650013,6.7106709817,643
59589,190001,199093,5.0021956453,-5.1457650013,6.7106709817,644
59730,190020,199090,5.0021956453,-5.1457650013,6.7106709817,645
59266,189844,199018,5.0021956453,-5.1457650013,6.7106709817,646
57752,189238,198732,5.0021956453,-5.1457650013,6.7106709817,647
56903,188809,198585,5.0021956453,-5.1457650013,6.7106709817,648
56656,188633,198493,5.0021956453,-5.1457650013,6.7106709817,649
56668,188566,198497,5.0021956453,-5.1457650013,6.7106709817,650
56855,188602,198531,5.0021956453,-5.1457650013,6.7106709817,651
57189,188732,198599,5.0021956453,-5.1457650013,6.7106709817,652
57501,188922,198685,5.0021956453,-5.1457650013,6.7106709817,653
57643,188975,198705,5.0021956453,-5.1457650013,6.7106709817,654
57706,189032,198728,5.0021956453,-5.1457650013,6.7106709817,655
57805,189056,198712,5.0021956453,-5.1457650013,6.7106709817,656
57927,189118,198737,5.0021956453,-5.1457650013,6.7106709817,657
58066,189216,198778,5.0021956453,-5.1457650013,6.7106709817,658
58241,189280,198825,5.0021956453,-5.1457650013,6.7106709817,659
58445,189378,198864,5.0021956453,-5.1457650013,6.7106709817,660
58635,189517,198914,5.0021956453,-5.1457650013,6.7106709817,661
58820,189558,198981,5.0021956453,-5.1457650013,6.7106709817,662
58990,189641,198963,5.0021956453,-5.1457650013,6.7106709817,663
59151,189702,198991,4.8239303616,-5.168496815999999,6.7669023128,664
59288,189786,199015,4.8239303616,-5.168496815999999,6.7669023128,665
59424,189859,199035,4.8239303616,-5.168496815999999,6.7669023128,666
59557,189907,199086,4.8239303616,-5.168496815999999,6.7669023128,667
59704,189984,199123,4.8239303616,-5.168496815999999,6.7669023128,668
59714,190001,199104,4.8239303616,-5.168496815999999,6.7669023128,669
58673,189614,198901,4.8239303616,-5.168496815999999,6.7669023128,670
57466,189065,198667,4.8239303616,-5.168496815999999,6.7669023128,671
57033,188779,198579,4.8239303616,-5.168496815999999,6.7669023128,672
56943,188692,198532,4.8239303616,-5.168496815999999,6.7669023128,673
57047,188699,198520,4.8239303616,-5.168496815999999,6.7669023128,674
57327,188830,198567,4.8239303616,-5.168496815999999,6.7669023128,675
57679,188970,198670,4.8239303616,-5.168496815999999,6.7669023128,676
57890,189101,198725,4.8239303616,-5.168496815999999,6.7669023128,677
57961,189122,198721,4.8239303616,-5.168496815999999,6.7669023128,678
58056,189163,198761,4.8239303616,-5.168496815999999,6.7669023128,679
58193,189249,198786,4.8239303616,-5.168496815999999,6.7669023128,680
58328,189263,198796,4.8239303616,-5.168496815999999,6.7669023128,681
58502,189354,198874,4.8239303616,-5.168496815999999,6.7669023128,682
58703,189458,198909,4.8239303616,-5.168496815999999,6.7669023128,683
58912,189593,198919,4.8239303616,-5.168496815999999,6.7669023128,684
59122,189613,199004,4.8239303616,-5.168496815999999,6.7669023128,685
59322,189737,199027,4.8239303616,-5.168496815999999,6.7669023128,686
59497,189817,199032,4.8239303616,-5.168496815999999,6.7669023128,687
59697,189898,199079,4.8239303616,-5.168496815999999,6.7669023128,688
59861,189996,199114,4.8239303616,-5.168496815999999,6.7669023128,689
60013,190053,199156,4.8239303616,-5.168496815999999,6.7669023128,690
60173,190148,199186,4.8239303616,-5.168496815999999,6.7669023128,691
60344,190221,199206,4.8239303616,-5.168496815999999,6.7669023128,692
60328,190200,199209,4.8239303616,-5.168496815999999,6.7669023128,693
59268,189781,199045,4.8239303616,-5.168496815999999,6.7669023128,694
58155,189288,198798,4.8239303616,-5.168496815999999,6.7669023128,695
57693,189062,198697,4.8885365718,-5.2115676228000005,6.6544396506,696
57541,188911,198645,4.8885365718,-5.2115676228000005,6.6544396506,697
57621,188867,198629,5.0273202826,-5.2055855663,6.7513489659,698
57812,189005,198664,4.7521456836,-5.1732824612,6.6975104574,699
58132,189121,198753,4.7593241513999995,-5.2007999211,6.7262243286,700
58398,189240,198795,4.7330031028,-5.276173833,6.7022961026,701
58501,189263,198838,4.878965281399999,-5.3012984703,6.703492513900001,702
58627,189352,198852,4.8622155232,-5.2115676228000005,6.7310099738,703
58762,189335,198919,4.9447679029,-5.1876393968,6.7178494495,704
58913,189458,198903,4.7700918531,-5.2450671392,6.7585274337,705
59098,189554,198960,4.7700918531,-5.2450671392,6.7585274337,706
59311,189684,198991,4.7700918531,-5.2450671392,6.7585274337,707
59545,189798,198993,4.7700918531,-5.2450671392,6.7585274337,708
59776,189864,199042,4.7700918531,-5.2450671392,6.7585274337,709
60004,189941,199138,4.7700918531,-5.2450671392,6.7585274337,710
60236,190039,199165,4.7700918531,-5.2450671392,6.7585274337,711
60442,190160,199178,4.7700918531,-5.2450671392,6.7585274337,712
60640,190223,199238,4.7700918531,-5.2450671392,6.7585274337,713
60820,190286,199258,4.7700918531,-5.2450671392,6.7585274337,714
61031,190386,199308,4.7700918531,-5.2450671392,6.7585274337,715
61223,190456,199301,4.7700918531,-5.2450671392,6.7585274337,716
61074,190382,199313,4.7700918531,-5.2450671392,6.7585274337,717
59974,189948,199088,4.7700918531,-5.2450671392,6.7585274337,718
59116,189548,198923,4.7700918531,-5.2450671392,6.7585274337,719
58774,189380,198810,4.7700918531,-5.2450671392,6.7585274337,720
58674,189287,198820,4.7700918531,-5.2450671392,6.7585274337,721
58762,189321,198835,4.7700918531,-5.2450671392,6.7585274337,722
59033,189434,198864,4.7700918531,-5.2450671392,6.7585274337,723
59320,189543,198916,4.7700918531,-5.2450671392,6.7585274337,724
59486,189591,198946,4.7700918531,-5.2450671392,6.7585274337,725
59600,189644,198961,4.7700918531,-5.2450671392,6.7585274337,726
59722,189688,198973,4.7700918531,-5.2450671392,6.7585274337,727
59846,189778,198978,4.7700918531,-5.2450671392,6.7585274337,728
60005,189859,199020,4.7700918531,-5.2450671392,6.7585274337,729
60193,189912,199081,4.7700918531,-5.2450671392,6.7585274337,730
60418,189985,199070,4.7700918531,-5.2450671392,6.7585274337,731
60636,190082,199195,4.7700918531,-5.2450671392,6.7585274337,732
60849,190208,199188,4.7700918531,-5.2450671392,6.7585274337,733
61073,190295,199211,4.7700918531,-5.2450671392,6.7585274337,734
61284,190375,199275,4.7700918531,-5.2450671392,6.7585274337,735
61480,190436,199278,4.7700918531,-5.2450671392,6.7585274337,736
61657,190561,199317,4.7700918531,-5.2450671392,6.7585274337,737
61836,190577,199361,4.7700918531,-5.2450671392,6.7585274337,738
62031,190683,199384,4.7700918531,-5.2450671392,6.7585274337,739
62104,190683,199403,4.7700918531,-5.2450671392,6.7585274337,740
61355,190391,199247,4.7700918531,-5.2450671392,6.7585274337,741
60225,189944,199064,4.7700918531,-5.2450671392,6.7585274337,742
59594,189661,198914,4.7700918531,-5.2450671392,6.7585274337,743
59272,189531,198851,4.7700918531,-5.2450671392,6.7585274337,744
59173,189483,198816,4.7700918531,-5.2450671392,6.7585274337,745
59300,189542,198823,4.7700918531,-5.2450671392,6.7585274337,746
59544,189620,198905,4.7090748768,-5.1673004047,6.6927248122,747
59745,189717,198945,4.7090748768,-5.1673004047,6.6927248122,748
59854,189753,198958,4.7090748768,-5.1673004047,6.6927248122,749
59935,189746,199000,4.7090748768,-5.1673004047,6.6927248122,750
60059,189841,198959,4.7090748768,-5.1673004047,6.6927248122,751
60190,189908,199018,4.7090748768,-5.1673004047,6.6927248122,752
60339,189973,199013,4.7090748768,-5.1673004047,6.6927248122,753
60524,190014,199045,4.7090748768,-5.1673004047,6.6927248122,754
60715,190134,199095,4.7090748768,-5.1673004047,6.6927248122,755
60904,190210,199146,4.7090748768,-5.1673004047,6.6927248122,756
61099,190304,199185,4.7090748768,-5.1673004047,6.6927248122,757
61289,190403,199213,4.7090748768,-5.1673004047,6.6927248122,758
61468,190482,199249,4.7090748768,-5.1673004047,6.6927248122,759
61615,190526,199252,4.7090748768,-5.1673004047,6.6927248122,760
61769,190588,199252,4.7090748768,-5.1673004047,6.6927248122,761
61908,190661,199373,4.7090748768,-5.1673004047,6.6927248122,762
62075,190709,199363,4.7090748768,-5.1673004047,6.6927248122,763
62120,190722,199391,4.7090748768,-5.1673004047,6.6927248122,764
61218,190392,199235,4.7090748768,-5.1673004047,6.6927248122,765
59813,189896,198921,4.7090748768,-5.1673004047,6.6927248122,766
59009,189533,198778,4.7090748768,-5.1673004047,6.6927248122,767
58619,189349,198722,4.7090748768,-5.1673004047,6.6927248122,768
58495,189289,198665,4.7090748768,-5.1673004047,6.6927248122,769
58617,189358,198699,4.7090748768,-5.1673004047,6.6927248122,770
58902,189454,198749,4.7090748768,-5.1673004047,6.6927248122,771
59105,189519,198783,4.7090748768,-5.1673004047,6.6927248122,772
59192,189547,198831,4.7090748768,-5.1673004047,6.6927248122,773
59264,189629,198830,4.7090748768,-5.1673004047,6.6927248122,774
59369,189649,198850,4.7090748768,-5.1673004047,6.6927248122,775
59486,189683,198901,4.7090748768,-5.1673004047,6.6927248122,776
59636,189742,198941,4.7090748768,-5.1673004047,6.6927248122,777
59808,189818,199006,4.7090748768,-5.1673004047,6.6927248122,778
59992,189891,198992,4.7090748768,-5.1673004047,6.6927248122,779
60182,190015,199056,4.7090748768,-5.1673004047,6.6927248122,780
60362,190089,199081,4.7090748768,-5.1673004047,6.6927248122,781
60550,190174,199120,4.7090748768,-5.1673004047,6.6927248122,782
60711,190207,199133,4.7090748768,-5.1673004047,6.6927248122,783
60848,190303,199177,4.7090748768,-5.1673004047,6.6927248122,784
60977,190374,199182,4.7090748768,-5.1673004047,6.6927248122,785
61116,190454,199228,4.8430729424,-5.3072805268000005,6.671189408799999,786
61258,190508,199238,4.8430729424,-5.3072805268000005,6.671189408799999,787
61272,190497,199261,4.8430729424,-5.3072805268000005,6.671189408799999,788
60228,190118,199086,4.8430729424,-5.3072805268000005,6.671189408799999,789
58767,189582,198811,4.8430729424,-5.3072805268000005,6.671189408799999,790
58095,189202,198661,4.8430729424,-5.3072805268000005,6.671189408799999,791
57903,189076,198593,4.8430729424,-5.3072805268000005,6.671189408799999,792
57920,189017,198589,4.8430729424,-5.3072805268000005,6.671189408799999,793
58139,189117,198671,4.8430729424,-5.3072805268000005,6.671189408799999,794
58450,189304,198710,4.8430729424,-5.3072805268000005,6.671189408799999,795
58623,189336,198749,4.8430729424,-5.3072805268000005,6.671189408799999,796
58690,189397,198758,4.8430729424,-5.3072805268000005,6.671189408799999,797
58768,189415,198800,4.8430729424,-5.3072805268000005,6.671189408799999,798
58871,189453,198823,4.8430729424,-5.3072805268000005,6.671189408799999,799
58983,189495,198817,4.8430729424,-5.3072805268000005,6.671189408799999,800
59141,189601,198903,4.8430729424,-5.3072805268000005,6.671189408799999,801
59326,189654,198899,4.8430729424,-5.3072805268000005,6.671189408799999,802
59505,189761,198940,4.8430729424,-5.3072805268000005,6.671189408799999,803
59702,189833,199006,4.8430729424,-5.3072805268000005,6.671189408799999,804
59888,189931,198997,4.8430729424,-5.3072805268000005,6.671189408799999,805
60054,190023,199027,4.8430729424,-5.3072805268000005,6.671189408799999,806
60215,190069,199079,4.8430729424,-5.3072805268000005,6.671189408799999,807
60345,190133,199092,4.8430729424,-5.3072805268000005,6.671189408799999,808
60462,190210,199124,4.8430729424,-5.3072805268000005,6.671189408799999,809
60609,190307,199191,4.8430729424,-5.3072805268000005,6.671189408799999,810
60728,190349,199205,4.8430729424,-5.3072805268000005,6.671189408799999,811
60139,190091,199089,4.8430729424,-5.3072805268000005,6.671189408799999,812
58615,189521,198793,4.8430729424,-5.3072805268000005,6.671189408799999,813
57753,189073,198654,4.8430729424,-5.3072805268000005,6.671189408799999,814
57422,188891,198511,4.8430729424,-5.3072805268000005,6.671189408799999,815
57368,188836,198492,4.8430729424,-5.3072805268000005,6.671189408799999,816
57505,188865,198524,4.8430729424,-5.3072805268000005,6.671189408799999,817
57822,189003,198616,4.8430729424,-5.3072805268000005,6.671189408799999,818
58133,189123,198685,4.8430729424,-5.3072805268000005,6.671189408799999,819
58252,189154,198731,4.8430729424,-5.3072805268000005,6.671189408799999,820
58321,189234,198733,4.8430729424,-5.3072805268000005,6.671189408799999,821
58409,189276,198758,4.8430729424,-5.3072805268000005,6.671189408799999,822
58520,189330,198769,4.8430729424,-5.3072805268000005,6.671189408799999,823
58665,189367,198819,4.8430729424,-5.3072805268000005,6.671189408799999,824
58823,189475,198847,4.8430729424,-5.3072805268000005,6.671189408799999,825
59017,189543,198862,4.8430729424,-5.3072805268000005,6.671189408799999,826
59205,189651,198883,4.8430729424,-5.3072805268000005,6.671189408799999,827
59185,189569,198917,4.7365923367,-5.1840501629,6.7812592484,828
59403,189643,198920,4.7365923367,-5.1840501629,6.7812592484,829
59601,189795,198956,4.7365923367,-5.1840501629,6.7812592484,830
59792,189862,199047,4.7365923367,-5.1840501629,6.7812592484,831
59961,189980,199054,4.7365923367,-5.1840501629,6.7812592484,832
60149,190042,199139,4.7365923367,-5.1840501629,6.7812592484,833
60337,190117,199160,4.7365923367,-5.1840501629,6.7812592484,834
60495,190172,199189,4.7365923367,-5.1840501629,6.7812592484,835
59995,189963,199088,4.7365923367,-5.1840501629,6.7812592484,836
58855,189513,198823,4.7365923367,-5.1840501629,6.7812592484,837
58263,189170,198687,4.7365923367,-5.1840501629,6.7812592484,838
58057,189013,198644,4.7365923367,-5.1840501629,6.7812592484,839
58026,188961,198598,4.7365923367,-5.1840501629,6.7812592484,840
58179,188989,198677,4.7365923367,-5.1840501629,6.7812592484,841
58471,189140,198716,4.7365923367,-5.1840501629,6.7812592484,842
58752,189231,198732,4.7365923367,-5.1840501629,6.7812592484,843
58883,189320,198814,4.7365923367,-5.1840501629,6.7812592484,844
59015,189389,198789,4.7365923367,-5.1840501629,6.7812592484,845
59150,189432,198823,4.7365923367,-5.1840501629,6.7812592484,846
59217,189510,198860,4.8215375389999995,-5.1194439527,6.7669023128,847
59506,189559,198956,4.8705904022999995,-5.2307102036,6.5994047308,848
59726,189668,198991,4.8705904022999995,-5.2307102036,6.5994047308,849
59969,189768,198977,4.8705904022999995,-5.2307102036,6.5994047308,850
60204,189899,199041,4.8705904022999995,-5.2307102036,6.5994047308,851
60437,189981,199099,4.8705904022999995,-5.2307102036,6.5994047308,852
60659,190065,199147,4.8705904022999995,-5.2307102036,6.5994047308,853
60879,190151,199169,4.8705904022999995,-5.2307102036,6.5994047308,854
61084,190227,199205,4.8705904022999995,-5.2307102036,6.5994047308,855
61286,190337,199257,4.8705904022999995,-5.2307102036,6.5994047308,856
61474,190409,199241,4.8705904022999995,-5.2307102036,6.5994047308,857
61665,190457,199291,4.8705904022999995,-5.2307102036,6.5994047308,858
61843,190546,199324,4.8705904022999995,-5.2307102036,6.5994047308,859
61555,190403,199267,4.8705904022999995,-5.2307102036,6.5994047308,860
60494,190000,199075,4.8705904022999995,-5.2307102036,6.5994047308,861
59733,189658,198903,4.8705904022999995,-5.2307102036,6.5994047308,862
59352,189463,198821,4.8705904022999995,-5.2307102036,6.5994047308,863
59201,189368,198760,4.8705904022999995,-5.2307102036,6.5994047308,864
59261,189359,198796,4.8705904022999995,-5.2307102036,6.5994047308,865
59481,189473,198825,4.8705904022999995,-5.2307102036,6.5994047308,866
59721,189587,198912,4.8705904022999995,-5.2307102036,6.5994047308,867
59872,189663,198931,4.8705904022999995,-5.2307102036,6.5994047308,868
59985,189697,198948,4.8705904022999995,-5.2307102036,6.5994047308,869
60107,189753,198994,4.8705904022999995,-5.2307102036,6.5994047308,870
60251,189808,198996,4.8705904022999995,-5.2307102036,6.5994047308,871
60418,189903,199031,4.8705904022999995,-5.2307102036,6.5994047308,872
60604,189966,199052,4.8705904022999995,-5.2307102036,6.5994047308,873
60809,190064,199079,4.8705904022999995,-5.2307102036,6.5994047308,874
61016,190143,199155,4.8705904022999995,-5.2307102036,6.5994047308,875
61236,190230,199204,4.8705904022999995,-5.2307102036,6.5994047308,876
61436,190321,199248,4.8705904022999995,-5.2307102036,6.5994047308,877
61619,190437,199216,4.8705904022999995,-5.2307102036,6.5994047308,878
61798,190470,199263,4.8705904022999995,-5.2307102036,6.5994047308,879
61964,190536,199295,4.8705904022999995,-5.2307102036,6.5994047308,880
62112,190612,199342,4.8705904022999995,-5.2307102036,6.5994047308,881
62283,190709,199401,4.8705904022999995,-5.2307102036,6.5994047308,882
62443,190775,199414,4.8705904022999995,-5.2307102036,6.5994047308,883
62274,190690,199425,4.8705904022999995,-5.2307102036,6.5994047308,884
61043,190257,199172,4.7904308452,-5.2091748002,6.7166530382000005,885
59876,189820,198967,4.7904308452,-5.2091748002,6.7166530382000005,886
59268,189493,198814,4.7904308452,-5.2091748002,6.7166530382000005,887
59008,189384,198769,4.7904308452,-5.2091748002,6.7166530382000005,888
58981,189391,198743,4.7904308452,-5.2091748002,6.7166530382000005,889
59170,189446,198823,4.7904308452,-5.2091748002,6.7166530382000005,890
59411,189568,198866,4.7904308452,-5.2091748002,6.7166530382000005,891
59519,189643,198888,4.7904308452,-5.2091748002,6.7166530382000005,892
59566,189670,198877,4.7904308452,-5.2091748002,6.7166530382000005,893
59638,189689,198914,4.7904308452,-5.2091748002,6.7166530382000005,894
59722,189714,198890,4.7904308452,-5.2091748002,6.7166530382000005,895
59846,189777,198987,4.7904308452,-5.2091748002,6.7166530382000005,896
59998,189884,199003,4.7904308452,-5.2091748002,6.7166530382000005,897
60182,189904,199017,4.7904308452,-5.2091748002,6.7166530382000005,898
60350,190016,199065,4.7904308452,-5.2091748002,6.7166530382000005,899
60532,190099,199087,4.7904308452,-5.2091748002,6.7166530382000005,900
60707,190208,199121,4.7904308452,-5.2091748002,6.7166530382000005,901
60877,190253,199147,4.7904308452,-5.2091748002,6.7166530382000005,902
61012,190341,199191,4.7904308452,-5.2091748002,6.7166530382000005,903
61134,190376,199204,4.7904308452,-5.2091748002,6.7166530382000005,904
61273,190469,199245,4.7904308452,-5.2091748002,6.7166530382000005,905
61411,190565,199313,4.7904308452,-5.2091748002,6.7166530382000005,906
61466,190556,199313,4.7904308452,-5.2091748002,6.7166530382000005,907
60624,190244,199151,4.7904308452,-5.2091748002,6.7166530382000005,908
59197,189715,198878,4.7904308452,-5.2091748002,6.7166530382000005,909
58408,189347,198738,4.7904308452,-5.2091748002,6.7166530382000005,910
58096,189129,198669,4.7904308452,-5.2091748002,6.7166530382000005,911
58019,189106,198642,4.7904308452,-5.2091748002,6.7166530382000005,912
58151,189132,198688,4.7904308452,-5.2091748002,6.7166530382000005,913
58458,189284,198722,4.7904308452,-5.2091748002,6.7166530382000005,914
58681,189400,198787,4.7904308452,-5.2091748002,6.7166530382000005,915
58756,189419,198816,4.7904308452,-5.2091748002,6.7166530382000005,916
58842,189476,198843,4.7904308452,-5.2091748002,6.7166530382000005,917
58938,189516,198849,4.7904308452,-5.2091748002,6.7166530382000005,918
59043,189569,198877,4.7904308452,-5.2091748002,6.7166530382000005,919
59194,189639,198917,4.7904308452,-5.2091748002,6.7166530382000005,920
59370,189722,198909,4.7904308452,-5.2091748002,6.7166530382000005,921
59567,189828,198956,4.7904308452,-5.2091748002,6.7166530382000005,922
59764,189906,199013,4.7904308452,-5.2091748002,6.7166530382000005,923
59944,190009,199065,4.7904308452,-5.2091748002,6.7166530382000005,924
60123,190087,199080,4.7904308452,-5.2091748002,6.7166530382000005,925
60281,190154,199166,4.7904308452,-5.2091748002,6.7166530382000005,926
60070,190145,199135,4.845465765,-5.2019963324,6.786044893600001,927
60200,190219,199177,4.845465765,-5.2019963324,6.786044893600001,928
60364,190334,199160,4.845465765,-5.2019963324,6.786044893600001,929
60496,190358,199253,4.845465765,-5.2019963324,6.786044893600001,930
60654,190434,199241,4.845465765,-5.2019963324,6.786044893600001,931
60677,190476,199245,4.845465765,-5.2019963324,6.786044893600001,932
59633,190072,199072,4.845465765,-5.2019963324,6.786044893600001,933
58259,189506,198825,4.845465765,-5.2019963324,6.786044893600001,934
57688,189203,198721,4.845465765,-5.2019963324,6.786044893600001,935
57532,189098,198639,4.845465765,-5.2019963324,6.786044893600001,936
57595,189069,198681,4.845465765,-5.2019963324,6.786044893600001,937
57849,189162,198676,4.845465765,-5.2019963324,6.786044893600001,938
58188,189308,198781,4.845465765,-5.2019963324,6.786044893600001,939
58407,189409,198778,4.845465765,-5.2019963324,6.786044893600001,940
58495,189462,198808,4.845465765,-5.2019963324,6.786044893600001,941
58557,189506,198835,4.845465765,-5.2019963324,6.786044893600001,942
58656,189526,198863,4.845465765,-5.2019963324,6.786044893600001,943
58766,189615,198853,4.845465765,-5.2019963324,6.786044893600001,944
58909,189619,198936,4.845465765,-5.2019963324,6.786044893600001,945
59091,189761,198900,4.845465765,-5.2019963324,6.786044893600001,946
59291,189830,198991,4.845465765,-5.2019963324,6.786044893600001,947
59501,189926,198997,4.845465765,-5.2019963324,6.786044893600001,948
59705,190010,199092,4.845465765,-5.2019963324,6.786044893600001,949
59871,190098,199123,4.845465765,-5.2019963324,6.786044893600001,950
60043,190199,199131,4.845465765,-5.2019963324,6.786044893600001,951
60185,190272,199193,4.845465765,-5.2019963324,6.786044893600001,952
60320,190325,199207,4.845465765,-5.2019963324,6.786044893600001,953
60468,190391,199229,4.845465765,-5.2019963324,6.786044893600001,954
60544,190417,199265,4.845465765,-5.2019963324,6.786044893600001,955
59790,190089,199103,4.845465765,-5.2019963324,6.786044893600001,956
58352,189575,198844,4.845465765,-5.2019963324,6.786044893600001,957
57661,189223,198664,4.845465765,-5.2019963324,6.786044893600001,958
57443,189053,198623,4.845465765,-5.2019963324,6.786044893600001,959
57431,189030,198638,4.845465765,-5.2019963324,6.786044893600001,960
57633,189058,198643,4.845465765,-5.2019963324,6.786044893600001,961
57944,189216,198763,4.845465765,-5.2019963324,6.786044893600001,962
58216,189343,198778,4.845465765,-5.2019963324,6.786044893600001,963
58335,189389,198784,4.845465765,-5.2019963324,6.786044893600001,964
58411,189440,198826,4.845465765,-5.2019963324,6.786044893600001,965
58523,189500,198840,4.845465765,-5.2019963324,6.786044893600001,966
58635,189574,198854,4.845465765,-5.2019963324,6.786044893600001,967
58785,189614,198896,4.845465765,-5.2019963324,6.786044893600001,968
59664,190044,199078,4.8658047571,-5.4137611324999995,6.7345992077,969
59835,190098,199136,4.8658047571,-5.4137611324999995,6.7345992077,970
59984,190186,199169,4.8658047571,-5.4137611324999995,6.7345992077,971
60121,190271,199179,4.8658047571,-5.4137611324999995,6.7345992077,972
60266,190306,199212,4.8658047571,-5.4137611324999995,6.7345992077,973
60396,190380,199181,4.8658047571,-5.4137611324999995,6.7345992077,974
59843,190158,199102,4.8658047571,-5.4137611324999995,6.7345992077,975
58331,189588,198842,4.8658047571,-5.4137611324999995,6.7345992077,976
57470,189167,198667,4.8658047571,-5.4137611324999995,6.7345992077,977
57204,188966,198581,4.8658047571,-5.4137611324999995,6.7345992077,978
57201,188938,198547,4.8658047571,-5.4137611324999995,6.7345992077,979
57380,188995,198613,4.8658047571,-5.4137611324999995,6.7345992077,980
57710,189097,198698,4.8658047571,-5.4137611324999995,6.7345992077,981
57979,189244,198737,4.8658047571,-5.4137611324999995,6.7345992077,982
58099,189273,198765,4.8658047571,-5.4137611324999995,6.7345992077,983
58162,189303,198772,4.8658047571,-5.4137611324999995,6.7345992077,984
58252,189344,198799,4.8658047571,-5.4137611324999995,6.7345992077,985
58337,189395,198808,4.8658047571,-5.4137611324999995,6.7345992077,986
58471,189475,198831,4.8658047571,-5.4137611324999995,6.7345992077,987
58646,189553,198888,4.8658047571,-5.4137611324999995,6.7345992077,988
58845,189658,198889,4.8658047571,-5.4137611324999995,6.7345992077,989
59037,189715,198978,4.8658047571,-5.4137611324999995,6.7345992077,990
59240,189784,198954,4.8658047571,-5.4137611324999995,6.7345992077,991
59414,189926,198996,4.8658047571,-5.4137611324999995,6.7345992077,992
59566,189980,199064,4.8658047571,-5.4137611324999995,6.7345992077,993
59698,190035,199104,4.8658047571,-5.4137611324999995,6.7345992077,994
59840,190082,199087,4.8658047571,-5.4137611324999995,6.7345992077,995
59981,190190,199125,4.8658047571,-5.4137611324999995,6.7345992077,996
60056,190231,199166,4.8658047571,-5.4137611324999995,6.7345992077,997
59218,189877,198995,4.8658047571,-5.4137611324999995,6.7345992077,998
57820,189317,198758,4.8658047571,-5.4137611324999995,6.7345992077,999
57195,188975,198607,4.8658047571,-5.4137611324999995,6.7345992077,1000
56999,188822,198524,4.8658047571,-5.4137611324999995,6.7345992077,1001
57021,188789,198554,4.8658047571,-5.4137611324999995,6.7345992077,1002
57244,188841,198558,4.8658047571,-5.4137611324999995,6.7345992077,1003
57577,189013,198622,4.8658047571,-5.4137611324999995,6.7345992077,1004
57841,189128,198702,4.8658047571,-5.4137611324999995,6.7345992077,1005
57949,189172,198756,4.8658047571,-5.4137611324999995,6.7345992077,1006
58026,189201,198709,4.8658047571,-5.4137611324999995,6.7345992077,1007
58127,189276,198817,4.8658047571,-5.4137611324999995,6.7345992077,1008
58246,189317,198800,4.8658047571,-5.4137611324999995,6.7345992077,1009
58375,189407,198818,4.8658047571,-5.4137611324999995,6.7345992077,1010
57818,189097,198708,4.845465765,-5.2259245584,6.664010941,1011
57876,189141,198756,4.845465765,-5.2259245584,6.664010941,1012
57961,189187,198773,4.845465765,-5.2259245584,6.664010941,1013
58061,189226,198771,4.845465765,-5.2259245584,6.664010941,1014
58182,189294,198801,4.845465765,-5.2259245584,6.664010941,1015
58352,189391,198840,4.845465765,-5.2259245584,6.664010941,1016
58541,189461,198885,4.845465765,-5.2259245584,6.664010941,1017
58748,189560,198945,4.845465765,-5.2259245584,6.664010941,1018
58946,189636,198930,4.845465765,-5.2259245584,6.664010941,1019
59131,189709,199008,4.845465765,-5.2259245584,6.664010941,1020
59284,189804,199049,4.845465765,-5.2259245584,6.664010941,1021
59436,189898,199060,4.845465765,-5.2259245584,6.664010941,1022
59575,189975,199046,4.845465765,-5.2259245584,6.664010941,1023
59711,190028,199130,4.845465765,-5.2259245584,6.664010941,1024
59845,190119,199164,4.845465765,-5.2259245584,6.664010941,1025
59356,189897,199090,4.845465765,-5.2259245584,6.664010941,1026
57895,189331,198820,4.845465765,-5.2259245584,6.664010941,1027
57082,188885,198590,4.845465765,-5.2259245584,6.664010941,1028
56828,188723,198473,4.845465765,-5.2259245584,6.664010941,1029
56805,188650,198518,4.7832523774,-5.280959478200001,6.7274207398999994,1030
56970,188669,198506,4.7832523774,-5.280959478200001,6.7274207398999994,1031
57304,188872,198631,4.7832523774,-5.280959478200001,6.7274207398999994,1032
57623,189005,198691,4.7832523774,-5.280959478200001,6.7274207398999994,1033
57763,189028,198732,4.7832523774,-5.280959478200001,6.7274207398999994,1034
57834,189110,198743,4.7832523774,-5.280959478200001,6.7274207398999994,1035
57933,189143,198734,4.7832523774,-5.280959478200001,6.7274207398999994,1036
58043,189233,198756,4.7832523774,-5.280959478200001,6.7274207398999994,1037
58191,189275,198827,4.7832523774,-5.280959478200001,6.7274207398999994,1038
58359,189363,198877,4.7832523774,-5.280959478200001,6.7274207398999994,1039
58553,189469,198885,4.7832523774,-5.280959478200001,6.7274207398999994,1040
58759,189562,198936,4.7832523774,-5.280959478200001,6.7274207398999994,1041
58955,189658,198944,4.7832523774,-5.280959478200001,6.7274207398999994,1042
59128,189746,198978,4.9148576204,-5.277370244299999,6.632904247199999,1043
59310,189709,199043,4.8131626599,-5.155336291699999,6.6101724325,1044
59450,189874,199098,4.878965281399999,-5.2570312522,6.7872413049,1045
59563,189925,199088,4.7712882644,-5.2498527844,6.7214386834,1046
59731,190014,199086,4.809573426,-5.2307102036,6.4498533183,1047
59867,190117,199088,4.9016970961,-5.194817864599999,6.6891355783,1048
59765,190055,199140,4.7533420949,-5.3048877041999996,6.709474570399999,1049
58394,189531,198868,4.8957150396,-5.2546384296,6.7190458608,1050
57174,188987,198678,4.8861437492,-5.1708896386,6.671189408799999,1051
56907,188807,198508,4.7294138689,-5.252245607000001,6.709474570399999,1052
56822,188587,198524,4.797609313,-5.3192446398,6.7633130788999996,1053
56932,188629,198507,4.8478585876,-5.240281494,6.7345992077,1054
57221,188724,198607,4.8598227006,-5.1864429855,6.709474570399999,1055
57614,188942,198701,4.7892344339,-5.2893343573,6.7585274337,1056
57786,189058,198722,4.9698925402,-5.1302116544,6.6664037636,1057
57883,189118,198740,4.8945186283,-5.2737810104,6.7214386834,1058
57980,189183,198764,4.7832523774,-5.2737810104,6.7130638043,1059
58098,189236,198821,4.7952164904,-5.3383872206000005,6.7381884416,1060
58240,189277,198827,4.8406801198,-5.2055855663,6.6783678766,1061
58403,189349,198838,4.9471607255,-5.1613183482,6.7429740868,1062
58592,189350,198871,4.809573426,-5.1649075821,6.728617151199999,1063
58800,189547,198902,4.8251267729,-5.114658307499999,6.5994047308,1064
59013,189658,198964,4.869393991,-5.2833523008,6.7585274337,1065
59226,189766,199062,4.7174497559,-5.2689953652,6.6939212235,1066
59405,189834,199040,4.9447679029,-5.2737810104,6.6436719489,1067
59602,189922,199119,4.9005006848,-5.2007999211,6.699903279999999,1068
59733,189969,199119,4.7892344339,-5.3192446398,6.5144595285,1069
59879,190064,199173,4.809573426,-5.2857451234,6.671189408799999,1070
60053,190154,199162,4.8586262893,-5.312066172,6.6376898924,1071
60064,190169,199181,4.845465765,-5.2905307686,6.7202422721,1072
59036,189740,198987,4.8514478215,-5.198407098500001,6.7513489659,1073
57806,189226,198811,4.878965281399999,-5.252245607000001,6.687939167000001,1074
57376,188941,198616,4.9304109673,-5.2175496793,6.728617151199999,1075
57243,188840,198613,4.833501652,-5.3730831483,6.7118673929999995,1076
57338,188767,198627,4.8047877808,-5.288137946,6.613761666399999,1077
57660,188945,198660,4.926821733400001,-5.1900322194,6.6388863037,1078
58000,189127,198730,4.8466621763,-5.1792645177,6.7022961026,1079
58196,189171,198806,4.7282174576000005,-5.4329037133,6.6951176348,1080
58280,189186,198825,4.8909293944,-5.3563333901,6.642475537599999,1081
58379,189317,198870,4.8131626599,-5.2247281471,6.7633130788999996,1082
58493,189352,198832,4.8610191119,-5.1649075821,6.7800628371,1083
58628,189390,198878,4.8406801198,-5.2450671392,6.6053867873000005,1084
58806,189471,198916,4.8945186283,-5.1792645177,6.5706908596,1085
59023,189584,198926,4.8753760475,-5.3431728658,6.5946190856,1086
59252,189673,199039,4.8287160068,-5.1840501629,6.644868360199999,1087
59426,189813,199060,4.8681975797,-5.2701917765,6.7046889252,1088
59691,189850,199075,4.7090748768,-5.264209719999999,6.6257257794,1089
59894,189975,199122,4.7808595548,-5.2307102036,6.664010941,1090
60090,190073,199189,4.754538506199999,-5.1290152431000005,6.757331022400001,1091
60264,190148,199182,4.9016970961,-5.2498527844,6.7214386834,1092
60476,190245,199234,4.816751893799999,-5.2187460906,6.7381884416,1093
60657,190323,199233,4.7042892316,-5.2725845991,6.7621166676,1094
60526,190230,199259,4.9136612091,-5.1266224204999995,6.6113688438,1095
59424,189817,199078,4.8526442328,-5.1218367753,6.5838513839,1096
58507,189384,198910,4.9435714916,-5.1014977832,6.6795642879,1097
58156,189170,198769,4.869393991,-5.168496815999999,6.7310099738,1098
58063,189046,198685,4.8610191119,-5.2857451234,6.6017975534,1099
58153,189141,198755,4.7700918531,-5.2091748002,6.6472611828,1100
58436,189279,198807,4.9686961289000005,-5.181657340299999,6.6652073523,1101
58763,189400,198846,4.8681975797,-5.2067819775999995,6.7609202563,1102
58962,189456,198908,4.8550370553999995,-5.252245607000001,6.6927248122,1103
59105,189500,198945,4.7665026192,-5.2438707279,6.7322063851000005,1104
59265,189558,198952,4.8358944746,-5.2845487121,6.6831535217999996,1105
59404,189591,198962,4.8921258057,-5.3204410510999995,6.7477597320000005,1106
59579,189713,199009,4.8179483051,-5.3204410510999995,6.6951176348,1107
59779,189813,199027,4.8921258057,-5.1637111708,6.5551375127,1108
60003,189885,199082,4.7904308452,-5.1756752837999995,6.6783678766,1109
60244,190031,199127,4.899304273499999,-5.280959478200001,6.6544396506,1110
60486,190120,199141,4.7892344339,-5.265406131300001,6.644868360199999,1111
60713,190214,199209,4.8382872972,-5.3300123415,6.7657059015,1112
60956,190329,199248,4.8382872972,-5.3300123415,6.7657059015,1113
61171,190339,199256,4.7641097966,-5.2630133087,6.6496540054,1114
61373,190538,199336,4.8586262893,-5.2091748002,6.644868360199999,1115
61593,190530,199360,4.7832523774,-5.3252266963,6.6855463444,1116
61786,190659,199370,4.8263231842,-5.197210687199999,6.7525453772,1117
61905,190582,199391,4.833501652,-5.2630133087,6.664010941,1118
61266,190414,199248,4.7449672158,-5.2977092364,6.6723858201,1119
60206,189957,199064,4.9016970961,-5.2905307686,6.7262243286,1120
59620,189678,199006,4.8358944746,-5.197210687199999,6.7262243286,1121
59401,189574,198890,4.857429878,-5.280959478200001,6.8422762247,1122
59295,189520,198844,4.8239303616,-5.166103993399999,6.632904247199999,1123
59422,189551,198886,4.8239303616,-5.166103993399999,6.632904247199999,1124
59702,189683,198952,4.8239303616,-5.166103993399999,6.632904247199999,1125
59937,189784,198994,4.8239303616,-5.166103993399999,6.632904247199999,1126
60089,189842,199052,4.8239303616,-5.166103993399999,6.632904247199999,1127
60208,189891,198981,4.8239303616,-5.166103993399999,6.632904247199999,1128
60342,189976,199097,4.8239303616,-5.166103993399999,6.632904247199999,1129
60492,190025,199088,4.8239303616,-5.166103993399999,6.632904247199999,1130
60684,190115,199085,4.8239303616,-5.166103993399999,6.632904247199999,1131
60880,190173,199140,4.8239303616,-5.166103993399999,6.632904247199999,1132
61091,190260,199182,4.8239303616,-5.166103993399999,6.632904247199999,1133
61306,190382,199229,4.8239303616,-5.166103993399999,6.632904247199999,1134
61532,190446,199239,4.8239303616,-5.166103993399999,6.632904247199999,1135
61750,190561,199275,4.8239303616,-5.166103993399999,6.632904247199999,1136
61951,190603,199358,4.8239303616,-5.166103993399999,6.632904247199999,1137
62128,190705,199386,4.8239303616,-5.166103993399999,6.632904247199999,1138
62323,190777,199399,4.8239303616,-5.166103993399999,6.632904247199999,1139
62512,190837,199420,4.8239303616,-5.166103993399999,6.632904247199999,1140
62679,190904,199454,4.8239303616,-5.166103993399999,6.632904247199999,1141
62487,190806,199418,4.8239303616,-5.166103993399999,6.632904247199999,1142
61382,190375,199187,4.8239303616,-5.166103993399999,6.632904247199999,1143
60397,189991,199055,4.8239303616,-5.166103993399999,6.632904247199999,1144
59881,189801,198925,4.8239303616,-5.166103993399999,6.632904247199999,1145
59660,189674,198930,4.8239303616,-5.166103993399999,6.632904247199999,1146
59669,189676,198890,4.8239303616,-5.166103993399999,6.632904247199999,1147
59884,189753,198909,4.8239303616,-5.166103993399999,6.632904247199999,1148
60108,189849,198948,4.8239303616,-5.166103993399999,6.632904247199999,1149
60205,189877,198958,4.8239303616,-5.166103993399999,6.632904247199999,1150
60280,189912,198999,4.8239303616,-5.166103993399999,6.632904247199999,1151
60363,189963,199004,4.8239303616,-5.166103993399999,6.632904247199999,1152
60459,189982,199042,4.8239303616,-5.166103993399999,6.632904247199999,1153
60594,190036,199050,4.8239303616,-5.166103993399999,6.632904247199999,1154
60749,190142,199067,4.8239303616,-5.166103993399999,6.632904247199999,1155
60930,190202,199118,4.8239303616,-5.166103993399999,6.632904247199999,1156
61113,190278,199115,4.8239303616,-5.166103993399999,6.632904247199999,1157
61302,190385,199170,4.8239303616,-5.166103993399999,6.632904247199999,1158
61473,190449,199230,4.8239303616,-5.166103993399999,6.632904247199999,1159
61651,190533,199212,4.8239303616,-5.166103993399999,6.632904247199999,1160
61794,190554,199257,4.8239303616,-5.166103993399999,6.632904247199999,1161
61946,190646,199282,4.8239303616,-5.166103993399999,6.632904247199999,1162
62083,190687,199331,4.8239303616,-5.166103993399999,6.632904247199999,1163
62234,190747,199326,4.8239303616,-5.166103993399999,6.632904247199999,1164
61999,190674,199319,4.9232324995,-5.194817864599999,6.7022961026,1165
60685,190161,199068,4.9232324995,-5.194817864599999,6.7022961026,1166
59478,189740,198846,4.9232324995,-5.194817864599999,6.7022961026,1167
58866,189462,198737,4.9232324995,-5.194817864599999,6.7022961026,1168
58601,189325,198681,4.9232324995,-5.194817864599999,6.7022961026,1169
58588,189254,198674,4.9232324995,-5.194817864599999,6.7022961026,1170
58795,189344,198727,4.9232324995,-5.194817864599999,6.7022961026,1171
59055,189468,198804,4.9232324995,-5.194817864599999,6.7022961026,1172
59182,189534,198787,4.9232324995,-5.194817864599999,6.7022961026,1173
59253,189564,198863,4.9232324995,-5.194817864599999,6.7022961026,1174
59340,189605,198894,4.9232324995,-5.194817864599999,6.7022961026,1175
59426,189615,198937,4.9232324995,-5.194817864599999,6.7022961026,1176
59555,189726,198885,4.9232324995,-5.194817864599999,6.7022961026,1177
59706,189740,198959,4.9232324995,-5.194817864599999,6.7022961026,1178
59893,189857,198946,4.9232324995,-5.194817864599999,6.7022961026,1179
60076,189925,199041,4.9232324995,-5.194817864599999,6.7022961026,1180
60264,190055,199073,4.9232324995,-5.194817864599999,6.7022961026,1181
60438,190132,199086,4.9232324995,-5.194817864599999,6.7022961026,1182
60620,190220,199091,4.9232324995,-5.194817864599999,6.7022961026,1183
60769,190248,199153,4.9232324995,-5.194817864599999,6.7022961026,1184
60902,190338,199173,4.9232324995,-5.194817864599999,6.7022961026,1185
61045,190389,199215,4.9232324995,-5.194817864599999,6.7022961026,1186
61168,190436,199221,4.9232324995,-5.194817864599999,6.7022961026,1187
61281,190501,199245,4.9232324995,-5.194817864599999,6.7022961026,1188
60574,190229,199107,4.9232324995,-5.194817864599999,6.7022961026,1189
59036,189653,198831,4.9232324995,-5.194817864599999,6.7022961026,1190
58178,189256,198713,4.9232324995,-5.194817864599999,6.7022961026,1191
57835,189070,198581,4.9232324995,-5.194817864599999,6.7022961026,1192
57757,188972,198549,4.9232324995,-5.194817864599999,6.7022961026,1193
57890,189045,198609,4.9232324995,-5.194817864599999,6.7022961026,1194
58210,189141,198715,4.9232324995,-5.194817864599999,6.7022961026,1195
58476,189235,198758,4.9232324995,-5.194817864599999,6.7022961026,1196
58601,189289,198674,4.7330031028,-5.2546384296,6.715456626899999,1197
58680,189358,198826,4.7330031028,-5.2546384296,6.715456626899999,1198
58785,189389,198830,4.7330031028,-5.2546384296,6.715456626899999,1199
58897,189435,198823,4.7330031028,-5.2546384296,6.715456626899999,1200
59052,189556,198846,4.7330031028,-5.2546384296,6.715456626899999,1201
59217,189627,198921,4.7330031028,-5.2546384296,6.715456626899999,1202
59414,189695,198904,4.7330031028,-5.2546384296,6.715456626899999,1203
59608,189799,198970,4.7330031028,-5.2546384296,6.715456626899999,1204
59794,189914,199002,4.7330031028,-5.2546384296,6.715456626899999,1205
59985,189977,199037,4.7330031028,-5.2546384296,6.715456626899999,1206
60142,190074,199075,4.7330031028,-5.2546384296,6.715456626899999,1207
60313,190138,199099,4.7330031028,-5.2546384296,6.715456626899999,1208
60456,190198,199157,4.7330031028,-5.2546384296,6.715456626899999,1209
60582,190233,199149,4.7330031028,-5.2546384296,6.715456626899999,1210
60719,190317,199197,4.7330031028,-5.2546384296,6.715456626899999,1211
60846,190364,199226,4.7330031028,-5.2546384296,6.715456626899999,1212
60257,190156,199120,4.7330031028,-5.2546384296,6.715456626899999,1213
58699,189552,198855,4.7330031028,-5.2546384296,6.715456626899999,1214
57808,189168,198705,4.7330031028,-5.2546384296,6.715456626899999,1215
57514,188916,198559,4.7330031028,-5.2546384296,6.715456626899999,1216
57502,188921,198562,4.7330031028,-5.2546384296,6.715456626899999,1217
57697,188908,198626,4.7330031028,-5.2546384296,6.715456626899999,1218
58043,189111,198654,4.7330031028,-5.2546384296,6.715456626899999,1219
58318,189225,198758,4.7330031028,-5.2546384296,6.715456626899999,1220
58427,189250,198782,4.7330031028,-5.2546384296,6.715456626899999,1221
58506,189321,198780,4.7330031028,-5.2546384296,6.715456626899999,1222
58586,189340,198811,4.7330031028,-5.2546384296,6.715456626899999,1223
58694,189376,198827,4.7330031028,-5.2546384296,6.715456626899999,1224
58809,189492,198865,4.7330031028,-5.2546384296,6.715456626899999,1225
58963,189539,198916,4.7330031028,-5.2546384296,6.715456626899999,1226
59143,189622,198909,4.7330031028,-5.2546384296,6.715456626899999,1227
59327,189705,198948,4.7330031028,-5.2546384296,6.715456626899999,1228
59507,189802,198989,4.7330031028,-5.2546384296,6.715456626899999,1229
59686,189882,199020,4.7330031028,-5.2546384296,6.715456626899999,1230
59828,189952,199034,4.7330031028,-5.2546384296,6.715456626899999,1231
59973,190013,199060,4.7330031028,-5.2546384296,6.715456626899999,1232
60106,190084,199111,4.7330031028,-5.2546384296,6.715456626899999,1233
60238,190129,199115,4.7330031028,-5.2546384296,6.715456626899999,1234
60361,190205,199148,4.7330031028,-5.2546384296,6.715456626899999,1235
59949,190042,199077,4.7330031028,-5.2546384296,6.715456626899999,1236
58485,189491,198822,4.7330031028,-5.2546384296,6.715456626899999,1237
57570,189069,198635,4.7330031028,-5.2546384296,6.715456626899999,1238
59808,189979,199068,4.8143590712,-5.2498527844,6.753741788499999,1239
59942,190055,199107,4.8143590712,-5.2498527844,6.753741788499999,1240
60067,190106,199146,4.8143590712,-5.2498527844,6.753741788499999,1241
59472,189878,199026,4.8143590712,-5.2498527844,6.753741788499999,1242
58039,189336,198751,4.8143590712,-5.2498527844,6.753741788499999,1243
57319,188946,198614,4.8143590712,-5.2498527844,6.753741788499999,1244
57126,188734,198588,4.8143590712,-5.2498527844,6.753741788499999,1245
57161,188724,198584,4.8143590712,-5.2498527844,6.753741788499999,1246
57367,188802,198623,4.8143590712,-5.2498527844,6.753741788499999,1247
57716,188950,198649,4.8143590712,-5.2498527844,6.753741788499999,1248
57979,189078,198738,4.8143590712,-5.2498527844,6.753741788499999,1249
58077,189084,198733,4.8143590712,-5.2498527844,6.753741788499999,1250
58159,189179,198760,4.8143590712,-5.2498527844,6.753741788499999,1251
58262,189201,198790,4.8143590712,-5.2498527844,6.753741788499999,1252
58380,189264,198829,4.8143590712,-5.2498527844,6.753741788499999,1253
58559,189356,198856,4.8143590712,-5.2498527844,6.753741788499999,1254
58750,189436,198891,4.8143590712,-5.2498527844,6.753741788499999,1255
58964,189521,198950,4.8143590712,-5.2498527844,6.753741788499999,1256
59182,189621,198993,4.8143590712,-5.2498527844,6.753741788499999,1257
59384,189736,199012,4.8143590712,-5.2498527844,6.753741788499999,1258
59589,189804,199051,4.8143590712,-5.2498527844,6.753741788499999,1259
59772,189906,199071,4.8143590712,-5.2498527844,6.753741788499999,1260
59938,190006,199111,4.8143590712,-5.2498527844,6.753741788499999,1261
60119,190023,199145,4.8143590712,-5.2498527844,6.753741788499999,1262
60307,190134,199193,4.8143590712,-5.2498527844,6.753741788499999,1263
60437,190174,199150,4.8143590712,-5.2498527844,6.753741788499999,1264
59718,189903,199058,4.8143590712,-5.2498527844,6.753741788499999,1265
58596,189398,198817,4.8143590712,-5.2498527844,6.753741788499999,1266
58088,189173,198749,4.8143590712,-5.2498527844,6.753741788499999,1267
57902,189008,198644,4.8143590712,-5.2498527844,6.753741788499999,1268
57913,188973,198684,4.8143590712,-5.2498527844,6.753741788499999,1269
58108,189015,198696,4.8143590712,-5.2498527844,6.753741788499999,1270
58424,189184,198747,4.8143590712,-5.2498527844,6.753741788499999,1271
58697,189289,198823,4.8143590712,-5.2498527844,6.753741788499999,1272
58838,189350,198886,4.8143590712,-5.2498527844,6.753741788499999,1273
58975,189414,198890,4.8143590712,-5.2498527844,6.753741788499999,1274
59124,189468,198891,4.8143590712,-5.2498527844,6.753741788499999,1275
59289,189551,198912,4.8143590712,-5.2498527844,6.753741788499999,1276
59491,189617,199018,4.8143590712,-5.2498527844,6.753741788499999,1277
59697,189721,199004,4.8143590712,-5.2498527844,6.753741788499999,1278
59942,189835,199024,4.8143590712,-5.2498527844,6.753741788499999,1279
60183,189931,199114,4.8143590712,-5.2498527844,6.753741788499999,1280
58898,189391,198814,4.7868416113,-5.137390122199999,6.632904247199999,1281
59022,189475,198866,4.7868416113,-5.137390122199999,6.632904247199999,1282
59077,189513,198864,4.7868416113,-5.137390122199999,6.632904247199999,1283
59150,189548,198857,4.7868416113,-5.137390122199999,6.632904247199999,1284
59270,189596,198886,4.7868416113,-5.137390122199999,6.632904247199999,1285
59403,189674,198946,4.7868416113,-5.137390122199999,6.632904247199999,1286
59580,189769,198951,4.7868416113,-5.137390122199999,6.632904247199999,1287
59762,189843,198985,4.7868416113,-5.137390122199999,6.632904247199999,1288
59939,189887,199029,4.7868416113,-5.137390122199999,6.632904247199999,1289
60134,189984,199053,4.7868416113,-5.137390122199999,6.632904247199999,1290
60298,190090,199090,4.7868416113,-5.137390122199999,6.632904247199999,1291
60459,190194,199148,4.7868416113,-5.137390122199999,6.632904247199999,1292
60600,190282,199199,4.7868416113,-5.137390122199999,6.632904247199999,1293
60737,190273,199213,4.7868416113,-5.137390122199999,6.632904247199999,1294
60864,190390,199226,4.7868416113,-5.137390122199999,6.632904247199999,1295
61001,190441,199246,4.7868416113,-5.137390122199999,6.632904247199999,1296
61095,190504,199264,4.7868416113,-5.137390122199999,6.632904247199999,1297
60462,190257,199165,4.7868416113,-5.137390122199999,6.632904247199999,1298
58950,189672,198934,4.7868416113,-5.137390122199999,6.632904247199999,1299
58098,189260,198743,4.7868416113,-5.137390122199999,6.632904247199999,1300
57764,189128,198611,4.7868416113,-5.137390122199999,6.632904247199999,1301
57685,189032,198616,4.7868416113,-5.137390122199999,6.632904247199999,1302
57818,189022,198660,4.7868416113,-5.137390122199999,6.632904247199999,1303
58113,189152,198681,4.7868416113,-5.137390122199999,6.632904247199999,1304
58418,189312,198809,4.7868416113,-5.137390122199999,6.632904247199999,1305
58537,189397,198840,4.7868416113,-5.137390122199999,6.632904247199999,1306
58602,189409,198852,4.7868416113,-5.137390122199999,6.632904247199999,1307
58697,189485,198817,4.7868416113,-5.137390122199999,6.632904247199999,1308
58812,189522,198875,4.7868416113,-5.137390122199999,6.632904247199999,1309
58958,189614,198920,4.7868416113,-5.137390122199999,6.632904247199999,1310
59117,189680,198946,4.7868416113,-5.137390122199999,6.632904247199999,1311
59308,189787,198969,4.7868416113,-5.137390122199999,6.632904247199999,1312
59514,189880,199028,4.7760739096,-5.1361937109,6.664010941,1313
59693,189923,199040,4.7760739096,-5.1361937109,6.664010941,1314
59866,190071,199090,4.7760739096,-5.1361937109,6.664010941,1315
60034,190172,199130,4.7760739096,-5.1361937109,6.664010941,1316
60184,190210,199145,4.7760739096,-5.1361937109,6.664010941,1317
60312,190262,199179,4.7760739096,-5.1361937109,6.664010941,1318
60458,190365,199241,4.7760739096,-5.1361937109,6.664010941,1319
60587,190401,199204,4.7760739096,-5.1361937109,6.664010941,1320
60711,190459,199235,4.7760739096,-5.1361937109,6.664010941,1321
60241,190297,199203,4.7760739096,-5.1361937109,6.664010941,1322
58767,189726,198894,4.7760739096,-5.1361937109,6.664010941,1323
57868,189321,198709,4.7760739096,-5.1361937109,6.664010941,1324
57576,189123,198606,4.7760739096,-5.1361937109,6.664010941,1325
57557,189050,198647,4.7760739096,-5.1361937109,6.664010941,1326
57726,189111,198690,4.7760739096,-5.1361937109,6.664010941,1327
58067,189234,198741,4.7760739096,-5.1361937109,6.664010941,1328
58351,189388,198811,4.7760739096,-5.1361937109,6.664010941,1329
58451,189443,198790,4.7760739096,-5.1361937109,6.664010941,1330
58517,189499,198863,4.7760739096,-5.1361937109,6.664010941,1331
58582,189521,198862,4.8311088294,-5.198407098500001,6.659225295800001,1332
58669,189463,198881,4.8311088294,-5.198407098500001,6.659225295800001,1333
58825,189631,198926,4.7605205627,-5.2247281471,6.7322063851000005,1334
58973,189734,198922,4.8406801198,-5.2007999211,6.563512391800001,1335
59161,189750,199000,4.9160540317,-5.252245607000001,6.628118602,1336
59396,189909,198999,4.8526442328,-5.2031927437,6.7010996913000005,1337
59564,189966,199049,4.7796631435,-5.228317381,6.6532432393,1338
59743,190038,199102,4.8131626599,-5.0464628634,6.7010996913000005,1339
59907,190115,199078,4.883750926599999,-5.2211389132,6.709474570399999,1340
60048,190198,199133,4.7724846757,-5.252245607000001,6.6771714653,1341
60193,190269,199143,4.9232324995,-5.2785666556,6.753741788499999,1342
60316,190347,199184,4.9567320159,-5.2378886713999995,6.6017975534,1343
60456,190389,199153,4.9567320159,-5.2378886713999995,6.6017975534,1344
60485,190447,199256,4.9567320159,-5.2378886713999995,6.6017975534,1345
59488,190057,199081,4.9567320159,-5.2378886713999995,6.6017975534,1346
58159,189547,198776,4.9567320159,-5.2378886713999995,6.6017975534,1347
57605,189214,198631,4.9567320159,-5.2378886713999995,6.6017975534,1348
57440,189084,198583,4.9567320159,-5.2378886713999995,6.6017975534,1349
57459,189083,198627,4.9567320159,-5.2378886713999995,6.6017975534,1350
57682,189155,198675,4.857429878,-5.2713881878,6.7345992077,1351
58010,189242,198740,4.8263231842,-5.213960445400001,6.7334027964,1352
58261,189405,198780,4.816751893799999,-5.210371211499999,6.6352970698,1353
58348,189440,198821,4.8000021356,-5.1756752837999995,6.7070817478,1354
58436,189516,198812,4.8000021356,-5.1756752837999995,6.7070817478,1355
58536,189514,198849,4.8000021356,-5.1756752837999995,6.7070817478,1356
58654,189604,198864,4.8000021356,-5.1756752837999995,6.7070817478,1357
58810,189690,198894,4.8000021356,-5.1756752837999995,6.7070817478,1358
59001,189773,198916,4.8000021356,-5.1756752837999995,6.7070817478,1359
59198,189849,198999,4.8000021356,-5.1756752837999995,6.7070817478,1360
59388,189938,199008,4.8000021356,-5.1756752837999995,6.7070817478,1361
59586,190006,199040,4.8000021356,-5.1756752837999995,6.7070817478,1362
59763,190078,199090,4.8000021356,-5.1756752837999995,6.7070817478,1363
59934,190197,199109,4.8000021356,-5.1756752837999995,6.7070817478,1364
60082,190265,199129,4.8000021356,-5.1756752837999995,6.7070817478,1365
60222,190347,199171,4.8000021356,-5.1756752837999995,6.7070817478,1366
60357,190408,199209,4.8000021356,-5.1756752837999995,6.7070817478,1367
60500,190494,199220,4.8000021356,-5.1756752837999995,6.7070817478,1368
60627,190550,199245,4.8000021356,-5.1756752837999995,6.7070817478,1369
60098,190325,199192,4.8000021356,-5.1756752837999995,6.7070817478,1370
58625,189775,198862,4.8000021356,-5.1756752837999995,6.7070817478,1371
57788,189321,198732,4.8000021356,-5.1756752837999995,6.7070817478,1372
57485,189166,198641,4.8000021356,-5.1756752837999995,6.7070817478,1373
57434,189114,198654,4.8000021356,-5.1756752837999995,6.7070817478,1374
57584,189153,198629,4.8000021356,-5.1756752837999995,6.7070817478,1375
57887,189282,198734,4.8000021356,-5.1756752837999995,6.7070817478,1376
58201,189424,198818,4.8000021356,-5.1756752837999995,6.7070817478,1377
58343,189470,198844,4.8000021356,-5.1756752837999995,6.7070817478,1378
58418,189505,198854,4.8000021356,-5.1756752837999995,6.7070817478,1379
58529,189552,198856,4.8000021356,-5.1756752837999995,6.7070817478,1380
58630,189620,198876,4.8000021356,-5.1756752837999995,6.7070817478,1381
58769,189681,198962,4.8000021356,-5.1756752837999995,6.7070817478,1382
58937,189736,198984,4.8000021356,-5.1756752837999995,6.7070817478,1383
59143,189841,199001,4.8000021356,-5.1756752837999995,6.7070817478,1384
59347,189925,199012,4.8000021356,-5.1756752837999995,6.7070817478,1385
59540,190004,199086,4.8000021356,-5.1756752837999995,6.7070817478,1386
59731,190157,199108,4.8000021356,-5.1756752837999995,6.7070817478,1387
59894,190211,199102,4.8000021356,-5.1756752837999995,6.7070817478,1388
60070,190299,199184,4.8000021356,-5.1756752837999995,6.7070817478,1389
60208,190349,199212,4.8000021356,-5.1756752837999995,6.7070817478,1390
60339,190408,199265,4.8000021356,-5.1756752837999995,6.7070817478,1391
60484,190500,199244,4.8000021356,-5.1756752837999995,6.7070817478,1392
60631,190561,199298,4.8000021356,-5.1756752837999995,6.7070817478,1393
60709,190586,199257,4.8000021356,-5.1756752837999995,6.7070817478,1394
59872,190274,199136,4.8000021356,-5.1756752837999995,6.7070817478,1395
60216,190315,199192,4.8909293944,-5.1086762509999994,6.7070817478,1396
60358,190375,199187,4.8909293944,-5.1086762509999994,6.7070817478,1397
60504,190457,199220,4.8909293944,-5.1086762509999994,6.7070817478,1398
60541,190494,199215,4.8909293944,-5.1086762509999994,6.7070817478,1399
59605,190107,199075,4.8909293944,-5.1086762509999994,6.7070817478,1400
58275,189577,198813,4.8909293944,-5.1086762509999994,6.7070817478,1401
57672,189245,198658,4.8909293944,-5.1086762509999994,6.7070817478,1402
57459,189098,198614,4.8909293944,-5.1086762509999994,6.7070817478,1403
57469,189042,198599,4.8909293944,-5.1086762509999994,6.7070817478,1404
57672,189116,198653,4.8909293944,-5.1086762509999994,6.7070817478,1405
57992,189264,198713,4.8909293944,-5.1086762509999994,6.7070817478,1406
58253,189351,198751,4.8909293944,-5.1086762509999994,6.7070817478,1407
58350,189370,198817,4.8909293944,-5.1086762509999994,6.7070817478,1408
58423,189438,198833,4.8909293944,-5.1086762509999994,6.7070817478,1409
58523,189481,198856,4.8909293944,-5.1086762509999994,6.7070817478,1410
58630,189542,198830,4.8909293944,-5.1086762509999994,6.7070817478,1411
58774,189638,198898,4.8909293944,-5.1086762509999994,6.7070817478,1412
58961,189706,198858,4.8909293944,-5.1086762509999994,6.7070817478,1413
59153,189774,198924,4.8909293944,-5.1086762509999994,6.7070817478,1414
59346,189876,199001,4.8909293944,-5.1086762509999994,6.7070817478,1415
59542,189958,199015,4.8909293944,-5.1086762509999994,6.7070817478,1416
59716,190032,199022,4.8909293944,-5.1086762509999994,6.7070817478,1417
59879,190128,199043,4.8909293944,-5.1086762509999994,6.7070817478,1418
60039,190217,199088,4.8909293944,-5.1086762509999994,6.7070817478,1419
60187,190237,199111,4.8909293944,-5.1086762509999994,6.7070817478,1420
60317,190350,199171,4.8909293944,-5.1086762509999994,6.7070817478,1421
60447,190393,199186,4.8909293944,-5.1086762509999994,6.7070817478,1422
60579,190426,199213,4.8909293944,-5.1086762509999994,6.7070817478,1423
60073,190254,199150,4.8909293944,-5.1086762509999994,6.7070817478,1424
58593,189667,198877,4.8909293944,-5.1086762509999994,6.7070817478,1425
57721,189264,198673,4.8909293944,-5.1086762509999994,6.7070817478,1426
57406,189061,198582,4.8909293944,-5.1086762509999994,6.7070817478,1427
57360,188960,198584,4.9112683865,-5.1960142759,6.6161544889999995,1428
57494,189005,198584,4.9112683865,-5.1960142759,6.6161544889999995,1429
57800,189134,198663,4.9112683865,-5.1960142759,6.6161544889999995,1430
58107,189272,198736,4.9112683865,-5.1960142759,6.6161544889999995,1431
58256,189358,198731,4.9112683865,-5.1960142759,6.6161544889999995,1432
58339,189380,198783,4.9112683865,-5.1960142759,6.6161544889999995,1433
58433,189440,198803,4.9112683865,-5.1960142759,6.6161544889999995,1434
58534,189453,198807,4.9112683865,-5.1960142759,6.6161544889999995,1435
58669,189565,198828,4.9112683865,-5.1960142759,6.6161544889999995,1436
58830,189614,198868,4.9112683865,-5.1960142759,6.6161544889999995,1437
59019,189707,198933,4.9112683865,-5.1960142759,6.6161544889999995,1438
59216,189796,198951,4.9112683865,-5.1960142759,6.6161544889999995,1439
59417,189892,199018,4.9112683865,-5.1960142759,6.6161544889999995,1440
59606,189995,199038,4.9112683865,-5.1960142759,6.6161544889999995,1441
59781,190059,199090,4.9112683865,-5.1960142759,6.6161544889999995,1442
59942,190155,199102,4.9112683865,-5.1960142759,6.6161544889999995,1443
60082,190226,199167,4.9112683865,-5.1960142759,6.6161544889999995,1444
60222,190290,199106,4.9112683865,-5.1960142759,6.6161544889999995,1445
60381,190335,199203,4.9112683865,-5.1960142759,6.6161544889999995,1446
60517,190366,199201,4.9112683865,-5.1960142759,6.6161544889999995,1447
60135,190255,199159,4.8873401605,-5.2989056477,6.6664037636,1448
58665,189672,198884,4.8873401605,-5.2989056477,6.6664037636,1449
57713,189229,198643,4.8873401605,-5.2989056477,6.6664037636,1450
57410,189023,198599,4.8873401605,-5.2989056477,6.6664037636,1451
57417,188975,198574,4.8873401605,-5.2989056477,6.6664037636,1452
57591,189026,198649,4.8873401605,-5.2989056477,6.6664037636,1453
57892,189176,198726,4.8873401605,-5.2989056477,6.6664037636,1454
58181,189251,198743,4.8873401605,-5.2989056477,6.6664037636,1455
58294,189345,198766,4.8873401605,-5.2989056477,6.6664037636,1456
58348,189378,198770,4.8873401605,-5.2989056477,6.6664037636,1457
58432,189443,198781,4.8873401605,-5.2989056477,6.6664037636,1458
58536,189456,198817,4.8873401605,-5.2989056477,6.6664037636,1459
58662,189539,198831,4.8873401605,-5.2989056477,6.6664037636,1460
58815,189590,198906,4.8873401605,-5.2989056477,6.6664037636,1461
59014,189702,198908,4.8873401605,-5.2989056477,6.6664037636,1462
59208,189768,198910,4.8873401605,-5.2989056477,6.6664037636,1463
59383,189870,198963,4.8873401605,-5.2989056477,6.6664037636,1464
59581,189949,199000,4.8873401605,-5.2989056477,6.6664037636,1465
59753,190052,199033,4.8873401605,-5.2989056477,6.6664037636,1466
59911,190114,199076,4.8873401605,-5.2989056477,6.6664037636,1467
60027,190165,199110,4.8873401605,-5.2989056477,6.6664037636,1468
60158,190253,199139,4.8873401605,-5.2989056477,6.6664037636,1469
60305,190288,199171,4.8873401605,-5.2989056477,6.6664037636,1470
60052,190198,199122,4.8873401605,-5.2989056477,6.6664037636,1471
58650,189654,198881,4.8873401605,-5.2989056477,6.6664037636,1472
57582,189172,198674,4.8873401605,-5.2989056477,6.6664037636,1473
57209,188939,198588,4.8873401605,-5.2989056477,6.6664037636,1474
57136,188865,198534,4.8873401605,-5.2989056477,6.6664037636,1475
57240,188857,198515,4.8873401605,-5.2989056477,6.6664037636,1476
57521,189002,198612,4.8873401605,-5.2989056477,6.6664037636,1477
57848,189138,198713,4.8873401605,-5.2989056477,6.6664037636,1478
58021,189176,198708,4.8873401605,-5.2989056477,6.6664037636,1479
58103,189203,198723,4.8873401605,-5.2989056477,6.6664037636,1480
58179,189276,198759,4.8873401605,-5.2989056477,6.6664037636,1481
58284,189326,198742,4.8873401605,-5.2989056477,6.6664037636,1482
58430,189391,198782,4.8873401605,-5.2989056477,6.6664037636,1483
58570,189447,198812,4.8873401605,-5.2989056477,6.6664037636,1484
58744,189547,198829,4.8873401605,-5.2989056477,6.6664037636,1485
58938,189642,198897,4.8873401605,-5.2989056477,6.6664037636,1486
59136,189716,198900,4.8873401605,-5.2989056477,6.6664037636,1487
59313,189803,198923,4.8873401605,-5.2989056477,6.6664037636,1488
59488,189907,199015,4.8873401605,-5.2989056477,6.6664037636,1489
57014,188717,198499,4.850251410199999,-5.1960142759,6.6556360619,1490
57243,188832,198550,4.850251410199999,-5.1960142759,6.6556360619,1491
57601,188969,198604,4.850251410199999,-5.1960142759,6.6556360619,1492
57844,189101,198646,4.850251410199999,-5.1960142759,6.6556360619,1493
57954,189114,198687,4.850251410199999,-5.1960142759,6.6556360619,1494
58035,189157,198732,4.850251410199999,-5.1960142759,6.6556360619,1495
58131,189208,198752,4.850251410199999,-5.1960142759,6.6556360619,1496
58255,189269,198760,4.850251410199999,-5.1960142759,6.6556360619,1497
58388,189361,198794,4.850251410199999,-5.1960142759,6.6556360619,1498
58561,189468,198790,4.850251410199999,-5.1960142759,6.6556360619,1499
58746,189545,198884,4.850251410199999,-5.1960142759,6.6556360619,1500
58947,189598,198908,4.850251410199999,-5.1960142759,6.6556360619,1501
59133,189710,198935,4.850251410199999,-5.1960142759,6.6556360619,1502
59322,189800,198981,4.850251410199999,-5.1960142759,6.6556360619,1503
59476,189896,199009,4.850251410199999,-5.1960142759,6.6556360619,1504
59615,189934,199034,4.850251410199999,-5.1960142759,6.6556360619,1505
59744,190001,199049,4.850251410199999,-5.1960142759,6.6556360619,1506
59882,190089,199096,4.850251410199999,-5.1960142759,6.6556360619,1507
60023,190134,199109,4.850251410199999,-5.1960142759,6.6556360619,1508
59792,190062,199058,4.850251410199999,-5.1960142759,6.6556360619,1509
58360,189465,198844,4.850251410199999,-5.1960142759,6.6556360619,1510
57289,188997,198624,4.850251410199999,-5.1960142759,6.6556360619,1511
56955,188775,198494,4.850251410199999,-5.1960142759,6.6556360619,1512
56949,188690,198494,4.850251410199999,-5.1960142759,6.6556360619,1513
57109,188781,198509,4.850251410199999,-5.1960142759,6.6556360619,1514
57429,188854,198636,4.850251410199999,-5.1960142759,6.6556360619,1515
57744,189023,198666,4.850251410199999,-5.1960142759,6.6556360619,1516
57880,189096,198683,4.850251410199999,-5.1960142759,6.6556360619,1517
57927,189100,198647,4.850251410199999,-5.1960142759,6.6556360619,1518
57995,189168,198721,4.850251410199999,-5.1960142759,6.6556360619,1519
58091,189199,198724,4.850251410199999,-5.1960142759,6.6556360619,1520
58212,189246,198781,4.850251410199999,-5.1960142759,6.6556360619,1521
58368,189336,198786,4.8478585876,-5.2618168974,6.7657059015,1522
58538,189429,198817,4.8478585876,-5.2618168974,6.7657059015,1523
58738,189531,198854,4.8478585876,-5.2618168974,6.7657059015,1524
58929,189619,198887,4.8478585876,-5.2618168974,6.7657059015,1525
59101,189683,198922,4.8478585876,-5.2618168974,6.7657059015,1526
59280,189747,198950,4.8478585876,-5.2618168974,6.7657059015,1527
59413,189816,199008,4.8478585876,-5.2618168974,6.7657059015,1528
59537,189905,199011,4.8478585876,-5.2618168974,6.7657059015,1529
59674,189951,199064,4.8478585876,-5.2618168974,6.7657059015,1530
59801,190044,199056,4.8478585876,-5.2618168974,6.7657059015,1531
59605,189939,199077,4.8478585876,-5.2618168974,6.7657059015,1532
58236,189399,198793,4.8478585876,-5.2618168974,6.7657059015,1533
57172,188893,198577,4.8478585876,-5.2618168974,6.7657059015,1534
56816,188681,198421,4.8478585876,-5.2618168974,6.7657059015,1535
56756,188618,198425,4.8478585876,-5.2618168974,6.7657059015,1536
56903,188596,198467,4.8478585876,-5.2618168974,6.7657059015,1537
57195,188716,198545,4.8478585876,-5.2618168974,6.7657059015,1538
57517,188874,198596,4.8478585876,-5.2618168974,6.7657059015,1539
57683,188962,198638,4.8478585876,-5.2618168974,6.7657059015,1540
57750,188985,198650,4.8478585876,-5.2618168974,6.7657059015,1541
57835,189043,198694,4.8478585876,-5.2618168974,6.7657059015,1542
57931,189120,198668,4.8478585876,-5.2618168974,6.7657059015,1543
58039,189138,198705,4.8478585876,-5.2618168974,6.7657059015,1544
58206,189227,198779,4.8478585876,-5.2618168974,6.7657059015,1545
58379,189337,198725,4.8478585876,-5.2618168974,6.7657059015,1546
58556,189413,198822,4.8478585876,-5.2618168974,6.7657059015,1547
58740,189483,198876,4.8478585876,-5.2618168974,6.7657059015,1548
58921,189592,198910,4.8478585876,-5.2618168974,6.7657059015,1549
59079,189623,198916,4.8478585876,-5.2618168974,6.7657059015,1550
59230,189738,198954,4.8478585876,-5.2618168974,6.7657059015,1551
59346,189797,198971,4.8478585876,-5.2618168974,6.7657059015,1552
59460,189862,199004,4.8478585876,-5.2618168974,6.7657059015,1553
59599,189938,199028,4.8478585876,-5.2618168974,6.7657059015,1554
59494,189880,198977,4.8478585876,-5.2618168974,6.7657059015,1555
58249,189392,198810,4.8478585876,-5.2618168974,6.7657059015,1556
57117,188874,198524,4.8478585876,-5.2618168974,6.7657059015,1557
56727,188600,198405,4.8478585876,-5.2618168974,6.7657059015,1558
56653,188515,198435,4.8478585876,-5.2618168974,6.7657059015,1559
56779,188507,198395,4.8478585876,-5.2618168974,6.7657059015,1560
57058,188651,198531,4.8478585876,-5.2618168974,6.7657059015,1561
57404,188812,198566,4.8478585876,-5.2618168974,6.7657059015,1562
