green,red,IR,acc_x,acc_y,acc_z,sample_index
81730,187269,248006,-2.9359933301999996,-5.6183474648,-7.6079794567,1
81801,187334,248049,-2.9108686929000003,-5.6063833518,-7.6881390138,2
81866,187327,248024,-2.9467610319,-5.647061336,-7.6713892556,3
81925,187344,247978,-3.0269205889999995,-5.7463634739,-7.668996433,4
81968,187344,248032,-2.8223342567,-5.790630692000001,-7.7144600624,5
81981,187380,248000,-2.9216363945999997,-5.6004012953,-7.6307112714,6
82087,187409,248084,-3.0352954681,-5.665007505499999,-7.6773713121,7
82153,187400,248057,-3.0065815969000003,-5.678168029799999,-7.635496916599999,8
82189,187433,248043,-2.8187450228000004,-5.5920264161999995,-7.721638530200001,9
82256,187439,248038,-2.8199414341,-5.6087761744,-7.6642107878,10
82290,187394,248059,-2.919243572,-5.6135618196,-7.7958160308,11
82113,187320,247996,-2.8462624827,-5.6733823846,-7.8077801438000005,12
81651,187190,247896,-2.8522445392,-5.5764730692999995,-7.6319076827,13
81244,187128,247880,-2.979064137,-5.693721376699999,-7.5577301821,14
81087,187112,247878,-2.8342983697,-5.620740287399999,-7.6869426025,15
81090,187123,247859,-2.8139593776000003,-5.5908300049,-7.6295148601000005,16
81126,187137,247823,-2.7146572396999997,-5.6506505699,-7.6881390138,17
81173,187141,247893,-2.8977081686,-5.670989562,-7.6043902228,18
81269,187151,247918,-2.9994031291,-5.7212388366,-7.625925626199999,19
81376,187173,247965,-2.8510481279,-5.5310094399,-7.5996045776,20
81403,187197,247931,-2.9371897415,-5.6805608524,-7.6737820782,21
81385,187164,247971,-2.8761727652,-5.569294601499999,-7.555337359499999,22
81346,187200,247987,-2.9168507494,-5.5812587145,-7.514659375300001,23
81332,187175,247948,-2.9072794589999997,-5.636293634299999,-7.6857461912,24
81370,187165,247950,-2.9347969189,-5.6578290377,-7.6498538522,25
81443,187219,247966,-2.8295127245,-5.7032926670999995,-7.6426753844,26
81510,187223,247977,-2.9874390161,-5.5776694806,-7.6438717957,27
81607,187231,248016,-2.9455646206,-5.636293634299999,-7.6402825618,28
81675,187242,247990,-2.8211378454,-5.636293634299999,-7.5828548194,29
81717,187248,247978,-2.9336005076,-5.7523455304,-7.6139615132000005,30
81806,187288,248024,-2.9072794589999997,-5.7332029496,-7.6139615132000005,31
81877,187299,248075,-2.9551359109999997,-5.7332029496,-7.654639497399999,32
81938,187293,248016,-2.8797619991,-5.6961141993,-7.6199435697,33
81990,187292,248010,-2.9180471607,-5.7212388366,-7.6008009889000006,34
82051,187328,248000,-2.8785655878,-5.7391850061000005,-7.6486574409,35
82024,187323,248036,-2.6907290137,-5.6219366987,-7.65703232,36
82127,187309,248039,-2.9443682093000003,-5.6769716185,-7.6115686905999995,37
81969,187244,247950,-2.8905297008,-5.6853464976,-7.639086150500001,38
81487,187110,247894,-2.919243572,-5.694917788000001,-7.6594251426,39
81106,187046,247835,-3.0544380489000003,-5.7128639575,-7.624729214899999,40
80987,187028,247807,-2.9180471607,-5.6961141993,-7.6558359087,41
80979,187031,247872,-2.8103701436999997,-5.7152567801,-7.5984081663000005,42
80998,187027,247890,-2.8522445392,-5.7188460139999995,-7.5577301821,43
81045,187062,247897,-2.7469603447999997,-5.7595239982,-7.612765101899999,44
81129,187060,247892,-2.7684957482,-5.7272208931,-7.6582287313,45
81263,187123,247963,-2.9072794589999997,-5.6805608524,-7.6737820782,46
81322,187099,247947,-2.7625136916999997,-5.7367921835,-7.668996433,47
81314,187109,247994,-2.9096722816000002,-5.7116675462,-7.6713892556,48
81309,187146,247949,-2.8151557889,-5.7188460139999995,-7.651050263499999,49
81313,187103,247977,-2.7792634499,-5.659025449,-7.5649086499,50
81355,187124,247915,-2.8905297008,-5.651846981199999,-7.6845497799,51
81411,187139,247925,-2.8917261120999997,-5.6171510535,-7.6761749007999995,52
81499,187221,247971,-2.9886354273999998,-5.6853464976,-7.556533770800001,53
81588,187182,248049,-2.7661029256000003,-5.7655060547,-7.6618179652,54
81659,187215,247989,-2.8594230069999997,-5.7559347643,-7.7192457076,55
81728,187203,248017,-2.8331019584000003,-5.678168029799999,-7.6103722793,56
81791,187235,247995,-2.8450660714,-5.716453191399999,-7.6761749007999995,57
81855,187266,248055,-2.979064137,-5.6075797630999995,-7.573283529,58
81941,187278,248039,-2.9946174839,-5.6434721021,-7.6414789731,59
81976,187234,248048,-2.9431717980000003,-5.7092747236,-7.639086150500001,60
82029,187303,248031,-2.9359933301999996,-5.7260244818,-7.6737820782,61
82094,187309,248048,-2.8055844984999996,-5.6015977066,-7.5828548194,62
82124,187334,248046,-2.9359933301999996,-5.6554362151,-7.625925626199999,63
81961,187186,248015,-2.8175486115,-5.7643096434,-7.704888771999999,64
81455,187047,247903,-2.7696921595,-5.706881900999999,-7.584051230699999,65
81105,187018,247870,-2.9168507494,-5.6985070219,-7.6737820782,66
81009,186990,247848,-2.9156543381000004,-5.776273756399999,-7.7419775223,67
81004,187033,247848,-2.8785655878,-5.7260244818,-7.6642107878,68
81036,187011,247883,-2.8522445392,-5.7272208931,-7.666603610399999,69
81073,187061,247919,-2.7146572396999997,-5.637490045600001,-7.5170521979,70
81171,187048,247962,-2.9048866364,-5.7463634739,-7.6618179652,71
81289,187082,247979,-2.8857440556,-5.6099725857,-7.7228349415,72
81344,187116,247970,-2.8893332895,-5.776273756399999,-7.7132636511,73
81335,187126,247994,-2.7984060307000003,-5.7403814174,-7.6091758679999995,74
81266,187054,247982,-2.9730820805000002,-5.5932228275,-7.6594251426,75
81343,187088,247974,-2.8677978860999995,-5.7583275869,-7.6307112714,76
81395,187141,248015,-2.8223342567,-5.5716874241,-7.6271220375,77
81466,187168,248020,-2.7242285301,-5.7284173044,-7.6474610296,78
81554,187164,248047,-2.9407789753999998,-5.5908300049,-7.5960153436999995,79
81652,187208,248025,-2.7960132080999998,-5.6925249654,-7.654639497399999,80
81727,187198,248046,-2.8271199019,-5.6004012953,-7.6618179652,81
81798,187222,248030,-3.0017959517,-5.7260244818,-7.5577301821,82
81884,187224,248062,-2.8187450228000004,-5.6398828682,-7.762316514399999,83
81950,187263,248081,-2.9479574432,-5.6889357315,-7.692924659,84
82009,187301,248062,-2.9958138952,-5.620740287399999,-7.6402825618,85
82067,187276,248027,-2.7409782883,-5.7284173044,-7.6426753844,86
82042,187311,248060,-2.8869404668999996,-5.5310094399,-7.5804619967999995,87
82172,187320,248103,-2.8666014748,-5.6685967394,-7.6845497799,88
82186,187319,248069,-2.835494781,-5.653043392499999,-7.7144600624,89
81872,187169,247998,-2.7314069979,-5.6087761744,-7.7431739336,90
81400,187057,247840,-2.9431717980000003,-5.5453663755000004,-7.6594251426,91
81160,187047,247858,-2.8474588940000003,-5.6614182716,-7.6522466748,92
81120,187010,247869,-2.8618158296000002,-5.6745787959,-7.695317481599999,93
81142,187035,247932,-2.967100024,-5.6147582309,-7.5625158273,94
81190,187021,247928,-2.883351233,-5.6805608524,-7.6630143765,95
81278,187051,247973,-2.9036902251,-5.7128639575,-7.570890706399999,96
81388,187079,247957,-2.8689942974,-5.6685967394,-7.775477038699999,97
81470,187150,247967,-2.8737799425999997,-5.730810127,-7.740781111,98
81473,187190,248007,-2.8689942974,-5.6973106106,-7.6821569573,99
81475,187106,247999,-2.8677978860999995,-5.6279187552000005,-7.6761749007999995,100
81453,187097,247992,-2.919243572,-5.633900811699999,-7.6558359087,101
81488,187092,247970,-2.9120651042,-5.4771709314,-7.6642107878,102
81529,187135,247999,-3.0029923629999997,-5.6757752072,-7.624729214899999,103
81631,187158,248016,-2.8450660714,-5.6853464976,-7.6426753844,104
81722,187188,248019,-2.8881368781999996,-5.716453191399999,-7.6749784895,105
81774,187209,248035,-2.9264220398,-5.6386864569,-7.7024959494,106
81841,187208,248052,-2.7182464736,-5.647061336,-7.6773713121,107
81894,187221,248037,-2.9587251449000003,-5.6004012953,-7.622336392299999,108
81980,187256,248032,-2.9479574432,-5.777470167700001,-7.6366933279,109
82023,187275,248062,-2.8426732488,-5.5621161337,-7.716852885,110
82068,187282,248067,-2.9946174839,-5.7882378694,-7.637889739199999,111
82126,187266,248055,-2.8594230069999997,-5.6805608524,-7.6977103042,112
82177,187325,248064,-2.8462624827,-5.7403814174,-7.6486574409,113
82086,187247,247993,-2.8295127245,-5.635097223,-7.6917282476999995,114
81642,187091,247930,-2.8642086522,-5.6099725857,-7.6761749007999995,115
81211,187043,247852,-2.7912275628999996,-5.649454158599999,-7.7192457076,116
81054,186972,247892,-2.9575287336000002,-5.7140603688,-7.6031938115,117
81049,186973,247913,-2.7768706272999997,-5.7403814174,-7.6498538522,118
81074,186994,247920,-2.8666014748,-5.745167062599999,-7.6654071991,119
81106,186979,247878,-2.9359933301999996,-5.8085768615,-7.6115686905999995,120
81162,186991,247904,-2.8103701436999997,-5.5932228275,-7.645068207,121
81299,187046,247950,-2.8259234905999997,-5.7092747236,-7.7001031268,122
81338,187077,247964,-2.7625136916999997,-5.6386864569,-7.635496916599999,123
81336,187073,247976,-2.75174599,-5.761916820800001,-7.704888771999999,124
81325,187014,247958,-2.8211378454,-5.6398828682,-7.568497883799999,125
81324,187077,248019,-2.7122644171,-5.7678988773,-7.683353368600001,126
81345,187079,247996,-2.8486553053,-5.575276658,-7.6642107878,127
81428,187099,247985,-3.0077780082,-5.6997034332,-7.5912296985,128
81502,187143,247993,-2.9503502657999996,-5.6674003281,-7.6366933279,129
81631,187120,248010,-2.8953153460000003,-5.6279187552000005,-7.597211754999999,130
81656,187159,248023,-2.9048866364,-5.6877393201999995,-7.6977103042,131
81718,187173,248060,-2.7900311516,-5.6578290377,-7.6163543358,132
81807,187188,248049,-2.7900311516,-5.6877393201999995,-7.6737820782,133
81849,187217,248049,-2.99102825,-5.605186940499999,-7.6594251426,134
81920,187239,248082,-2.7960132080999998,-5.6386864569,-7.6008009889000006,135
81963,187226,248052,-2.9001009912,-5.7391850061000005,-7.6845497799,136
82027,187241,248050,-2.7122644171,-5.6147582309,-7.6498538522,137
82093,187223,248054,-2.7337998205,-5.595615650099999,-7.6402825618,138
82073,187197,248074,-3.0221349438,-5.659025449,-7.7072815945999995,139
81772,187113,247969,-2.8558337731,-5.7511491191,-7.668996433,140
81240,186983,247909,-2.835494781,-5.7212388366,-7.6283184488,141
80986,186947,247856,-2.9288148624,-5.6685967394,-7.6606215538999995,142
80937,186925,247939,-2.8785655878,-5.7116675462,-7.692924659,143
80933,186945,247891,-2.7864419177,-5.6004012953,-7.6295148601000005,144
80975,186948,247917,-2.7541388126,-5.7284173044,-7.6055866341,145
81053,186995,247919,-2.7996024420000003,-5.6602218603,-7.6055866341,146
81139,187021,248021,-2.8857440556,-5.5262237947,-7.679764134699999,147
81256,187009,248019,-2.9587251449000003,-5.682953675,-7.6857461912,148
81265,187038,247948,-3.0520452262999997,-5.6578290377,-7.6881390138,149
81260,187043,247974,-2.9120651042,-5.5788658919,-7.6319076827,150
81238,187032,248010,-2.8630122409,-5.745167062599999,-7.6522466748,151
81266,187039,247983,-2.9120651042,-5.6147582309,-7.6008009889000006,152
81332,187065,248019,-2.8594230069999997,-5.7224352479,-7.633104094,153
81424,187092,248018,-2.8259234905999997,-5.7690952886,-7.7072815945999995,154
81508,187042,248019,-2.7792634499,-5.6147582309,-7.639086150500001,155
81602,187117,247995,-2.8331019584000003,-5.732006538299999,-7.7024959494,156
81687,187156,248066,-2.9647072014,-5.678168029799999,-7.5984081663000005,157
81778,187219,248063,-2.8558337731,-5.7810594016,-7.7132636511,158
81827,187184,248075,-2.7457639335,-5.6422756908,-7.6031938115,159
81915,187203,248057,-2.6883361911000003,-5.662614682899999,-7.6785677234,160
81974,187219,248132,-2.6943182475999996,-5.716453191399999,-7.612765101899999,161
82004,187232,248108,-2.9718856692,-5.777470167700001,-7.7228349415,162
82109,187257,248068,-2.9599215562,-5.6231331099999995,-7.6785677234,163
82177,187268,248072,-2.7385854657,-5.6506505699,-7.6115686905999995,164
82072,187069,248040,-3.0017959517,-5.653043392499999,-7.667800021700001,165
81612,187082,247930,-2.9168507494,-5.6506505699,-7.6151579245,166
81184,186953,247872,-2.8989045799,-5.611168996999999,-7.6809605460000006,167
81072,186868,247904,-2.8582265956999997,-5.540580730299999,-7.6498538522,168
81078,186982,247904,-2.9551359109999997,-5.670989562,-7.654639497399999,169
81121,186973,247922,-3.0257241777000004,-5.6386864569,-7.6343005053,170
81165,186974,247915,-2.9455646206,-5.637490045600001,-7.622336392299999,171
81259,187008,247956,-2.8893332895,-5.6099725857,-7.666603610399999,172
81400,187060,247949,-2.9048866364,-5.5860443597,-7.7431739336,173
81428,187086,247995,-2.8151557889,-5.7260244818,-7.6271220375,174
81458,187057,247975,-2.9587251449000003,-5.666203916800001,-7.6295148601000005,175
81461,187082,247965,-3.0544380489000003,-5.7379885948,-7.6163543358,176
81456,187036,248005,-2.8103701436999997,-5.633900811699999,-7.750352401400001,177
81507,187077,248028,-2.8570301844,-5.637490045600001,-7.6594251426,178
81591,187074,248060,-2.9096722816000002,-5.7918271033,-7.6402825618,179
81673,187136,248001,-2.8809584104000003,-5.6482577473,-7.5912296985,180
81776,187126,248062,-2.9934210726,-5.651846981199999,-7.6857461912,181
81859,187168,248063,-2.8773691765,-5.647061336,-7.645068207,182
81933,187199,248076,-2.8271199019,-5.6099725857,-7.6498538522,183
82004,187208,248120,-2.8366911923,-5.7403814174,-7.6618179652,184
82075,187201,248117,-2.9347969189,-5.5058848026,-7.6654071991,185
82124,187239,248060,-2.8666014748,-5.6841500863,-7.654639497399999,186
82205,187244,248108,-2.8055844984999996,-5.5908300049,-7.639086150500001,187
82246,187238,248117,-2.9096722816000002,-5.6901321428,-7.6307112714,188
82284,187230,248104,-2.8271199019,-5.670989562,-7.762316514399999,189
82091,187156,248035,-2.9778677257000004,-5.6901321428,-7.612765101899999,190
81608,187010,247953,-2.9575287336000002,-5.649454158599999,-7.721638530200001,191
81271,186993,247880,-2.9982067177999996,-5.6506505699,-7.6187471584,192
81161,186949,247915,-2.7433711108999996,-5.6482577473,-7.612765101899999,193
81164,186958,247941,-2.8247270792999997,-5.694917788000001,-7.651050263499999,194
81195,186947,247917,-2.8031916759,-5.6973106106,-7.7072815945999995,195
81248,186974,247988,-2.8283163132,-5.6674003281,-7.6977103042,196
81378,186983,248005,-2.7840490951,-5.582455125799999,-7.6498538522,197
81462,186993,247960,-2.8821548217,-5.6219366987,-7.5696942951,198
81503,187017,247990,-2.8666014748,-5.7583275869,-7.7383882884,199
81484,187018,248041,-2.8295127245,-5.730810127,-7.679764134699999,200
81425,187050,248036,-2.9575287336000002,-5.7260244818,-7.526623488299999,201
81485,187028,248042,-2.9168507494,-5.6853464976,-7.6235328036,202
81538,187083,248047,-2.8606194183,-5.5980084727,-7.762316514399999,203
81606,187130,248080,-2.8785655878,-5.7439706513,-7.6582287313,204
81736,187117,248052,-2.8570301844,-5.6614182716,-7.6857461912,205
81773,187125,248099,-2.8666014748,-5.6398828682,-7.5529445369,206
81841,187122,248074,-2.8785655878,-5.7332029496,-7.624729214899999,207
81832,187151,248103,-2.8642086522,-5.7535419417,-7.7431739336,208
81970,187174,248091,-2.8689942974,-5.6075797630999995,-7.6307112714,209
82031,187190,248119,-2.8785655878,-5.7140603688,-7.7120672398000005,210
81993,187214,248056,-2.8570301844,-5.730810127,-7.6402825618,211
82142,187225,248157,-2.8498517166,-5.7499527078,-7.7144600624,212
82203,187241,248120,-2.8677978860999995,-5.6004012953,-7.65703232,213
82249,187246,248141,-2.9252256285000002,-5.637490045600001,-7.6977103042,214
82327,187254,248081,-2.6955146589,-5.6135618196,-7.584051230699999,215
82348,187257,248122,-2.9694928465999997,-5.74277424,-7.606783045399999,216
82308,187200,248089,-2.8558337731,-5.6697931507,-7.7192457076,217
81898,187072,247985,-2.8366911923,-5.6973106106,-7.6606215538999995,218
81387,186958,247934,-2.9336005076,-5.7224352479,-7.6881390138,219
81174,186984,247881,-2.9407789753999998,-5.716453191399999,-7.6594251426,220
81151,186918,247896,-2.8893332895,-5.633900811699999,-7.6642107878,221
81151,186946,247939,-2.8893332895,-5.7044890784,-7.683353368600001,222
81197,186949,247957,-2.9240292172,-5.7020962558,-7.6402825618,223
81248,186985,247992,-2.7194428849,-5.6135618196,-7.6402825618,224
81368,186986,248020,-2.8139593776000003,-5.6267223439,-7.6139615132000005,225
81432,187021,248009,-2.8414768375,-5.6446685134,-7.6486574409,226
81482,187018,248035,-2.775674216,-5.670989562,-7.7060851833,227
81415,187028,248030,-2.9706892578999997,-5.706881900999999,-7.6235328036,228
81412,187016,248004,-2.8761727652,-5.7020962558,-7.6091758679999995,229
81435,186979,247993,-2.9001009912,-5.8157553293,-7.6857461912,230
81493,187055,248008,-2.9635107901000004,-5.6925249654,-7.624729214899999,231
81561,187047,248049,-2.8857440556,-5.5764730692999995,-7.6319076827,232
81572,187082,248059,-2.8689942974,-5.6434721021,-7.635496916599999,233
81725,187105,248037,-2.8211378454,-5.6231331099999995,-7.752745224,234
81776,187147,248107,-2.7828526838,-5.7678988773,-7.6103722793,235
81855,187127,248136,-2.8390840148999996,-5.732006538299999,-7.651050263499999,236
81915,187169,248035,-2.9850461935,-5.6267223439,-7.6642107878,237
81971,187189,248086,-2.87138712,-5.7343993608999995,-7.7515488127,238
82014,187175,248130,-2.9647072014,-5.6578290377,-7.4979096170999995,239
82056,187205,248086,-2.7385854657,-5.6434721021,-7.6701928443,240
82134,187209,248166,-2.8857440556,-5.7212388366,-7.6283184488,241
82140,187190,248142,-2.7577280465,-5.7020962558,-7.667800021700001,242
81891,187103,247990,-2.8618158296000002,-5.6985070219,-7.6498538522,243
81385,186943,247962,-2.8725835312999997,-5.6303115778,-7.6307112714,244
81089,186912,247928,-3.0783662749,-5.732006538299999,-7.7252277641000004,245
81020,186936,247954,-2.9288148624,-5.7571311756,-7.5888368759,246
81047,186923,247970,-2.8797619991,-5.611168996999999,-7.5768727629,247
81093,186943,247938,-2.9264220398,-5.6925249654,-7.695317481599999,248
81138,186925,247968,-2.8953153460000003,-5.7583275869,-7.7228349415,249
81272,186972,248027,-2.8414768375,-5.7116675462,-7.568497883799999,250
81376,187003,248009,-2.9264220398,-5.6422756908,-7.6343005053,251
81425,186995,248084,-2.8785655878,-5.74277424,-7.6498538522,252
81410,186985,248036,-2.9024938138,-5.636293634299999,-7.704888771999999,253
81382,186993,248028,-2.7840490951,-5.670989562,-7.6438717957,254
81402,187014,248046,-2.8187450228000004,-5.7655060547,-7.7072815945999995,255
81374,187034,248063,-2.8606194183,-5.659025449,-7.6271220375,256
81545,187055,248127,-2.8893332895,-5.6638110942,-7.7036923607,257
81626,187045,248086,-2.9288148624,-5.636293634299999,-7.6941210703,258
81714,187009,248076,-2.8642086522,-5.7260244818,-7.6725856669,259
81791,187117,248073,-2.7864419177,-5.6291151665,-7.6307112714,260
81856,187125,248082,-2.8474588940000003,-5.662614682899999,-7.637889739199999,261
81923,187136,248122,-2.9611179675,-5.6973106106,-7.6905318364,262
82031,187158,248130,-2.7864419177,-5.6506505699,-7.666603610399999,263
82060,187189,248134,-2.8199414341,-5.693721376699999,-7.6905318364,264
82121,187183,248103,-2.8498517166,-5.7870414581,-7.7431739336,265
82179,187232,248115,-2.8498517166,-5.7870414581,-7.7431739336,266
82231,187228,248123,-2.8498517166,-5.7870414581,-7.7431739336,267
82289,187237,248104,-2.8498517166,-5.7870414581,-7.7431739336,268
82363,187232,248148,-2.8498517166,-5.7870414581,-7.7431739336,269
82409,187247,248102,-2.8498517166,-5.7870414581,-7.7431739336,270
82186,187137,248053,-2.8498517166,-5.7870414581,-7.7431739336,271
81691,186989,247980,-2.8498517166,-5.7870414581,-7.7431739336,272
81367,186943,247966,-2.8498517166,-5.7870414581,-7.7431739336,273
81291,186925,247949,-2.8498517166,-5.7870414581,-7.7431739336,274
81327,186932,247959,-2.8498517166,-5.7870414581,-7.7431739336,275
81377,186969,247955,-2.8498517166,-5.7870414581,-7.7431739336,276
81449,186973,248004,-2.8498517166,-5.7870414581,-7.7431739336,277
81564,187007,248019,-2.8498517166,-5.7870414581,-7.7431739336,278
81669,187065,248049,-2.8498517166,-5.7870414581,-7.7431739336,279
81687,187057,248001,-2.8498517166,-5.7870414581,-7.7431739336,280
81654,187012,248003,-2.8498517166,-5.7870414581,-7.7431739336,281
81638,187034,248038,-2.8498517166,-5.7870414581,-7.7431739336,282
81651,187034,248026,-2.8498517166,-5.7870414581,-7.7431739336,283
81704,187039,248052,-2.8498517166,-5.7870414581,-7.7431739336,284
81746,187064,248096,-2.8498517166,-5.7870414581,-7.7431739336,285
81836,187105,248060,-2.8498517166,-5.7870414581,-7.7431739336,286
81922,187122,248038,-2.8498517166,-5.7870414581,-7.7431739336,287
81987,187164,248086,-2.8498517166,-5.7870414581,-7.7431739336,288
82052,187127,248074,-2.8498517166,-5.7870414581,-7.7431739336,289
82117,187153,248143,-2.8498517166,-5.7870414581,-7.7431739336,290
82172,187208,248118,-2.8498517166,-5.7870414581,-7.7431739336,291
82222,187187,248143,-2.8498517166,-5.7870414581,-7.7431739336,292
82282,187225,248086,-2.8498517166,-5.7870414581,-7.7431739336,293
82324,187224,248103,-2.8498517166,-5.7870414581,-7.7431739336,294
82387,187235,248137,-2.8498517166,-5.7870414581,-7.7431739336,295
82343,187185,248078,-2.8498517166,-5.7870414581,-7.7431739336,296
81974,187025,247981,-2.8498517166,-5.7870414581,-7.7431739336,297
81511,186951,247941,-2.8498517166,-5.7870414581,-7.7431739336,298
81283,186931,247879,-2.8498517166,-5.7870414581,-7.7431739336,299
81271,186934,247886,-2.8498517166,-5.7870414581,-7.7431739336,300
81296,186951,247922,-2.8498517166,-5.7870414581,-7.7431739336,301
81309,186956,247938,-2.8498517166,-5.7870414581,-7.7431739336,302
81373,186978,247956,-2.8498517166,-5.7870414581,-7.7431739336,303
81481,186981,248013,-2.8498517166,-5.7870414581,-7.7431739336,304
81578,187021,248002,-2.8498517166,-5.7870414581,-7.7431739336,305
81579,187005,248022,-2.8498517166,-5.7870414581,-7.7431739336,306
82159,187178,248110,-2.7433711108999996,-5.5453663755000004,-7.6618179652,307
82186,187196,248028,-2.7433711108999996,-5.5453663755000004,-7.6618179652,308
82260,187154,248088,-2.7433711108999996,-5.5453663755000004,-7.6618179652,309
82311,187146,248028,-2.7433711108999996,-5.5453663755000004,-7.6618179652,310
82374,187176,248072,-2.7433711108999996,-5.5453663755000004,-7.6618179652,311
82187,187065,247981,-2.7433711108999996,-5.5453663755000004,-7.6618179652,312
81682,186961,247914,-2.7433711108999996,-5.5453663755000004,-7.6618179652,313
81304,186890,247819,-2.7433711108999996,-5.5453663755000004,-7.6618179652,314
81192,186865,247855,-2.7433711108999996,-5.5453663755000004,-7.6618179652,315
81208,186877,247881,-2.7433711108999996,-5.5453663755000004,-7.6618179652,316
81248,186883,247941,-2.7433711108999996,-5.5453663755000004,-7.6618179652,317
81312,186932,247893,-2.7433711108999996,-5.5453663755000004,-7.6618179652,318
81409,186931,247922,-2.7433711108999996,-5.5453663755000004,-7.6618179652,319
81514,186961,247946,-2.7433711108999996,-5.5453663755000004,-7.6618179652,320
81596,186969,248020,-2.7433711108999996,-5.5453663755000004,-7.6618179652,321
81604,186984,247969,-2.7433711108999996,-5.5453663755000004,-7.6618179652,322
81567,186926,247966,-2.7433711108999996,-5.5453663755000004,-7.6618179652,323
81569,186989,247967,-2.7433711108999996,-5.5453663755000004,-7.6618179652,324
81608,186978,248041,-2.7433711108999996,-5.5453663755000004,-7.6618179652,325
81677,186988,248000,-2.7433711108999996,-5.5453663755000004,-7.6618179652,326
81769,187037,247960,-2.7433711108999996,-5.5453663755000004,-7.6618179652,327
81826,187047,248008,-2.7625136916999997,-5.6877393201999995,-7.5792655855,328
81923,187050,247975,-2.7625136916999997,-5.6877393201999995,-7.5792655855,329
81990,187093,248046,-2.7625136916999997,-5.6877393201999995,-7.5792655855,330
82060,187085,248064,-2.7625136916999997,-5.6877393201999995,-7.5792655855,331
82127,187110,248083,-2.7625136916999997,-5.6877393201999995,-7.5792655855,332
82191,187123,248061,-2.7625136916999997,-5.6877393201999995,-7.5792655855,333
82243,187129,248037,-2.7625136916999997,-5.6877393201999995,-7.5792655855,334
82294,187139,248079,-2.7625136916999997,-5.6877393201999995,-7.5792655855,335
82351,187163,248081,-2.7625136916999997,-5.6877393201999995,-7.5792655855,336
82403,187167,248073,-2.7625136916999997,-5.6877393201999995,-7.5792655855,337
82206,187078,248018,-2.7625136916999997,-5.6877393201999995,-7.5792655855,338
81715,186941,247972,-2.7625136916999997,-5.6877393201999995,-7.5792655855,339
81363,186849,247818,-2.7625136916999997,-5.6877393201999995,-7.5792655855,340
81269,186860,247819,-2.7625136916999997,-5.6877393201999995,-7.5792655855,341
81281,186864,247905,-2.7625136916999997,-5.6877393201999995,-7.5792655855,342
81317,186855,247897,-2.7625136916999997,-5.6877393201999995,-7.5792655855,343
81374,186904,247917,-2.7625136916999997,-5.6877393201999995,-7.5792655855,344
81486,186921,247967,-2.7625136916999997,-5.6877393201999995,-7.5792655855,345
81590,186944,248007,-2.8965117573,-5.6757752072,-7.6881390138,346
81632,186941,248002,-2.8965117573,-5.6757752072,-7.6881390138,347
81640,186942,247995,-2.8965117573,-5.6757752072,-7.6881390138,348
81615,186942,247978,-2.8845476443,-5.7631132321,-7.6486574409,349
81626,186951,248025,-2.8307091358,-5.6614182716,-7.728816998,350
81692,186973,248059,-2.9240292172,-5.6398828682,-7.505088084900001,351
81761,187010,248020,-2.9024938138,-5.5812587145,-7.6977103042,352
81839,187014,248038,-2.8773691765,-5.5142596817000005,-7.6091758679999995,353
81915,187036,248075,-2.8773691765,-5.5142596817000005,-7.6091758679999995,354
81987,187046,248082,-2.8773691765,-5.5142596817000005,-7.6091758679999995,355
82062,187079,248056,-2.8773691765,-5.5142596817000005,-7.6091758679999995,356
82143,187097,248061,-2.8773691765,-5.5142596817000005,-7.6091758679999995,357
82205,187087,248081,-2.8773691765,-5.5142596817000005,-7.6091758679999995,358
82279,187095,248099,-2.8773691765,-5.5142596817000005,-7.6091758679999995,359
82342,187134,248104,-2.8773691765,-5.5142596817000005,-7.6091758679999995,360
82388,187147,248077,-2.8773691765,-5.5142596817000005,-7.6091758679999995,361
82463,187155,248091,-2.8773691765,-5.5142596817000005,-7.6091758679999995,362
82522,187176,248129,-2.8773691765,-5.5142596817000005,-7.6091758679999995,363
82587,187179,248130,-2.8773691765,-5.5142596817000005,-7.6091758679999995,364
82640,187191,248057,-2.8773691765,-5.5142596817000005,-7.6091758679999995,365
82700,187186,248122,-2.8773691765,-5.5142596817000005,-7.6091758679999995,366
82781,187220,248120,-2.8773691765,-5.5142596817000005,-7.6091758679999995,367
82824,187246,248128,-2.8773691765,-5.5142596817000005,-7.6091758679999995,368
82877,187260,248098,-2.8773691765,-5.5142596817000005,-7.6091758679999995,369
82783,187175,248061,-2.8773691765,-5.5142596817000005,-7.6091758679999995,370
82359,187049,247917,-2.8773691765,-5.5142596817000005,-7.6091758679999995,371
81901,186932,247895,-2.8773691765,-5.5142596817000005,-7.6091758679999995,372
81719,186931,247902,-2.8773691765,-5.5142596817000005,-7.6091758679999995,373
81710,186912,247923,-2.8773691765,-5.5142596817000005,-7.6091758679999995,374
81755,186921,247899,-2.8773691765,-5.5142596817000005,-7.6091758679999995,375
81824,186949,247975,-2.8773691765,-5.5142596817000005,-7.6091758679999995,376
81922,186979,247960,-2.8773691765,-5.5142596817000005,-7.6091758679999995,377
82027,187006,248026,-2.8773691765,-5.5142596817000005,-7.6091758679999995,378
82067,187021,248037,-2.8773691765,-5.5142596817000005,-7.6091758679999995,379
82075,186989,247969,-2.8773691765,-5.5142596817000005,-7.6091758679999995,380
82030,186965,247997,-2.8773691765,-5.5142596817000005,-7.6091758679999995,381
82005,186967,247961,-2.8773691765,-5.5142596817000005,-7.6091758679999995,382
82019,186997,247995,-2.8773691765,-5.5142596817000005,-7.6091758679999995,383
82066,186964,248004,-2.931207685,-5.6985070219,-7.737191877099999,384
82137,187031,248028,-2.931207685,-5.6985070219,-7.737191877099999,385
82204,187027,248015,-2.931207685,-5.6985070219,-7.737191877099999,386
82271,187050,248007,-2.931207685,-5.6985070219,-7.737191877099999,387
82314,187090,248031,-2.931207685,-5.6985070219,-7.737191877099999,388
82367,187076,248083,-2.931207685,-5.6985070219,-7.737191877099999,389
82406,187076,248033,-2.8905297008,-5.7631132321,-7.788637563,390
82454,187086,248086,-2.7278177639999996,-5.678168029799999,-7.6402825618,391
82486,187103,248010,-2.9012974024999996,-5.6004012953,-7.5696942951,392
82532,187103,248083,-2.8187450228000004,-5.7284173044,-7.622336392299999,393
82566,187117,248076,-2.8151557889,-5.6638110942,-7.7001031268,394
82351,187009,247981,-2.8522445392,-5.7284173044,-7.612765101899999,395
81859,186899,247902,-2.8474588940000003,-5.7523455304,-7.6989067155,396
81493,186799,247853,-2.7900311516,-5.7188460139999995,-7.733602643199999,397
81372,186793,247889,-2.7900311516,-5.7188460139999995,-7.733602643199999,398
81344,186794,247916,-2.7900311516,-5.7188460139999995,-7.733602643199999,399
81352,186801,247928,-2.7900311516,-5.7188460139999995,-7.733602643199999,400
81371,186814,247898,-2.7900311516,-5.7188460139999995,-7.733602643199999,401
81462,186833,247952,-2.7900311516,-5.7188460139999995,-7.733602643199999,402
81561,186872,247976,-2.7900311516,-5.7188460139999995,-7.733602643199999,403
81594,186863,247998,-2.7900311516,-5.7188460139999995,-7.733602643199999,404
81588,186866,247951,-2.7900311516,-5.7188460139999995,-7.733602643199999,405
81545,186829,247974,-2.7900311516,-5.7188460139999995,-7.733602643199999,406
81549,186889,247938,-2.7900311516,-5.7188460139999995,-7.733602643199999,407
81559,186869,248020,-2.7900311516,-5.7188460139999995,-7.733602643199999,408
81625,186912,247988,-2.8761727652,-5.7439706513,-7.695317481599999,409
81678,186915,248033,-2.8761727652,-5.7439706513,-7.695317481599999,410
81760,186914,248043,-2.8761727652,-5.7439706513,-7.695317481599999,411
81853,186972,248034,-2.8761727652,-5.7439706513,-7.695317481599999,412
81888,186981,248056,-2.8761727652,-5.7439706513,-7.695317481599999,413
81949,186998,248058,-2.8761727652,-5.7439706513,-7.695317481599999,414
82009,187000,248038,-2.8761727652,-5.7439706513,-7.695317481599999,415
82066,187068,248047,-2.8761727652,-5.7439706513,-7.695317481599999,416
82121,187051,248039,-2.8761727652,-5.7439706513,-7.695317481599999,417
82163,187066,248093,-2.8761727652,-5.7439706513,-7.695317481599999,418
82245,187058,248034,-2.8761727652,-5.7439706513,-7.695317481599999,419
82276,187069,248090,-2.8761727652,-5.7439706513,-7.695317481599999,420
82337,187077,248031,-2.8761727652,-5.7439706513,-7.695317481599999,421
82398,187109,248090,-2.8761727652,-5.7439706513,-7.695317481599999,422
82434,187109,248074,-2.8761727652,-5.7439706513,-7.695317481599999,423
82495,187133,248029,-2.8761727652,-5.7439706513,-7.695317481599999,424
82530,187154,248060,-2.8761727652,-5.7439706513,-7.695317481599999,425
82583,187136,248070,-2.8761727652,-5.7439706513,-7.695317481599999,426
82332,187038,247955,-2.8761727652,-5.7439706513,-7.695317481599999,427
81762,186881,247922,-2.8761727652,-5.7439706513,-7.695317481599999,428
81392,186813,247818,-2.8761727652,-5.7439706513,-7.695317481599999,429
81269,186786,247854,-2.8761727652,-5.7439706513,-7.695317481599999,430
81262,186807,247859,-2.8761727652,-5.7439706513,-7.695317481599999,431
81305,186829,247919,-2.8761727652,-5.7439706513,-7.695317481599999,432
81360,186822,247890,-2.8761727652,-5.7439706513,-7.695317481599999,433
81440,186850,247933,-2.8761727652,-5.7439706513,-7.695317481599999,434
81536,186887,247991,-2.8761727652,-5.7439706513,-7.695317481599999,435
81596,186909,248008,-2.8761727652,-5.7439706513,-7.695317481599999,436
81560,186885,247983,-2.8761727652,-5.7439706513,-7.695317481599999,437
81529,186886,247968,-2.8761727652,-5.7439706513,-7.695317481599999,438
81524,186884,247935,-2.8761727652,-5.7439706513,-7.695317481599999,439
81570,186886,247980,-2.8761727652,-5.7439706513,-7.695317481599999,440
81637,186925,248049,-2.8761727652,-5.7439706513,-7.695317481599999,441
81715,186942,247979,-2.8761727652,-5.7439706513,-7.695317481599999,442
81777,186961,248038,-2.8761727652,-5.7439706513,-7.695317481599999,443
81847,186976,248010,-2.8761727652,-5.7439706513,-7.695317481599999,444
81944,187032,247986,-2.8761727652,-5.7439706513,-7.695317481599999,445
81989,187000,248059,-2.8761727652,-5.7439706513,-7.695317481599999,446
82044,187048,248099,-2.8761727652,-5.7439706513,-7.695317481599999,447
82109,187039,248048,-2.8761727652,-5.7439706513,-7.695317481599999,448
82155,187068,248069,-2.8761727652,-5.7439706513,-7.695317481599999,449
82227,187047,248010,-2.8761727652,-5.7439706513,-7.695317481599999,450
81687,186899,248006,-2.8989045799,-5.649454158599999,-7.6977103042,451
81772,186943,248025,-2.8989045799,-5.649454158599999,-7.6977103042,452
81849,186936,248101,-2.8989045799,-5.649454158599999,-7.6977103042,453
81906,186968,247990,-2.8989045799,-5.649454158599999,-7.6977103042,454
81971,186985,248085,-2.8989045799,-5.649454158599999,-7.6977103042,455
82046,186986,248058,-2.8989045799,-5.649454158599999,-7.6977103042,456
82109,187030,248045,-2.8989045799,-5.649454158599999,-7.6977103042,457
82182,187033,248033,-2.8989045799,-5.649454158599999,-7.6977103042,458
82225,187036,248045,-2.8989045799,-5.649454158599999,-7.6977103042,459
82287,187069,248048,-2.8989045799,-5.649454158599999,-7.6977103042,460
82362,187059,248065,-2.8989045799,-5.649454158599999,-7.6977103042,461
82410,187074,248017,-2.8989045799,-5.649454158599999,-7.6977103042,462
82478,187099,248077,-2.8989045799,-5.649454158599999,-7.6977103042,463
82504,187102,248094,-2.8989045799,-5.649454158599999,-7.6977103042,464
82588,187093,248074,-2.8989045799,-5.649454158599999,-7.6977103042,465
82628,187121,248068,-2.8989045799,-5.649454158599999,-7.6977103042,466
82690,187128,248067,-2.8989045799,-5.649454158599999,-7.6977103042,467
82568,187076,248042,-2.8989045799,-5.649454158599999,-7.6977103042,468
82094,186905,247924,-2.8989045799,-5.649454158599999,-7.6977103042,469
81678,186816,247860,-2.8989045799,-5.649454158599999,-7.6977103042,470
81498,186790,247818,-2.8989045799,-5.649454158599999,-7.6977103042,471
81516,186780,247887,-2.8989045799,-5.649454158599999,-7.6977103042,472
81571,186782,247915,-2.8989045799,-5.649454158599999,-7.6977103042,473
81612,186820,247936,-2.8989045799,-5.649454158599999,-7.6977103042,474
81687,186844,247898,-2.8989045799,-5.649454158599999,-7.6977103042,475
81811,186896,247975,-2.8989045799,-5.649454158599999,-7.6977103042,476
81868,186898,247993,-2.8989045799,-5.649454158599999,-7.6977103042,477
81860,186828,248007,-2.8989045799,-5.649454158599999,-7.6977103042,478
81819,186881,247972,-2.8989045799,-5.649454158599999,-7.6977103042,479
81819,186886,247985,-2.8989045799,-5.649454158599999,-7.6977103042,480
81854,186851,247979,-2.8989045799,-5.649454158599999,-7.6977103042,481
81911,186875,247969,-2.8989045799,-5.649454158599999,-7.6977103042,482
81978,186921,248036,-2.8989045799,-5.649454158599999,-7.6977103042,483
82067,186940,248059,-2.8989045799,-5.649454158599999,-7.6977103042,484
82139,186936,248046,-2.8989045799,-5.649454158599999,-7.6977103042,485
82198,186966,248007,-2.8989045799,-5.649454158599999,-7.6977103042,486
82274,186951,248043,-2.8989045799,-5.649454158599999,-7.6977103042,487
82333,186999,248058,-2.8989045799,-5.649454158599999,-7.6977103042,488
82385,187019,248074,-2.9539394997,-5.6147582309,-7.683353368600001,489
82433,186990,248064,-2.9539394997,-5.6147582309,-7.683353368600001,490
82464,187022,248076,-2.9539394997,-5.6147582309,-7.683353368600001,491
82528,187016,248042,-2.9539394997,-5.6147582309,-7.683353368600001,492
82541,187006,248053,-2.9539394997,-5.6147582309,-7.683353368600001,493
82263,186908,247955,-2.9539394997,-5.6147582309,-7.683353368600001,494
81779,186796,247887,-2.9539394997,-5.6147582309,-7.683353368600001,495
81471,186725,247863,-2.9539394997,-5.6147582309,-7.683353368600001,496
81374,186687,247915,-2.9539394997,-5.6147582309,-7.683353368600001,497
81357,186702,247902,-2.9539394997,-5.6147582309,-7.683353368600001,498
81376,186692,247905,-2.9539394997,-5.6147582309,-7.683353368600001,499
81405,186716,247924,-2.9539394997,-5.6147582309,-7.683353368600001,500
81528,186724,247921,-2.9539394997,-5.6147582309,-7.683353368600001,501
81624,186805,247957,-2.9539394997,-5.6147582309,-7.683353368600001,502
81662,186787,247971,-2.9539394997,-5.6147582309,-7.683353368600001,503
81655,186783,248000,-2.9539394997,-5.6147582309,-7.683353368600001,504
81634,186760,247925,-2.9539394997,-5.6147582309,-7.683353368600001,505
81626,186761,247953,-2.9539394997,-5.6147582309,-7.683353368600001,506
81668,186792,248016,-2.9539394997,-5.6147582309,-7.683353368600001,507
81737,186834,247993,-2.9539394997,-5.6147582309,-7.683353368600001,508
81789,186835,248045,-2.9539394997,-5.6147582309,-7.683353368600001,509
81845,186853,248021,-2.9539394997,-5.6147582309,-7.683353368600001,510
81925,186875,248035,-2.9539394997,-5.6147582309,-7.683353368600001,511
81995,186885,247996,-2.9539394997,-5.6147582309,-7.683353368600001,512
82067,186908,248044,-2.9539394997,-5.6147582309,-7.683353368600001,513
82125,186932,248062,-2.9539394997,-5.6147582309,-7.683353368600001,514
82181,186947,248065,-2.9539394997,-5.6147582309,-7.683353368600001,515
82240,186947,248055,-2.9539394997,-5.6147582309,-7.683353368600001,516
82288,186955,248073,-2.9539394997,-5.6147582309,-7.683353368600001,517
82350,186993,248036,-2.9539394997,-5.6147582309,-7.683353368600001,518
82391,186981,248038,-2.9539394997,-5.6147582309,-7.683353368600001,519
82438,187014,248080,-2.9539394997,-5.6147582309,-7.683353368600001,520
82515,187022,248097,-2.9539394997,-5.6147582309,-7.683353368600001,521
82572,187033,248035,-2.9539394997,-5.6147582309,-7.683353368600001,522
82598,187056,248067,-2.9539394997,-5.6147582309,-7.683353368600001,523
82668,187049,248061,-2.9539394997,-5.6147582309,-7.683353368600001,524
82730,187058,248104,-2.9539394997,-5.6147582309,-7.683353368600001,525
82742,187043,248065,-2.9539394997,-5.6147582309,-7.683353368600001,526
82366,186891,247936,-2.9539394997,-5.6147582309,-7.683353368600001,527
81850,186756,247846,-2.9539394997,-5.6147582309,-7.683353368600001,528
81501,186730,247819,-2.9539394997,-5.6147582309,-7.683353368600001,529
81434,186715,247832,-2.9539394997,-5.6147582309,-7.683353368600001,530
81638,186772,247951,-2.8342983697,-5.7188460139999995,-7.7276205867,531
81731,186821,247967,-2.8342983697,-5.7188460139999995,-7.7276205867,532
81736,186823,247957,-2.8342983697,-5.7188460139999995,-7.7276205867,533
81728,186788,247925,-2.8342983697,-5.7188460139999995,-7.7276205867,534
81704,186785,247932,-2.8342983697,-5.7188460139999995,-7.7276205867,535
81683,186790,247995,-2.8342983697,-5.7188460139999995,-7.7276205867,536
81738,186845,247954,-2.8342983697,-5.7188460139999995,-7.7276205867,537
81777,186841,247967,-2.8342983697,-5.7188460139999995,-7.7276205867,538
81870,186856,247947,-2.8342983697,-5.7188460139999995,-7.7276205867,539
81928,186903,247982,-2.8342983697,-5.7188460139999995,-7.7276205867,540
82008,186888,247998,-2.8342983697,-5.7188460139999995,-7.7276205867,541
82081,186917,248003,-2.8342983697,-5.7188460139999995,-7.7276205867,542
82129,186952,248034,-2.8342983697,-5.7188460139999995,-7.7276205867,543
82192,186949,248024,-2.8342983697,-5.7188460139999995,-7.7276205867,544
82244,186989,248025,-2.8342983697,-5.7188460139999995,-7.7276205867,545
82292,186968,247996,-2.8342983697,-5.7188460139999995,-7.7276205867,546
82351,186980,248048,-2.8342983697,-5.7188460139999995,-7.7276205867,547
82356,186978,248038,-2.8342983697,-5.7188460139999995,-7.7276205867,548
82097,186838,247960,-2.8342983697,-5.7188460139999995,-7.7276205867,549
81607,186754,247879,-2.8342983697,-5.7188460139999995,-7.7276205867,550
81313,186709,247801,-2.8342983697,-5.7188460139999995,-7.7276205867,551
81237,186681,247849,-2.8342983697,-5.7188460139999995,-7.7276205867,552
81244,186706,247863,-2.8342983697,-5.7188460139999995,-7.7276205867,553
81287,186724,247865,-2.8342983697,-5.7188460139999995,-7.7276205867,554
81335,186711,247906,-2.8342983697,-5.7188460139999995,-7.7276205867,555
81448,186762,247953,-2.8342983697,-5.7188460139999995,-7.7276205867,556
81549,186802,247933,-2.8342983697,-5.7188460139999995,-7.7276205867,557
81578,186767,247914,-2.8342983697,-5.7188460139999995,-7.7276205867,558
81527,186783,247909,-2.8342983697,-5.7188460139999995,-7.7276205867,559
81525,186751,247950,-2.8342983697,-5.7188460139999995,-7.7276205867,560
81514,186775,247997,-2.8342983697,-5.7188460139999995,-7.7276205867,561
81556,186769,247898,-2.8342983697,-5.7188460139999995,-7.7276205867,562
81614,186848,247970,-2.8342983697,-5.7188460139999995,-7.7276205867,563
81676,186863,248037,-2.8342983697,-5.7188460139999995,-7.7276205867,564
81740,186844,248029,-2.8342983697,-5.7188460139999995,-7.7276205867,565
81812,186882,247934,-2.8342983697,-5.7188460139999995,-7.7276205867,566
81859,186913,247983,-2.8342983697,-5.7188460139999995,-7.7276205867,567
81937,186910,248020,-2.8342983697,-5.7188460139999995,-7.7276205867,568
81989,186933,248000,-2.8342983697,-5.7188460139999995,-7.7276205867,569
82028,186905,248032,-2.8342983697,-5.7188460139999995,-7.7276205867,570
82098,186927,248026,-2.8342983697,-5.7188460139999995,-7.7276205867,571
82146,186959,248019,-2.8342983697,-5.7188460139999995,-7.7276205867,572
82362,187002,248008,-2.7852455064000003,-5.6422756908,-7.6713892556,573
82403,187055,248011,-2.7852455064000003,-5.6422756908,-7.6713892556,574
82467,187036,247988,-2.7852455064000003,-5.6422756908,-7.6713892556,575
82436,186969,248008,-2.7852455064000003,-5.6422756908,-7.6713892556,576
82034,186824,247955,-2.7852455064000003,-5.6422756908,-7.6713892556,577
81540,186731,247844,-2.7852455064000003,-5.6422756908,-7.6713892556,578
81306,186674,247793,-2.7852455064000003,-5.6422756908,-7.6713892556,579
81259,186712,247847,-2.7852455064000003,-5.6422756908,-7.6713892556,580
81293,186704,247871,-2.8223342567,-5.7224352479,-7.6881390138,581
81337,186714,247867,-2.9336005076,-5.6027941179,-7.6295148601000005,582
81386,186796,247849,-2.8857440556,-5.6925249654,-7.653443086099999,583
81502,186779,247939,-2.9120651042,-5.730810127,-7.624729214899999,584
81592,186772,247917,-2.9120651042,-5.730810127,-7.624729214899999,585
81602,186776,247936,-2.9120651042,-5.730810127,-7.624729214899999,586
81607,186804,247918,-2.9120651042,-5.730810127,-7.624729214899999,587
81604,186761,247887,-2.9120651042,-5.730810127,-7.624729214899999,588
81605,186757,247967,-2.9120651042,-5.730810127,-7.624729214899999,589
81663,186782,247927,-2.9120651042,-5.730810127,-7.624729214899999,590
81733,186807,247935,-2.9120651042,-5.730810127,-7.624729214899999,591
81804,186875,247965,-2.9120651042,-5.730810127,-7.624729214899999,592
81871,186851,247955,-2.9120651042,-5.730810127,-7.624729214899999,593
81953,186869,247979,-2.9120651042,-5.730810127,-7.624729214899999,594
82014,186909,248006,-2.9120651042,-5.730810127,-7.624729214899999,595
82086,186934,248039,-2.9120651042,-5.730810127,-7.624729214899999,596
82150,186947,248057,-2.9120651042,-5.730810127,-7.624729214899999,597
82200,186929,248015,-2.9120651042,-5.730810127,-7.624729214899999,598
82256,186967,247947,-2.9120651042,-5.730810127,-7.624729214899999,599
82312,186974,248030,-2.9120651042,-5.730810127,-7.624729214899999,600
82370,186990,248005,-2.9120651042,-5.730810127,-7.624729214899999,601
82389,186952,248028,-2.9120651042,-5.730810127,-7.624729214899999,602
82099,186835,247919,-2.9120651042,-5.730810127,-7.624729214899999,603
81632,186699,247844,-2.9168507494,-5.6434721021,-7.6055866341,604
81349,186652,247835,-2.9168507494,-5.6434721021,-7.6055866341,605
81302,186639,247800,-2.9168507494,-5.6434721021,-7.6055866341,606
81303,186676,247838,-2.9168507494,-5.6434721021,-7.6055866341,607
81334,186648,247894,-2.9431717980000003,-5.6279187552000005,-7.750352401400001,608
81392,186692,247861,-2.9431717980000003,-5.6279187552000005,-7.750352401400001,609
81512,186697,247924,-2.9431717980000003,-5.6279187552000005,-7.750352401400001,610
81617,186731,247927,-2.9431717980000003,-5.6279187552000005,-7.750352401400001,611
81640,186705,247907,-2.9431717980000003,-5.6279187552000005,-7.750352401400001,612
81637,186725,247912,-2.9431717980000003,-5.6279187552000005,-7.750352401400001,613
81624,186719,247944,-2.9431717980000003,-5.6279187552000005,-7.750352401400001,614
81638,186726,247937,-2.9431717980000003,-5.6279187552000005,-7.750352401400001,615
81676,186774,247930,-2.9431717980000003,-5.6279187552000005,-7.750352401400001,616
81745,186774,247958,-2.9431717980000003,-5.6279187552000005,-7.750352401400001,617
81816,186786,247973,-2.9431717980000003,-5.6279187552000005,-7.750352401400001,618
81925,186844,248002,-2.9431717980000003,-5.6279187552000005,-7.750352401400001,619
81999,186839,247997,-2.9431717980000003,-5.6279187552000005,-7.750352401400001,620
82079,186852,247960,-2.9431717980000003,-5.6279187552000005,-7.750352401400001,621
82151,186887,248008,-2.9431717980000003,-5.6279187552000005,-7.750352401400001,622
82230,186878,247964,-2.9431717980000003,-5.6279187552000005,-7.750352401400001,623
82280,186898,248038,-2.9431717980000003,-5.6279187552000005,-7.750352401400001,624
82350,186908,248036,-2.9431717980000003,-5.6279187552000005,-7.750352401400001,625
82405,186929,248020,-2.9431717980000003,-5.6279187552000005,-7.750352401400001,626
82482,186955,247983,-2.9431717980000003,-5.6279187552000005,-7.750352401400001,627
82531,186974,248022,-2.9431717980000003,-5.6279187552000005,-7.750352401400001,628
82590,186999,248049,-2.9431717980000003,-5.6279187552000005,-7.750352401400001,629
82640,186965,248034,-2.7696921595,-5.6099725857,-7.6366933279,630
82708,186998,248036,-2.7696921595,-5.6099725857,-7.6366933279,631
82743,186992,247992,-2.7696921595,-5.6099725857,-7.6366933279,632
82602,186890,247968,-2.7696921595,-5.6099725857,-7.6366933279,633
82125,186760,247857,-2.8031916759,-5.5597233111,-7.570890706399999,634
81721,186692,247834,-2.9503502657999996,-5.6171510535,-7.6295148601000005,635
81617,186674,247892,-2.8283163132,-5.647061336,-7.7802626839,636
81597,186671,247827,-2.8881368781999996,-5.6542398038,-7.6654071991,637
81631,186689,247861,-2.8127629663000002,-5.6075797630999995,-7.645068207,638
81698,186696,247859,-2.8175486115,-5.5968120614000005,-7.7443703449,639
81803,186715,247930,-2.8163522002,-5.6135618196,-7.6809605460000006,640
81928,186780,247939,-2.8654050635,-5.6398828682,-7.692924659,641
81941,186774,248004,-2.8546373618,-5.6614182716,-7.764709337,642
81929,186751,247919,-2.9694928465999997,-5.6638110942,-7.6522466748,643
81915,186766,247956,-2.8618158296000002,-5.5274202059999995,-7.708478005899999,644
81905,186733,247898,-2.9958138952,-5.6039905292,-7.6426753844,645
81919,186759,247925,-3.0293134116,-5.6291151665,-7.6654071991,646
81938,186753,247947,-2.8007988533,-5.4951171009,-7.6522466748,647
82031,186794,247949,-2.8785655878,-5.5621161337,-7.654639497399999,648
82113,186741,247972,-2.967100024,-5.6063833518,-7.7012995381,649
82158,186835,248009,-2.9024938138,-5.635097223,-7.6713892556,650
82225,186838,247955,-2.7541388126,-5.5920264161999995,-7.6977103042,651
82261,186870,247982,-2.8031916759,-5.647061336,-7.695317481599999,652
82349,186886,248021,-2.8594230069999997,-5.5645089563,-7.740781111,653
82396,186889,247955,-2.8366911923,-5.7032926670999995,-7.777869861299999,654
82411,186909,247990,-2.8809584104000003,-5.6291151665,-7.7347990545,655
82472,186886,247993,-2.8965117573,-5.5657053676,-7.635496916599999,656
82432,186884,248016,-2.8295127245,-5.5166525043000005,-7.7611201031,657
82118,186781,247892,-2.8067809098,-5.5441699642,-7.6522466748,658
81532,186654,247805,-2.8546373618,-5.659025449,-7.6905318364,659
81379,186604,247821,-2.9455646206,-5.694917788000001,-7.6737820782,660
81312,186590,247819,-2.9264220398,-5.6853464976,-7.624729214899999,661
81330,186582,247850,-2.9264220398,-5.6853464976,-7.624729214899999,662
81338,186579,247884,-2.9264220398,-5.6853464976,-7.624729214899999,663
81404,186636,247913,-2.9264220398,-5.6853464976,-7.624729214899999,664
81502,186683,247953,-2.9264220398,-5.6853464976,-7.624729214899999,665
81608,186705,247961,-2.9264220398,-5.6853464976,-7.624729214899999,666
81612,186692,247952,-2.9264220398,-5.6853464976,-7.624729214899999,667
81592,186699,247922,-2.9264220398,-5.6853464976,-7.624729214899999,668
81572,186706,247909,-2.9264220398,-5.6853464976,-7.624729214899999,669
81569,186709,247882,-2.9264220398,-5.6853464976,-7.624729214899999,670
81618,186712,247976,-2.9264220398,-5.6853464976,-7.624729214899999,671
81691,186752,247917,-2.9264220398,-5.6853464976,-7.624729214899999,672
81746,186764,247926,-2.9264220398,-5.6853464976,-7.624729214899999,673
81801,186772,247977,-2.9264220398,-5.6853464976,-7.624729214899999,674
81906,186811,248018,-2.8474588940000003,-5.651846981199999,-7.6402825618,675
81959,186822,247983,-2.8474588940000003,-5.651846981199999,-7.6402825618,676
82024,186859,247993,-2.787638329,-5.5812587145,-7.65703232,677
82075,186844,247988,-2.7972096194,-5.7499527078,-7.6905318364,678
82144,186884,248002,-2.9599215562,-5.6578290377,-7.695317481599999,679
82181,186874,247977,-2.8378876036,-5.7379885948,-7.6498538522,680
82245,186883,248009,-2.8342983697,-5.7463634739,-7.752745224,681
82271,186896,248037,-2.8402804262,-5.6805608524,-7.6151579245,682
82332,186939,247988,-2.967100024,-5.6231331099999995,-7.65703232,683
82334,186908,247946,-2.9048866364,-5.7966127485,-7.6809605460000006,684
81964,186764,247863,-2.7972096194,-5.6422756908,-7.6343005053,685
81465,186630,247839,-2.835494781,-5.635097223,-7.6343005053,686
81230,186602,247801,-2.8630122409,-5.7008998445,-7.6965138929000005,687
81098,186582,247809,-2.8378876036,-5.6123654083000005,-7.5960153436999995,688
81184,186614,247801,-2.9694928465999997,-5.6386864569,-7.7120672398000005,689
81253,186614,247781,-2.8079773211,-5.706881900999999,-7.5912296985,690
81303,186644,247828,-2.7816562725,-5.6410792795,-7.6594251426,691
81458,186667,247917,-2.9108686929000003,-5.5932228275,-7.6522466748,692
81510,186707,247870,-2.8067809098,-5.6279187552000005,-7.7264241754,693
81549,186691,247926,-2.9012974024999996,-5.6805608524,-7.7264241754,694
81527,186696,247924,-2.9012974024999996,-5.6805608524,-7.7264241754,695
81527,186677,247947,-2.9012974024999996,-5.6805608524,-7.7264241754,696
81544,186700,247938,-2.9012974024999996,-5.6805608524,-7.7264241754,697
81615,186721,247960,-2.9012974024999996,-5.6805608524,-7.7264241754,698
81709,186761,247928,-2.9012974024999996,-5.6805608524,-7.7264241754,699
81790,186789,247937,-2.9012974024999996,-5.6805608524,-7.7264241754,700
81851,186803,247976,-2.9012974024999996,-5.6805608524,-7.7264241754,701
81948,186798,247947,-2.9012974024999996,-5.6805608524,-7.7264241754,702
82047,186829,248015,-2.9012974024999996,-5.6805608524,-7.7264241754,703
82130,186837,247954,-2.9012974024999996,-5.6805608524,-7.7264241754,704
82183,186872,247994,-2.9012974024999996,-5.6805608524,-7.7264241754,705
82249,186858,247996,-2.9012974024999996,-5.6805608524,-7.7264241754,706
82314,186910,247998,-2.9012974024999996,-5.6805608524,-7.7264241754,707
82386,186882,248018,-2.9012974024999996,-5.6805608524,-7.7264241754,708
82240,186828,247938,-2.9012974024999996,-5.6805608524,-7.7264241754,709
81798,186669,247880,-2.9012974024999996,-5.6805608524,-7.7264241754,710
81472,186632,247834,-2.9012974024999996,-5.6805608524,-7.7264241754,711
81389,186622,247749,-2.9012974024999996,-5.6805608524,-7.7264241754,712
81405,186613,247796,-2.9012974024999996,-5.6805608524,-7.7264241754,713
81461,186625,247816,-2.9012974024999996,-5.6805608524,-7.7264241754,714
81519,186644,247842,-2.9012974024999996,-5.6805608524,-7.7264241754,715
81630,186673,247894,-2.9012974024999996,-5.6805608524,-7.7264241754,716
81760,186736,247955,-2.9012974024999996,-5.6805608524,-7.7264241754,717
81803,186734,247920,-2.9012974024999996,-5.6805608524,-7.7264241754,718
81821,186718,247880,-2.9012974024999996,-5.6805608524,-7.7264241754,719
81825,186718,247954,-2.9012974024999996,-5.6805608524,-7.7264241754,720
81821,186714,247908,-2.9012974024999996,-5.6805608524,-7.7264241754,721
81902,186778,247955,-2.9012974024999996,-5.6805608524,-7.7264241754,722
81976,186778,247963,-2.9012974024999996,-5.6805608524,-7.7264241754,723
82064,186784,247974,-2.9012974024999996,-5.6805608524,-7.7264241754,724
82146,186810,247962,-2.9012974024999996,-5.6805608524,-7.7264241754,725
82234,186839,247944,-2.9012974024999996,-5.6805608524,-7.7264241754,726
82319,186856,248019,-2.9012974024999996,-5.6805608524,-7.7264241754,727
82375,186866,247980,-2.9012974024999996,-5.6805608524,-7.7264241754,728
82443,186876,247974,-2.9012974024999996,-5.6805608524,-7.7264241754,729
82507,186886,248041,-2.9012974024999996,-5.6805608524,-7.7264241754,730
82572,186902,248019,-2.9012974024999996,-5.6805608524,-7.7264241754,731
82617,186904,247982,-2.9012974024999996,-5.6805608524,-7.7264241754,732
82687,186905,248039,-2.9012974024999996,-5.6805608524,-7.7264241754,733
82694,186939,247990,-2.9012974024999996,-5.6805608524,-7.7264241754,734
82405,186805,247918,-2.9012974024999996,-5.6805608524,-7.7264241754,735
82004,186732,247922,-2.7708885708000004,-5.6303115778,-7.654639497399999,736
82012,186734,247906,-2.7708885708000004,-5.6303115778,-7.654639497399999,737
82033,186745,247940,-2.7708885708000004,-5.6303115778,-7.654639497399999,738
82105,186759,247950,-2.7708885708000004,-5.6303115778,-7.654639497399999,739
82178,186785,247956,-2.7708885708000004,-5.6303115778,-7.654639497399999,740
82260,186810,248002,-2.7708885708000004,-5.6303115778,-7.654639497399999,741
82346,186839,247993,-2.7708885708000004,-5.6303115778,-7.654639497399999,742
82397,186843,248002,-2.7708885708000004,-5.6303115778,-7.654639497399999,743
82477,186829,247955,-2.7708885708000004,-5.6303115778,-7.654639497399999,744
82546,186870,247986,-2.7708885708000004,-5.6303115778,-7.654639497399999,745
82602,186886,247991,-2.7708885708000004,-5.6303115778,-7.654639497399999,746
82643,186879,248027,-2.7708885708000004,-5.6303115778,-7.654639497399999,747
82697,186910,248022,-2.7708885708000004,-5.6303115778,-7.654639497399999,748
82735,186909,248020,-2.7708885708000004,-5.6303115778,-7.654639497399999,749
82579,186790,247956,-2.7708885708000004,-5.6303115778,-7.654639497399999,750
82129,186666,247853,-2.7708885708000004,-5.6303115778,-7.654639497399999,751
81805,186605,247808,-2.7708885708000004,-5.6303115778,-7.654639497399999,752
81693,186613,247827,-2.7708885708000004,-5.6303115778,-7.654639497399999,753
81687,186636,247808,-2.7708885708000004,-5.6303115778,-7.654639497399999,754
81700,186626,247868,-2.7708885708000004,-5.6303115778,-7.654639497399999,755
81733,186609,247913,-2.7708885708000004,-5.6303115778,-7.654639497399999,756
81814,186673,247897,-2.7708885708000004,-5.6303115778,-7.654639497399999,757
81933,186688,247914,-2.7708885708000004,-5.6303115778,-7.654639497399999,758
82008,186690,247964,-2.7708885708000004,-5.6303115778,-7.654639497399999,759
81995,186722,247936,-2.7708885708000004,-5.6303115778,-7.654639497399999,760
81986,186697,247908,-2.7708885708000004,-5.6303115778,-7.654639497399999,761
82010,186665,247971,-2.7708885708000004,-5.6303115778,-7.654639497399999,762
82062,186729,247958,-2.7708885708000004,-5.6303115778,-7.654639497399999,763
82135,186730,247990,-2.7708885708000004,-5.6303115778,-7.654639497399999,764
82229,186758,248031,-2.7708885708000004,-5.6303115778,-7.654639497399999,765
82312,186777,247997,-2.7708885708000004,-5.6303115778,-7.654639497399999,766
82394,186814,248025,-2.7708885708000004,-5.6303115778,-7.654639497399999,767
82465,186807,248004,-2.7708885708000004,-5.6303115778,-7.654639497399999,768
82544,186833,248077,-2.7708885708000004,-5.6303115778,-7.654639497399999,769
82604,186865,248038,-2.7708885708000004,-5.6303115778,-7.654639497399999,770
82675,186885,248038,-2.7708885708000004,-5.6303115778,-7.654639497399999,771
82721,186908,248049,-2.7708885708000004,-5.6303115778,-7.654639497399999,772
82800,186903,248048,-2.7708885708000004,-5.6303115778,-7.654639497399999,773
82723,186821,247993,-2.7708885708000004,-5.6303115778,-7.654639497399999,774
82309,186725,247909,-2.7708885708000004,-5.6303115778,-7.654639497399999,775
81949,186599,247900,-2.7708885708000004,-5.6303115778,-7.654639497399999,776
81822,186623,247907,-2.7708885708000004,-5.6303115778,-7.654639497399999,777
82010,186706,247973,-2.8414768375,-5.5920264161999995,-7.7264241754,778
82128,186713,247969,-2.8414768375,-5.5920264161999995,-7.7264241754,779
82189,186726,247946,-2.8414768375,-5.5920264161999995,-7.7264241754,780
82196,186715,247998,-2.8414768375,-5.5920264161999995,-7.7264241754,781
82179,186707,248002,-2.8414768375,-5.5920264161999995,-7.7264241754,782
82191,186709,247971,-2.8414768375,-5.5920264161999995,-7.7264241754,783
82235,186756,248004,-2.8414768375,-5.5920264161999995,-7.7264241754,784
82305,186770,248029,-2.8414768375,-5.5920264161999995,-7.7264241754,785
82378,186795,248021,-2.8414768375,-5.5920264161999995,-7.7264241754,786
82481,186807,248047,-2.8414768375,-5.5920264161999995,-7.7264241754,787
82575,186830,248049,-2.8414768375,-5.5920264161999995,-7.7264241754,788
82627,186836,248043,-2.8414768375,-5.5920264161999995,-7.7264241754,789
82705,186874,248057,-2.8414768375,-5.5920264161999995,-7.7264241754,790
82765,186859,248071,-2.8414768375,-5.5920264161999995,-7.7264241754,791
82824,186875,248068,-2.8414768375,-5.5920264161999995,-7.7264241754,792
82851,186848,248079,-2.8414768375,-5.5920264161999995,-7.7264241754,793
82892,186906,248087,-2.8414768375,-5.5920264161999995,-7.7264241754,794
82837,186864,248022,-2.8414768375,-5.5920264161999995,-7.7264241754,795
82473,186732,247939,-2.8414768375,-5.5920264161999995,-7.7264241754,796
82090,186685,247889,-2.8414768375,-5.5920264161999995,-7.7264241754,797
81919,186637,247899,-2.8414768375,-5.5920264161999995,-7.7264241754,798
81887,186659,247916,-2.8414768375,-5.5920264161999995,-7.7264241754,799
81890,186633,247911,-2.8414768375,-5.5920264161999995,-7.7264241754,800
81916,186651,247948,-2.8414768375,-5.5920264161999995,-7.7264241754,801
81983,186665,247971,-2.8414768375,-5.5920264161999995,-7.7264241754,802
82112,186731,247962,-2.8414768375,-5.5920264161999995,-7.7264241754,803
82142,186734,247974,-2.8414768375,-5.5920264161999995,-7.7264241754,804
82143,186710,247997,-2.8414768375,-5.5920264161999995,-7.7264241754,805
82106,186721,247944,-2.8414768375,-5.5920264161999995,-7.7264241754,806
82114,186733,247989,-2.8414768375,-5.5920264161999995,-7.7264241754,807
82159,186752,247992,-2.8414768375,-5.5920264161999995,-7.7264241754,808
82205,186790,248017,-2.8414768375,-5.5920264161999995,-7.7264241754,809
82286,186794,248001,-2.8414768375,-5.5920264161999995,-7.7264241754,810
82364,186830,248020,-2.8414768375,-5.5920264161999995,-7.7264241754,811
82417,186832,248024,-2.8414768375,-5.5920264161999995,-7.7264241754,812
82494,186829,248051,-2.8414768375,-5.5920264161999995,-7.7264241754,813
82542,186847,248068,-2.8414768375,-5.5920264161999995,-7.7264241754,814
82607,186871,248076,-2.8414768375,-5.5920264161999995,-7.7264241754,815
82648,186903,248064,-2.8414768375,-5.5920264161999995,-7.7264241754,816
82692,186882,248065,-2.8414768375,-5.5920264161999995,-7.7264241754,817
82746,186930,248054,-2.8414768375,-5.5920264161999995,-7.7264241754,818
82778,186938,248016,-2.8414768375,-5.5920264161999995,-7.7264241754,819
82552,186939,248069,-2.9240292172,-5.7044890784,-7.621139981,820
82629,186939,248063,-2.9240292172,-5.7044890784,-7.621139981,821
82678,186964,248051,-2.9240292172,-5.7044890784,-7.621139981,822
82738,186979,248059,-2.9240292172,-5.7044890784,-7.621139981,823
82797,186981,248056,-2.9240292172,-5.7044890784,-7.621139981,824
82755,186937,248049,-2.9240292172,-5.7044890784,-7.621139981,825
82355,186777,247945,-2.9240292172,-5.7044890784,-7.621139981,826
81949,186751,247869,-2.9240292172,-5.7044890784,-7.621139981,827
81796,186715,247867,-2.9240292172,-5.7044890784,-7.621139981,828
81775,186741,247913,-2.9240292172,-5.7044890784,-7.621139981,829
81799,186704,247889,-2.9240292172,-5.7044890784,-7.621139981,830
81846,186738,247936,-2.9240292172,-5.7044890784,-7.621139981,831
81938,186787,247962,-2.9240292172,-5.7044890784,-7.621139981,832
82050,186808,247954,-2.9240292172,-5.7044890784,-7.621139981,833
82097,186791,247915,-2.9240292172,-5.7044890784,-7.621139981,834
82111,186803,247969,-2.9240292172,-5.7044890784,-7.621139981,835
82083,186830,247893,-2.9240292172,-5.7044890784,-7.621139981,836
82078,186822,247938,-2.9240292172,-5.7044890784,-7.621139981,837
82137,186782,247965,-2.9240292172,-5.7044890784,-7.621139981,838
82190,186839,247960,-2.9240292172,-5.7044890784,-7.621139981,839
82274,186853,247985,-2.9240292172,-5.7044890784,-7.621139981,840
82354,186878,248016,-2.9240292172,-5.7044890784,-7.621139981,841
82422,186890,248017,-2.9240292172,-5.7044890784,-7.621139981,842
82488,186879,247958,-2.9240292172,-5.7044890784,-7.621139981,843
82554,186933,247936,-2.9240292172,-5.7044890784,-7.621139981,844
82616,186948,248010,-2.9240292172,-5.7044890784,-7.621139981,845
82654,186949,247998,-2.9240292172,-5.7044890784,-7.621139981,846
82713,186954,248045,-2.9240292172,-5.7044890784,-7.621139981,847
82760,186977,247979,-2.9240292172,-5.7044890784,-7.621139981,848
82779,186948,247996,-2.9240292172,-5.7044890784,-7.621139981,849
82511,186834,247960,-2.9240292172,-5.7044890784,-7.621139981,850
82109,186746,247817,-2.9240292172,-5.7044890784,-7.621139981,851
81875,186683,247837,-2.9240292172,-5.7044890784,-7.621139981,852
81829,186722,247844,-2.9240292172,-5.7044890784,-7.621139981,853
81846,186715,247846,-2.9240292172,-5.7044890784,-7.621139981,854
81882,186714,247845,-2.9240292172,-5.7044890784,-7.621139981,855
81942,186744,247859,-2.9240292172,-5.7044890784,-7.621139981,856
82052,186804,247893,-2.9240292172,-5.7044890784,-7.621139981,857
82148,186811,247935,-2.9240292172,-5.7044890784,-7.621139981,858
82148,186806,247955,-2.9240292172,-5.7044890784,-7.621139981,859
82134,186769,247917,-2.9240292172,-5.7044890784,-7.621139981,860
82141,186787,247884,-2.9240292172,-5.7044890784,-7.621139981,861
82315,186874,247947,-2.9635107901000004,-5.6183474648,-7.6941210703,862
82376,186868,247918,-2.9635107901000004,-5.6183474648,-7.6941210703,863
82446,186897,247946,-2.9635107901000004,-5.6183474648,-7.6941210703,864
82514,186925,247984,-2.9635107901000004,-5.6183474648,-7.6941210703,865
82590,186902,247923,-2.9635107901000004,-5.6183474648,-7.6941210703,866
82660,186925,247996,-2.9635107901000004,-5.6183474648,-7.6941210703,867
82707,186934,247934,-2.9635107901000004,-5.6183474648,-7.6941210703,868
82783,186953,247926,-2.9635107901000004,-5.6183474648,-7.6941210703,869
82836,186977,247915,-2.9635107901000004,-5.6183474648,-7.6941210703,870
82869,187001,247948,-2.9635107901000004,-5.6183474648,-7.6941210703,871
82923,186992,247948,-2.9635107901000004,-5.6183474648,-7.6941210703,872
82963,186983,247921,-2.9635107901000004,-5.6183474648,-7.6941210703,873
82724,186862,247885,-2.9635107901000004,-5.6183474648,-7.6941210703,874
82279,186736,247803,-2.9635107901000004,-5.6183474648,-7.6941210703,875
82041,186733,247724,-2.9635107901000004,-5.6183474648,-7.6941210703,876
81994,186734,247779,-2.9635107901000004,-5.6183474648,-7.6941210703,877
82028,186726,247776,-2.9635107901000004,-5.6183474648,-7.6941210703,878
82075,186744,247799,-2.9635107901000004,-5.6183474648,-7.6941210703,879
82117,186756,247828,-2.9635107901000004,-5.6183474648,-7.6941210703,880
82235,186800,247859,-2.9635107901000004,-5.6183474648,-7.6941210703,881
82330,186844,247855,-2.9635107901000004,-5.6183474648,-7.6941210703,882
82368,186824,247819,-2.9635107901000004,-5.6183474648,-7.6941210703,883
82354,186800,247803,-2.9635107901000004,-5.6183474648,-7.6941210703,884
82382,186805,247853,-2.9635107901000004,-5.6183474648,-7.6941210703,885
82381,186834,247907,-2.9635107901000004,-5.6183474648,-7.6941210703,886
82457,186819,247873,-2.9635107901000004,-5.6183474648,-7.6941210703,887
82521,186850,247898,-2.9635107901000004,-5.6183474648,-7.6941210703,888
82618,186899,247895,-2.9635107901000004,-5.6183474648,-7.6941210703,889
82699,186919,247864,-2.9635107901000004,-5.6183474648,-7.6941210703,890
82761,186927,247932,-2.9635107901000004,-5.6183474648,-7.6941210703,891
82836,186950,247908,-2.9635107901000004,-5.6183474648,-7.6941210703,892
82901,186979,247898,-2.9635107901000004,-5.6183474648,-7.6941210703,893
82963,186967,247944,-2.9635107901000004,-5.6183474648,-7.6941210703,894
83018,186980,247912,-2.9635107901000004,-5.6183474648,-7.6941210703,895
83080,186979,247940,-2.9635107901000004,-5.6183474648,-7.6941210703,896
83133,187014,247890,-2.9635107901000004,-5.6183474648,-7.6941210703,897
82958,186884,247820,-2.9635107901000004,-5.6183474648,-7.6941210703,898
82539,186784,247758,-2.9635107901000004,-5.6183474648,-7.6941210703,899
82270,186710,247725,-2.9635107901000004,-5.6183474648,-7.6941210703,900
82197,186729,247779,-2.9635107901000004,-5.6183474648,-7.6941210703,901
82218,186724,247713,-2.9635107901000004,-5.6183474648,-7.6941210703,902
82238,186755,247770,-2.9635107901000004,-5.6183474648,-7.6941210703,903
82709,186914,247880,-2.8331019584000003,-5.6769716185,-7.6498538522,904
82789,186916,247864,-2.8331019584000003,-5.6769716185,-7.6498538522,905
82843,186934,247885,-2.8331019584000003,-5.6769716185,-7.6498538522,906
82902,186947,247830,-2.8331019584000003,-5.6769716185,-7.6498538522,907
82944,186961,247865,-2.8331019584000003,-5.6769716185,-7.6498538522,908
82981,186953,247837,-2.8331019584000003,-5.6769716185,-7.6498538522,909
83043,186989,247838,-2.8331019584000003,-5.6769716185,-7.6498538522,910
83069,186997,247865,-2.8331019584000003,-5.6769716185,-7.6498538522,911
83039,186955,247854,-2.8331019584000003,-5.6769716185,-7.6498538522,912
82678,186842,247750,-2.8331019584000003,-5.6769716185,-7.6498538522,913
82294,186734,247723,-2.8331019584000003,-5.6769716185,-7.6498538522,914
82089,186751,247738,-2.8331019584000003,-5.6769716185,-7.6498538522,915
82051,186757,247680,-2.8331019584000003,-5.6769716185,-7.6498538522,916
82042,186715,247713,-2.8331019584000003,-5.6769716185,-7.6498538522,917
82045,186748,247732,-2.8331019584000003,-5.6769716185,-7.6498538522,918
82122,186785,247719,-2.8331019584000003,-5.6769716185,-7.6498538522,919
82214,186812,247719,-2.8331019584000003,-5.6769716185,-7.6498538522,920
82266,186794,247787,-2.8331019584000003,-5.6769716185,-7.6498538522,921
82236,186832,247772,-2.8331019584000003,-5.6769716185,-7.6498538522,922
82221,186804,247758,-2.8331019584000003,-5.6769716185,-7.6498538522,923
82221,186824,247781,-2.8331019584000003,-5.6769716185,-7.6498538522,924
82243,186841,247779,-2.8331019584000003,-5.6769716185,-7.6498538522,925
82284,186847,247746,-2.8331019584000003,-5.6769716185,-7.6498538522,926
82354,186852,247775,-2.8331019584000003,-5.6769716185,-7.6498538522,927
82416,186884,247777,-2.8331019584000003,-5.6769716185,-7.6498538522,928
82461,186903,247801,-2.8331019584000003,-5.6769716185,-7.6498538522,929
82527,186952,247790,-2.8331019584000003,-5.6769716185,-7.6498538522,930
82562,186941,247814,-2.8331019584000003,-5.6769716185,-7.6498538522,931
82633,186938,247826,-2.8331019584000003,-5.6769716185,-7.6498538522,932
82679,186954,247822,-2.8331019584000003,-5.6769716185,-7.6498538522,933
82703,186956,247762,-2.8331019584000003,-5.6769716185,-7.6498538522,934
82754,186967,247851,-2.8331019584000003,-5.6769716185,-7.6498538522,935
82788,186968,247841,-2.8331019584000003,-5.6769716185,-7.6498538522,936
82574,186872,247723,-2.8331019584000003,-5.6769716185,-7.6498538522,937
82116,186746,247724,-2.8331019584000003,-5.6769716185,-7.6498538522,938
81791,186716,247635,-2.8331019584000003,-5.6769716185,-7.6498538522,939
81695,186708,247658,-2.8331019584000003,-5.6769716185,-7.6498538522,940
81671,186709,247704,-2.8331019584000003,-5.6769716185,-7.6498538522,941
81700,186695,247684,-2.8331019584000003,-5.6769716185,-7.6498538522,942
81720,186736,247724,-2.8331019584000003,-5.6769716185,-7.6498538522,943
81808,186771,247747,-2.8331019584000003,-5.6769716185,-7.6498538522,944
81899,186784,247750,-2.8331019584000003,-5.6769716185,-7.6498538522,945
82241,186910,247808,-2.8283163132,-5.7224352479,-7.6175507471,946
82296,186914,247868,-2.8283163132,-5.7224352479,-7.6175507471,947
82363,186923,247845,-2.8283163132,-5.7224352479,-7.6175507471,948
82404,186938,247830,-2.8283163132,-5.7224352479,-7.6175507471,949
82459,186957,247871,-2.8283163132,-5.7224352479,-7.6175507471,950
82486,186973,247821,-2.8283163132,-5.7224352479,-7.6175507471,951
82551,186977,247880,-2.8283163132,-5.7224352479,-7.6175507471,952
82435,186867,247780,-2.8283163132,-5.7224352479,-7.6175507471,953
81998,186754,247740,-2.8283163132,-5.7224352479,-7.6175507471,954
81634,186681,247661,-2.8283163132,-5.7224352479,-7.6175507471,955
81508,186677,247658,-2.9228328059,-5.7092747236,-7.7072815945999995,956
81502,186692,247715,-2.9228328059,-5.7092747236,-7.7072815945999995,957
81526,186684,247695,-2.9228328059,-5.7092747236,-7.7072815945999995,958
81558,186708,247713,-2.9228328059,-5.7092747236,-7.7072815945999995,959
81649,186747,247777,-2.9228328059,-5.7092747236,-7.7072815945999995,960
81753,186790,247801,-2.9228328059,-5.7092747236,-7.7072815945999995,961
81801,186778,247807,-2.9228328059,-5.7092747236,-7.7072815945999995,962
81799,186809,247806,-2.9228328059,-5.7092747236,-7.7072815945999995,963
81782,186755,247803,-2.9228328059,-5.7092747236,-7.7072815945999995,964
81796,186780,247830,-2.9228328059,-5.7092747236,-7.7072815945999995,965
81847,186811,247829,-2.9228328059,-5.7092747236,-7.7072815945999995,966
81921,186801,247826,-2.9228328059,-5.7092747236,-7.7072815945999995,967
82011,186845,247833,-2.9228328059,-5.7092747236,-7.7072815945999995,968
82084,186872,247835,-2.9228328059,-5.7092747236,-7.7072815945999995,969
82167,186837,247837,-2.9228328059,-5.7092747236,-7.7072815945999995,970
82246,186892,247854,-2.9228328059,-5.7092747236,-7.7072815945999995,971
82317,186922,247870,-2.9228328059,-5.7092747236,-7.7072815945999995,972
82393,186933,247901,-2.9228328059,-5.7092747236,-7.7072815945999995,973
82450,186938,247899,-2.9228328059,-5.7092747236,-7.7072815945999995,974
82512,186938,247929,-2.9228328059,-5.7092747236,-7.7072815945999995,975
82580,186957,247950,-2.9228328059,-5.7092747236,-7.7072815945999995,976
82657,186986,247926,-2.9228328059,-5.7092747236,-7.7072815945999995,977
82710,186964,247947,-2.9228328059,-5.7092747236,-7.7072815945999995,978
82781,187019,247939,-2.9228328059,-5.7092747236,-7.7072815945999995,979
82824,187012,247904,-2.9228328059,-5.7092747236,-7.7072815945999995,980
82717,186893,247830,-2.9228328059,-5.7092747236,-7.7072815945999995,981
82304,186765,247766,-2.9228328059,-5.7092747236,-7.7072815945999995,982
81985,186710,247732,-2.9228328059,-5.7092747236,-7.7072815945999995,983
81917,186743,247765,-2.9228328059,-5.7092747236,-7.7072815945999995,984
81931,186768,247736,-2.7625136916999997,-5.6602218603,-7.6737820782,985
81990,186765,247755,-2.7625136916999997,-5.6602218603,-7.6737820782,986
82073,186779,247726,-2.7625136916999997,-5.6602218603,-7.6737820782,987
82195,186833,247790,-2.7625136916999997,-5.6602218603,-7.6737820782,988
82297,186845,247818,-2.7625136916999997,-5.6602218603,-7.6737820782,989
82351,186829,247804,-2.7625136916999997,-5.6602218603,-7.6737820782,990
82336,186841,247823,-2.7625136916999997,-5.6602218603,-7.6737820782,991
82339,186857,247849,-2.7625136916999997,-5.6602218603,-7.6737820782,992
82350,186823,247808,-2.7625136916999997,-5.6602218603,-7.6737820782,993
82399,186845,247857,-2.7625136916999997,-5.6602218603,-7.6737820782,994
82465,186867,247821,-2.7625136916999997,-5.6602218603,-7.6737820782,995
82547,186870,247847,-2.7625136916999997,-5.6602218603,-7.6737820782,996
82627,186904,247902,-2.7625136916999997,-5.6602218603,-7.6737820782,997
82687,186934,247916,-3.0125636533999995,-5.6422756908,-7.6366933279,998
82769,186946,247842,-3.0125636533999995,-5.6422756908,-7.6366933279,999
82835,186960,247924,-3.0125636533999995,-5.6422756908,-7.6366933279,1000
82883,186971,247875,-3.0125636533999995,-5.6422756908,-7.6366933279,1001
82930,186951,247907,-3.0125636533999995,-5.6422756908,-7.6366933279,1002
82973,186990,247898,-3.0125636533999995,-5.6422756908,-7.6366933279,1003
83027,186988,247913,-2.8163522002,-5.649454158599999,-7.7443703449,1004
83091,187015,247911,-2.8163522002,-5.649454158599999,-7.7443703449,1005
83088,186985,247891,-2.8163522002,-5.649454158599999,-7.7443703449,1006
82813,186851,247786,-2.8163522002,-5.649454158599999,-7.7443703449,1007
82420,186749,247735,-2.8163522002,-5.649454158599999,-7.7443703449,1008
82222,186756,247732,-2.8163522002,-5.649454158599999,-7.7443703449,1009
82189,186765,247724,-2.8163522002,-5.649454158599999,-7.7443703449,1010
82209,186737,247790,-2.8163522002,-5.649454158599999,-7.7443703449,1011
82288,186770,247750,-2.8163522002,-5.649454158599999,-7.7443703449,1012
82344,186782,247759,-2.8163522002,-5.649454158599999,-7.7443703449,1013
82452,186804,247812,-2.8163522002,-5.649454158599999,-7.7443703449,1014
82526,186849,247783,-2.8163522002,-5.649454158599999,-7.7443703449,1015
82550,186824,247818,-2.8163522002,-5.649454158599999,-7.7443703449,1016
82539,186842,247805,-2.8522445392,-5.6685967394,-7.7156564737,1017
82546,186813,247794,-2.8522445392,-5.6685967394,-7.7156564737,1018
82574,186841,247889,-2.8522445392,-5.6685967394,-7.7156564737,1019
82621,186855,247866,-2.8522445392,-5.6685967394,-7.7156564737,1020
82705,186884,247817,-2.8522445392,-5.6685967394,-7.7156564737,1021
82766,186894,247850,-2.8522445392,-5.6685967394,-7.7156564737,1022
82842,186870,247866,-2.8522445392,-5.6685967394,-7.7156564737,1023
82915,186941,247884,-2.8522445392,-5.6685967394,-7.7156564737,1024
82974,186956,247881,-2.8522445392,-5.6685967394,-7.7156564737,1025
83041,186942,247902,-2.8522445392,-5.6685967394,-7.7156564737,1026
83105,186955,247867,-2.8522445392,-5.6685967394,-7.7156564737,1027
83160,187000,247876,-2.8522445392,-5.6685967394,-7.7156564737,1028
83214,186977,247870,-2.8522445392,-5.6685967394,-7.7156564737,1029
83264,187021,247912,-2.8522445392,-5.6685967394,-7.7156564737,1030
83314,187003,247880,-2.8522445392,-5.6685967394,-7.7156564737,1031
83379,187007,247842,-2.8522445392,-5.6685967394,-7.7156564737,1032
83399,187026,247882,-2.8522445392,-5.6685967394,-7.7156564737,1033
83451,187046,247900,-2.8522445392,-5.6685967394,-7.7156564737,1034
83509,187036,247876,-2.8522445392,-5.6685967394,-7.7156564737,1035
83326,186987,247778,-2.8522445392,-5.6685967394,-7.7156564737,1036
82907,186799,247719,-2.8522445392,-5.6685967394,-7.7156564737,1037
82569,186752,247736,-2.8522445392,-5.6685967394,-7.7156564737,1038
82472,186774,247678,-2.8522445392,-5.6685967394,-7.7156564737,1039
82471,186771,247734,-2.8522445392,-5.6685967394,-7.7156564737,1040
82511,186805,247696,-2.8522445392,-5.6685967394,-7.7156564737,1041
82541,186823,247732,-2.9551359109999997,-5.7678988773,-7.6271220375,1042
82627,186825,247779,-2.9551359109999997,-5.7678988773,-7.6271220375,1043
82709,186850,247786,-2.9551359109999997,-5.7678988773,-7.6271220375,1044
82747,186868,247752,-2.9551359109999997,-5.7678988773,-7.6271220375,1045
82725,186841,247816,-2.9551359109999997,-5.7678988773,-7.6271220375,1046
82703,186836,247782,-2.9551359109999997,-5.7678988773,-7.6271220375,1047
82686,186866,247723,-2.9551359109999997,-5.7678988773,-7.6271220375,1048
82736,186863,247790,-2.9551359109999997,-5.7678988773,-7.6271220375,1049
82781,186870,247804,-2.9551359109999997,-5.7678988773,-7.6271220375,1050
82843,186894,247812,-2.9551359109999997,-5.7678988773,-7.6271220375,1051
82884,186929,247778,-2.9551359109999997,-5.7678988773,-7.6271220375,1052
82969,186912,247809,-2.9551359109999997,-5.7678988773,-7.6271220375,1053
83010,186947,247813,-2.9551359109999997,-5.7678988773,-7.6271220375,1054
83089,186993,247798,-2.8402804262,-5.6267223439,-7.6522466748,1055
83119,186962,247795,-2.8402804262,-5.6267223439,-7.6522466748,1056
83186,186981,247835,-2.8402804262,-5.6267223439,-7.6522466748,1057
83226,186967,247784,-2.8402804262,-5.6267223439,-7.6522466748,1058
83263,186984,247769,-2.8402804262,-5.6267223439,-7.6522466748,1059
83304,186994,247773,-2.8402804262,-5.6267223439,-7.6522466748,1060
83363,186999,247800,-2.8689942974,-5.8085768615,-7.6630143765,1061
83368,186957,247791,-2.8689942974,-5.8085768615,-7.6630143765,1062
83131,186762,247722,-2.7864419177,-5.6267223439,-7.721638530200001,1063
82696,186771,247668,-2.8809584104000003,-5.5477591981,-7.633104094,1064
82390,186743,247568,-2.8127629663000002,-5.6877393201999995,-7.7443703449,1065
82310,186785,247629,-2.9431717980000003,-5.6638110942,-7.7922267969000005,1066
82293,186765,247656,-2.9575287336000002,-5.6614182716,-7.6785677234,1067
82328,186696,247644,-2.8259234905999997,-5.6015977066,-7.737191877099999,1068
82369,186775,247655,-2.8953153460000003,-5.6255259326000004,-7.6522466748,1069
82464,186828,247691,-2.7194428849,-5.6004012953,-7.584051230699999,1070
82543,186822,247689,-2.9742784918,-5.6733823846,-7.625925626199999,1071
82579,186823,247702,-2.7505495787000003,-5.6566326264,-7.6857461912,1072
82547,186799,247694,-2.8510481279,-5.651846981199999,-7.7300134093,1073
82521,186850,247687,-2.9240292172,-5.6685967394,-7.7120672398000005,1074
82508,186852,247702,-2.7110680058,-5.651846981199999,-7.6893354250999995,1075
82538,186786,247710,-2.7553352239,-5.6422756908,-7.716852885,1076
82598,186864,247694,-2.883351233,-5.7092747236,-7.7024959494,1077
82663,186882,247746,-2.8570301844,-5.5609197224,-7.6594251426,1078
82723,186874,247717,-2.9647072014,-5.7403814174,-7.6977103042,1079
82788,186899,247696,-2.8223342567,-5.5716874241,-7.695317481599999,1080
82844,186901,247727,-2.7098715945,-5.6327044004,-7.6426753844,1081
82879,186905,247692,-2.8917261120999997,-5.7044890784,-7.6977103042,1082
82935,186921,247742,-2.8570301844,-5.5657053676,-7.6019974002,1083
82978,186969,247750,-2.9659036127,-5.459224761900001,-7.639086150500001,1084
83028,186969,247737,-2.9240292172,-5.5908300049,-7.683353368600001,1085
83066,186947,247742,-2.9120651042,-5.678168029799999,-7.639086150500001,1086
83119,186952,247747,-2.9994031291,-5.6398828682,-7.6809605460000006,1087
83149,186967,247746,-2.7744778047,-5.760720409499999,-7.7228349415,1088
83183,186970,247757,-2.8594230069999997,-5.6075797630999995,-7.6881390138,1089
83248,186991,247733,-2.7230321187999995,-5.5453663755000004,-7.7001031268,1090
83241,186967,247734,-2.7230321187999995,-5.5453663755000004,-7.7001031268,1091
82956,186850,247661,-2.7230321187999995,-5.5453663755000004,-7.7001031268,1092
82481,186730,247573,-2.7912275628999996,-5.6602218603,-7.6139615132000005,1093
82217,186667,247540,-2.8438696600999998,-5.6446685134,-7.6031938115,1094
82140,186704,247540,-2.8797619991,-5.6506505699,-7.6881390138,1095
82158,186748,247558,-2.883351233,-5.6267223439,-7.6785677234,1096
82194,186771,247549,-2.8929225234,-5.6997034332,-7.721638530200001,1097
82269,186757,247584,-2.9264220398,-5.6865429089,-7.5601230047,1098
82343,186792,247633,-2.7924239742,-5.6027941179,-7.6809605460000006,1099
82428,186749,247637,-2.8737799425999997,-5.5429735529,-7.752745224,1100
82434,186806,247613,-2.8271199019,-5.7188460139999995,-7.6821569573,1101
82421,186789,247645,-2.8271199019,-5.7188460139999995,-7.6821569573,1102
82376,186805,247551,-2.8271199019,-5.7188460139999995,-7.6821569573,1103
82388,186781,247605,-2.8271199019,-5.7188460139999995,-7.6821569573,1104
82424,186769,247636,-2.8271199019,-5.7188460139999995,-7.6821569573,1105
82481,186807,247590,-2.8271199019,-5.7188460139999995,-7.6821569573,1106
82544,186827,247683,-2.8271199019,-5.7188460139999995,-7.6821569573,1107
82602,186839,247621,-2.8271199019,-5.7188460139999995,-7.6821569573,1108
82680,186843,247650,-2.8271199019,-5.7188460139999995,-7.6821569573,1109
82733,186865,247694,-2.8271199019,-5.7188460139999995,-7.6821569573,1110
82798,186872,247700,-2.8271199019,-5.7188460139999995,-7.6821569573,1111
82850,186883,247682,-2.9647072014,-5.730810127,-7.6414789731,1112
82903,186928,247640,-2.9647072014,-5.730810127,-7.6414789731,1113
82950,186909,247684,-2.9647072014,-5.730810127,-7.6414789731,1114
82984,186923,247668,-2.8283163132,-5.6877393201999995,-7.6031938115,1115
83023,186960,247623,-2.6931218363,-5.6219366987,-7.6522466748,1116
83075,186964,247664,-2.7445675222,-5.7284173044,-7.6785677234,1117
83035,186864,247649,-2.919243572,-5.6099725857,-7.6845497799,1118
82663,186754,247561,-2.7110680058,-5.6853464976,-7.6498538522,1119
82223,186677,247472,-2.8031916759,-5.5884371823,-7.6881390138,1120
81997,186620,247466,-2.8510481279,-5.754738353,-7.775477038699999,1121
81977,186654,247476,-2.7649065143000002,-5.7044890784,-7.7144600624,1122
81977,186676,247567,-2.9575287336000002,-5.694917788000001,-7.6283184488,1123
82024,186657,247560,-2.9778677257000004,-5.7535419417,-7.6522466748,1124
82070,186667,247566,-2.9072794589999997,-5.682953675,-7.7036923607,1125
82191,186702,247573,-2.8881368781999996,-5.6219366987,-7.6821569573,1126
82265,186756,247598,-2.9024938138,-5.7176496027,-7.6773713121,1127
82289,186735,247603,-2.8606194183,-5.6542398038,-7.7718878047999995,1128
82259,186724,247590,-2.9336005076,-5.563312545,-7.543373246500001,1129
82226,186726,247578,-2.9347969189,-5.499902746099999,-7.6474610296,1130
82235,186749,247610,-2.7792634499,-5.8372907327,-7.6474610296,1131
82289,186773,247592,-2.8570301844,-5.6542398038,-7.5864440533,1132
82344,186816,247601,-2.8366911923,-5.651846981199999,-7.7539416353,1133
82427,186793,247620,-2.8821548217,-5.7020962558,-7.65703232,1134
82487,186832,247633,-2.8725835312999997,-5.666203916800001,-7.6498538522,1135
82601,186836,247655,-2.9324040963,-5.5429735529,-7.639086150500001,1136
82624,186830,247675,-2.8151557889,-5.766702466,-7.6857461912,1137
82671,186857,247641,-2.9431717980000003,-5.6075797630999995,-7.7096744172000005,1138
82735,186874,247645,-2.8366911923,-5.7559347643,-7.7551380466,1139
82799,186876,247668,-2.8151557889,-5.745167062599999,-7.716852885,1140
82846,186907,247661,-2.8630122409,-5.6877393201999995,-7.728816998,1141
82891,186885,247664,-2.9168507494,-5.6398828682,-7.6594251426,1142
82919,186923,247672,-2.9623143788,-5.7870414581,-7.6881390138,1143
82989,186943,247640,-2.8247270792999997,-5.6853464976,-7.716852885,1144
83049,186941,247644,-2.8319055471,-5.6004012953,-7.668996433,1145
83088,186961,247683,-2.8319055471,-5.6004012953,-7.668996433,1146
83137,186960,247679,-2.8319055471,-5.6004012953,-7.668996433,1147
83155,186931,247609,-2.8319055471,-5.6004012953,-7.668996433,1148
82845,186804,247553,-2.8319055471,-5.6004012953,-7.668996433,1149
82357,186680,247496,-2.8319055471,-5.6004012953,-7.668996433,1150
82056,186674,247446,-2.8319055471,-5.6004012953,-7.668996433,1151
81994,186669,247446,-2.8319055471,-5.6004012953,-7.668996433,1152
81989,186671,247457,-2.8319055471,-5.6004012953,-7.668996433,1153
82050,186688,247492,-2.8319055471,-5.6004012953,-7.668996433,1154
82127,186689,247526,-2.8319055471,-5.6004012953,-7.668996433,1155
82219,186730,247527,-2.8319055471,-5.6004012953,-7.668996433,1156
82309,186756,247550,-2.8319055471,-5.6004012953,-7.668996433,1157
82323,186751,247558,-2.8319055471,-5.6004012953,-7.668996433,1158
82321,186731,247476,-2.8319055471,-5.6004012953,-7.668996433,1159
82268,186741,247587,-2.8319055471,-5.6004012953,-7.668996433,1160
82300,186730,247544,-2.8319055471,-5.6004012953,-7.668996433,1161
82324,186749,247546,-2.8319055471,-5.6004012953,-7.668996433,1162
82448,186814,247554,-2.9455646206,-5.611168996999999,-7.6486574409,1163
82528,186827,247592,-2.9455646206,-5.611168996999999,-7.6486574409,1164
82596,186839,247602,-2.9455646206,-5.611168996999999,-7.6486574409,1165
82666,186895,247620,-2.9455646206,-5.611168996999999,-7.6486574409,1166
82720,186856,247608,-2.9455646206,-5.611168996999999,-7.6486574409,1167
82778,186874,247647,-2.9455646206,-5.611168996999999,-7.6486574409,1168
82835,186890,247622,-2.9455646206,-5.611168996999999,-7.6486574409,1169
82887,186893,247601,-2.9455646206,-5.611168996999999,-7.6486574409,1170
82938,186909,247583,-2.9455646206,-5.611168996999999,-7.6486574409,1171
82988,186926,247618,-2.9455646206,-5.611168996999999,-7.6486574409,1172
83051,186953,247608,-2.9455646206,-5.611168996999999,-7.6486574409,1173
83070,186935,247647,-2.9455646206,-5.611168996999999,-7.6486574409,1174
82911,186852,247586,-2.9455646206,-5.611168996999999,-7.6486574409,1175
82450,186715,247482,-2.9455646206,-5.611168996999999,-7.6486574409,1176
82036,186657,247451,-2.9455646206,-5.611168996999999,-7.6486574409,1177
81906,186652,247487,-2.9455646206,-5.611168996999999,-7.6486574409,1178
81897,186640,247479,-2.9455646206,-5.611168996999999,-7.6486574409,1179
81954,186645,247463,-2.9455646206,-5.611168996999999,-7.6486574409,1180
82012,186677,247511,-2.9455646206,-5.611168996999999,-7.6486574409,1181
82120,186705,247479,-2.8079773211,-5.706881900999999,-7.6426753844,1182
82206,186728,247593,-2.8079773211,-5.706881900999999,-7.6426753844,1183
82243,186748,247528,-2.8079773211,-5.706881900999999,-7.6426753844,1184
82223,186738,247544,-2.8079773211,-5.706881900999999,-7.6426753844,1185
82188,186706,247557,-2.8079773211,-5.706881900999999,-7.6426753844,1186
82166,186760,247549,-2.8079773211,-5.706881900999999,-7.6426753844,1187
82188,186720,247589,-2.8079773211,-5.706881900999999,-7.6426753844,1188
82246,186800,247541,-2.8079773211,-5.706881900999999,-7.6426753844,1189
82295,186776,247602,-2.8079773211,-5.706881900999999,-7.6426753844,1190
82367,186789,247607,-2.8079773211,-5.706881900999999,-7.6426753844,1191
82434,186794,247627,-2.8079773211,-5.706881900999999,-7.6426753844,1192
82490,186839,247694,-2.8079773211,-5.706881900999999,-7.6426753844,1193
82538,186823,247655,-2.8079773211,-5.706881900999999,-7.6426753844,1194
82594,186870,247624,-2.8079773211,-5.706881900999999,-7.6426753844,1195
82644,186887,247643,-2.8079773211,-5.706881900999999,-7.6426753844,1196
82695,186876,247655,-2.8079773211,-5.706881900999999,-7.6426753844,1197
82751,186875,247668,-2.8079773211,-5.706881900999999,-7.6426753844,1198
82804,186880,247662,-2.8079773211,-5.706881900999999,-7.6426753844,1199
82842,186873,247626,-2.8079773211,-5.706881900999999,-7.6426753844,1200
82879,186901,247622,-2.8079773211,-5.706881900999999,-7.6426753844,1201
82751,186851,247595,-2.8079773211,-5.706881900999999,-7.6426753844,1202
82268,186708,247481,-2.8079773211,-5.706881900999999,-7.6426753844,1203
81869,186647,247496,-2.8079773211,-5.706881900999999,-7.6426753844,1204
81709,186634,247444,-2.8079773211,-5.706881900999999,-7.6426753844,1205
81667,186580,247474,-2.8079773211,-5.706881900999999,-7.6426753844,1206
81720,186591,247531,-2.8079773211,-5.706881900999999,-7.6426753844,1207
81755,186584,247512,-2.8079773211,-5.706881900999999,-7.6426753844,1208
81821,186662,247569,-2.8079773211,-5.706881900999999,-7.6426753844,1209
81943,186678,247589,-2.8079773211,-5.706881900999999,-7.6426753844,1210
82012,186676,247617,-2.8079773211,-5.706881900999999,-7.6426753844,1211
82019,186683,247623,-2.8079773211,-5.706881900999999,-7.6426753844,1212
81989,186673,247609,-2.8079773211,-5.706881900999999,-7.6426753844,1213
81974,186631,247590,-2.9168507494,-5.7332029496,-7.6761749007999995,1214
82006,186673,247606,-2.9168507494,-5.7332029496,-7.6761749007999995,1215
82049,186693,247574,-2.9168507494,-5.7332029496,-7.6761749007999995,1216
82104,186707,247623,-2.9168507494,-5.7332029496,-7.6761749007999995,1217
82198,186720,247627,-2.9168507494,-5.7332029496,-7.6761749007999995,1218
82276,186722,247650,-2.9168507494,-5.7332029496,-7.6761749007999995,1219
82320,186789,247626,-2.9168507494,-5.7332029496,-7.6761749007999995,1220
82392,186757,247657,-2.9168507494,-5.7332029496,-7.6761749007999995,1221
82449,186784,247654,-2.9168507494,-5.7332029496,-7.6761749007999995,1222
82510,186817,247644,-2.9168507494,-5.7332029496,-7.6761749007999995,1223
82565,186816,247644,-2.9168507494,-5.7332029496,-7.6761749007999995,1224
82618,186825,247677,-2.9168507494,-5.7332029496,-7.6761749007999995,1225
82662,186871,247691,-2.9336005076,-5.6997034332,-7.704888771999999,1226
82721,186822,247699,-2.9336005076,-5.6997034332,-7.704888771999999,1227
82760,186864,247704,-2.9336005076,-5.6997034332,-7.704888771999999,1228
82805,186826,247724,-2.9778677257000004,-5.5884371823,-7.7300134093,1229
82539,186724,247596,-2.8737799425999997,-5.6769716185,-7.6438717957,1230
82032,186623,247547,-2.8031916759,-5.6997034332,-7.7156564737,1231
81727,186524,247463,-2.9168507494,-5.554937665900001,-7.6522466748,1232
81578,186549,247503,-2.8582265956999997,-5.6542398038,-7.6713892556,1233
81593,186516,247499,-2.8582265956999997,-5.6542398038,-7.6713892556,1234
81621,186538,247526,-2.8582265956999997,-5.6542398038,-7.6713892556,1235
81686,186567,247601,-2.8582265956999997,-5.6542398038,-7.6713892556,1236
81791,186582,247583,-2.8582265956999997,-5.6542398038,-7.6713892556,1237
81918,186598,247606,-2.8582265956999997,-5.6542398038,-7.6713892556,1238
81962,186600,247624,-2.8163522002,-5.6877393201999995,-7.5122665527,1239
81923,186634,247598,-2.8618158296000002,-5.636293634299999,-7.651050263499999,1240
81905,186589,247634,-2.9359933301999996,-5.6578290377,-7.6498538522,1241
81900,186624,247643,-2.8510481279,-5.6542398038,-7.6199435697,1242
81937,186611,247623,-2.8402804262,-5.7499527078,-7.716852885,1243
81991,186635,247621,-2.87138712,-5.7116675462,-7.6737820782,1244
82061,186662,247651,-2.8965117573,-5.694917788000001,-7.6414789731,1245
82128,186662,247712,-2.9455646206,-5.5238309721,-7.6582287313,1246
82237,186660,247721,-2.8414768375,-5.6602218603,-7.6594251426,1247
82286,186745,247673,-2.9060830476999997,-5.637490045600001,-7.7108708285,1248
82339,186731,247741,-2.9443682093000003,-5.6805608524,-7.7001031268,1249
82409,186733,247695,-2.8618158296000002,-5.706881900999999,-7.6163543358,1250
82484,186750,247708,-2.9431717980000003,-5.6697931507,-7.763512925700001,1251
82533,186772,247710,-2.9563323222999998,-5.6434721021,-7.7024959494,1252
82588,186784,247751,-2.8199414341,-5.6398828682,-7.7060851833,1253
82622,186794,247715,-2.9359933301999996,-5.6458649247,-7.6618179652,1254
82701,186801,247713,-2.8689942974,-5.637490045600001,-7.6881390138,1255
82761,186810,247715,-2.8761727652,-5.7379885948,-7.666603610399999,1256
82500,186694,247632,-2.87138712,-5.583651537100001,-7.683353368600001,1257
81996,186570,247558,-2.8857440556,-5.716453191399999,-7.7694949822,1258
81615,186494,247556,-2.9718856692,-5.6135618196,-7.635496916599999,1259
81563,186524,247484,-2.7553352239,-5.7116675462,-7.7156564737,1260
81552,186500,247561,-2.8019952646,-5.7403814174,-7.6905318364,1261
81613,186541,247559,-2.9024938138,-5.6027941179,-7.5756763516,1262
81674,186527,247602,-2.7074787719,-5.5166525043000005,-7.5888368759,1263
81796,186587,247598,-2.9060830476999997,-5.6410792795,-7.6749784895,1264
81914,186629,247664,-2.8953153460000003,-5.5178489156,-7.5457660691,1265
81965,186609,247657,-2.75174599,-5.5501520207,-7.7431739336,1266
81947,186608,247651,-2.75174599,-5.5501520207,-7.7431739336,1267
81915,186605,247656,-2.75174599,-5.5501520207,-7.7431739336,1268
81924,186603,247695,-2.75174599,-5.5501520207,-7.7431739336,1269
81953,186608,247642,-2.75174599,-5.5501520207,-7.7431739336,1270
82013,186637,247705,-2.75174599,-5.5501520207,-7.7431739336,1271
82091,186670,247672,-2.75174599,-5.5501520207,-7.7431739336,1272
82179,186676,247713,-2.75174599,-5.5501520207,-7.7431739336,1273
82247,186686,247713,-2.75174599,-5.5501520207,-7.7431739336,1274
82315,186691,247688,-2.75174599,-5.5501520207,-7.7431739336,1275
82383,186728,247714,-2.75174599,-5.5501520207,-7.7431739336,1276
82437,186742,247723,-2.75174599,-5.5501520207,-7.7431739336,1277
82489,186770,247776,-2.75174599,-5.5501520207,-7.7431739336,1278
82541,186768,247725,-2.75174599,-5.5501520207,-7.7431739336,1279
82601,186797,247749,-2.75174599,-5.5501520207,-7.7431739336,1280
82646,186817,247759,-2.75174599,-5.5501520207,-7.7431739336,1281
82697,186789,247769,-2.75174599,-5.5501520207,-7.7431739336,1282
82587,186738,247681,-2.75174599,-5.5501520207,-7.7431739336,1283
82161,186593,247616,-2.7864419177,-5.7379885948,-7.7072815945999995,1284
81713,186533,247532,-2.7864419177,-5.7379885948,-7.7072815945999995,1285
81564,186508,247511,-2.7864419177,-5.7379885948,-7.7072815945999995,1286
81532,186498,247495,-2.7864419177,-5.7379885948,-7.7072815945999995,1287
81563,186512,247591,-2.7864419177,-5.7379885948,-7.7072815945999995,1288
81629,186539,247659,-2.7864419177,-5.7379885948,-7.7072815945999995,1289
81721,186559,247625,-2.7864419177,-5.7379885948,-7.7072815945999995,1290
81826,186590,247686,-2.7864419177,-5.7379885948,-7.7072815945999995,1291
81868,186604,247667,-2.7864419177,-5.7379885948,-7.7072815945999995,1292
81890,186605,247649,-2.7864419177,-5.7379885948,-7.7072815945999995,1293
81860,186610,247642,-2.7864419177,-5.7379885948,-7.7072815945999995,1294
81827,186600,247678,-2.7864419177,-5.7379885948,-7.7072815945999995,1295
81866,186589,247670,-2.7864419177,-5.7379885948,-7.7072815945999995,1296
81912,186628,247708,-2.7864419177,-5.7379885948,-7.7072815945999995,1297
81982,186648,247682,-2.7864419177,-5.7379885948,-7.7072815945999995,1298
82068,186687,247733,-2.7864419177,-5.7379885948,-7.7072815945999995,1299
82125,186658,247770,-2.7864419177,-5.7379885948,-7.7072815945999995,1300
82194,186697,247769,-2.7864419177,-5.7379885948,-7.7072815945999995,1301
82268,186701,247759,-2.7864419177,-5.7379885948,-7.7072815945999995,1302
82327,186725,247730,-2.9766713144,-5.6721859733,-7.7575308692,1303
82403,186761,247767,-2.9766713144,-5.6721859733,-7.7575308692,1304
82450,186791,247737,-2.9766713144,-5.6721859733,-7.7575308692,1305
82506,186764,247705,-2.9766713144,-5.6721859733,-7.7575308692,1306
82548,186795,247761,-2.9766713144,-5.6721859733,-7.7575308692,1307
82608,186782,247812,-2.9766713144,-5.6721859733,-7.7575308692,1308
82597,186774,247755,-2.9766713144,-5.6721859733,-7.7575308692,1309
82237,186610,247667,-2.9766713144,-5.6721859733,-7.7575308692,1310
81749,186501,247544,-2.9766713144,-5.6721859733,-7.7575308692,1311
81471,186450,247592,-2.9766713144,-5.6721859733,-7.7575308692,1312
81437,186473,247593,-2.9766713144,-5.6721859733,-7.7575308692,1313
81455,186469,247602,-2.9766713144,-5.6721859733,-7.7575308692,1314
81497,186481,247608,-2.9766713144,-5.6721859733,-7.7575308692,1315
81576,186527,247695,-2.9766713144,-5.6721859733,-7.7575308692,1316
81673,186540,247704,-2.9766713144,-5.6721859733,-7.7575308692,1317
81786,186567,247710,-2.9766713144,-5.6721859733,-7.7575308692,1318
81817,186577,247667,-2.9766713144,-5.6721859733,-7.7575308692,1319
81807,186583,247689,-2.9766713144,-5.6721859733,-7.7575308692,1320
81775,186549,247661,-2.9766713144,-5.6721859733,-7.7575308692,1321
81808,186547,247629,-2.9766713144,-5.6721859733,-7.7575308692,1322
81850,186585,247720,-2.9766713144,-5.6721859733,-7.7575308692,1323
81923,186598,247701,-2.9766713144,-5.6721859733,-7.7575308692,1324
82003,186597,247690,-2.9766713144,-5.6721859733,-7.7575308692,1325
82070,186620,247746,-2.9766713144,-5.6721859733,-7.7575308692,1326
82147,186660,247731,-2.9766713144,-5.6721859733,-7.7575308692,1327
82224,186679,247778,-2.9766713144,-5.6721859733,-7.7575308692,1328
82274,186696,247787,-2.9766713144,-5.6721859733,-7.7575308692,1329
82348,186696,247742,-2.9766713144,-5.6721859733,-7.7575308692,1330
82387,186729,247756,-2.9766713144,-5.6721859733,-7.7575308692,1331
82449,186725,247820,-2.9766713144,-5.6721859733,-7.7575308692,1332
82496,186729,247811,-2.9766713144,-5.6721859733,-7.7575308692,1333
82563,186764,247767,-2.9766713144,-5.6721859733,-7.7575308692,1334
82570,186711,247752,-2.9001009912,-5.6482577473,-7.6881390138,1335
82375,186654,247692,-2.9001009912,-5.6482577473,-7.6881390138,1336
81895,186512,247630,-2.9001009912,-5.6482577473,-7.6881390138,1337
81503,186457,247560,-2.9001009912,-5.6482577473,-7.6881390138,1338
81411,186421,247553,-2.9001009912,-5.6482577473,-7.6881390138,1339
81422,186428,247610,-2.9001009912,-5.6482577473,-7.6881390138,1340
81469,186436,247656,-2.9001009912,-5.6482577473,-7.6881390138,1341
81521,186477,247613,-2.9001009912,-5.6482577473,-7.6881390138,1342
81601,186494,247651,-2.9001009912,-5.6482577473,-7.6881390138,1343
81714,186549,247700,-2.9001009912,-5.6482577473,-7.6881390138,1344
81779,186531,247727,-2.9001009912,-5.6482577473,-7.6881390138,1345
81778,186517,247679,-2.9001009912,-5.6482577473,-7.6881390138,1346
81751,186505,247719,-2.9001009912,-5.6482577473,-7.6881390138,1347
81775,186550,247693,-2.9001009912,-5.6482577473,-7.6881390138,1348
81809,186527,247727,-2.9001009912,-5.6482577473,-7.6881390138,1349
81874,186575,247726,-2.9001009912,-5.6482577473,-7.6881390138,1350
81963,186587,247790,-2.9001009912,-5.6482577473,-7.6881390138,1351
82037,186621,247764,-2.9001009912,-5.6482577473,-7.6881390138,1352
82117,186600,247803,-2.9001009912,-5.6482577473,-7.6881390138,1353
82179,186624,247800,-2.9001009912,-5.6482577473,-7.6881390138,1354
82249,186673,247802,-2.9001009912,-5.6482577473,-7.6881390138,1355
82343,186692,247772,-2.9001009912,-5.6482577473,-7.6881390138,1356
82391,186680,247784,-2.9001009912,-5.6482577473,-7.6881390138,1357
82454,186729,247843,-2.9001009912,-5.6482577473,-7.6881390138,1358
82516,186705,247788,-2.9001009912,-5.6482577473,-7.6881390138,1359
82559,186750,247826,-2.9001009912,-5.6482577473,-7.6881390138,1360
82632,186736,247841,-2.9001009912,-5.6482577473,-7.6881390138,1361
82700,186762,247831,-2.9001009912,-5.6482577473,-7.6881390138,1362
82760,186769,247814,-2.9001009912,-5.6482577473,-7.6881390138,1363
82641,186706,247762,-2.9001009912,-5.6482577473,-7.6881390138,1364
82191,186574,247697,-2.9001009912,-5.6482577473,-7.6881390138,1365
81768,186464,247627,-2.9001009912,-5.6482577473,-7.6881390138,1366
81629,186456,247627,-2.9001009912,-5.6482577473,-7.6881390138,1367
81628,186458,247637,-2.9001009912,-5.6482577473,-7.6881390138,1368
81687,186476,247674,-2.9001009912,-5.6482577473,-7.6881390138,1369
81736,186497,247663,-2.9001009912,-5.6482577473,-7.6881390138,1370
81838,186509,247720,-2.9001009912,-5.6482577473,-7.6881390138,1371
81961,186552,247741,-2.9001009912,-5.6482577473,-7.6881390138,1372
82012,186579,247748,-2.9001009912,-5.6482577473,-7.6881390138,1373
82018,186561,247780,-2.9001009912,-5.6482577473,-7.6881390138,1374
81993,186555,247770,-2.9001009912,-5.6482577473,-7.6881390138,1375
81986,186546,247748,-2.9001009912,-5.6482577473,-7.6881390138,1376
81561,186416,247634,-2.87138712,-5.6506505699,-7.6498538522,1377
81495,186409,247598,-2.87138712,-5.6506505699,-7.6498538522,1378
81533,186423,247634,-2.87138712,-5.6506505699,-7.6498538522,1379
81577,186457,247681,-2.87138712,-5.6506505699,-7.6498538522,1380
81655,186451,247655,-2.87138712,-5.6506505699,-7.6498538522,1381
81781,186525,247732,-2.87138712,-5.6506505699,-7.6498538522,1382
81866,186517,247723,-2.87138712,-5.6506505699,-7.6498538522,1383
81869,186535,247763,-2.87138712,-5.6506505699,-7.6498538522,1384
81872,186508,247769,-2.87138712,-5.6506505699,-7.6498538522,1385
81841,186515,247757,-2.87138712,-5.6506505699,-7.6498538522,1386
81860,186510,247761,-2.87138712,-5.6506505699,-7.6498538522,1387
81902,186557,247767,-2.87138712,-5.6506505699,-7.6498538522,1388
81971,186554,247754,-2.87138712,-5.6506505699,-7.6498538522,1389
82052,186596,247825,-2.87138712,-5.6506505699,-7.6498538522,1390
82127,186583,247840,-2.87138712,-5.6506505699,-7.6498538522,1391
82192,186627,247806,-2.87138712,-5.6506505699,-7.6498538522,1392
82272,186670,247798,-2.87138712,-5.6506505699,-7.6498538522,1393
82345,186654,247799,-2.87138712,-5.6506505699,-7.6498538522,1394
82411,186688,247810,-2.87138712,-5.6506505699,-7.6498538522,1395
82465,186699,247818,-2.87138712,-5.6506505699,-7.6498538522,1396
82514,186726,247808,-2.87138712,-5.6506505699,-7.6498538522,1397
82572,186689,247828,-2.87138712,-5.6506505699,-7.6498538522,1398
82631,186716,247840,-2.87138712,-5.6506505699,-7.6498538522,1399
82682,186739,247844,-2.87138712,-5.6506505699,-7.6498538522,1400
82736,186750,247846,-2.87138712,-5.6506505699,-7.6498538522,1401
82801,186770,247860,-2.87138712,-5.6506505699,-7.6498538522,1402
82827,186765,247860,-2.87138712,-5.6506505699,-7.6498538522,1403
82902,186796,247879,-2.87138712,-5.6506505699,-7.6498538522,1404
82912,186750,247850,-2.87138712,-5.6506505699,-7.6498538522,1405
82645,186618,247731,-2.87138712,-5.6506505699,-7.6498538522,1406
82088,186518,247665,-2.87138712,-5.6506505699,-7.6498538522,1407
81747,186453,247606,-2.87138712,-5.6506505699,-7.6498538522,1408
81634,186461,247656,-2.87138712,-5.6506505699,-7.6498538522,1409
81635,186441,247667,-2.87138712,-5.6506505699,-7.6498538522,1410
81679,186488,247688,-2.87138712,-5.6506505699,-7.6498538522,1411
81732,186487,247703,-2.87138712,-5.6506505699,-7.6498538522,1412
81838,186508,247701,-2.87138712,-5.6506505699,-7.6498538522,1413
81923,186563,247719,-2.87138712,-5.6506505699,-7.6498538522,1414
81966,186517,247763,-2.87138712,-5.6506505699,-7.6498538522,1415
81933,186518,247735,-2.87138712,-5.6506505699,-7.6498538522,1416
81904,186541,247756,-2.87138712,-5.6506505699,-7.6498538522,1417
81901,186531,247693,-2.87138712,-5.6506505699,-7.6498538522,1418
82138,186603,247776,-2.8618158296000002,-5.6219366987,-7.6737820782,1419
82187,186606,247766,-2.8618158296000002,-5.6219366987,-7.6737820782,1420
82269,186641,247777,-2.8618158296000002,-5.6219366987,-7.6737820782,1421
82326,186676,247806,-2.8618158296000002,-5.6219366987,-7.6737820782,1422
82368,186680,247850,-2.8618158296000002,-5.6219366987,-7.6737820782,1423
82432,186673,247826,-2.8618158296000002,-5.6219366987,-7.6737820782,1424
82494,186673,247791,-2.8618158296000002,-5.6219366987,-7.6737820782,1425
82535,186703,247853,-2.8618158296000002,-5.6219366987,-7.6737820782,1426
82574,186707,247836,-2.8618158296000002,-5.6219366987,-7.6737820782,1427
82398,186618,247797,-2.8618158296000002,-5.6219366987,-7.6737820782,1428
81907,186483,247649,-2.8618158296000002,-5.6219366987,-7.6737820782,1429
81503,186421,247600,-2.8618158296000002,-5.6219366987,-7.6737820782,1430
81403,186411,247590,-2.8618158296000002,-5.6219366987,-7.6737820782,1431
81377,186407,247631,-2.8618158296000002,-5.6219366987,-7.6737820782,1432
81404,186394,247660,-2.8618158296000002,-5.6219366987,-7.6737820782,1433
81449,186417,247643,-2.8618158296000002,-5.6219366987,-7.6737820782,1434
81550,186448,247645,-2.8618158296000002,-5.6219366987,-7.6737820782,1435
81670,186478,247706,-2.8618158296000002,-5.6219366987,-7.6737820782,1436
81710,186511,247693,-2.8618158296000002,-5.6219366987,-7.6737820782,1437
81698,186519,247704,-2.8618158296000002,-5.6219366987,-7.6737820782,1438
81685,186512,247709,-2.8618158296000002,-5.6219366987,-7.6737820782,1439
81688,186488,247694,-2.8618158296000002,-5.6219366987,-7.6737820782,1440
81724,186526,247710,-2.8618158296000002,-5.6219366987,-7.6737820782,1441
81776,186535,247756,-2.8618158296000002,-5.6219366987,-7.6737820782,1442
81855,186531,247743,-2.8618158296000002,-5.6219366987,-7.6737820782,1443
81947,186590,247777,-2.8618158296000002,-5.6219366987,-7.6737820782,1444
82006,186598,247750,-2.8295127245,-5.5453663755000004,-7.728816998,1445
82079,186622,247839,-2.8295127245,-5.5453663755000004,-7.728816998,1446
82144,186631,247811,-2.8295127245,-5.5453663755000004,-7.728816998,1447
82206,186663,247822,-2.8295127245,-5.5453663755000004,-7.728816998,1448
82272,186662,247809,-2.8295127245,-5.5453663755000004,-7.728816998,1449
82314,186680,247810,-2.8295127245,-5.5453663755000004,-7.728816998,1450
82380,186663,247789,-2.8295127245,-5.5453663755000004,-7.728816998,1451
82423,186675,247788,-2.8295127245,-5.5453663755000004,-7.728816998,1452
82478,186716,247823,-2.8295127245,-5.5453663755000004,-7.728816998,1453
82537,186741,247829,-2.8295127245,-5.5453663755000004,-7.728816998,1454
82601,186720,247793,-2.8295127245,-5.5453663755000004,-7.728816998,1455
82649,186738,247813,-2.8295127245,-5.5453663755000004,-7.728816998,1456
82728,186759,247814,-2.8295127245,-5.5453663755000004,-7.728816998,1457
82770,186780,247817,-2.8295127245,-5.5453663755000004,-7.728816998,1458
82771,186759,247797,-2.8295127245,-5.5453663755000004,-7.728816998,1459
82396,186626,247742,-2.8295127245,-5.5453663755000004,-7.728816998,1460
81893,186513,247626,-2.8295127245,-5.5453663755000004,-7.728816998,1461
81636,186500,247592,-2.8295127245,-5.5453663755000004,-7.728816998,1462
81608,186458,247622,-2.8295127245,-5.5453663755000004,-7.728816998,1463
81639,186485,247624,-2.8295127245,-5.5453663755000004,-7.728816998,1464
81687,186467,247624,-2.8295127245,-5.5453663755000004,-7.728816998,1465
81760,186540,247679,-2.8295127245,-5.5453663755000004,-7.728816998,1466
81862,186509,247661,-2.8295127245,-5.5453663755000004,-7.728816998,1467
81955,186580,247671,-2.8295127245,-5.5453663755000004,-7.728816998,1468
81942,186520,247719,-2.8295127245,-5.5453663755000004,-7.728816998,1469
81912,186537,247703,-2.8295127245,-5.5453663755000004,-7.728816998,1470
81901,186548,247702,-2.8295127245,-5.5453663755000004,-7.728816998,1471
81928,186560,247681,-2.8295127245,-5.5453663755000004,-7.728816998,1472
81972,186580,247709,-2.8295127245,-5.5453663755000004,-7.728816998,1473
82068,186578,247751,-2.8295127245,-5.5453663755000004,-7.728816998,1474
82130,186599,247783,-2.8295127245,-5.5453663755000004,-7.728816998,1475
82202,186654,247770,-2.8295127245,-5.5453663755000004,-7.728816998,1476
82285,186644,247770,-2.8295127245,-5.5453663755000004,-7.728816998,1477
82352,186678,247762,-2.8295127245,-5.5453663755000004,-7.728816998,1478
82422,186697,247738,-2.8295127245,-5.5453663755000004,-7.728816998,1479
82486,186662,247805,-2.8295127245,-5.5453663755000004,-7.728816998,1480
82524,186668,247772,-2.8295127245,-5.5453663755000004,-7.728816998,1481
82573,186689,247750,-2.8295127245,-5.5453663755000004,-7.728816998,1482
82639,186736,247742,-2.8295127245,-5.5453663755000004,-7.728816998,1483
82596,186665,247735,-2.8295127245,-5.5453663755000004,-7.728816998,1484
82226,186556,247707,-2.8295127245,-5.5453663755000004,-7.728816998,1485
81801,186470,247593,-2.8295127245,-5.5453663755000004,-7.728816998,1486
81937,186501,247687,-2.8929225234,-5.6422756908,-7.5649086499,1487
81958,186505,247757,-2.8929225234,-5.6422756908,-7.5649086499,1488
82035,186501,247729,-2.8929225234,-5.6422756908,-7.5649086499,1489
82104,186548,247732,-2.8929225234,-5.6422756908,-7.5649086499,1490
82197,186600,247738,-2.8929225234,-5.6422756908,-7.5649086499,1491
82273,186592,247764,-2.8929225234,-5.6422756908,-7.5649086499,1492
82350,186606,247741,-2.8929225234,-5.6422756908,-7.5649086499,1493
82426,186644,247769,-2.8929225234,-5.6422756908,-7.5649086499,1494
82487,186642,247762,-2.8929225234,-5.6422756908,-7.5649086499,1495
82534,186678,247804,-2.8929225234,-5.6422756908,-7.5649086499,1496
82619,186667,247799,-2.8929225234,-5.6422756908,-7.5649086499,1497
82665,186701,247759,-2.8929225234,-5.6422756908,-7.5649086499,1498
82798,186731,247801,-2.9371897415,-5.6566326264,-7.654639497399999,1499
82872,186731,247817,-2.9371897415,-5.6566326264,-7.654639497399999,1500
82940,186747,247806,-2.9371897415,-5.6566326264,-7.654639497399999,1501
82982,186721,247798,-2.9371897415,-5.6566326264,-7.654639497399999,1502
83060,186774,247842,-2.9371897415,-5.6566326264,-7.654639497399999,1503
83125,186789,247830,-2.9371897415,-5.6566326264,-7.654639497399999,1504
83185,186789,247761,-2.9371897415,-5.6566326264,-7.654639497399999,1505
83239,186779,247776,-2.9371897415,-5.6566326264,-7.654639497399999,1506
83304,186845,247803,-2.9371897415,-5.6566326264,-7.654639497399999,1507
83269,186757,247746,-2.9371897415,-5.6566326264,-7.654639497399999,1508
82878,186592,247660,-2.9371897415,-5.6566326264,-7.654639497399999,1509
82422,186526,247587,-2.9371897415,-5.6566326264,-7.654639497399999,1510
82209,186509,247529,-2.8761727652,-5.7116675462,-7.6881390138,1511
82184,186499,247599,-2.8761727652,-5.7116675462,-7.6881390138,1512
82224,186519,247621,-2.8761727652,-5.7116675462,-7.6881390138,1513
82280,186540,247605,-2.8761727652,-5.7116675462,-7.6881390138,1514
82344,186570,247625,-2.8761727652,-5.7116675462,-7.6881390138,1515
82471,186579,247667,-2.8761727652,-5.7116675462,-7.6881390138,1516
82556,186613,247687,-2.8761727652,-5.7116675462,-7.6881390138,1517
82554,186605,247652,-2.8761727652,-5.7116675462,-7.6881390138,1518
82523,186588,247682,-2.8761727652,-5.7116675462,-7.6881390138,1519
82499,186582,247616,-2.8761727652,-5.7116675462,-7.6881390138,1520
82509,186586,247661,-2.8761727652,-5.7116675462,-7.6881390138,1521
82565,186605,247651,-2.8761727652,-5.7116675462,-7.6881390138,1522
82630,186638,247675,-2.8761727652,-5.7116675462,-7.6881390138,1523
82685,186658,247658,-2.8761727652,-5.7116675462,-7.6881390138,1524
82771,186670,247705,-2.8761727652,-5.7116675462,-7.6881390138,1525
82837,186673,247704,-2.8761727652,-5.7116675462,-7.6881390138,1526
82900,186684,247669,-2.8761727652,-5.7116675462,-7.6881390138,1527
82971,186726,247711,-2.8761727652,-5.7116675462,-7.6881390138,1528
83008,186728,247689,-2.8761727652,-5.7116675462,-7.6881390138,1529
