green,red,IR,acc_x,acc_y,acc_z,sample_index
167056,210666,265042,-5.6231331099999995,-6.7190458608,4.342973019,1
167045,210638,265072,-5.5262237947,-6.7310099738,4.3561335433,2
166628,210522,265068,-5.745167062599999,-6.6484575941,4.3393837851,3
166045,210481,265054,-5.6482577473,-6.6676001749,4.4063828179,4
165673,210460,265001,-5.5680981902,-6.6412791263,4.3178483817,5
165500,210483,265009,-5.5645089563,-6.6436719489,4.3968115275,6
165436,210429,264942,-5.4927242783,-6.7549381998,4.208974953399999,7
165431,210417,264929,-5.7032926670999995,-6.5874406178,4.2807596314,8
165511,210431,264951,-5.541777141600001,-6.518048762399999,4.3381873738,9
165762,210430,264895,-5.635097223,-6.6831535217999996,4.3489550755,10
165903,210507,264851,-5.5573304885,-6.7022961026,4.2604206393,11
165953,210455,264837,-5.6255259326000004,-6.728617151199999,4.319044793,12
165969,210451,264851,-5.5740802467,-6.6807606991999995,4.3381873738,13
166070,210396,264812,-5.649454158599999,-6.6233329568,4.2975093896,14
166186,210484,264826,-5.5968120614000005,-6.6149580777,4.3657048337,15
166334,210427,264802,-5.5776694806,-6.6616181184,4.3633120111,16
166460,210505,264827,-5.566901778899999,-6.6317078358999995,4.4494536247,17
166581,210476,264821,-5.5980084727,-6.5958154969,4.2855452766,18
166664,210419,264773,-5.6255259326000004,-6.6317078358999995,4.354937132,19
166653,210419,264745,-5.553741254599999,-6.699903279999999,4.3573299546,20
166765,210442,264749,-5.5190453269,-6.6209401342000005,4.378865358,21
166916,210601,264884,-5.5848479484,-6.604190375999999,4.3573299546,22
167115,210718,265018,-5.5202417382,-6.5994047308,4.4087756405,23
167177,210691,265056,-5.563312545,-6.5587267466,4.3118663252,24
166819,210674,265014,-5.5561340772,-6.5970119082,4.3896330597,25
166273,210518,264977,-5.4927242783,-6.671189408799999,4.3046878574,26
165957,210511,264958,-5.6159546422,-6.7262243286,4.3405801963999995,27
165847,210498,264968,-5.6255259326000004,-6.5862442065,4.4015971727,28
165863,210475,264949,-5.5166525043000005,-6.664010941,4.2927237444,29
165872,210481,264936,-5.5944192388,-6.8051874744,4.3501514868,30
165908,210497,264997,-5.5465627868,-6.7082781591,4.4638105603,31
166027,210379,264920,-5.5142596817000005,-7.018148685799999,4.5487557626,32
166060,210272,264959,-5.6087761744,-6.723831506,4.3716868902,33
165904,210129,264960,-5.5609197224,-6.6436719489,4.3716868902,34
165857,210015,265044,-5.4664032297,-6.6053867873000005,4.3489550755,35
165860,210140,265131,-5.5142596817000005,-6.7310099738,4.3250268494999995,36
165978,210241,265237,-5.486742221799999,-6.7525453772,4.2723847523,37
166100,210344,265156,-5.4089754873,-6.728617151199999,4.4099720518000005,38
166232,210407,265110,-5.5680981902,-6.6604217071,4.3645084224,39
166458,210594,264996,-5.5944192388,-6.7884377162,4.353740720699999,40
166480,210618,264954,-5.4616175845,-6.658028884499999,4.2807596314,41
166633,210617,264931,-5.706881900999999,-6.592226263000001,4.3740797127999995,42
166739,210631,264832,-5.583651537100001,-6.6568324732,4.4733818507,43
166855,210673,264933,-5.6674003281,-6.709474570399999,4.3154555591,44
166658,210599,264880,-5.4975099235,-6.6556360619,4.3453658416,45
166111,210500,264806,-5.5932228275,-6.6903319896,4.390829471,46
165667,210454,264702,-5.5645089563,-6.6831535217999996,4.3357945512,47
165498,210443,264698,-5.528616617299999,-6.7214386834,4.3800617693,48
165459,210461,264654,-5.6566326264,-6.6544396506,4.3525443094,49
165485,210418,264661,-5.587240771,-6.5575303353,4.2855452766,50
165604,210445,264699,-5.5740802467,-6.6783678766,4.4542392699,51
165801,210493,264699,-5.5525448433,-6.562315980499999,4.3106699139,52
165925,210521,264685,-5.5190453269,-6.6364934811000005,4.3585263658999995,53
165978,210459,264675,-5.6422756908,-6.6687965862,4.4554356812,54
166037,210437,264691,-5.5429735529,-6.6664037636,4.3980079388,55
166142,210467,264677,-5.6769716185,-6.6341006585,4.4063828179,56
166256,210471,264654,-5.5645089563,-6.782455659699999,4.3046878574,57
166385,210531,264717,-5.5944192388,-6.617350900300001,4.3345981399,58
166548,210541,264734,-5.5477591981,-6.6185473116,4.1886359613,59
166682,210613,264817,-5.599204884000001,-6.559923157899999,4.3118663252,60
166855,210658,264765,-5.6973106106,-6.671189408799999,4.3896330597,61
166956,210662,264811,-5.6183474648,-6.6843499331,4.259224228,62
167085,210714,264806,-5.541777141600001,-6.617350900300001,4.3884366484,63
167242,210673,264832,-5.7272208931,-6.6185473116,4.2867416879,64
167245,210696,264818,-5.472385286200001,-6.723831506,4.2915273330999995,65
167118,210649,264755,-5.5453663755000004,-6.5946190856,4.366901245,66
166567,210462,264706,-5.6733823846,-6.7166530382000005,4.3118663252,67
166041,210412,264679,-5.5334022625,-6.659225295800001,4.3381873738,68
165789,210404,264674,-5.554937665900001,-6.5527446901,4.3585263658999995,69
165741,210386,264638,-5.6398828682,-6.5778693274,4.4470608021,70
165801,210478,264668,-5.6757752072,-6.6065831986,4.2616170506,71
165786,210471,264599,-5.566901778899999,-6.480960012100001,4.3692940676,72
165941,210498,264700,-5.6123654083000005,-6.6687965862,4.3166519704,73
166120,210550,264650,-5.6841500863,-6.6221365455,4.3214376156,74
166394,210774,264764,-5.651846981199999,-6.6185473116,4.3752761241,75
166638,210916,264774,-5.4388857698,-6.7274207398999994,4.4063828179,76
166796,210917,264814,-5.5178489156,-6.7046889252,4.259224228,77
167038,211003,264861,-5.5262237947,-6.7501525546,4.295116567,78
167160,211005,264846,-5.5932228275,-6.671189408799999,4.3058842687,79
167299,210942,264837,-5.5585268998,-6.671189408799999,4.2137605985999995,80
167316,210799,264769,-5.587240771,-6.6975104574,4.3932222936,81
167339,210660,264774,-5.633900811699999,-6.6221365455,4.3046878574,82
167304,210602,264718,-5.6757752072,-6.6388863037,4.3920258823,83
167255,210558,264754,-5.5609197224,-6.6604217071,4.2759739861999995,84
167397,210570,264768,-5.5645089563,-6.5970119082,4.3262232608,85
167399,210545,264733,-5.6255259326000004,-6.5790657387,4.3166519704,86
167471,210558,264757,-5.5896335936,-6.725027917299999,4.4374895117,87
167272,210532,264778,-5.6315079891,-6.740581264199999,4.4004007614,88
166713,210462,264764,-5.599204884000001,-6.7226350947,4.3381873738,89
166182,210547,264784,-5.6542398038,-6.640082715,4.3980079388,90
165942,210490,264812,-5.6566326264,-6.6161544889999995,4.3118663252,91
165811,210461,264739,-5.7212388366,-6.6843499331,4.2999022122,92
165866,210471,264640,-5.5944192388,-6.6939212235,4.3381873738,93
165871,210484,264738,-5.659025449,-6.6197437229,4.3657048337,94
166051,210547,264713,-5.636293634299999,-6.5407805771,4.3453658416,95
166296,210574,264794,-5.611168996999999,-6.6089760212,4.3286160834,96
166418,210523,264760,-5.5680981902,-6.7441704981,4.382454591899999,97
166499,210587,264748,-5.553741254599999,-6.6723858201,4.3441694303,98
166584,210645,264786,-5.6099725857,-6.6496540054,4.5535414078,99
166713,210581,264806,-5.5728838354,-6.6233329568,4.247260115,100
166846,210552,264846,-5.5800623032,-6.7728843693,4.387240237099999,101
167003,210651,264825,-5.5262237947,-6.7046889252,4.2975093896,102
167118,210547,264841,-5.587240771,-6.6113688438,4.390829471,103
167205,210509,264782,-5.5214381495,-6.7657059015,4.3968115275,104
167356,210662,264755,-5.6159546422,-6.7274207398999994,4.3393837851,105
167484,210747,264708,-5.6841500863,-6.6352970698,4.3944187049,106
167614,210708,264862,-5.5944192388,-6.5228344076,4.3262232608,107
167723,210723,264832,-5.6578290377,-6.6341006585,4.2568314054,108
167761,210725,264812,-5.6685967394,-6.6987068686999995,4.2879380992,109
167576,210776,264780,-5.6853464976,-6.5539411014,4.2604206393,110
167064,210596,264721,-5.5920264161999995,-6.7334027964,4.3094735026,111
166754,210576,264726,-5.5920264161999995,-6.7334027964,4.3094735026,112
166790,210585,264701,-5.5920264161999995,-6.7334027964,4.3094735026,113
166892,210609,264662,-5.5920264161999995,-6.7334027964,4.3094735026,114
166992,210590,264691,-5.5920264161999995,-6.7334027964,4.3094735026,115
167117,210648,264681,-5.5920264161999995,-6.7334027964,4.3094735026,116
167358,210689,264660,-5.5920264161999995,-6.7334027964,4.3094735026,117
167524,210696,264655,-5.5920264161999995,-6.7334027964,4.3094735026,118
167593,210717,264671,-5.5920264161999995,-6.7334027964,4.3094735026,119
167668,210745,264701,-5.5920264161999995,-6.7334027964,4.3094735026,120
167788,210779,264676,-5.5920264161999995,-6.7334027964,4.3094735026,121
167923,210766,264735,-5.5920264161999995,-6.7334027964,4.3094735026,122
168010,210737,264699,-5.5920264161999995,-6.7334027964,4.3094735026,123
168058,210708,264757,-5.5920264161999995,-6.7334027964,4.3094735026,124
168115,210660,264693,-5.5920264161999995,-6.7334027964,4.3094735026,125
168168,210669,264674,-5.5920264161999995,-6.7334027964,4.3094735026,126
168240,210725,264731,-5.5920264161999995,-6.7334027964,4.3094735026,127
168299,210654,264766,-5.5920264161999995,-6.7334027964,4.3094735026,128
168321,210697,264747,-5.6398828682,-6.6065831986,4.3381873738,129
168033,210587,264717,-5.5501520207,-6.6987068686999995,4.30708068,130
167567,210594,264705,-5.570491012800001,-6.591029851699999,4.3657048337,131
167269,210541,264653,-5.651846981199999,-6.6496540054,4.3154555591,132
167192,210415,264641,-5.6757752072,-6.6496540054,4.3585263658999995,133
167259,210416,264724,-5.611168996999999,-6.5886370291,4.3142591478000005,134
167359,210562,264671,-5.6279187552000005,-6.5072810607,4.4422751569,135
167520,210477,264725,-5.6853464976,-6.7190458608,4.30708068,136
167653,210532,264631,-5.7044890784,-6.6352970698,4.3728833015,137
167734,210489,264660,-5.7367921835,-6.6951176348,4.4374895117,138
167732,210424,264625,-5.636293634299999,-6.6472611828,4.3896330597,139
167790,210429,264644,-5.528616617299999,-6.7070817478,4.319044793,140
167830,210512,264649,-5.662614682899999,-6.5886370291,4.3585263658999995,141
167910,210407,264625,-5.681757263700001,-6.7130638043,4.2305103568,142
167998,210514,264647,-5.6685967394,-6.5192451737,4.2879380992,143
168111,210555,264664,-5.4951171009,-6.6819571105,4.3453658416,144
168195,210542,264646,-5.4951171009,-6.6819571105,4.3453658416,145
168209,210564,264650,-5.4951171009,-6.6819571105,4.3453658416,146
168296,210588,264621,-5.4951171009,-6.6819571105,4.3453658416,147
168349,210578,264659,-5.569294601499999,-6.6161544889999995,4.4422751569,148
168220,210534,264574,-5.6614182716,-6.673582231399999,4.4482572134,149
167776,210480,264636,-5.6542398038,-6.6388863037,4.2687955184,150
167340,210387,264510,-5.6877393201999995,-6.5108702946,4.2771703975,151
167134,210298,264522,-5.6315079891,-6.7381884416,4.5044885445,152
167055,210254,264430,-5.6602218603,-6.7010996913000005,4.387240237099999,153
167162,210212,264409,-5.5800623032,-6.675975054,4.3657048337,154
167176,210211,264420,-5.6027941179,-6.502495415499999,4.3956151162,155
167275,210211,264407,-5.6027941179,-6.502495415499999,4.3956151162,156
167426,210245,264407,-5.6027941179,-6.502495415499999,4.3956151162,157
167528,210254,264446,-5.6027941179,-6.502495415499999,4.3956151162,158
167576,210267,264448,-5.6027941179,-6.502495415499999,4.3956151162,159
167716,210341,264516,-5.6027941179,-6.502495415499999,4.3956151162,160
167870,210389,264465,-5.7391850061000005,-6.652046828,4.4518464473,161
167955,210192,264390,-5.7188460139999995,-6.5671016257,4.295116567,162
167962,210155,264280,-5.7008998445,-6.559923157899999,4.242474469799999,163
168139,210101,264267,-5.7236316592000005,-6.563512391800001,4.3082770913,164
168198,210173,264251,-5.5561340772,-6.5132631172,4.3561335433,165
168188,210066,264172,-5.4113683099,-6.6532432393,4.30708068,166
168141,210039,264168,-5.4113683099,-6.6532432393,4.30708068,167
168004,209959,264152,-5.4113683099,-6.6532432393,4.30708068,168
167407,209708,263991,-5.4113683099,-6.6532432393,4.30708068,169
166261,208878,263926,-5.4113683099,-6.6532432393,4.30708068,170
164993,207680,263871,-5.4113683099,-6.6532432393,4.30708068,171
164318,207476,264136,-5.4113683099,-6.6532432393,4.30708068,172
164344,208184,264649,-5.4113683099,-6.6532432393,4.30708068,173
164431,208779,264766,-5.4113683099,-6.6532432393,4.30708068,174
164427,209113,264365,-5.4113683099,-6.6532432393,4.30708068,175
164541,209208,264094,-5.4113683099,-6.6532432393,4.30708068,176
164649,209287,263877,-5.4113683099,-6.6532432393,4.30708068,177
164742,209343,263851,-5.4113683099,-6.6532432393,4.30708068,178
164868,209391,263814,-5.4113683099,-6.6532432393,4.30708068,179
164987,209370,263813,-5.541777141600001,-6.6723858201,4.3214376156,180
165097,209401,263822,-5.595615650099999,-6.7968125953,4.3082770913,181
165258,209431,263737,-5.5680981902,-6.795616184,4.2508493489,182
165330,209444,263727,-5.665007505499999,-6.7166530382000005,4.2257247116,183
165521,209415,263736,-5.6578290377,-6.7453669094,4.2867416879,184
165551,209443,263695,-5.5070812139,-6.6951176348,4.2209390664,185
165819,209385,263744,-5.5345986738,-6.6939212235,4.2795632201,186
165859,209336,263726,-5.6889357315,-6.918846547899999,4.235296002,187
165704,209406,263669,-5.540580730299999,-6.7932233614,4.2640098732,188
165218,209331,263642,-5.540580730299999,-6.7932233614,4.2640098732,189
164825,209251,263566,-5.540580730299999,-6.7932233614,4.2640098732,190
164729,209229,263561,-5.540580730299999,-6.7932233614,4.2640098732,191
164713,209215,263562,-5.540580730299999,-6.7932233614,4.2640098732,192
164762,209212,263469,-5.540580730299999,-6.7932233614,4.2640098732,193
164843,209198,263509,-5.540580730299999,-6.7932233614,4.2640098732,194
165051,209246,263500,-5.540580730299999,-6.7932233614,4.2640098732,195
165218,209244,263546,-5.540580730299999,-6.7932233614,4.2640098732,196
165281,209245,263497,-5.540580730299999,-6.7932233614,4.2640098732,197
165330,209267,263594,-5.540580730299999,-6.7932233614,4.2640098732,198
165444,209264,263492,-5.540580730299999,-6.7932233614,4.2640098732,199
165527,209246,263491,-5.540580730299999,-6.7932233614,4.2640098732,200
165627,209271,263498,-5.540580730299999,-6.7932233614,4.2640098732,201
165756,209314,263549,-5.540580730299999,-6.7932233614,4.2640098732,202
165895,209356,263578,-5.540580730299999,-6.7932233614,4.2640098732,203
166020,209361,263575,-5.540580730299999,-6.7932233614,4.2640098732,204
166101,209436,263659,-5.540580730299999,-6.7932233614,4.2640098732,205
166083,209410,263591,-5.540580730299999,-6.7932233614,4.2640098732,206
165676,209350,263608,-5.540580730299999,-6.7932233614,4.2640098732,207
165204,209273,263599,-5.540580730299999,-6.7932233614,4.2640098732,208
164993,209240,263531,-5.540580730299999,-6.7932233614,4.2640098732,209
164935,209264,263521,-5.540580730299999,-6.7932233614,4.2640098732,210
164978,209222,263526,-5.540580730299999,-6.7932233614,4.2640098732,211
165032,209274,263519,-5.5214381495,-6.8147587648000005,4.3214376156,212
165169,209289,263598,-5.5214381495,-6.8147587648000005,4.3214376156,213
165346,209339,263579,-5.5214381495,-6.8147587648000005,4.3214376156,214
165457,209328,263527,-5.5214381495,-6.8147587648000005,4.3214376156,215
165495,209311,263597,-5.5214381495,-6.8147587648000005,4.3214376156,216
165531,209323,263561,-5.5214381495,-6.8147587648000005,4.3214376156,217
165603,209344,263541,-5.5214381495,-6.8147587648000005,4.3214376156,218
165734,209376,263596,-5.5214381495,-6.8147587648000005,4.3214376156,219
165852,209389,263576,-5.5214381495,-6.8147587648000005,4.3214376156,220
165986,209421,263587,-5.5214381495,-6.8147587648000005,4.3214376156,221
166094,209411,263587,-5.5214381495,-6.8147587648000005,4.3214376156,222
166198,209475,263639,-5.5214381495,-6.8147587648000005,4.3214376156,223
166225,209438,263699,-5.5214381495,-6.8147587648000005,4.3214376156,224
165868,209390,263559,-5.5214381495,-6.8147587648000005,4.3214376156,225
165342,209306,263529,-5.5214381495,-6.8147587648000005,4.3214376156,226
164979,209291,263502,-5.5214381495,-6.8147587648000005,4.3214376156,227
164886,209305,263517,-5.5214381495,-6.8147587648000005,4.3214376156,228
164840,209306,263537,-5.5214381495,-6.8147587648000005,4.3214376156,229
164864,209276,263529,-5.5214381495,-6.8147587648000005,4.3214376156,230
164986,209314,263518,-5.5214381495,-6.8147587648000005,4.3214376156,231
165163,209335,263595,-5.5214381495,-6.8147587648000005,4.3214376156,232
165269,209347,263564,-5.5214381495,-6.8147587648000005,4.3214376156,233
165302,209293,263500,-5.5214381495,-6.8147587648000005,4.3214376156,234
165304,209263,263529,-5.5214381495,-6.8147587648000005,4.3214376156,235
165389,209313,263416,-5.5214381495,-6.8147587648000005,4.3214376156,236
165540,209308,263493,-5.5214381495,-6.8147587648000005,4.3214376156,237
165649,209323,263529,-5.5214381495,-6.8147587648000005,4.3214376156,238
165794,209373,263544,-5.5214381495,-6.8147587648000005,4.3214376156,239
165889,209403,263556,-5.5214381495,-6.8147587648000005,4.3214376156,240
166013,209453,263548,-5.5214381495,-6.8147587648000005,4.3214376156,241
166119,209516,263592,-5.5214381495,-6.8147587648000005,4.3214376156,242
166201,209489,263660,-5.5214381495,-6.8147587648000005,4.3214376156,243
165860,209429,263584,-5.5214381495,-6.8147587648000005,4.3214376156,244
165351,209347,263536,-5.5214381495,-6.8147587648000005,4.3214376156,245
164934,209249,263471,-5.5214381495,-6.8147587648000005,4.3214376156,246
164744,209212,263482,-5.5214381495,-6.8147587648000005,4.3214376156,247
164712,209224,263368,-5.5214381495,-6.8147587648000005,4.3214376156,248
164712,209209,263401,-5.5214381495,-6.8147587648000005,4.3214376156,249
164809,209228,263415,-5.5214381495,-6.8147587648000005,4.3214376156,250
164967,209268,263434,-5.5214381495,-6.8147587648000005,4.3214376156,251
165154,209335,263446,-5.5214381495,-6.8147587648000005,4.3214376156,252
165256,209323,263487,-5.5214381495,-6.8147587648000005,4.3214376156,253
166219,209466,263577,-5.4329037133,-6.6065831986,4.2053857195,254
165903,209407,263511,-5.4329037133,-6.6065831986,4.2053857195,255
165344,209307,263491,-5.4329037133,-6.6065831986,4.2053857195,256
164952,209256,263350,-5.4329037133,-6.6065831986,4.2053857195,257
164808,209231,263402,-5.4329037133,-6.6065831986,4.2053857195,258
164805,209206,263392,-5.4329037133,-6.6065831986,4.2053857195,259
164819,209252,263359,-5.4329037133,-6.6065831986,4.2053857195,260
164931,209236,263367,-5.4329037133,-6.6065831986,4.2053857195,261
165117,209249,263392,-5.4329037133,-6.6065831986,4.2053857195,262
165296,209266,263354,-5.4329037133,-6.6065831986,4.2053857195,263
165311,209263,263375,-5.4329037133,-6.6065831986,4.2053857195,264
165348,209297,263380,-5.4329037133,-6.6065831986,4.2053857195,265
165422,209292,263424,-5.4329037133,-6.6065831986,4.2053857195,266
165569,209313,263367,-5.4329037133,-6.6065831986,4.2053857195,267
165687,209300,263424,-5.4329037133,-6.6065831986,4.2053857195,268
165821,209328,263406,-5.4329037133,-6.6065831986,4.2053857195,269
165931,209370,263416,-5.4329037133,-6.6065831986,4.2053857195,270
166032,209422,263450,-5.4329037133,-6.6065831986,4.2053857195,271
166187,209437,263488,-5.4329037133,-6.6065831986,4.2053857195,272
166262,209494,263498,-5.4329037133,-6.6065831986,4.2053857195,273
166306,209455,263574,-5.4329037133,-6.6065831986,4.2053857195,274
165958,209350,263506,-5.4329037133,-6.6065831986,4.2053857195,275
165411,209299,263453,-5.4329037133,-6.6065831986,4.2053857195,276
165094,209263,263424,-5.4329037133,-6.6065831986,4.2053857195,277
165013,209272,263401,-5.4329037133,-6.6065831986,4.2053857195,278
165015,209260,263418,-5.4329037133,-6.6065831986,4.2053857195,279
165076,209268,263422,-5.4329037133,-6.6065831986,4.2053857195,280
165209,209317,263424,-5.4329037133,-6.6065831986,4.2053857195,281
165398,209315,263397,-5.4329037133,-6.6065831986,4.2053857195,282
165491,209336,263483,-5.4329037133,-6.6065831986,4.2053857195,283
165543,209367,263465,-5.4329037133,-6.6065831986,4.2053857195,284
165619,209363,263466,-5.4329037133,-6.6065831986,4.2053857195,285
165714,209347,263451,-5.4329037133,-6.6065831986,4.2053857195,286
165794,209350,263469,-5.4329037133,-6.6065831986,4.2053857195,287
165898,209393,263456,-5.4329037133,-6.6065831986,4.2053857195,288
165996,209393,263459,-5.4329037133,-6.6065831986,4.2053857195,289
166131,209380,263468,-5.4329037133,-6.6065831986,4.2053857195,290
166230,209417,263482,-5.4329037133,-6.6065831986,4.2053857195,291
166324,209473,263574,-5.4329037133,-6.6065831986,4.2053857195,292
166437,209473,263531,-5.4329037133,-6.6065831986,4.2053857195,293
166369,209435,263558,-5.4329037133,-6.6065831986,4.2053857195,294
165912,209354,263469,-5.4329037133,-6.6065831986,4.2053857195,295
165563,209263,263414,-5.5477591981,-6.6903319896,4.235296002,296
165649,209260,263361,-5.5477591981,-6.6903319896,4.235296002,297
165780,209310,263365,-5.5477591981,-6.6903319896,4.235296002,298
165908,209290,263366,-5.5477591981,-6.6903319896,4.235296002,299
165974,209310,263404,-5.5477591981,-6.6903319896,4.235296002,300
166138,209334,263468,-5.5477591981,-6.6903319896,4.235296002,301
166215,209362,263425,-5.5477591981,-6.6903319896,4.235296002,302
166356,209394,263452,-5.5477591981,-6.6903319896,4.235296002,303
166472,209438,263476,-5.5477591981,-6.6903319896,4.235296002,304
166563,209447,263507,-5.5477591981,-6.6903319896,4.235296002,305
166383,209382,263462,-5.5477591981,-6.6903319896,4.235296002,306
165924,209299,263381,-5.5477591981,-6.6903319896,4.235296002,307
165441,209228,263406,-5.5477591981,-6.6903319896,4.235296002,308
165269,209173,263298,-5.5477591981,-6.6903319896,4.235296002,309
165146,209193,263381,-5.5477591981,-6.6903319896,4.235296002,310
165189,209181,263306,-5.5477591981,-6.6903319896,4.235296002,311
165270,209125,263295,-5.5477591981,-6.6903319896,4.235296002,312
165432,209183,263317,-5.5477591981,-6.6903319896,4.235296002,313
165579,209181,263308,-5.5477591981,-6.6903319896,4.235296002,314
165675,209199,263319,-5.5477591981,-6.6903319896,4.235296002,315
165732,209214,263337,-5.5477591981,-6.6903319896,4.235296002,316
165810,209214,263330,-5.5477591981,-6.6903319896,4.235296002,317
165879,209227,263337,-5.5477591981,-6.6903319896,4.235296002,318
165983,209231,263307,-5.5477591981,-6.6903319896,4.235296002,319
166091,209221,263363,-5.5477591981,-6.6903319896,4.235296002,320
166213,209233,263367,-5.5477591981,-6.6903319896,4.235296002,321
166331,209281,263346,-5.5477591981,-6.6903319896,4.235296002,322
166452,209312,263352,-5.5477591981,-6.6903319896,4.235296002,323
166525,209338,263425,-5.5477591981,-6.6903319896,4.235296002,324
166663,209360,263419,-5.5477591981,-6.6903319896,4.235296002,325
166742,209399,263432,-5.5477591981,-6.6903319896,4.235296002,326
166747,209394,263487,-5.5477591981,-6.6903319896,4.235296002,327
166392,209348,263394,-5.5477591981,-6.6903319896,4.235296002,328
165874,209233,263344,-5.5477591981,-6.6903319896,4.235296002,329
165565,209182,263346,-5.5477591981,-6.6903319896,4.235296002,330
165504,209122,263284,-5.5477591981,-6.6903319896,4.235296002,331
165519,209123,263272,-5.5477591981,-6.6903319896,4.235296002,332
165579,209125,263263,-5.5477591981,-6.6903319896,4.235296002,333
165674,209143,263243,-5.5477591981,-6.6903319896,4.235296002,334
165852,209106,263238,-5.5477591981,-6.6903319896,4.235296002,335
165951,209167,263346,-5.5477591981,-6.6903319896,4.235296002,336
166014,209136,263275,-5.5477591981,-6.6903319896,4.235296002,337
167029,209351,263412,-5.5525448433,-6.6652073523,4.3286160834,338
167050,209389,263457,-5.5525448433,-6.6652073523,4.3286160834,339
166958,209326,263417,-5.5525448433,-6.6652073523,4.3286160834,340
166470,209256,263374,-5.5525448433,-6.6652073523,4.3286160834,341
166057,209186,263316,-5.5525448433,-6.6652073523,4.3286160834,342
165943,209110,263298,-5.5525448433,-6.6652073523,4.3286160834,343
165936,209115,263254,-5.5525448433,-6.6652073523,4.3286160834,344
165964,209118,263254,-5.5525448433,-6.6652073523,4.3286160834,345
166046,209087,263201,-5.5525448433,-6.6652073523,4.3286160834,346
166189,209082,263261,-5.5525448433,-6.6652073523,4.3286160834,347
166377,209119,263213,-5.5525448433,-6.6652073523,4.3286160834,348
166451,209118,263309,-5.5525448433,-6.6652073523,4.3286160834,349
166444,209080,263267,-5.5525448433,-6.6652073523,4.3286160834,350
166508,209150,263210,-5.5525448433,-6.6652073523,4.3286160834,351
166588,209156,263292,-5.5525448433,-6.6652073523,4.3286160834,352
166674,209162,263311,-5.5525448433,-6.6652073523,4.3286160834,353
166804,209139,263273,-5.5525448433,-6.6652073523,4.3286160834,354
166896,209234,263323,-5.5525448433,-6.6652073523,4.3286160834,355
167015,209245,263341,-5.5525448433,-6.6652073523,4.3286160834,356
167096,209270,263341,-5.5525448433,-6.6652073523,4.3286160834,357
167192,209310,263408,-5.5525448433,-6.6652073523,4.3286160834,358
167251,209338,263405,-5.5525448433,-6.6652073523,4.3286160834,359
167298,209370,263431,-5.5525448433,-6.6652073523,4.3286160834,360
166958,209282,263435,-5.5525448433,-6.6652073523,4.3286160834,361
166494,209227,263386,-5.5525448433,-6.6652073523,4.3286160834,362
166314,209172,263353,-5.5525448433,-6.6652073523,4.3286160834,363
166271,209111,263293,-5.5525448433,-6.6652073523,4.3286160834,364
166284,209092,263305,-5.5525448433,-6.6652073523,4.3286160834,365
166328,209076,263288,-5.5525448433,-6.6652073523,4.3286160834,366
166458,209098,263253,-5.5525448433,-6.6652073523,4.3286160834,367
166602,209123,263308,-5.5525448433,-6.6652073523,4.3286160834,368
166670,209106,263331,-5.5525448433,-6.6652073523,4.3286160834,369
166698,209112,263271,-5.5525448433,-6.6652073523,4.3286160834,370
166759,209127,263258,-5.5525448433,-6.6652073523,4.3286160834,371
166793,209120,263249,-5.5525448433,-6.6652073523,4.3286160834,372
166895,209104,263310,-5.5525448433,-6.6652073523,4.3286160834,373
166993,209168,263348,-5.5525448433,-6.6652073523,4.3286160834,374
167107,209158,263310,-5.5525448433,-6.6652073523,4.3286160834,375
167180,209181,263318,-5.5525448433,-6.6652073523,4.3286160834,376
167251,209224,263324,-5.5525448433,-6.6652073523,4.3286160834,377
167363,209257,263342,-5.5525448433,-6.6652073523,4.3286160834,378
167431,209281,263383,-5.5525448433,-6.6652073523,4.3286160834,379
166700,208992,263195,-5.5238309721,-6.6388863037,4.223331889,380
166776,209023,263229,-5.5238309721,-6.6388863037,4.223331889,381
166780,209035,263243,-5.5238309721,-6.6388863037,4.223331889,382
166851,209041,263194,-5.5238309721,-6.6388863037,4.223331889,383
166886,209050,263191,-5.5238309721,-6.6388863037,4.223331889,384
166990,209059,263223,-5.5238309721,-6.6388863037,4.223331889,385
167083,209074,263226,-5.5238309721,-6.6388863037,4.223331889,386
167215,209069,263273,-5.5238309721,-6.6388863037,4.223331889,387
167306,209167,263252,-5.5238309721,-6.6388863037,4.223331889,388
167386,209208,263364,-5.5238309721,-6.6388863037,4.223331889,389
167525,209252,263343,-5.5238309721,-6.6388863037,4.223331889,390
167583,209312,263371,-5.5238309721,-6.6388863037,4.223331889,391
167686,209338,263443,-5.5238309721,-6.6388863037,4.223331889,392
167595,209268,263405,-5.5238309721,-6.6388863037,4.223331889,393
167121,209164,263291,-5.5238309721,-6.6388863037,4.223331889,394
166686,209084,263258,-5.5238309721,-6.6388863037,4.223331889,395
166447,208954,263128,-5.5238309721,-6.6388863037,4.223331889,396
166406,208902,263148,-5.5238309721,-6.6388863037,4.223331889,397
166391,208843,263079,-5.5238309721,-6.6388863037,4.223331889,398
166448,208835,263099,-5.5238309721,-6.6388863037,4.223331889,399
166565,208873,263103,-5.5238309721,-6.6388863037,4.223331889,400
166683,208857,263067,-5.5238309721,-6.6388863037,4.223331889,401
166746,208887,263144,-5.5238309721,-6.6388863037,4.223331889,402
166777,208847,263105,-5.5238309721,-6.6388863037,4.223331889,403
166820,208877,263119,-5.5238309721,-6.6388863037,4.223331889,404
166888,208903,263103,-5.5238309721,-6.6388863037,4.223331889,405
166925,208921,263184,-5.5238309721,-6.6388863037,4.223331889,406
167088,208949,263116,-5.5238309721,-6.6388863037,4.223331889,407
167202,208982,263151,-5.5238309721,-6.6388863037,4.223331889,408
167280,208998,263179,-5.5238309721,-6.6388863037,4.223331889,409
167358,209067,263251,-5.5238309721,-6.6388863037,4.223331889,410
167482,209113,263264,-5.5238309721,-6.6388863037,4.223331889,411
167575,209129,263291,-5.4951171009,-6.6484575941,4.237688824599999,412
167613,209182,263262,-5.4951171009,-6.6484575941,4.237688824599999,413
167510,209163,263329,-5.4951171009,-6.6484575941,4.237688824599999,414
167068,209069,263224,-5.4951171009,-6.6484575941,4.237688824599999,415
166713,208988,263247,-5.4951171009,-6.6484575941,4.237688824599999,416
166601,208934,263105,-5.4951171009,-6.6484575941,4.237688824599999,417
166579,208902,263160,-5.4951171009,-6.6484575941,4.237688824599999,418
166601,208850,263136,-5.4951171009,-6.6484575941,4.237688824599999,419
166713,208892,263125,-5.4951171009,-6.6484575941,4.237688824599999,420
166851,208886,263170,-5.4951171009,-6.6484575941,4.237688824599999,421
166988,208957,263109,-5.4951171009,-6.6484575941,4.237688824599999,422
167036,208966,263136,-5.4951171009,-6.6484575941,4.237688824599999,423
167053,208999,263155,-5.4951171009,-6.6484575941,4.237688824599999,424
167105,208965,263127,-5.4951171009,-6.6484575941,4.237688824599999,425
167205,208993,263185,-5.4951171009,-6.6484575941,4.237688824599999,426
167233,209027,263175,-5.4951171009,-6.6484575941,4.237688824599999,427
167370,208995,263117,-5.4951171009,-6.6484575941,4.237688824599999,428
167463,209059,263152,-5.4951171009,-6.6484575941,4.237688824599999,429
167528,209073,263208,-5.4951171009,-6.6484575941,4.237688824599999,430
167653,209109,263227,-5.4951171009,-6.6484575941,4.237688824599999,431
167711,209151,263266,-5.4951171009,-6.6484575941,4.237688824599999,432
167798,209181,263256,-5.4951171009,-6.6484575941,4.237688824599999,433
167638,209167,263212,-5.4951171009,-6.6484575941,4.237688824599999,434
167239,209024,263159,-5.4951171009,-6.6484575941,4.237688824599999,435
166855,208993,263161,-5.4951171009,-6.6484575941,4.237688824599999,436
166755,208901,263036,-5.4951171009,-6.6484575941,4.237688824599999,437
166764,208878,263048,-5.4951171009,-6.6484575941,4.237688824599999,438
166809,208840,263052,-5.4951171009,-6.6484575941,4.237688824599999,439
166879,208862,263100,-5.4951171009,-6.6484575941,4.237688824599999,440
167048,208906,263043,-5.4951171009,-6.6484575941,4.237688824599999,441
167191,208917,263069,-5.4951171009,-6.6484575941,4.237688824599999,442
167205,208957,263113,-5.4951171009,-6.6484575941,4.237688824599999,443
167256,208905,263078,-5.4951171009,-6.6484575941,4.237688824599999,444
167265,208930,263039,-5.4951171009,-6.6484575941,4.237688824599999,445
167312,208928,263117,-5.4951171009,-6.6484575941,4.237688824599999,446
167447,208946,263089,-5.4951171009,-6.6484575941,4.237688824599999,447
167518,208944,263137,-5.4951171009,-6.6484575941,4.237688824599999,448
167568,208991,263152,-5.4951171009,-6.6484575941,4.237688824599999,449
167712,209027,263134,-5.4951171009,-6.6484575941,4.237688824599999,450
167765,209036,263239,-5.4951171009,-6.6484575941,4.237688824599999,451
167829,209096,263199,-5.4951171009,-6.6484575941,4.237688824599999,452
167766,209067,263240,-5.4951171009,-6.6484575941,4.237688824599999,453
167361,208900,263163,-5.4975099235,-6.7812592484,4.2855452766,454
167382,208905,263130,-5.4975099235,-6.7812592484,4.2855452766,455
167431,208923,263085,-5.4975099235,-6.7812592484,4.2855452766,456
167513,208955,263111,-5.4975099235,-6.7812592484,4.2855452766,457
167620,208958,263112,-5.541777141600001,-6.757331022400001,4.2771703975,458
167697,209000,263176,-5.5764730692999995,-6.6676001749,4.1970108404,459
167756,209098,263161,-5.5082776252,-6.6987068686999995,4.2735811636,460
167953,209091,263267,-5.5322058512000005,-6.6855463444,4.2807596314,461
167969,209155,263247,-5.5226345608,-6.728617151199999,4.2065821308,462
167695,209062,263169,-5.491527867,-6.7142602155999995,4.2903309218,463
167209,208962,263133,-5.491527867,-6.7142602155999995,4.2903309218,464
166964,208869,263046,-5.491527867,-6.7142602155999995,4.2903309218,465
166852,208771,263024,-5.491527867,-6.7142602155999995,4.2903309218,466
166858,208714,262944,-5.491527867,-6.7142602155999995,4.2903309218,467
166850,208735,262935,-5.491527867,-6.7142602155999995,4.2903309218,468
166975,208712,262958,-5.491527867,-6.7142602155999995,4.2903309218,469
167123,208736,263038,-5.491527867,-6.7142602155999995,4.2903309218,470
167217,208751,262983,-5.491527867,-6.7142602155999995,4.2903309218,471
167273,208793,262941,-5.491527867,-6.7142602155999995,4.2903309218,472
167652,208872,263083,-5.5944192388,-6.6843499331,4.3238304382,473
167760,208918,263146,-5.563312545,-6.686742755699999,4.2161534212,474
167837,208986,263101,-5.4759745201,-6.786044893600001,4.2544385828,475
167748,208955,263069,-5.5860443597,-6.8015982405,4.3441694303,476
167384,208899,263075,-5.6279187552000005,-6.7908305388,4.2364924133,477
166983,208776,262969,-5.4652068183999996,-6.7669023128,4.2604206393,478
166830,208771,262947,-5.5764730692999995,-6.7441704981,4.347758664200001,479
166780,208610,262800,-5.566901778899999,-6.6341006585,4.320241204299999,480
166763,208581,262783,-5.539384319,-6.686742755699999,4.2568314054,481
166824,208586,262807,-5.6554362151,-6.878168563699999,4.3106699139,482
166974,208629,262831,-5.4149575438,-6.7334027964,4.3142591478000005,483
167080,208638,262827,-5.467599641,-6.671189408799999,4.2675991071,484
167130,208634,262828,-5.6039905292,-6.7334027964,4.242474469799999,485
167124,208609,262783,-5.6039905292,-6.7334027964,4.242474469799999,486
167185,208648,262799,-5.6039905292,-6.7334027964,4.242474469799999,487
167254,208659,262798,-5.6039905292,-6.7334027964,4.242474469799999,488
167369,208692,262828,-5.6039905292,-6.7334027964,4.242474469799999,489
167489,208721,262914,-5.6039905292,-6.7334027964,4.242474469799999,490
167567,208736,262901,-5.6039905292,-6.7334027964,4.242474469799999,491
167630,208755,262888,-5.6039905292,-6.7334027964,4.242474469799999,492
167727,208779,262905,-5.6039905292,-6.7334027964,4.242474469799999,493
167777,208795,262925,-5.6039905292,-6.7334027964,4.242474469799999,494
167607,208771,262916,-5.6039905292,-6.7334027964,4.242474469799999,495
167198,208701,262855,-5.6039905292,-6.7334027964,4.242474469799999,496
166850,208562,262802,-5.6039905292,-6.7334027964,4.242474469799999,497
166761,208477,262689,-5.6039905292,-6.7334027964,4.242474469799999,498
166709,208433,262680,-5.6039905292,-6.7334027964,4.242474469799999,499
166822,208395,262615,-5.513063270399999,-6.7190458608,4.271188340999999,500
166918,208437,262581,-5.513063270399999,-6.7190458608,4.271188340999999,501
167061,208431,262634,-5.513063270399999,-6.7190458608,4.271188340999999,502
167144,208475,262670,-5.513063270399999,-6.7190458608,4.271188340999999,503
167122,208466,262660,-5.513063270399999,-6.7190458608,4.271188340999999,504
167172,208458,262694,-5.513063270399999,-6.7190458608,4.271188340999999,505
167281,208486,262655,-5.513063270399999,-6.7190458608,4.271188340999999,506
167330,208501,262702,-5.513063270399999,-6.7190458608,4.271188340999999,507
167435,208537,262732,-5.513063270399999,-6.7190458608,4.271188340999999,508
167511,208583,262713,-5.513063270399999,-6.7190458608,4.271188340999999,509
167597,208593,262776,-5.513063270399999,-6.7190458608,4.271188340999999,510
167656,208638,262758,-5.513063270399999,-6.7190458608,4.271188340999999,511
167634,208629,262765,-5.513063270399999,-6.7190458608,4.271188340999999,512
167311,208524,262695,-5.513063270399999,-6.7190458608,4.271188340999999,513
166889,208406,262700,-5.513063270399999,-6.7190458608,4.271188340999999,514
166707,208398,262635,-5.513063270399999,-6.7190458608,4.271188340999999,515
166669,208372,262589,-5.513063270399999,-6.7190458608,4.271188340999999,516
166741,208354,262640,-5.513063270399999,-6.7190458608,4.271188340999999,517
166802,208416,262651,-5.513063270399999,-6.7190458608,4.271188340999999,518
166954,208465,262766,-5.553741254599999,-6.8135623535,4.3728833015,519
167155,208483,262776,-5.553741254599999,-6.8135623535,4.3728833015,520
167232,208536,262771,-5.553741254599999,-6.8135623535,4.3728833015,521
167253,208575,262751,-5.553741254599999,-6.8135623535,4.3728833015,522
167254,208592,262788,-5.553741254599999,-6.8135623535,4.3728833015,523
167354,208587,262747,-5.553741254599999,-6.8135623535,4.3728833015,524
167406,208596,262769,-5.553741254599999,-6.8135623535,4.3728833015,525
167489,208613,262875,-5.553741254599999,-6.8135623535,4.3728833015,526
167588,208621,262866,-5.553741254599999,-6.8135623535,4.3728833015,527
167689,208663,262841,-5.553741254599999,-6.8135623535,4.3728833015,528
167750,208769,262926,-5.553741254599999,-6.8135623535,4.3728833015,529
167723,208775,262898,-5.553741254599999,-6.8135623535,4.3728833015,530
167291,208707,262904,-5.553741254599999,-6.8135623535,4.3728833015,531
166974,208631,262799,-5.553741254599999,-6.8135623535,4.3728833015,532
166714,208566,262728,-5.553741254599999,-6.8135623535,4.3728833015,533
166659,208480,262665,-5.553741254599999,-6.8135623535,4.3728833015,534
166612,208466,262668,-5.553741254599999,-6.8135623535,4.3728833015,535
166615,208463,262688,-5.553741254599999,-6.8135623535,4.3728833015,536
166738,208471,262672,-5.553741254599999,-6.8135623535,4.3728833015,537
166864,208505,262640,-5.553741254599999,-6.8135623535,4.3728833015,538
166936,208482,262648,-5.553741254599999,-6.8135623535,4.3728833015,539
166956,208552,262701,-5.553741254599999,-6.8135623535,4.3728833015,540
167004,208520,262696,-5.553741254599999,-6.8135623535,4.3728833015,541
167043,208563,262703,-5.553741254599999,-6.8135623535,4.3728833015,542
167127,208539,262670,-5.553741254599999,-6.8135623535,4.3728833015,543
167199,208565,262758,-5.553741254599999,-6.8135623535,4.3728833015,544
167286,208566,262717,-5.553741254599999,-6.8135623535,4.3728833015,545
167393,208623,262662,-5.553741254599999,-6.8135623535,4.3728833015,546
167473,208706,262760,-5.553741254599999,-6.8135623535,4.3728833015,547
167497,208680,262789,-5.553741254599999,-6.8135623535,4.3728833015,548
167172,208660,262778,-5.553741254599999,-6.8135623535,4.3728833015,549
166693,208581,262636,-5.553741254599999,-6.8135623535,4.3728833015,550
166385,208498,262650,-5.553741254599999,-6.8135623535,4.3728833015,551
166240,208496,262623,-5.553741254599999,-6.8135623535,4.3728833015,552
166144,208439,262558,-5.553741254599999,-6.8135623535,4.3728833015,553
166154,208450,262609,-5.553741254599999,-6.8135623535,4.3728833015,554
166247,208439,262606,-5.553741254599999,-6.8135623535,4.3728833015,555
166443,208481,262658,-5.553741254599999,-6.8135623535,4.3728833015,556
166578,208563,262630,-5.553741254599999,-6.8135623535,4.3728833015,557
166605,208535,262614,-5.553741254599999,-6.8135623535,4.3728833015,558
166655,208543,262638,-5.553741254599999,-6.8135623535,4.3728833015,559
166672,208560,262658,-5.553741254599999,-6.8135623535,4.3728833015,560
166258,208897,262840,-5.5597233111,-6.798009006599999,4.3633120111,561
166364,208964,262834,-5.5597233111,-6.798009006599999,4.3633120111,562
166474,208944,262855,-5.5597233111,-6.798009006599999,4.3633120111,563
166571,208943,262874,-5.5597233111,-6.798009006599999,4.3633120111,564
166631,208968,262931,-5.5597233111,-6.798009006599999,4.3633120111,565
166671,209031,262916,-5.5597233111,-6.798009006599999,4.3633120111,566
166614,209041,262877,-5.5597233111,-6.798009006599999,4.3633120111,567
166089,208964,262881,-5.5597233111,-6.798009006599999,4.3633120111,568
165487,208893,262854,-5.5597233111,-6.798009006599999,4.3633120111,569
165179,208836,262794,-5.5597233111,-6.798009006599999,4.3633120111,570
165027,208837,262788,-5.5597233111,-6.798009006599999,4.3633120111,571
164963,208886,262799,-5.5597233111,-6.798009006599999,4.3633120111,572
165019,208841,262752,-5.5597233111,-6.798009006599999,4.3633120111,573
165136,208883,262839,-5.5597233111,-6.798009006599999,4.3633120111,574
165326,208924,262825,-5.5597233111,-6.798009006599999,4.3633120111,575
165396,208892,262783,-5.5597233111,-6.798009006599999,4.3633120111,576
165426,208893,262846,-5.5597233111,-6.798009006599999,4.3633120111,577
165490,208909,262749,-5.5597233111,-6.798009006599999,4.3633120111,578
165568,208942,262803,-5.5597233111,-6.798009006599999,4.3633120111,579
165679,208964,262809,-5.5597233111,-6.798009006599999,4.3633120111,580
165770,208966,262804,-5.5597233111,-6.798009006599999,4.3633120111,581
165925,208981,262826,-5.5597233111,-6.798009006599999,4.3633120111,582
166051,209010,262825,-5.5597233111,-6.798009006599999,4.3633120111,583
166144,208993,262882,-5.5597233111,-6.798009006599999,4.3633120111,584
166215,209061,262856,-5.5597233111,-6.798009006599999,4.3633120111,585
166334,209045,262917,-5.5597233111,-6.798009006599999,4.3633120111,586
166417,209100,262839,-5.5597233111,-6.798009006599999,4.3633120111,587
166507,209060,262889,-5.5597233111,-6.798009006599999,4.3633120111,588
166443,209122,262863,-5.5597233111,-6.798009006599999,4.3633120111,589
165927,209012,262867,-5.5597233111,-6.798009006599999,4.3633120111,590
165357,208985,262805,-5.5597233111,-6.798009006599999,4.3633120111,591
165075,208957,262836,-5.5597233111,-6.798009006599999,4.3633120111,592
164999,208965,262732,-5.5597233111,-6.798009006599999,4.3633120111,593
164984,208942,262819,-5.5597233111,-6.798009006599999,4.3633120111,594
165013,208943,262823,-5.5597233111,-6.798009006599999,4.3633120111,595
165177,209003,262793,-5.5597233111,-6.798009006599999,4.3633120111,596
165282,208979,262800,-5.5597233111,-6.798009006599999,4.3633120111,597
165369,209013,262797,-5.5597233111,-6.798009006599999,4.3633120111,598
165403,209037,262850,-5.5597233111,-6.798009006599999,4.3633120111,599
165479,209029,262754,-5.5597233111,-6.798009006599999,4.3633120111,600
165549,208990,262854,-5.5597233111,-6.798009006599999,4.3633120111,601
165651,209073,262849,-5.5597233111,-6.798009006599999,4.3633120111,602
166609,209228,262954,-5.566901778899999,-6.575476504799999,4.3274196721000004,603
166567,209230,262978,-5.566901778899999,-6.575476504799999,4.3274196721000004,604
166143,209196,262949,-5.566901778899999,-6.575476504799999,4.3274196721000004,605
165581,209139,262893,-5.566901778899999,-6.575476504799999,4.3274196721000004,606
165310,209069,262865,-5.566901778899999,-6.575476504799999,4.3274196721000004,607
165262,209093,262884,-5.566901778899999,-6.575476504799999,4.3274196721000004,608
165225,209065,262850,-5.566901778899999,-6.575476504799999,4.3274196721000004,609
165264,209090,262827,-5.566901778899999,-6.575476504799999,4.3274196721000004,610
165382,209113,262884,-5.566901778899999,-6.575476504799999,4.3274196721000004,611
165552,209200,262946,-5.566901778899999,-6.575476504799999,4.3274196721000004,612
165681,209218,262920,-5.566901778899999,-6.575476504799999,4.3274196721000004,613
165719,209266,262955,-5.566901778899999,-6.575476504799999,4.3274196721000004,614
165798,209285,262928,-5.566901778899999,-6.575476504799999,4.3274196721000004,615
165887,209279,262971,-5.566901778899999,-6.575476504799999,4.3274196721000004,616
165957,209305,262960,-5.566901778899999,-6.575476504799999,4.3274196721000004,617
166087,209293,262903,-5.566901778899999,-6.575476504799999,4.3274196721000004,618
166220,209397,263013,-5.566901778899999,-6.575476504799999,4.3274196721000004,619
166383,209476,263039,-5.566901778899999,-6.575476504799999,4.3274196721000004,620
166512,209531,263068,-5.566901778899999,-6.575476504799999,4.3274196721000004,621
166607,209521,263066,-5.566901778899999,-6.575476504799999,4.3274196721000004,622
166611,209508,262933,-5.566901778899999,-6.575476504799999,4.3274196721000004,623
166657,209438,262884,-5.566901778899999,-6.575476504799999,4.3274196721000004,624
166692,209439,262877,-5.566901778899999,-6.575476504799999,4.3274196721000004,625
166735,209428,262886,-5.566901778899999,-6.575476504799999,4.3274196721000004,626
166815,209376,262810,-5.566901778899999,-6.575476504799999,4.3274196721000004,627
166821,209350,262842,-5.566901778899999,-6.575476504799999,4.3274196721000004,628
166497,209257,262790,-5.566901778899999,-6.575476504799999,4.3274196721000004,629
165915,209146,262705,-5.566901778899999,-6.575476504799999,4.3274196721000004,630
165501,209103,262625,-5.566901778899999,-6.575476504799999,4.3274196721000004,631
165419,209076,262612,-5.566901778899999,-6.575476504799999,4.3274196721000004,632
165338,209040,262629,-5.566901778899999,-6.575476504799999,4.3274196721000004,633
165385,209032,262546,-5.566901778899999,-6.575476504799999,4.3274196721000004,634
165553,209046,262620,-5.566901778899999,-6.575476504799999,4.3274196721000004,635
165693,209066,262609,-5.566901778899999,-6.575476504799999,4.3274196721000004,636
165798,209074,262599,-5.566901778899999,-6.575476504799999,4.3274196721000004,637
165809,209111,262686,-5.566901778899999,-6.575476504799999,4.3274196721000004,638
165810,209100,262637,-5.566901778899999,-6.575476504799999,4.3274196721000004,639
165850,209049,262592,-5.566901778899999,-6.575476504799999,4.3274196721000004,640
165927,209052,262698,-5.566901778899999,-6.575476504799999,4.3274196721000004,641
166040,209050,262713,-5.566901778899999,-6.575476504799999,4.3274196721000004,642
166143,209146,262742,-5.566901778899999,-6.575476504799999,4.3274196721000004,643
166272,209093,262710,-5.566901778899999,-6.575476504799999,4.3274196721000004,644
165037,208986,262619,-5.5322058512000005,-6.7884377162,4.2759739861999995,645
165213,208949,262600,-5.5322058512000005,-6.7884377162,4.2759739861999995,646
165364,208961,262648,-5.5322058512000005,-6.7884377162,4.2759739861999995,647
165390,208957,262594,-5.5322058512000005,-6.7884377162,4.2759739861999995,648
165436,208982,262630,-5.5322058512000005,-6.7884377162,4.2759739861999995,649
165499,209000,262626,-5.5322058512000005,-6.7884377162,4.2759739861999995,650
165573,208952,262596,-5.5322058512000005,-6.7884377162,4.2759739861999995,651
165698,209014,262661,-5.5322058512000005,-6.7884377162,4.2759739861999995,652
165815,209037,262646,-5.5322058512000005,-6.7884377162,4.2759739861999995,653
165918,209061,262663,-5.5322058512000005,-6.7884377162,4.2759739861999995,654
166027,209055,262696,-5.5322058512000005,-6.7884377162,4.2759739861999995,655
166136,209101,262683,-5.5322058512000005,-6.7884377162,4.2759739861999995,656
166219,209137,262728,-5.5322058512000005,-6.7884377162,4.2759739861999995,657
166158,209141,262762,-5.5322058512000005,-6.7884377162,4.2759739861999995,658
165790,209095,262711,-5.5322058512000005,-6.7884377162,4.2759739861999995,659
165245,208979,262731,-5.5322058512000005,-6.7884377162,4.2759739861999995,660
164979,208984,262685,-5.5322058512000005,-6.7884377162,4.2759739861999995,661
164955,208949,262567,-5.5322058512000005,-6.7884377162,4.2759739861999995,662
165001,208930,262659,-5.5322058512000005,-6.7884377162,4.2759739861999995,663
165077,208980,262692,-5.4963135121999995,-6.8004018292,4.2783668087999995,664
165235,209024,262660,-5.4963135121999995,-6.8004018292,4.2783668087999995,665
165378,209026,262675,-5.4963135121999995,-6.8004018292,4.2783668087999995,666
165443,209074,262698,-5.4963135121999995,-6.8004018292,4.2783668087999995,667
165546,209078,262706,-5.4963135121999995,-6.8004018292,4.2783668087999995,668
165552,209086,262637,-5.4963135121999995,-6.8004018292,4.2783668087999995,669
165644,209081,262709,-5.4963135121999995,-6.8004018292,4.2783668087999995,670
165746,209072,262727,-5.4963135121999995,-6.8004018292,4.2783668087999995,671
165790,209122,262688,-5.4963135121999995,-6.8004018292,4.2783668087999995,672
165944,209114,262716,-5.4963135121999995,-6.8004018292,4.2783668087999995,673
166054,209129,262757,-5.4963135121999995,-6.8004018292,4.2783668087999995,674
166150,209162,262812,-5.4963135121999995,-6.8004018292,4.2783668087999995,675
166244,209203,262810,-5.4963135121999995,-6.8004018292,4.2783668087999995,676
166185,209237,262756,-5.4963135121999995,-6.8004018292,4.2783668087999995,677
165715,209145,262797,-5.4963135121999995,-6.8004018292,4.2783668087999995,678
165174,209036,262694,-5.4963135121999995,-6.8004018292,4.2783668087999995,679
164893,208969,262646,-5.4963135121999995,-6.8004018292,4.2783668087999995,680
164767,208902,262596,-5.4963135121999995,-6.8004018292,4.2783668087999995,681
164682,208876,262536,-5.4963135121999995,-6.8004018292,4.2783668087999995,682
164722,208863,262526,-5.5058848026,-6.7178494495,4.2927237444,683
164888,208907,262530,-5.5058848026,-6.7178494495,4.2927237444,684
165026,208920,262632,-5.5058848026,-6.7178494495,4.2927237444,685
165155,208939,262606,-5.5058848026,-6.7178494495,4.2927237444,686
165224,208945,262528,-5.5058848026,-6.7178494495,4.2927237444,687
165292,208915,262638,-5.5058848026,-6.7178494495,4.2927237444,688
165350,208957,262594,-5.5058848026,-6.7178494495,4.2927237444,689
165476,208944,262635,-5.5058848026,-6.7178494495,4.2927237444,690
165565,208982,262648,-5.5058848026,-6.7178494495,4.2927237444,691
165694,208975,262623,-5.5058848026,-6.7178494495,4.2927237444,692
165804,208979,262669,-5.5058848026,-6.7178494495,4.2927237444,693
165922,209009,262696,-5.5058848026,-6.7178494495,4.2927237444,694
166027,209060,262698,-5.5058848026,-6.7178494495,4.2927237444,695
165981,209030,262726,-5.5058848026,-6.7178494495,4.2927237444,696
165608,209005,262688,-5.5058848026,-6.7178494495,4.2927237444,697
165049,208931,262634,-5.5058848026,-6.7178494495,4.2927237444,698
164697,208880,262584,-5.5058848026,-6.7178494495,4.2927237444,699
164626,208838,262554,-5.5058848026,-6.7178494495,4.2927237444,700
164595,208822,262559,-5.5058848026,-6.7178494495,4.2927237444,701
164601,208798,262521,-5.5058848026,-6.7178494495,4.2927237444,702
164749,208799,262465,-5.5058848026,-6.7178494495,4.2927237444,703
164885,208804,262533,-5.5058848026,-6.7178494495,4.2927237444,704
164963,208795,262515,-5.5058848026,-6.7178494495,4.2927237444,705
165030,208800,262527,-5.5058848026,-6.7178494495,4.2927237444,706
165082,208810,262540,-5.5058848026,-6.7178494495,4.2927237444,707
165155,208870,262526,-5.5058848026,-6.7178494495,4.2927237444,708
165279,208900,262521,-5.5058848026,-6.7178494495,4.2927237444,709
165455,208887,262550,-5.5058848026,-6.7178494495,4.2927237444,710
165587,208933,262625,-5.5058848026,-6.7178494495,4.2927237444,711
165694,208933,262683,-5.5058848026,-6.7178494495,4.2927237444,712
165797,209015,262646,-5.5058848026,-6.7178494495,4.2927237444,713
165903,208999,262742,-5.5058848026,-6.7178494495,4.2927237444,714
165942,209009,262673,-5.5058848026,-6.7178494495,4.2927237444,715
165756,208976,262631,-5.5058848026,-6.7178494495,4.2927237444,716
165203,208877,262578,-5.5058848026,-6.7178494495,4.2927237444,717
164719,208807,262562,-5.5058848026,-6.7178494495,4.2927237444,718
164466,208762,262509,-5.5058848026,-6.7178494495,4.2927237444,719
164434,208745,262547,-5.5058848026,-6.7178494495,4.2927237444,720
164410,208754,262464,-5.5058848026,-6.7178494495,4.2927237444,721
164493,208755,262456,-5.5058848026,-6.7178494495,4.2927237444,722
164662,208748,262528,-5.5058848026,-6.7178494495,4.2927237444,723
164840,208740,262537,-5.5058848026,-6.7178494495,4.2927237444,724
165134,208830,262580,-5.599204884000001,-6.6317078358999995,4.2017964856,725
165154,208802,262589,-5.599204884000001,-6.6317078358999995,4.2017964856,726
165292,208842,262534,-5.599204884000001,-6.6317078358999995,4.2017964856,727
165409,208846,262567,-5.599204884000001,-6.6317078358999995,4.2017964856,728
165536,208901,262654,-5.599204884000001,-6.6317078358999995,4.2017964856,729
165655,208904,262614,-5.599204884000001,-6.6317078358999995,4.2017964856,730
165733,208976,262627,-5.599204884000001,-6.6317078358999995,4.2017964856,731
165878,208978,262697,-5.599204884000001,-6.6317078358999995,4.2017964856,732
165925,208973,262679,-5.599204884000001,-6.6317078358999995,4.2017964856,733
165804,208954,262682,-5.599204884000001,-6.6317078358999995,4.2017964856,734
165300,208890,262653,-5.599204884000001,-6.6317078358999995,4.2017964856,735
164821,208811,262651,-5.599204884000001,-6.6317078358999995,4.2017964856,736
164603,208755,262590,-5.599204884000001,-6.6317078358999995,4.2017964856,737
164547,208734,262539,-5.599204884000001,-6.6317078358999995,4.2017964856,738
164528,208657,262457,-5.599204884000001,-6.6317078358999995,4.2017964856,739
164597,208645,262452,-5.599204884000001,-6.6317078358999995,4.2017964856,740
164700,208643,262447,-5.599204884000001,-6.6317078358999995,4.2017964856,741
164835,208673,262457,-5.599204884000001,-6.6317078358999995,4.2017964856,742
164959,208689,262464,-5.599204884000001,-6.6317078358999995,4.2017964856,743
164999,208693,262524,-5.599204884000001,-6.6317078358999995,4.2017964856,744
165071,208722,262473,-5.599204884000001,-6.6317078358999995,4.2017964856,745
165176,208707,262527,-5.599204884000001,-6.6317078358999995,4.2017964856,746
165278,208696,262434,-5.599204884000001,-6.6317078358999995,4.2017964856,747
165382,208736,262494,-5.599204884000001,-6.6317078358999995,4.2017964856,748
165495,208762,262536,-5.599204884000001,-6.6317078358999995,4.2017964856,749
165593,208821,262551,-5.599204884000001,-6.6317078358999995,4.2017964856,750
165717,208827,262570,-5.599204884000001,-6.6317078358999995,4.2017964856,751
165869,208863,262636,-5.599204884000001,-6.6317078358999995,4.2017964856,752
165948,208869,262677,-5.599204884000001,-6.6317078358999995,4.2017964856,753
165732,208861,262586,-5.599204884000001,-6.6317078358999995,4.2017964856,754
165217,208806,262560,-5.599204884000001,-6.6317078358999995,4.2017964856,755
164756,208706,262443,-5.599204884000001,-6.6317078358999995,4.2017964856,756
164556,208664,262457,-5.599204884000001,-6.6317078358999995,4.2017964856,757
164551,208643,262425,-5.599204884000001,-6.6317078358999995,4.2017964856,758
164562,208605,262438,-5.599204884000001,-6.6317078358999995,4.2017964856,759
164581,208617,262398,-5.599204884000001,-6.6317078358999995,4.2017964856,760
164764,208638,262401,-5.599204884000001,-6.6317078358999995,4.2017964856,761
164950,208627,262472,-5.599204884000001,-6.6317078358999995,4.2017964856,762
165013,208656,262387,-5.599204884000001,-6.6317078358999995,4.2017964856,763
165061,208630,262386,-5.599204884000001,-6.6317078358999995,4.2017964856,764
165105,208618,262403,-5.599204884000001,-6.6317078358999995,4.2017964856,765
165197,208631,262368,-5.599204884000001,-6.6317078358999995,4.2017964856,766
165107,208581,262509,-5.3024948815999995,-6.6939212235,4.3130627365,767
164793,208673,262494,-5.3024948815999995,-6.6939212235,4.3130627365,768
164669,208681,262515,-5.3024948815999995,-6.6939212235,4.3130627365,769
164653,208602,262410,-5.3024948815999995,-6.6939212235,4.3130627365,770
164743,208680,262412,-5.3024948815999995,-6.6939212235,4.3130627365,771
165128,208927,262752,-5.3024948815999995,-6.6939212235,4.3130627365,772
165573,209167,262946,-5.3024948815999995,-6.6939212235,4.3130627365,773
165928,209248,263082,-5.3024948815999995,-6.6939212235,4.3130627365,774
166012,209266,263015,-5.3024948815999995,-6.6939212235,4.3130627365,775
166014,209197,262961,-5.3024948815999995,-6.6939212235,4.3130627365,776
165974,209055,262824,-5.3024948815999995,-6.6939212235,4.3130627365,777
165958,208929,262701,-5.3024948815999995,-6.6939212235,4.3130627365,778
165986,208864,262653,-5.3024948815999995,-6.6939212235,4.3130627365,779
166079,208894,262647,-5.3024948815999995,-6.6939212235,4.3130627365,780
166200,208915,262669,-5.3024948815999995,-6.6939212235,4.3130627365,781
166271,208884,262672,-5.3024948815999995,-6.6939212235,4.3130627365,782
166382,208866,262712,-5.3024948815999995,-6.6939212235,4.3130627365,783
166430,208905,262690,-5.3024948815999995,-6.6939212235,4.3130627365,784
166513,208920,262614,-5.3024948815999995,-6.6939212235,4.3130627365,785
166538,208852,262606,-5.3024948815999995,-6.6939212235,4.3130627365,786
166195,208822,262553,-5.3024948815999995,-6.6939212235,4.3130627365,787
165693,208645,262461,-5.3024948815999995,-6.6939212235,4.3130627365,788
165377,208581,262429,-5.3024948815999995,-6.6939212235,4.3130627365,789
165240,208500,262410,-5.3024948815999995,-6.6939212235,4.3130627365,790
165290,208517,262405,-5.3024948815999995,-6.6939212235,4.3130627365,791
165441,208622,262463,-5.3024948815999995,-6.6939212235,4.3130627365,792
165675,208694,262504,-5.3024948815999995,-6.6939212235,4.3130627365,793
165905,208751,262482,-5.3024948815999995,-6.6939212235,4.3130627365,794
166014,208775,262372,-5.3024948815999995,-6.6939212235,4.3130627365,795
166072,208766,262372,-5.3024948815999995,-6.6939212235,4.3130627365,796
166123,208783,262321,-5.3024948815999995,-6.6939212235,4.3130627365,797
166174,208689,262255,-5.3024948815999995,-6.6939212235,4.3130627365,798
166218,208618,262138,-5.499902746099999,-6.8925254993,4.1946180178,799
166237,208470,262029,-5.499902746099999,-6.8925254993,4.1946180178,800
166255,208307,261947,-5.499902746099999,-6.8925254993,4.1946180178,801
166289,208172,261853,-5.499902746099999,-6.8925254993,4.1946180178,802
166312,208106,261809,-5.499902746099999,-6.8925254993,4.1946180178,803
166401,208136,261901,-5.499902746099999,-6.8925254993,4.1946180178,804
166500,208288,262103,-5.499902746099999,-6.8925254993,4.1946180178,805
166244,208257,262111,-5.499902746099999,-6.8925254993,4.1946180178,806
165746,208394,262142,-5.499902746099999,-6.8925254993,4.1946180178,807
165448,208629,262131,-5.499902746099999,-6.8925254993,4.1946180178,808
165422,208726,262140,-5.499902746099999,-6.8925254993,4.1946180178,809
165512,208720,262184,-5.499902746099999,-6.8925254993,4.1946180178,810
165651,208660,262251,-5.499902746099999,-6.8925254993,4.1946180178,811
165774,208658,262215,-5.499902746099999,-6.8925254993,4.1946180178,812
165953,208712,262251,-5.499902746099999,-6.8925254993,4.1946180178,813
166072,208664,262177,-5.499902746099999,-6.8925254993,4.1946180178,814
166114,208611,262240,-5.499902746099999,-6.8925254993,4.1946180178,815
166118,208562,262225,-5.499902746099999,-6.8925254993,4.1946180178,816
166174,208491,262221,-5.499902746099999,-6.8925254993,4.1946180178,817
166228,208453,262243,-5.499902746099999,-6.8925254993,4.1946180178,818
166271,208447,262256,-5.499902746099999,-6.8925254993,4.1946180178,819
166392,208421,262310,-5.499902746099999,-6.8925254993,4.1946180178,820
166488,208458,262287,-5.499902746099999,-6.8925254993,4.1946180178,821
166580,208457,262389,-5.499902746099999,-6.8925254993,4.1946180178,822
166706,208502,262383,-5.499902746099999,-6.8925254993,4.1946180178,823
166722,208525,262415,-5.499902746099999,-6.8925254993,4.1946180178,824
166648,208476,262330,-5.499902746099999,-6.8925254993,4.1946180178,825
166205,208408,262251,-5.499902746099999,-6.8925254993,4.1946180178,826
165882,208322,262194,-5.499902746099999,-6.8925254993,4.1946180178,827
165802,208297,262141,-5.499902746099999,-6.8925254993,4.1946180178,828
165896,208270,262141,-5.499902746099999,-6.8925254993,4.1946180178,829
165971,208201,262046,-5.499902746099999,-6.8925254993,4.1946180178,830
166036,208207,262082,-5.499902746099999,-6.8925254993,4.1946180178,831
166149,208158,262044,-5.499902746099999,-6.8925254993,4.1946180178,832
166276,208164,262092,-5.499902746099999,-6.8925254993,4.1946180178,833
166332,208122,262040,-5.499902746099999,-6.8925254993,4.1946180178,834
166328,208072,262040,-5.499902746099999,-6.8925254993,4.1946180178,835
166344,208099,261946,-5.499902746099999,-6.8925254993,4.1946180178,836
166355,208050,262020,-5.499902746099999,-6.8925254993,4.1946180178,837
166390,208043,261991,-5.499902746099999,-6.8925254993,4.1946180178,838
166434,208042,262033,-5.499902746099999,-6.8925254993,4.1946180178,839
166531,208030,261969,-5.499902746099999,-6.8925254993,4.1946180178,840
165460,207463,261689,-5.6578290377,-6.7226350947,4.208974953399999,841
165207,207378,261686,-5.6578290377,-6.7226350947,4.208974953399999,842
165121,207337,261687,-5.6578290377,-6.7226350947,4.208974953399999,843
165158,207318,261648,-5.6578290377,-6.7226350947,4.208974953399999,844
165233,207353,261562,-5.6578290377,-6.7226350947,4.208974953399999,845
165384,207370,261639,-5.6578290377,-6.7226350947,4.208974953399999,846
165583,207463,261609,-5.6578290377,-6.7226350947,4.208974953399999,847
165712,207525,261692,-5.6578290377,-6.7226350947,4.208974953399999,848
165732,207545,261765,-5.6578290377,-6.7226350947,4.208974953399999,849
165808,207647,261723,-5.6578290377,-6.7226350947,4.208974953399999,850
165858,207797,261718,-5.6578290377,-6.7226350947,4.208974953399999,851
165931,207823,261662,-5.6578290377,-6.7226350947,4.208974953399999,852
166032,207798,261765,-5.6578290377,-6.7226350947,4.208974953399999,853
166092,207749,261672,-5.6578290377,-6.7226350947,4.208974953399999,854
166161,207765,261701,-5.6578290377,-6.7226350947,4.208974953399999,855
166271,207789,261779,-5.6578290377,-6.7226350947,4.208974953399999,856
166302,207817,261818,-5.6578290377,-6.7226350947,4.208974953399999,857
166098,207749,261774,-5.6578290377,-6.7226350947,4.208974953399999,858
165664,207670,261760,-5.6578290377,-6.7226350947,4.208974953399999,859
165356,207520,261778,-5.6578290377,-6.7226350947,4.208974953399999,860
165243,207467,261643,-5.6578290377,-6.7226350947,4.208974953399999,861
165197,207380,261558,-5.6578290377,-6.7226350947,4.208974953399999,862
165236,207308,261606,-5.6578290377,-6.7226350947,4.208974953399999,863
165318,207436,261596,-5.6578290377,-6.7226350947,4.208974953399999,864
165507,207411,261577,-5.6578290377,-6.7226350947,4.208974953399999,865
165637,207471,261639,-5.6578290377,-6.7226350947,4.208974953399999,866
165681,207526,261629,-5.6578290377,-6.7226350947,4.208974953399999,867
165731,207475,261678,-5.6578290377,-6.7226350947,4.208974953399999,868
165796,207510,261598,-5.6578290377,-6.7226350947,4.208974953399999,869
165871,207540,261665,-5.6578290377,-6.7226350947,4.208974953399999,870
165994,207505,261677,-5.6578290377,-6.7226350947,4.208974953399999,871
166102,207543,261719,-5.6578290377,-6.7226350947,4.208974953399999,872
166149,207590,261720,-5.6578290377,-6.7226350947,4.208974953399999,873
166258,207635,261740,-5.6578290377,-6.7226350947,4.208974953399999,874
166356,207717,261804,-5.6578290377,-6.7226350947,4.208974953399999,875
166242,207671,261780,-5.6578290377,-6.7226350947,4.208974953399999,876
165834,207582,261728,-5.6578290377,-6.7226350947,4.208974953399999,877
165440,207499,261646,-5.6578290377,-6.7226350947,4.208974953399999,878
165322,207400,261547,-5.6578290377,-6.7226350947,4.208974953399999,879
165242,207350,261564,-5.6578290377,-6.7226350947,4.208974953399999,880
165275,207326,261565,-5.6578290377,-6.7226350947,4.208974953399999,881
165322,207324,261567,-5.6578290377,-6.7226350947,4.208974953399999,882
165914,207542,261720,-5.4640104071,-6.8004018292,4.1910287839,883
165995,207544,261658,-5.4640104071,-6.8004018292,4.1910287839,884
166095,207543,261745,-5.4640104071,-6.8004018292,4.1910287839,885
166172,207576,261725,-5.4640104071,-6.8004018292,4.1910287839,886
166281,207648,261728,-5.4640104071,-6.8004018292,4.1910287839,887
166354,207662,261754,-5.4640104071,-6.8004018292,4.1910287839,888
166418,207671,261784,-5.4640104071,-6.8004018292,4.1910287839,889
166421,207666,261765,-5.4640104071,-6.8004018292,4.1910287839,890
166091,207588,261728,-5.4640104071,-6.8004018292,4.1910287839,891
165637,207487,261659,-5.4640104071,-6.8004018292,4.1910287839,892
165377,207377,261614,-5.4640104071,-6.8004018292,4.1910287839,893
165270,207290,261522,-5.4640104071,-6.8004018292,4.1910287839,894
165243,207284,261496,-5.4640104071,-6.8004018292,4.1910287839,895
165308,207315,261463,-5.4640104071,-6.8004018292,4.1910287839,896
165410,207355,261527,-5.4640104071,-6.8004018292,4.1910287839,897
165576,207330,261563,-5.4640104071,-6.8004018292,4.1910287839,898
165623,207400,261529,-5.4640104071,-6.8004018292,4.1910287839,899
165723,207397,261547,-5.4640104071,-6.8004018292,4.1910287839,900
165698,207391,261626,-5.4640104071,-6.8004018292,4.1910287839,901
165785,207428,261585,-5.4640104071,-6.8004018292,4.1910287839,902
165860,207443,261583,-5.4640104071,-6.8004018292,4.1910287839,903
166014,207475,261592,-5.4640104071,-6.8004018292,4.1910287839,904
166092,207468,261624,-5.4640104071,-6.8004018292,4.1910287839,905
166177,207493,261604,-5.4640104071,-6.8004018292,4.1910287839,906
166224,207538,261591,-5.4640104071,-6.8004018292,4.1910287839,907
166273,207557,261648,-5.4640104071,-6.8004018292,4.1910287839,908
166104,207535,261615,-5.4640104071,-6.8004018292,4.1910287839,909
165598,207442,261636,-5.4640104071,-6.8004018292,4.1910287839,910
165276,207379,261488,-5.4640104071,-6.8004018292,4.1910287839,911
165159,207314,261578,-5.4640104071,-6.8004018292,4.1910287839,912
165112,207276,261480,-5.4640104071,-6.8004018292,4.1910287839,913
165146,207256,261532,-5.4640104071,-6.8004018292,4.1910287839,914
165267,207263,261463,-5.4640104071,-6.8004018292,4.1910287839,915
165371,207290,261475,-5.4640104071,-6.8004018292,4.1910287839,916
165533,207323,261539,-5.4640104071,-6.8004018292,4.1910287839,917
165564,207361,261503,-5.4640104071,-6.8004018292,4.1910287839,918
165629,207340,261500,-5.4640104071,-6.8004018292,4.1910287839,919
165702,207430,261538,-5.4640104071,-6.8004018292,4.1910287839,920
165785,207443,261558,-5.4640104071,-6.8004018292,4.1910287839,921
165910,207484,261589,-5.4640104071,-6.8004018292,4.1910287839,922
165999,207490,261614,-5.4640104071,-6.8004018292,4.1910287839,923
166097,207545,261615,-5.4640104071,-6.8004018292,4.1910287839,924
165789,207347,261541,-5.5812587145,-6.699903279999999,4.2137605985999995,925
165452,207277,261475,-5.5812587145,-6.699903279999999,4.2137605985999995,926
165351,207181,261497,-5.5812587145,-6.699903279999999,4.2137605985999995,927
165368,207181,261464,-5.5812587145,-6.699903279999999,4.2137605985999995,928
165466,207189,261432,-5.5812587145,-6.699903279999999,4.2137605985999995,929
165594,207267,261501,-5.5812587145,-6.699903279999999,4.2137605985999995,930
165758,207260,261509,-5.5812587145,-6.699903279999999,4.2137605985999995,931
165874,207318,261483,-5.5812587145,-6.699903279999999,4.2137605985999995,932
165921,207374,261499,-5.5812587145,-6.699903279999999,4.2137605985999995,933
165995,207336,261531,-5.5812587145,-6.699903279999999,4.2137605985999995,934
166006,207362,261549,-5.5812587145,-6.699903279999999,4.2137605985999995,935
166086,207391,261615,-5.5812587145,-6.699903279999999,4.2137605985999995,936
166174,207385,261548,-5.5812587145,-6.699903279999999,4.2137605985999995,937
166222,207425,261542,-5.5812587145,-6.699903279999999,4.2137605985999995,938
166331,207399,261615,-5.5812587145,-6.699903279999999,4.2137605985999995,939
166431,207505,261629,-5.5812587145,-6.699903279999999,4.2137605985999995,940
166494,207508,261693,-5.5812587145,-6.699903279999999,4.2137605985999995,941
166404,207508,261631,-5.5812587145,-6.699903279999999,4.2137605985999995,942
166025,207433,261628,-5.5812587145,-6.699903279999999,4.2137605985999995,943
165635,207300,261529,-5.5812587145,-6.699903279999999,4.2137605985999995,944
165461,207224,261448,-5.5812587145,-6.699903279999999,4.2137605985999995,945
165389,207168,261376,-5.5812587145,-6.699903279999999,4.2137605985999995,946
165406,207112,261323,-5.5812587145,-6.699903279999999,4.2137605985999995,947
165441,207124,261344,-5.5812587145,-6.699903279999999,4.2137605985999995,948
165650,207117,261418,-5.5812587145,-6.699903279999999,4.2137605985999995,949
165733,207195,261389,-5.5812587145,-6.699903279999999,4.2137605985999995,950
165808,207179,261380,-5.5812587145,-6.699903279999999,4.2137605985999995,951
165868,207196,261412,-5.5812587145,-6.699903279999999,4.2137605985999995,952
165931,207225,261380,-5.5812587145,-6.699903279999999,4.2137605985999995,953
165956,207213,261402,-5.5812587145,-6.699903279999999,4.2137605985999995,954
166044,207270,261411,-5.5812587145,-6.699903279999999,4.2137605985999995,955
166155,207271,261437,-5.5812587145,-6.699903279999999,4.2137605985999995,956
166270,207316,261426,-5.5812587145,-6.699903279999999,4.2137605985999995,957
166352,207307,261468,-5.5812587145,-6.699903279999999,4.2137605985999995,958
166404,207374,261490,-5.5812587145,-6.699903279999999,4.2137605985999995,959
166440,207410,261506,-5.5812587145,-6.699903279999999,4.2137605985999995,960
166226,207334,261458,-5.5812587145,-6.699903279999999,4.2137605985999995,961
165788,207222,261407,-5.5812587145,-6.699903279999999,4.2137605985999995,962
165518,207136,261366,-5.5812587145,-6.699903279999999,4.2137605985999995,963
165403,207063,261304,-5.5812587145,-6.699903279999999,4.2137605985999995,964
165381,207009,261278,-5.5812587145,-6.699903279999999,4.2137605985999995,965
165457,206952,261272,-5.5812587145,-6.699903279999999,4.2137605985999995,966
165996,207016,261147,-5.720042425300001,-6.811169530899999,4.1563328562,967
166035,206962,261162,-5.720042425300001,-6.811169530899999,4.1563328562,968
166065,207018,261176,-5.720042425300001,-6.811169530899999,4.1563328562,969
166147,206978,261207,-5.720042425300001,-6.811169530899999,4.1563328562,970
166236,207003,261168,-5.720042425300001,-6.811169530899999,4.1563328562,971
166358,207044,261228,-5.720042425300001,-6.811169530899999,4.1563328562,972
166410,207086,261250,-5.720042425300001,-6.811169530899999,4.1563328562,973
166484,207144,261298,-5.720042425300001,-6.811169530899999,4.1563328562,974
166343,207111,261259,-5.720042425300001,-6.811169530899999,4.1563328562,975
165969,206971,261187,-5.720042425300001,-6.811169530899999,4.1563328562,976
165618,206840,261088,-5.720042425300001,-6.811169530899999,4.1563328562,977
165529,206797,261060,-5.720042425300001,-6.811169530899999,4.1563328562,978
165505,206728,261034,-5.720042425300001,-6.811169530899999,4.1563328562,979
165598,206736,261052,-5.720042425300001,-6.811169530899999,4.1563328562,980
165757,206744,261011,-5.720042425300001,-6.811169530899999,4.1563328562,981
165904,206842,261110,-5.720042425300001,-6.811169530899999,4.1563328562,982
165993,206912,261072,-5.720042425300001,-6.811169530899999,4.1563328562,983
166039,206884,261160,-5.720042425300001,-6.811169530899999,4.1563328562,984
166056,206942,261183,-5.720042425300001,-6.811169530899999,4.1563328562,985
166161,207009,261208,-5.720042425300001,-6.811169530899999,4.1563328562,986
166225,207018,261232,-5.720042425300001,-6.811169530899999,4.1563328562,987
166326,207054,261263,-5.720042425300001,-6.811169530899999,4.1563328562,988
166401,207120,261273,-5.720042425300001,-6.811169530899999,4.1563328562,989
166531,207145,261308,-5.720042425300001,-6.811169530899999,4.1563328562,990
166613,207219,261374,-5.720042425300001,-6.811169530899999,4.1563328562,991
166551,207217,261413,-5.720042425300001,-6.811169530899999,4.1563328562,992
166194,207066,261311,-5.720042425300001,-6.811169530899999,4.1563328562,993
165840,206979,261236,-5.720042425300001,-6.811169530899999,4.1563328562,994
165655,206929,261160,-5.720042425300001,-6.811169530899999,4.1563328562,995
165608,206810,261105,-5.720042425300001,-6.811169530899999,4.1563328562,996
165619,206793,261062,-5.720042425300001,-6.811169530899999,4.1563328562,997
165682,206783,261101,-5.720042425300001,-6.811169530899999,4.1563328562,998
165837,206801,261124,-5.720042425300001,-6.811169530899999,4.1563328562,999
165952,206882,261124,-5.720042425300001,-6.811169530899999,4.1563328562,1000
166006,206902,261159,-5.720042425300001,-6.811169530899999,4.1563328562,1001
166004,206927,261148,-5.720042425300001,-6.811169530899999,4.1563328562,1002
166063,206915,261177,-5.720042425300001,-6.811169530899999,4.1563328562,1003
166090,206910,261162,-5.720042425300001,-6.811169530899999,4.1563328562,1004
166157,206984,261151,-5.720042425300001,-6.811169530899999,4.1563328562,1005
166293,207023,261171,-5.720042425300001,-6.811169530899999,4.1563328562,1006
166397,207060,261230,-5.720042425300001,-6.811169530899999,4.1563328562,1007
166474,207105,261240,-5.720042425300001,-6.811169530899999,4.1563328562,1008
166295,206912,261099,-5.6973106106,-6.6963140460999995,4.2065821308,1009
166394,206961,261119,-5.6973106106,-6.6963140460999995,4.2065821308,1010
166376,206966,261130,-5.6973106106,-6.6963140460999995,4.2065821308,1011
166007,206856,261070,-5.6973106106,-6.6963140460999995,4.2065821308,1012
165644,206778,260989,-5.6973106106,-6.6963140460999995,4.2065821308,1013
165456,206620,260910,-5.6973106106,-6.6963140460999995,4.2065821308,1014
165364,206574,260809,-5.6973106106,-6.6963140460999995,4.2065821308,1015
165411,206496,260839,-5.6973106106,-6.6963140460999995,4.2065821308,1016
165447,206502,260771,-5.6973106106,-6.6963140460999995,4.2065821308,1017
165596,206557,260799,-5.6973106106,-6.6963140460999995,4.2065821308,1018
165766,206624,260868,-5.6973106106,-6.6963140460999995,4.2065821308,1019
165828,206671,260880,-5.6973106106,-6.6963140460999995,4.2065821308,1020
165885,206683,260947,-5.6973106106,-6.6963140460999995,4.2065821308,1021
165917,206727,260926,-5.6973106106,-6.6963140460999995,4.2065821308,1022
165990,206715,260850,-5.6973106106,-6.6963140460999995,4.2065821308,1023
166059,206747,260953,-5.6973106106,-6.6963140460999995,4.2065821308,1024
166129,206801,260894,-5.6973106106,-6.6963140460999995,4.2065821308,1025
166290,206762,260861,-5.6973106106,-6.6963140460999995,4.2065821308,1026
166357,206829,261009,-5.6973106106,-6.6963140460999995,4.2065821308,1027
166426,206870,261004,-5.6973106106,-6.6963140460999995,4.2065821308,1028
166387,206843,261033,-5.6973106106,-6.6963140460999995,4.2065821308,1029
165970,206771,260972,-5.6973106106,-6.6963140460999995,4.2065821308,1030
165610,206650,260873,-5.6973106106,-6.6963140460999995,4.2065821308,1031
165438,206501,260822,-5.6973106106,-6.6963140460999995,4.2065821308,1032
165393,206394,260726,-5.6973106106,-6.6963140460999995,4.2065821308,1033
165400,206385,260683,-5.6973106106,-6.6963140460999995,4.2065821308,1034
165508,206418,260716,-5.6973106106,-6.6963140460999995,4.2065821308,1035
165593,206398,260679,-5.6973106106,-6.6963140460999995,4.2065821308,1036
165763,206531,260762,-5.6973106106,-6.6963140460999995,4.2065821308,1037
165818,206492,260806,-5.6973106106,-6.6963140460999995,4.2065821308,1038
165847,206522,260803,-5.6973106106,-6.6963140460999995,4.2065821308,1039
165862,206564,260742,-5.6973106106,-6.6963140460999995,4.2065821308,1040
165926,206557,260814,-5.6973106106,-6.6963140460999995,4.2065821308,1041
166017,206583,260810,-5.6973106106,-6.6963140460999995,4.2065821308,1042
166104,206639,260832,-5.6973106106,-6.6963140460999995,4.2065821308,1043
166225,206652,260809,-5.6973106106,-6.6963140460999995,4.2065821308,1044
166293,206717,260926,-5.6973106106,-6.6963140460999995,4.2065821308,1045
166392,206745,260907,-5.6973106106,-6.6963140460999995,4.2065821308,1046
166342,206762,260971,-5.6973106106,-6.6963140460999995,4.2065821308,1047
165990,206672,260948,-5.6973106106,-6.6963140460999995,4.2065821308,1048
165633,206531,260854,-5.6973106106,-6.6963140460999995,4.2065821308,1049
165481,206469,260788,-5.6973106106,-6.6963140460999995,4.2065821308,1050
165405,206374,260620,-5.587240771,-6.7046889252,4.1587256788,1051
165333,206276,260553,-5.587240771,-6.7046889252,4.1587256788,1052
165321,206269,260526,-5.587240771,-6.7046889252,4.1587256788,1053
165393,206269,260531,-5.587240771,-6.7046889252,4.1587256788,1054
165572,206333,260602,-5.587240771,-6.7046889252,4.1587256788,1055
165750,206412,260676,-5.587240771,-6.7046889252,4.1587256788,1056
165798,206411,260728,-5.587240771,-6.7046889252,4.1587256788,1057
165837,206384,260718,-5.587240771,-6.7046889252,4.1587256788,1058
165858,206454,260721,-5.587240771,-6.7046889252,4.1587256788,1059
165896,206442,260663,-5.587240771,-6.7046889252,4.1587256788,1060
166019,206464,260687,-5.587240771,-6.7046889252,4.1587256788,1061
166042,206504,260673,-5.587240771,-6.7046889252,4.1587256788,1062
166199,206534,260742,-5.587240771,-6.7046889252,4.1587256788,1063
166290,206629,260798,-5.587240771,-6.7046889252,4.1587256788,1064
166368,206685,260783,-5.587240771,-6.7046889252,4.1587256788,1065
166418,206638,260832,-5.587240771,-6.7046889252,4.1587256788,1066
166289,206641,260786,-5.587240771,-6.7046889252,4.1587256788,1067
165909,206559,260731,-5.587240771,-6.7046889252,4.1587256788,1068
165597,206443,260751,-5.587240771,-6.7046889252,4.1587256788,1069
165478,206329,260663,-5.587240771,-6.7046889252,4.1587256788,1070
165502,206336,260649,-5.587240771,-6.7046889252,4.1587256788,1071
165563,206295,260626,-5.587240771,-6.7046889252,4.1587256788,1072
165642,206341,260684,-5.587240771,-6.7046889252,4.1587256788,1073
165812,206363,260634,-5.587240771,-6.7046889252,4.1587256788,1074
165945,206437,260666,-5.587240771,-6.7046889252,4.1587256788,1075
165979,206465,260686,-5.587240771,-6.7046889252,4.1587256788,1076
166006,206476,260672,-5.587240771,-6.7046889252,4.1587256788,1077
166033,206472,260647,-5.587240771,-6.7046889252,4.1587256788,1078
166143,206506,260767,-5.587240771,-6.7046889252,4.1587256788,1079
166185,206543,260749,-5.587240771,-6.7046889252,4.1587256788,1080
166269,206576,260731,-5.587240771,-6.7046889252,4.1587256788,1081
166355,206606,260820,-5.587240771,-6.7046889252,4.1587256788,1082
166464,206703,260853,-5.587240771,-6.7046889252,4.1587256788,1083
166526,206681,260850,-5.587240771,-6.7046889252,4.1587256788,1084
166431,206725,260846,-5.587240771,-6.7046889252,4.1587256788,1085
166110,206599,260845,-5.587240771,-6.7046889252,4.1587256788,1086
165731,206494,260744,-5.587240771,-6.7046889252,4.1587256788,1087
165626,206411,260692,-5.587240771,-6.7046889252,4.1587256788,1088
165591,206348,260697,-5.587240771,-6.7046889252,4.1587256788,1089
165590,206374,260691,-5.587240771,-6.7046889252,4.1587256788,1090
165709,206376,260655,-5.587240771,-6.7046889252,4.1587256788,1091
165801,206398,260675,-5.587240771,-6.7046889252,4.1587256788,1092
166456,206589,260773,-5.541777141600001,-6.831508523,4.2041893082,1093
166107,206508,260768,-5.541777141600001,-6.831508523,4.2041893082,1094
165728,206413,260715,-5.541777141600001,-6.831508523,4.2041893082,1095
165549,206300,260669,-5.541777141600001,-6.831508523,4.2041893082,1096
165510,206209,260593,-5.541777141600001,-6.831508523,4.2041893082,1097
165507,206222,260603,-5.541777141600001,-6.831508523,4.2041893082,1098
165587,206233,260629,-5.541777141600001,-6.831508523,4.2041893082,1099
165735,206261,260592,-5.541777141600001,-6.831508523,4.2041893082,1100
165890,206313,260629,-5.541777141600001,-6.831508523,4.2041893082,1101
165931,206351,260655,-5.541777141600001,-6.831508523,4.2041893082,1102
165940,206341,260666,-5.541777141600001,-6.831508523,4.2041893082,1103
165933,206340,260628,-5.541777141600001,-6.831508523,4.2041893082,1104
166049,206349,260730,-5.541777141600001,-6.831508523,4.2041893082,1105
166121,206407,260697,-5.541777141600001,-6.831508523,4.2041893082,1106
166201,206444,260700,-5.541777141600001,-6.831508523,4.2041893082,1107
166250,206445,260716,-5.541777141600001,-6.831508523,4.2041893082,1108
166372,206518,260719,-5.541777141600001,-6.831508523,4.2041893082,1109
166463,206592,260746,-5.541777141600001,-6.831508523,4.2041893082,1110
166550,206640,260833,-5.541777141600001,-6.831508523,4.2041893082,1111
166593,206632,260863,-5.541777141600001,-6.831508523,4.2041893082,1112
166400,206573,260798,-5.541777141600001,-6.831508523,4.2041893082,1113
165960,206485,260759,-5.541777141600001,-6.831508523,4.2041893082,1114
165666,206350,260716,-5.541777141600001,-6.831508523,4.2041893082,1115
165622,206261,260577,-5.541777141600001,-6.831508523,4.2041893082,1116
165616,206191,260542,-5.541777141600001,-6.831508523,4.2041893082,1117
165679,206240,260557,-5.541777141600001,-6.831508523,4.2041893082,1118
165812,206247,260570,-5.541777141600001,-6.831508523,4.2041893082,1119
165921,206292,260586,-5.541777141600001,-6.831508523,4.2041893082,1120
166001,206361,260638,-5.541777141600001,-6.831508523,4.2041893082,1121
166038,206350,260674,-5.541777141600001,-6.831508523,4.2041893082,1122
166114,206342,260622,-5.541777141600001,-6.831508523,4.2041893082,1123
166127,206397,260626,-5.541777141600001,-6.831508523,4.2041893082,1124
166187,206392,260671,-5.541777141600001,-6.831508523,4.2041893082,1125
166242,206388,260629,-5.541777141600001,-6.831508523,4.2041893082,1126
166336,206434,260683,-5.541777141600001,-6.831508523,4.2041893082,1127
166427,206466,260652,-5.541777141600001,-6.831508523,4.2041893082,1128
166517,206496,260728,-5.541777141600001,-6.831508523,4.2041893082,1129
166587,206534,260801,-5.541777141600001,-6.831508523,4.2041893082,1130
166638,206568,260774,-5.541777141600001,-6.831508523,4.2041893082,1131
166709,206616,260823,-5.541777141600001,-6.831508523,4.2041893082,1132
166484,206565,260789,-5.541777141600001,-6.831508523,4.2041893082,1133
166062,206419,260711,-5.541777141600001,-6.831508523,4.2041893082,1134
165917,206906,260532,-5.6171510535,-6.7477597320000005,4.1611185014,1135
166034,207086,260566,-5.6171510535,-6.7477597320000005,4.1611185014,1136
166245,207229,260537,-5.6171510535,-6.7477597320000005,4.1611185014,1137
166331,207343,260609,-5.6171510535,-6.7477597320000005,4.1611185014,1138
166362,207450,260664,-5.6171510535,-6.7477597320000005,4.1611185014,1139
166431,207428,260697,-5.6171510535,-6.7477597320000005,4.1611185014,1140
166549,207259,260727,-5.6171510535,-6.7477597320000005,4.1611185014,1141
166620,207005,260809,-5.6171510535,-6.7477597320000005,4.1611185014,1142
166692,206857,260794,-5.6171510535,-6.7477597320000005,4.1611185014,1143
166744,206785,260818,-5.6171510535,-6.7477597320000005,4.1611185014,1144
166817,206765,260884,-5.6171510535,-6.7477597320000005,4.1611185014,1145
166891,206800,260908,-5.6171510535,-6.7477597320000005,4.1611185014,1146
167047,206889,261031,-5.6171510535,-6.7477597320000005,4.1611185014,1147
167153,207017,261056,-5.6171510535,-6.7477597320000005,4.1611185014,1148
167174,206997,261112,-5.6171510535,-6.7477597320000005,4.1611185014,1149
166896,206826,261055,-5.6171510535,-6.7477597320000005,4.1611185014,1150
166551,206671,260912,-5.6171510535,-6.7477597320000005,4.1611185014,1151
166339,206485,260704,-5.6171510535,-6.7477597320000005,4.1611185014,1152
166178,206335,260604,-5.6171510535,-6.7477597320000005,4.1611185014,1153
166149,206260,260630,-5.6171510535,-6.7477597320000005,4.1611185014,1154
166217,206208,260521,-5.6171510535,-6.7477597320000005,4.1611185014,1155
166281,206235,260543,-5.6171510535,-6.7477597320000005,4.1611185014,1156
166376,206239,260599,-5.6171510535,-6.7477597320000005,4.1611185014,1157
166393,206236,260551,-5.6171510535,-6.7477597320000005,4.1611185014,1158
166434,206255,260595,-5.6171510535,-6.7477597320000005,4.1611185014,1159
166426,206222,260620,-5.6171510535,-6.7477597320000005,4.1611185014,1160
166439,206265,260591,-5.6171510535,-6.7477597320000005,4.1611185014,1161
166508,206302,260620,-5.6171510535,-6.7477597320000005,4.1611185014,1162
166593,206334,260625,-5.6171510535,-6.7477597320000005,4.1611185014,1163
166666,206293,260649,-5.6171510535,-6.7477597320000005,4.1611185014,1164
166697,206346,260668,-5.6171510535,-6.7477597320000005,4.1611185014,1165
166792,206437,260712,-5.6171510535,-6.7477597320000005,4.1611185014,1166
166862,206453,260745,-5.6171510535,-6.7477597320000005,4.1611185014,1167
166923,206494,260728,-5.6171510535,-6.7477597320000005,4.1611185014,1168
166817,206460,260715,-5.6171510535,-6.7477597320000005,4.1611185014,1169
166403,206348,260733,-5.6171510535,-6.7477597320000005,4.1611185014,1170
166064,206217,260594,-5.6171510535,-6.7477597320000005,4.1611185014,1171
165897,206064,260466,-5.6171510535,-6.7477597320000005,4.1611185014,1172
165856,205933,260426,-5.6171510535,-6.7477597320000005,4.1611185014,1173
165833,205909,260411,-5.6171510535,-6.7477597320000005,4.1611185014,1174
165929,205940,260390,-5.6171510535,-6.7477597320000005,4.1611185014,1175
166023,205975,260422,-5.6171510535,-6.7477597320000005,4.1611185014,1176
166217,205720,260187,-5.538187907699999,-6.831508523,4.1659041466,1177
166182,205626,260122,-5.538187907699999,-6.831508523,4.1659041466,1178
166199,205668,260126,-5.538187907699999,-6.831508523,4.1659041466,1179
166242,205731,260204,-5.538187907699999,-6.831508523,4.1659041466,1180
166374,205830,260281,-5.538187907699999,-6.831508523,4.1659041466,1181
166428,205792,260278,-5.538187907699999,-6.831508523,4.1659041466,1182
166458,205839,260307,-5.538187907699999,-6.831508523,4.1659041466,1183
166552,205919,260303,-5.538187907699999,-6.831508523,4.1659041466,1184
166659,206002,260370,-5.538187907699999,-6.831508523,4.1659041466,1185
166692,206012,260425,-5.538187907699999,-6.831508523,4.1659041466,1186
166354,205975,260416,-5.538187907699999,-6.831508523,4.1659041466,1187
166033,205864,260368,-5.538187907699999,-6.831508523,4.1659041466,1188
165891,205749,260264,-5.538187907699999,-6.831508523,4.1659041466,1189
165845,205674,260246,-5.538187907699999,-6.831508523,4.1659041466,1190
165799,205615,260166,-5.538187907699999,-6.831508523,4.1659041466,1191
165869,205589,260130,-5.538187907699999,-6.831508523,4.1659041466,1192
165954,205642,260133,-5.538187907699999,-6.831508523,4.1659041466,1193
166068,205681,260170,-5.538187907699999,-6.831508523,4.1659041466,1194
166143,205731,260216,-5.538187907699999,-6.831508523,4.1659041466,1195
166196,205780,260218,-5.538187907699999,-6.831508523,4.1659041466,1196
166234,205798,260241,-5.538187907699999,-6.831508523,4.1659041466,1197
166257,205766,260256,-5.538187907699999,-6.831508523,4.1659041466,1198
166322,205821,260249,-5.538187907699999,-6.831508523,4.1659041466,1199
166400,205826,260266,-5.538187907699999,-6.831508523,4.1659041466,1200
166461,205853,260277,-5.538187907699999,-6.831508523,4.1659041466,1201
166580,205930,260257,-5.538187907699999,-6.831508523,4.1659041466,1202
166659,206026,260371,-5.538187907699999,-6.831508523,4.1659041466,1203
166713,206034,260404,-5.538187907699999,-6.831508523,4.1659041466,1204
166561,205975,260316,-5.538187907699999,-6.831508523,4.1659041466,1205
166254,205902,260285,-5.538187907699999,-6.831508523,4.1659041466,1206
165995,205780,260195,-5.538187907699999,-6.831508523,4.1659041466,1207
165894,205684,260183,-5.538187907699999,-6.831508523,4.1659041466,1208
165919,205604,260051,-5.538187907699999,-6.831508523,4.1659041466,1209
165906,205593,260077,-5.538187907699999,-6.831508523,4.1659041466,1210
165974,205607,260052,-5.538187907699999,-6.831508523,4.1659041466,1211
166152,205664,260114,-5.538187907699999,-6.831508523,4.1659041466,1212
166249,205725,260116,-5.538187907699999,-6.831508523,4.1659041466,1213
166323,205797,260174,-5.538187907699999,-6.831508523,4.1659041466,1214
166384,205831,260247,-5.538187907699999,-6.831508523,4.1659041466,1215
166467,205923,260232,-5.538187907699999,-6.831508523,4.1659041466,1216
166532,205944,260287,-5.538187907699999,-6.831508523,4.1659041466,1217
166608,205951,260346,-5.538187907699999,-6.831508523,4.1659041466,1218
166093,205644,260061,-5.5190453269,-6.820740821299999,4.175475436999999,1219
166223,205717,260126,-5.5190453269,-6.820740821299999,4.175475436999999,1220
166365,205774,260164,-5.5190453269,-6.820740821299999,4.175475436999999,1221
166446,205803,260286,-5.5190453269,-6.820740821299999,4.175475436999999,1222
166486,205845,260146,-5.5190453269,-6.820740821299999,4.175475436999999,1223
166489,205782,260121,-5.5190453269,-6.820740821299999,4.175475436999999,1224
166468,205777,260142,-5.5190453269,-6.820740821299999,4.175475436999999,1225
166511,205785,260213,-5.5190453269,-6.820740821299999,4.175475436999999,1226
166585,205781,260197,-5.5190453269,-6.820740821299999,4.175475436999999,1227
166661,205861,260269,-5.5190453269,-6.820740821299999,4.175475436999999,1228
166760,205883,260214,-5.5190453269,-6.820740821299999,4.175475436999999,1229
166826,205954,260292,-5.5190453269,-6.820740821299999,4.175475436999999,1230
166814,205967,260260,-5.5190453269,-6.820740821299999,4.175475436999999,1231
166492,205832,260202,-5.5190453269,-6.820740821299999,4.175475436999999,1232
166125,205703,260133,-5.5190453269,-6.820740821299999,4.175475436999999,1233
165917,205571,260045,-5.5190453269,-6.820740821299999,4.175475436999999,1234
165859,205445,259963,-5.5190453269,-6.820740821299999,4.175475436999999,1235
165830,205403,259961,-5.5190453269,-6.820740821299999,4.175475436999999,1236
165839,205371,259917,-5.5190453269,-6.820740821299999,4.175475436999999,1237
165978,205426,259993,-5.5190453269,-6.820740821299999,4.175475436999999,1238
166048,205478,259948,-5.5190453269,-6.820740821299999,4.175475436999999,1239
166139,205569,259980,-5.5190453269,-6.820740821299999,4.175475436999999,1240
166165,205608,260013,-5.5190453269,-6.820740821299999,4.175475436999999,1241
166207,205632,260038,-5.5190453269,-6.820740821299999,4.175475436999999,1242
166285,205636,260115,-5.5190453269,-6.820740821299999,4.175475436999999,1243
166315,205627,260096,-5.5190453269,-6.820740821299999,4.175475436999999,1244
166384,205667,260042,-5.5190453269,-6.820740821299999,4.175475436999999,1245
166433,205667,260040,-5.5190453269,-6.820740821299999,4.175475436999999,1246
166463,205684,260156,-5.5190453269,-6.820740821299999,4.175475436999999,1247
166546,205730,260134,-5.5190453269,-6.820740821299999,4.175475436999999,1248
166405,205696,260092,-5.5190453269,-6.820740821299999,4.175475436999999,1249
165984,205561,260047,-5.5190453269,-6.820740821299999,4.175475436999999,1250
165725,205456,259985,-5.5190453269,-6.820740821299999,4.175475436999999,1251
165630,205370,259980,-5.5190453269,-6.820740821299999,4.175475436999999,1252
165534,205297,259870,-5.5190453269,-6.820740821299999,4.175475436999999,1253
165576,205291,259874,-5.5190453269,-6.820740821299999,4.175475436999999,1254
165608,205355,259912,-5.5190453269,-6.820740821299999,4.175475436999999,1255
165754,205389,259950,-5.5190453269,-6.820740821299999,4.175475436999999,1256
165851,205466,259959,-5.5190453269,-6.820740821299999,4.175475436999999,1257
165875,205474,259964,-5.5190453269,-6.820740821299999,4.175475436999999,1258
165903,205507,259960,-5.5190453269,-6.820740821299999,4.175475436999999,1259
165931,205500,259979,-5.5190453269,-6.820740821299999,4.175475436999999,1260
165265,205336,259827,-5.6638110942,-6.8027946518,4.2137605985999995,1261
165263,205221,259839,-5.6638110942,-6.8027946518,4.2137605985999995,1262
165259,205276,259767,-5.6638110942,-6.8027946518,4.2137605985999995,1263
165357,205276,259775,-5.6638110942,-6.8027946518,4.2137605985999995,1264
165500,205315,259828,-5.6638110942,-6.8027946518,4.2137605985999995,1265
165556,205370,259867,-5.6638110942,-6.8027946518,4.2137605985999995,1266
165583,205362,259844,-5.6638110942,-6.8027946518,4.2137605985999995,1267
165594,205375,259853,-5.6638110942,-6.8027946518,4.2137605985999995,1268
165659,205379,259839,-5.6638110942,-6.8027946518,4.2137605985999995,1269
165727,205405,259891,-5.6638110942,-6.8027946518,4.2137605985999995,1270
165793,205457,259959,-5.6638110942,-6.8027946518,4.2137605985999995,1271
165904,205470,259914,-5.6638110942,-6.8027946518,4.2137605985999995,1272
165981,205554,259931,-5.6638110942,-6.8027946518,4.2137605985999995,1273
166073,205562,259941,-5.6638110942,-6.8027946518,4.2137605985999995,1274
166076,205567,259917,-5.6638110942,-6.8027946518,4.2137605985999995,1275
166007,205526,259896,-5.6638110942,-6.8027946518,4.2137605985999995,1276
165556,205398,259817,-5.6638110942,-6.8027946518,4.2137605985999995,1277
165164,205225,259728,-5.6638110942,-6.8027946518,4.2137605985999995,1278
165000,205130,259704,-5.6638110942,-6.8027946518,4.2137605985999995,1279
164896,205084,259632,-5.6638110942,-6.8027946518,4.2137605985999995,1280
164915,205118,259656,-5.6638110942,-6.8027946518,4.2137605985999995,1281
164991,205163,259712,-5.6638110942,-6.8027946518,4.2137605985999995,1282
165138,205167,259716,-5.6638110942,-6.8027946518,4.2137605985999995,1283
165245,205242,259727,-5.6638110942,-6.8027946518,4.2137605985999995,1284
165280,205271,259744,-5.6638110942,-6.8027946518,4.2137605985999995,1285
165317,205286,259731,-5.6638110942,-6.8027946518,4.2137605985999995,1286
165334,205311,259828,-5.6638110942,-6.8027946518,4.2137605985999995,1287
165387,205336,259759,-5.6638110942,-6.8027946518,4.2137605985999995,1288
165498,205293,259750,-5.6638110942,-6.8027946518,4.2137605985999995,1289
165566,205396,259815,-5.6638110942,-6.8027946518,4.2137605985999995,1290
165603,205404,259849,-5.6638110942,-6.8027946518,4.2137605985999995,1291
165717,205435,259893,-5.6638110942,-6.8027946518,4.2137605985999995,1292
165791,205462,259873,-5.4951171009,-6.6975104574,4.1802610821999995,1293
165853,205467,259881,-5.4951171009,-6.6975104574,4.1802610821999995,1294
165638,205496,259906,-5.4951171009,-6.6975104574,4.1802610821999995,1295
165181,205385,259779,-5.4951171009,-6.6975104574,4.1802610821999995,1296
164965,205368,259816,-5.4951171009,-6.6975104574,4.1802610821999995,1297
164869,205263,259785,-5.4951171009,-6.6975104574,4.1802610821999995,1298
164829,205264,259866,-5.4951171009,-6.6975104574,4.1802610821999995,1299
164938,205325,259877,-5.4951171009,-6.6975104574,4.1802610821999995,1300
165065,205384,259910,-5.4951171009,-6.6975104574,4.1802610821999995,1301
165216,205444,259916,-5.4951171009,-6.6975104574,4.1802610821999995,1302
165287,205474,259913,-5.4951171009,-6.6975104574,4.1802610821999995,1303
165325,205495,259914,-5.4951171009,-6.6975104574,4.1802610821999995,1304
165385,205464,259958,-5.4951171009,-6.6975104574,4.1802610821999995,1305
165350,205484,259915,-5.4951171009,-6.6975104574,4.1802610821999995,1306
165470,205549,259938,-5.4951171009,-6.6975104574,4.1802610821999995,1307
165567,205536,259949,-5.4951171009,-6.6975104574,4.1802610821999995,1308
165635,205564,260010,-5.4951171009,-6.6975104574,4.1802610821999995,1309
165693,205591,259952,-5.4951171009,-6.6975104574,4.1802610821999995,1310
165761,205600,259977,-5.4951171009,-6.6975104574,4.1802610821999995,1311
165829,205681,259950,-5.4951171009,-6.6975104574,4.1802610821999995,1312
165758,205609,259993,-5.4951171009,-6.6975104574,4.1802610821999995,1313
165356,205582,259933,-5.4951171009,-6.6975104574,4.1802610821999995,1314
164954,205488,259877,-5.4951171009,-6.6975104574,4.1802610821999995,1315
164712,205409,259895,-5.4951171009,-6.6975104574,4.1802610821999995,1316
164625,205320,259863,-5.4951171009,-6.6975104574,4.1802610821999995,1317
164576,205302,259830,-5.4951171009,-6.6975104574,4.1802610821999995,1318
164633,205355,259886,-5.4951171009,-6.6975104574,4.1802610821999995,1319
164791,205361,259899,-5.4951171009,-6.6975104574,4.1802610821999995,1320
164913,205416,259884,-5.4951171009,-6.6975104574,4.1802610821999995,1321
164952,205406,259918,-5.4951171009,-6.6975104574,4.1802610821999995,1322
164960,205379,259843,-5.4951171009,-6.6975104574,4.1802610821999995,1323
165012,205420,259821,-5.4951171009,-6.6975104574,4.1802610821999995,1324
165052,205468,259903,-5.4951171009,-6.6975104574,4.1802610821999995,1325
165135,205422,259849,-5.4951171009,-6.6975104574,4.1802610821999995,1326
165217,205462,259874,-5.4951171009,-6.6975104574,4.1802610821999995,1327
165310,205461,259892,-5.4951171009,-6.6975104574,4.1802610821999995,1328
165393,205432,259900,-5.4951171009,-6.6975104574,4.1802610821999995,1329
165418,205438,259923,-5.4951171009,-6.6975104574,4.1802610821999995,1330
165515,205482,259912,-5.4951171009,-6.6975104574,4.1802610821999995,1331
165552,205518,259970,-5.4951171009,-6.6975104574,4.1802610821999995,1332
165441,205487,259910,-5.4951171009,-6.6975104574,4.1802610821999995,1333
164956,205398,259881,-5.4951171009,-6.6975104574,4.1802610821999995,1334
164741,205382,259837,-5.6075797630999995,-6.798009006599999,4.2245283003,1335
164766,205405,259841,-5.6075797630999995,-6.798009006599999,4.2245283003,1336
164823,205400,259827,-5.6075797630999995,-6.798009006599999,4.2245283003,1337
164889,205448,259869,-5.6075797630999995,-6.798009006599999,4.2245283003,1338
164968,205478,259814,-5.6075797630999995,-6.798009006599999,4.2245283003,1339
165067,205523,259917,-5.6075797630999995,-6.798009006599999,4.2245283003,1340
165144,205504,259842,-5.6075797630999995,-6.798009006599999,4.2245283003,1341
165247,205558,259864,-5.6075797630999995,-6.798009006599999,4.2245283003,1342
165323,205563,259900,-5.6075797630999995,-6.798009006599999,4.2245283003,1343
165400,205591,259900,-5.6075797630999995,-6.798009006599999,4.2245283003,1344
165429,205637,259894,-5.6075797630999995,-6.798009006599999,4.2245283003,1345
165150,205603,259950,-5.6075797630999995,-6.798009006599999,4.2245283003,1346
164635,205512,259907,-5.6075797630999995,-6.798009006599999,4.2245283003,1347
164404,205430,259889,-5.6075797630999995,-6.798009006599999,4.2245283003,1348
164343,205409,259880,-5.6075797630999995,-6.798009006599999,4.2245283003,1349
164366,205355,259819,-5.6075797630999995,-6.798009006599999,4.2245283003,1350
164424,205395,259895,-5.6075797630999995,-6.798009006599999,4.2245283003,1351
164570,205453,259864,-5.6075797630999995,-6.798009006599999,4.2245283003,1352
164743,205504,259886,-5.6075797630999995,-6.798009006599999,4.2245283003,1353
164817,205506,259924,-5.6075797630999995,-6.798009006599999,4.2245283003,1354
164868,205532,259949,-5.6075797630999995,-6.798009006599999,4.2245283003,1355
164867,205541,259932,-5.6075797630999995,-6.798009006599999,4.2245283003,1356
164940,205547,259963,-5.6075797630999995,-6.798009006599999,4.2245283003,1357
165031,205616,260016,-5.6075797630999995,-6.798009006599999,4.2245283003,1358
165136,205626,259932,-5.6075797630999995,-6.798009006599999,4.2245283003,1359
165228,205638,260025,-5.6075797630999995,-6.798009006599999,4.2245283003,1360
165295,205648,260039,-5.6075797630999995,-6.798009006599999,4.2245283003,1361
165377,205701,260038,-5.6075797630999995,-6.798009006599999,4.2245283003,1362
165462,205730,260116,-5.6075797630999995,-6.798009006599999,4.2245283003,1363
165531,205796,260119,-5.6075797630999995,-6.798009006599999,4.2245283003,1364
165387,205738,260044,-5.6075797630999995,-6.798009006599999,4.2245283003,1365
164904,205693,260195,-5.6075797630999995,-6.798009006599999,4.2245283003,1366
164523,205598,259990,-5.6075797630999995,-6.798009006599999,4.2245283003,1367
164386,205553,259975,-5.6075797630999995,-6.798009006599999,4.2245283003,1368
164343,205459,259964,-5.6075797630999995,-6.798009006599999,4.2245283003,1369
164379,205469,259902,-5.6075797630999995,-6.798009006599999,4.2245283003,1370
164439,205481,259918,-5.6075797630999995,-6.798009006599999,4.2245283003,1371
164576,205508,259896,-5.6075797630999995,-6.798009006599999,4.2245283003,1372
164673,205514,259947,-5.6075797630999995,-6.798009006599999,4.2245283003,1373
164678,205517,259860,-5.6075797630999995,-6.798009006599999,4.2245283003,1374
164685,205512,259897,-5.6075797630999995,-6.798009006599999,4.2245283003,1375
164725,205494,259884,-5.6075797630999995,-6.798009006599999,4.2245283003,1376
165156,205618,260009,-5.5058848026,-6.6508504167,4.1922251952,1377
165222,205629,259977,-5.5058848026,-6.6508504167,4.1922251952,1378
165315,205639,259956,-5.5058848026,-6.6508504167,4.1922251952,1379
165427,205645,259972,-5.5058848026,-6.6508504167,4.1922251952,1380
165485,205689,260040,-5.5058848026,-6.6508504167,4.1922251952,1381
165586,205705,260047,-5.5058848026,-6.6508504167,4.1922251952,1382
165694,205743,260058,-5.5058848026,-6.6508504167,4.1922251952,1383
165753,205802,260065,-5.5058848026,-6.6508504167,4.1922251952,1384
165754,205841,260153,-5.5058848026,-6.6508504167,4.1922251952,1385
165430,205772,260117,-5.5058848026,-6.6508504167,4.1922251952,1386
165012,205652,260121,-5.5058848026,-6.6508504167,4.1922251952,1387
164832,205592,260021,-5.5058848026,-6.6508504167,4.1922251952,1388
164803,205539,260027,-5.5058848026,-6.6508504167,4.1922251952,1389
164789,205566,260017,-5.5058848026,-6.6508504167,4.1922251952,1390
164912,205556,259983,-5.5058848026,-6.6508504167,4.1922251952,1391
164996,205558,259986,-5.5058848026,-6.6508504167,4.1922251952,1392
165105,205552,259965,-5.5058848026,-6.6508504167,4.1922251952,1393
165134,205537,259954,-5.5058848026,-6.6508504167,4.1922251952,1394
165142,205488,259971,-5.5058848026,-6.6508504167,4.1922251952,1395
165142,205438,259913,-5.5058848026,-6.6508504167,4.1922251952,1396
165117,205396,259874,-5.5058848026,-6.6508504167,4.1922251952,1397
165134,205429,259919,-5.5058848026,-6.6508504167,4.1922251952,1398
165256,205474,259908,-5.5058848026,-6.6508504167,4.1922251952,1399
165392,205571,259981,-5.5058848026,-6.6508504167,4.1922251952,1400
165481,205636,260015,-5.5058848026,-6.6508504167,4.1922251952,1401
165573,205678,260010,-5.5058848026,-6.6508504167,4.1922251952,1402
165711,205728,260042,-5.5058848026,-6.6508504167,4.1922251952,1403
165788,205762,260062,-5.5058848026,-6.6508504167,4.1922251952,1404
165783,205781,260093,-5.5058848026,-6.6508504167,4.1922251952,1405
165520,205730,260106,-5.5058848026,-6.6508504167,4.1922251952,1406
165082,205604,260038,-5.5058848026,-6.6508504167,4.1922251952,1407
164846,205517,259965,-5.5058848026,-6.6508504167,4.1922251952,1408
164765,205426,259875,-5.5058848026,-6.6508504167,4.1922251952,1409
164635,205294,259803,-5.5058848026,-6.6508504167,4.1922251952,1410
164543,205151,259683,-5.5058848026,-6.6508504167,4.1922251952,1411
164463,205050,259560,-5.5058848026,-6.6508504167,4.1922251952,1412
164470,205008,259527,-5.5058848026,-6.6508504167,4.1922251952,1413
164518,205043,259557,-5.5058848026,-6.6508504167,4.1922251952,1414
164636,205161,259708,-5.5058848026,-6.6508504167,4.1922251952,1415
164784,205359,259843,-5.5058848026,-6.6508504167,4.1922251952,1416
164886,205393,259882,-5.5058848026,-6.6508504167,4.1922251952,1417
164987,205487,259905,-5.5058848026,-6.6508504167,4.1922251952,1418
165586,205549,260078,-5.5226345608,-6.8267228778,4.2747775749,1419
165380,205491,260020,-5.5226345608,-6.8267228778,4.2747775749,1420
165312,205430,259949,-5.5226345608,-6.8267228778,4.2747775749,1421
165263,205408,259904,-5.5226345608,-6.8267228778,4.2747775749,1422
165377,205390,259945,-5.5226345608,-6.8267228778,4.2747775749,1423
165438,205377,259897,-5.5226345608,-6.8267228778,4.2747775749,1424
165563,205445,259980,-5.5226345608,-6.8267228778,4.2747775749,1425
165631,205444,260035,-5.6039905292,-6.6652073523,4.1778682596,1426
165700,205436,259982,-5.6039905292,-6.6652073523,4.1778682596,1427
165700,205423,260024,-5.6039905292,-6.6652073523,4.1778682596,1428
165757,205428,260032,-5.6039905292,-6.6652073523,4.1778682596,1429
165773,205455,259997,-5.6039905292,-6.6652073523,4.1778682596,1430
165851,205489,260032,-5.6039905292,-6.6652073523,4.1778682596,1431
165911,205500,260066,-5.6039905292,-6.6652073523,4.1778682596,1432
166008,205526,260054,-5.6039905292,-6.6652073523,4.1778682596,1433
166099,205583,260033,-5.6039905292,-6.6652073523,4.1778682596,1434
166183,205663,260144,-5.6039905292,-6.6652073523,4.1778682596,1435
166260,205638,260121,-5.6039905292,-6.6652073523,4.1778682596,1436
166304,205720,260094,-5.6039905292,-6.6652073523,4.1778682596,1437
166380,205735,260138,-5.649454158599999,-6.786044893600001,4.2508493489,1438
166400,205751,260203,-5.6135618196,-6.703492513900001,4.151547211,1439
166100,205703,260168,-5.5740802467,-6.8004018292,4.2257247116,1440
165707,205586,260103,-5.5118668590999995,-6.6951176348,4.163511324,1441
165505,205469,260079,-5.554937665900001,-6.7334027964,4.2209390664,1442
165442,205410,259972,-5.554937665900001,-6.7334027964,4.2209390664,1443
165480,205392,259963,-5.554937665900001,-6.7334027964,4.2209390664,1444
165508,205372,259984,-5.554937665900001,-6.7334027964,4.2209390664,1445
165618,205403,259962,-5.554937665900001,-6.7334027964,4.2209390664,1446
165719,205449,259978,-5.554937665900001,-6.7334027964,4.2209390664,1447
165791,205479,260029,-5.554937665900001,-6.7334027964,4.2209390664,1448
165856,205488,260007,-5.554937665900001,-6.7334027964,4.2209390664,1449
165854,205516,260004,-5.554937665900001,-6.7334027964,4.2209390664,1450
165878,205515,260117,-5.554937665900001,-6.7334027964,4.2209390664,1451
165965,205524,260045,-5.554937665900001,-6.7334027964,4.2209390664,1452
165981,205543,260116,-5.554937665900001,-6.7334027964,4.2209390664,1453
166091,205597,260037,-5.554937665900001,-6.7334027964,4.2209390664,1454
166163,205610,260079,-5.554937665900001,-6.7334027964,4.2209390664,1455
166242,205645,260123,-5.554937665900001,-6.7334027964,4.2209390664,1456
166296,205657,260125,-5.554937665900001,-6.7334027964,4.2209390664,1457
166396,205723,260126,-5.554937665900001,-6.7334027964,4.2209390664,1458
166473,205773,260180,-5.554937665900001,-6.7334027964,4.2209390664,1459
166529,205804,260198,-5.554937665900001,-6.7334027964,4.2209390664,1460
166469,205804,260164,-5.554937665900001,-6.7334027964,4.2209390664,1461
166094,205703,260225,-5.554937665900001,-6.7334027964,4.2209390664,1462
165779,205581,260127,-5.554937665900001,-6.7334027964,4.2209390664,1463
165604,205503,260033,-5.554937665900001,-6.7334027964,4.2209390664,1464
165614,205438,259988,-5.554937665900001,-6.7334027964,4.2209390664,1465
165687,205426,260063,-5.554937665900001,-6.7334027964,4.2209390664,1466
165758,205444,260035,-5.554937665900001,-6.7334027964,4.2209390664,1467
165883,205443,260018,-5.554937665900001,-6.7334027964,4.2209390664,1468
165925,205510,260080,-5.554937665900001,-6.7334027964,4.2209390664,1469
165995,205570,260083,-5.4939206895999995,-6.798009006599999,4.1371902754,1470
166022,205586,260052,-5.4939206895999995,-6.798009006599999,4.1371902754,1471
166061,205549,260080,-5.4939206895999995,-6.798009006599999,4.1371902754,1472
166103,205589,260028,-5.4939206895999995,-6.798009006599999,4.1371902754,1473
166124,205590,260059,-5.4939206895999995,-6.798009006599999,4.1371902754,1474
166215,205613,260095,-5.4939206895999995,-6.798009006599999,4.1371902754,1475
166314,205640,260044,-5.4939206895999995,-6.798009006599999,4.1371902754,1476
166351,205674,260109,-5.4939206895999995,-6.798009006599999,4.1371902754,1477
166434,205705,260141,-5.4939206895999995,-6.798009006599999,4.1371902754,1478
166527,205708,260182,-5.4939206895999995,-6.798009006599999,4.1371902754,1479
166585,205777,260208,-5.4939206895999995,-6.798009006599999,4.1371902754,1480
166625,205780,260165,-5.4939206895999995,-6.798009006599999,4.1371902754,1481
166607,205786,260201,-5.4939206895999995,-6.798009006599999,4.1371902754,1482
166402,205741,260153,-5.4939206895999995,-6.798009006599999,4.1371902754,1483
166019,205640,260096,-5.4939206895999995,-6.798009006599999,4.1371902754,1484
165787,205541,260064,-5.4939206895999995,-6.798009006599999,4.1371902754,1485
165768,205454,259976,-5.4939206895999995,-6.798009006599999,4.1371902754,1486
165790,205452,259983,-5.4939206895999995,-6.798009006599999,4.1371902754,1487
165830,205464,260004,-5.4939206895999995,-6.798009006599999,4.1371902754,1488
165973,205504,260061,-5.5202417382,-6.9212393704999995,4.2640098732,1489
166063,205541,260054,-5.5202417382,-6.9212393704999995,4.2640098732,1490
166189,205561,260050,-5.5202417382,-6.9212393704999995,4.2640098732,1491
166193,205584,260082,-5.5202417382,-6.9212393704999995,4.2640098732,1492
166221,205618,260086,-5.5202417382,-6.9212393704999995,4.2640098732,1493
166251,205581,260087,-5.5202417382,-6.9212393704999995,4.2640098732,1494
166294,205657,260171,-5.5202417382,-6.9212393704999995,4.2640098732,1495
166384,205674,260143,-5.5202417382,-6.9212393704999995,4.2640098732,1496
166440,205707,260179,-5.5202417382,-6.9212393704999995,4.2640098732,1497
166517,205730,260161,-5.5202417382,-6.9212393704999995,4.2640098732,1498
166601,205795,260177,-5.5202417382,-6.9212393704999995,4.2640098732,1499
166681,205841,260260,-5.5202417382,-6.9212393704999995,4.2640098732,1500
166741,205855,260299,-5.5202417382,-6.9212393704999995,4.2640098732,1501
166773,205857,260289,-5.5202417382,-6.9212393704999995,4.2640098732,1502
166549,205853,260260,-5.5202417382,-6.9212393704999995,4.2640098732,1503
166175,205676,260243,-5.5202417382,-6.9212393704999995,4.2640098732,1504
165933,205566,260098,-5.5202417382,-6.9212393704999995,4.2640098732,1505
165883,205520,260074,-5.5202417382,-6.9212393704999995,4.2640098732,1506
165895,205467,260045,-5.5202417382,-6.9212393704999995,4.2640098732,1507
165943,205474,260020,-5.5202417382,-6.9212393704999995,4.2640098732,1508
166011,205478,260017,-5.5202417382,-6.9212393704999995,4.2640098732,1509
166102,205505,260062,-5.5202417382,-6.9212393704999995,4.2640098732,1510
166195,205535,260030,-5.5202417382,-6.9212393704999995,4.2640098732,1511
166240,205563,259993,-5.5202417382,-6.9212393704999995,4.2640098732,1512
166258,205558,260100,-5.5202417382,-6.9212393704999995,4.2640098732,1513
166261,205586,260106,-5.5202417382,-6.9212393704999995,4.2640098732,1514
166315,205564,260087,-5.5202417382,-6.9212393704999995,4.2640098732,1515
166409,205601,260091,-5.5202417382,-6.9212393704999995,4.2640098732,1516
166460,205626,260114,-5.5202417382,-6.9212393704999995,4.2640098732,1517
166532,205670,260121,-5.5202417382,-6.9212393704999995,4.2640098732,1518
166563,205678,260092,-5.5202417382,-6.9212393704999995,4.2640098732,1519
166651,205730,260159,-5.5202417382,-6.9212393704999995,4.2640098732,1520
166712,205770,260162,-5.553741254599999,-6.8075802969999994,4.1024943476999995,1521
166754,205793,260166,-5.553741254599999,-6.8075802969999994,4.1024943476999995,1522
166510,205711,260210,-5.553741254599999,-6.8075802969999994,4.1024943476999995,1523
166153,205578,260078,-5.553741254599999,-6.8075802969999994,4.1024943476999995,1524
165900,205480,260079,-5.553741254599999,-6.8075802969999994,4.1024943476999995,1525
165840,205433,259980,-5.553741254599999,-6.8075802969999994,4.1024943476999995,1526
165814,205349,259966,-5.553741254599999,-6.8075802969999994,4.1024943476999995,1527
165866,205348,259969,-5.553741254599999,-6.8075802969999994,4.1024943476999995,1528
165926,205357,259899,-5.553741254599999,-6.8075802969999994,4.1024943476999995,1529
166052,205374,259989,-5.553741254599999,-6.8075802969999994,4.1024943476999995,1530
166131,205444,259966,-5.553741254599999,-6.8075802969999994,4.1024943476999995,1531
166193,205426,259999,-5.553741254599999,-6.8075802969999994,4.1024943476999995,1532
166192,205428,259966,-5.553741254599999,-6.8075802969999994,4.1024943476999995,1533
166218,205476,260011,-5.553741254599999,-6.8075802969999994,4.1024943476999995,1534
166229,205504,259991,-5.553741254599999,-6.8075802969999994,4.1024943476999995,1535
166346,205502,259983,-5.553741254599999,-6.8075802969999994,4.1024943476999995,1536
166414,205539,260017,-5.553741254599999,-6.8075802969999994,4.1024943476999995,1537
166471,205566,260019,-5.553741254599999,-6.8075802969999994,4.1024943476999995,1538
166555,205608,260030,-5.553741254599999,-6.8075802969999994,4.1024943476999995,1539
166566,205614,260056,-5.553741254599999,-6.8075802969999994,4.1024943476999995,1540
166673,205704,260110,-5.553741254599999,-6.8075802969999994,4.1024943476999995,1541
166727,205709,260140,-5.553741254599999,-6.8075802969999994,4.1024943476999995,1542
166705,205718,260132,-5.553741254599999,-6.8075802969999994,4.1024943476999995,1543
166336,205633,260115,-5.553741254599999,-6.8075802969999994,4.1024943476999995,1544
166023,205491,260074,-5.553741254599999,-6.8075802969999994,4.1024943476999995,1545
165856,205407,260023,-5.553741254599999,-6.8075802969999994,4.1024943476999995,1546
165849,205377,259935,-5.553741254599999,-6.8075802969999994,4.1024943476999995,1547
165834,205293,259843,-5.553741254599999,-6.8075802969999994,4.1024943476999995,1548
165909,205328,259900,-5.553741254599999,-6.8075802969999994,4.1024943476999995,1549
166030,205329,259926,-5.553741254599999,-6.8075802969999994,4.1024943476999995,1550
166150,205367,259913,-5.553741254599999,-6.8075802969999994,4.1024943476999995,1551
166194,205401,259962,-5.553741254599999,-6.8075802969999994,4.1024943476999995,1552
166219,205413,259938,-5.553741254599999,-6.8075802969999994,4.1024943476999995,1553
166261,205448,259928,-5.553741254599999,-6.8075802969999994,4.1024943476999995,1554
166275,205417,259936,-5.553741254599999,-6.8075802969999994,4.1024943476999995,1555
166336,205425,259977,-5.553741254599999,-6.8075802969999994,4.1024943476999995,1556
166392,205444,259915,-5.553741254599999,-6.8075802969999994,4.1024943476999995,1557
166420,205485,259940,-5.553741254599999,-6.8075802969999994,4.1024943476999995,1558
166502,205524,259954,-5.553741254599999,-6.8075802969999994,4.1024943476999995,1559
166555,205556,259966,-5.553741254599999,-6.8075802969999994,4.1024943476999995,1560
166650,205546,259989,-5.553741254599999,-6.8075802969999994,4.1024943476999995,1561
166710,205616,259998,-5.553741254599999,-6.8075802969999994,4.1024943476999995,1562
