green,red,IR,acc_x,acc_y,acc_z,sample_index
125058,190563,266743,1.3950155758,8.01595571,-5.2127640341,1
125348,190561,266693,1.4919248910999998,7.9896346614,-5.292923591199999,2
125635,190563,266731,1.375872995,8.2229348649,-5.3192446398,3
125939,190558,266709,1.4679966650999998,8.0961152671,-5.3072805268000005,4
126232,190588,266724,1.4943177136999999,8.0422767586,-5.3024948815999995,5
126519,190515,266733,1.4105689227,8.1942209937,-5.300102059,6
126776,190592,266759,1.2705888006,8.159525066,-5.2378886713999995,7
127063,190586,266722,1.3387842447,7.9872418388,-5.1936214533,8
127297,190616,266766,1.4285150922,8.0925260332,-5.276173833,9
127629,190654,266793,1.4189438018,8.1930245824,-5.3407800432,10
127915,190640,266773,1.5002997702,8.1655071225,-5.2247281471,11
128168,190669,266788,1.4333007374,8.0470624038,-5.321637462399999,12
128280,190629,266762,1.3902299306,7.9968131291999995,-5.3276195189,13
127395,190601,266767,1.3926227532000002,8.0350982908,-5.2917271799,14
124988,190450,266622,1.5110674719,8.039883936,-5.2366922601,15
122595,190298,266535,1.4632110199,8.1427753078,-5.2426743166000005,16
121097,190221,266468,1.5146567058,8.0865439767,-5.235495848799999,17
120340,190179,266346,1.5206387623,8.1678999451,-5.2594240748,18
120036,190146,266335,1.3256237203999999,8.13559684,-5.324030285,19
120035,190181,266293,1.4727823103,8.137989662599999,-5.2630133087,20
120221,190196,266339,1.4512469069,7.9992059518000005,-5.3072805268000005,21
120303,190160,266339,1.5062818266999998,7.9226356286,-5.3024948815999995,22
120207,190190,266317,1.4703894876999999,8.1463645417,-5.288137946,23
119992,190155,266266,1.3734801723999999,8.063812162,-5.309673349400001,24
119819,190156,266350,1.4799607781,8.063812162,-5.2570312522,25
119809,190145,266298,1.3674981159,8.1332040174,-5.213960445400001,26
119965,190185,266316,1.4620146086,8.0662049846,-5.2319066149,27
120203,190214,266336,1.4333007374,8.102097323599999,-5.2666025426,28
120462,190218,266314,1.3567304141999998,8.0183485326,-5.3383872206000005,29
120701,190188,266336,1.4524433182,8.1272219609,-5.3264231076,30
120946,190186,266362,1.3399806559999998,8.1272219609,-5.2725845991,31
121210,190225,266342,1.4069796888000001,8.0781690976,-5.2737810104,32
121517,190285,266372,1.4237294470000001,8.0925260332,-5.2414779053,33
121818,190279,266371,1.4751751328999998,8.1344004287,-5.213960445400001,34
122052,190322,266394,1.5493526335,7.9381889755,-5.2570312522,35
121481,190305,266406,1.5182459396999999,7.9944203065999995,-5.2845487121,36
119556,190166,266324,1.375872995,8.0733834524,-5.335994398,37
117391,190033,266215,1.4512469069,8.0865439767,-5.331208752799999,38
115961,189937,266114,1.4548361408000001,8.0781690976,-5.3072805268000005,39
115367,189906,266086,1.3244273091,8.01595571,-5.3144589946,40
115282,189945,266129,1.4069796888000001,8.0207413552,-5.1960142759,41
115518,189957,266096,1.4763715442,8.0542408716,-5.228317381,42
116027,189994,266141,1.4333007374,8.0697942185,-5.2079783889,43
116491,190025,266196,1.4033904549,8.003991596999999,-5.3802616161,44
116683,190100,266229,1.4751751328999998,8.128418372199999,-5.2570312522,45
116748,190120,266239,1.4512469069,8.0685978072,-5.2307102036,46
116789,190129,266295,1.411765334,8.0662049846,-5.252245607000001,47
116988,190138,266254,1.3531411803,8.1224363157,-5.324030285,48
117344,190190,266317,1.4380863826,8.044669581199999,-5.264209719999999,49
117782,190230,266329,1.4021940436,8.0925260332,-5.2689953652,50
118231,190244,266358,1.4775679554999999,8.0662049846,-5.3168518172,51
118667,190282,266372,1.5373885205000002,8.170292767700001,-5.2594240748,52
119063,190278,266397,1.2897313814,8.0111700648,-5.2737810104,53
119496,190365,266435,1.3423734786,8.0985080897,-5.331208752799999,54
119944,190374,266479,1.4620146086,8.0985080897,-5.2725845991,55
120376,190426,266516,1.3926227532000002,7.970492080600001,-5.3228338737000005,56
120453,190383,266556,1.3663017045999999,8.182256880699999,-5.3324051641,57
119074,190369,266489,1.4392827939,8.0853475654,-5.2713881878,58
116599,190197,266371,1.5134602944999997,8.0422767586,-5.3336015753999995,59
114543,190036,266258,1.2993026717999998,8.1391860739,-5.300102059,60
113422,189987,266161,1.4799607781,8.0542408716,-5.2606204861,61
112971,189939,266150,1.4321043261,8.1320076061,-5.2905307686,62
112906,189949,266161,1.4141581566,8.084151154099999,-5.276173833,63
113212,189931,266154,1.3052847283,8.01595571,-5.2725845991,64
113749,189990,266209,1.3818550514999999,8.0733834524,-5.288137946,65
114240,190049,266241,1.5493526335,8.0195449439,-5.3192446398,66
114476,190048,266242,1.4464612617,8.0590265168,-5.3288159302,67
114600,190073,266283,1.375872995,8.0949188558,-5.235495848799999,68
114800,190080,266280,1.3423734786,8.1391860739,-5.2295137923,69
115081,190113,266346,1.5146567058,8.0123664761,-5.3575298014,70
115442,190106,266333,1.3351950108,8.026723411699999,-5.239085082699999,71
115801,190133,266432,1.3495519463999999,8.01595571,-5.3168518172,72
116221,190141,266373,1.411765334,7.920242806,-5.3192446398,73
116663,190163,266385,1.4656038425,7.9884382501,-5.3036912929,74
117151,190227,266446,1.4225330357,8.159525066,-5.2091748002,75
117616,190220,266416,1.4512469069,8.0207413552,-5.2474599618,76
118043,190270,266535,1.4380863826,8.1128650253,-5.3850472612999996,77
118472,190330,266524,1.3998012210000002,8.1128650253,-5.248656373099999,78
118871,190336,266579,1.4488540843,8.0817583315,-5.3144589946,79
119269,190359,266620,1.4727823103,8.123632727,-5.331208752799999,80
119632,190383,266624,1.4919248910999998,8.075776275,-5.38385085,81
119904,190391,266615,1.4775679554999999,8.1092757914,-5.331208752799999,82
120337,190440,266637,1.3734801723999999,7.9788669596999995,-5.3431728658,83
120695,190472,266657,1.3411770673,8.1080793801,-5.300102059,84
121061,190476,266669,1.5326028753,8.1272219609,-5.3024948815999995,85
121440,190518,266723,1.3782658175999998,8.102097323599999,-5.309673349400001,86
121805,190538,266722,1.4237294470000001,8.0602229281,-5.2869415346999995,87
122154,190483,266700,1.4536397294999999,8.2002030502,-5.3288159302,88
122467,190548,266759,1.387837108,8.0315090569,-5.264209719999999,89
122796,190557,266736,1.4500504956,8.0937224445,-5.3431728658,90
123072,190583,266773,1.3064811396,7.9968131291999995,-5.280959478200001,91
123351,190562,266733,1.4991033588999998,8.01595571,-5.292923591199999,92
123615,190594,266740,1.5661023917,8.1535430095,-5.2438707279,93
123918,190593,266747,1.4871392459,8.1535430095,-5.3144589946,94
124216,190611,266737,1.3471591237999998,8.0769726863,-5.2450671392,95
124527,190613,266767,1.3136596074,7.9908310727,-5.210371211499999,96
124799,190581,266711,1.5182459396999999,8.075776275,-5.2414779053,97
125073,190580,266699,1.375872995,8.1080793801,-5.3407800432,98
125447,190622,266771,1.4991033588999998,8.1810604694,-5.2977092364,99
125748,190634,266757,1.3710873497999998,8.0422767586,-5.2438707279,100
126051,190636,266769,1.3663017045999999,8.070990629799999,-5.276173833,101
125453,190631,266779,1.328016543,8.1044901462,-5.276173833,102
122631,190465,266671,1.4548361408000001,8.0853475654,-5.3264231076,103
119194,190210,266491,1.3974083984,8.0303126456,-5.1780681064,104
116709,190031,266272,1.4045868662,8.128418372199999,-5.3264231076,105
115483,189989,266239,1.4129617452999998,8.1655071225,-5.280959478200001,106
114968,189963,266148,1.4201402131,8.1810604694,-5.2462635505,107
114925,189966,266165,1.3459627125,8.084151154099999,-5.3419764545,108
115142,189932,266132,1.4141581566,8.0183485326,-5.2833523008,109
115378,189906,266065,1.3495519463999999,8.1140614366,-5.3288159302,110
115385,189924,266158,1.4093725114000002,8.0470624038,-5.2989056477,111
115286,189918,266077,1.4285150922,8.0697942185,-5.3455656884,112
115239,189890,266139,1.4309079148000001,8.0853475654,-5.2737810104,113
115334,189927,266171,1.4668002538,8.0662049846,-5.2450671392,114
115531,189917,266098,1.4189438018,8.0542408716,-5.309673349400001,115
115801,189818,266093,1.4763715442,8.0901332106,-5.2845487121,116
116131,189936,266090,1.411765334,8.0554372829,-5.3503513336,117
116448,189928,266160,1.3782658175999998,8.0985080897,-5.3551369788,118
116796,189995,266170,1.4476576730000001,8.0769726863,-5.239085082699999,119
117136,189936,266140,1.4380863826,7.9310105077,-5.3084769381,120
117464,189927,266169,1.4237294470000001,8.1571322434,-5.2307102036,121
117889,189934,266202,1.3423734786,8.0781690976,-5.362315446599999,122
118305,190047,266167,1.4500504956,8.129614783500001,-5.3192446398,123
118675,190012,266240,1.4488540843,8.0327054682,-5.276173833,124
118622,190040,266208,1.2502498085,8.044669581199999,-5.1720860499,125
116896,189902,266190,1.411765334,8.0207413552,-5.2677989539,126
114382,189713,266017,1.5278172301,8.1140614366,-5.3192446398,127
112567,189610,265851,1.5421741657,8.1068829688,-5.3455656884,128
111747,189528,265808,1.3914263419,8.137989662599999,-5.2546384296,129
111564,189460,265814,1.4500504956,8.124829138299999,-5.321637462399999,130
111740,189473,265778,1.3363914221,8.13559684,-5.3192446398,131
112212,189519,265795,1.3399806559999998,8.1463645417,-5.3264231076,132
112734,189544,265861,1.4261222696,8.1212399044,-5.248656373099999,133
113039,189583,265880,1.4069796888000001,8.0901332106,-5.321637462399999,134
113108,189574,265895,1.4416756165,8.0793655089,-5.2737810104,135
113147,189617,265889,1.43569356,8.075776275,-5.252245607000001,136
113331,189629,265895,1.4548361408000001,8.1044901462,-5.2857451234,137
113666,189615,265944,1.4668002538,8.0063844196,-5.2725845991,138
114069,189686,265931,1.4309079148000001,8.1619178886,-5.280959478200001,139
114573,189657,265987,1.4452648504,7.968099258,-5.2331030262,140
115001,189723,266049,1.4799607781,8.0147592987,-5.288137946,141
115437,189746,266002,1.4285150922,7.9334033303,-5.3168518172,142
115790,189740,266083,1.4380863826,8.129614783500001,-5.3383872206000005,143
116209,189805,266122,1.3567304141999998,8.1332040174,-5.2534420183,144
116680,189881,266180,1.4644074312,8.1224363157,-5.324030285,145
117182,189901,266191,1.4895320685,8.1344004287,-5.3647082692,146
117547,189956,266191,1.4536397294999999,8.0374911134,-5.3024948815999995,147
116948,189937,266275,1.3208380752,8.0458659925,-5.3048877041999996,148
114851,189813,266149,1.3495519463999999,8.049455226400001,-5.2319066149,149
112523,189661,266007,1.3926227532000002,8.1487573643,-5.2953164138,150
111155,189558,265938,1.351944769,8.182256880699999,-5.3144589946,151
110586,189504,265879,1.387837108,8.003991596999999,-5.2546384296,152
110552,189516,265853,1.5158531170999998,8.0530444603,-5.2893343573,153
110849,189538,265941,1.3483555351,8.0183485326,-5.2055855663,154
111437,189574,265949,1.3603196481,8.075776275,-5.2223353244999995,155
111994,189657,266062,1.4093725114000002,8.0973116784,-5.2666025426,156
112330,189690,266077,1.3471591237999998,8.075776275,-5.288137946,157
112512,189703,266122,1.3328021881999998,8.0470624038,-5.3706903257,158
112771,189747,266122,1.5373885205000002,8.169096356399999,-5.2247281471,159
113108,189765,266164,1.4045868662,8.087740388,-5.265406131300001,160
113560,189815,266193,1.375872995,8.0805619202,-5.3048877041999996,161
114064,189861,266190,1.3782658175999998,8.0327054682,-5.2546384296,162
114529,189902,266192,1.4093725114000002,8.0937224445,-5.3264231076,163
115068,189978,266265,1.4141581566,8.1056865575,-5.2785666556,164
115566,190002,266337,1.3100703735,8.0350982908,-5.276173833,165
116046,190059,266407,1.3663017045999999,8.074579863699999,-5.228317381,166
116517,190093,266440,1.4560325521,8.0602229281,-5.2618168974,167
116973,190073,266418,1.3423734786,8.074579863699999,-5.276173833,168
117436,190163,266450,1.3950155758,7.9968131291999995,-5.213960445400001,169
117971,190151,266487,1.3926227532000002,8.1583286547,-5.2701917765,170
118471,190241,266558,1.4093725114000002,8.1439717191,-5.2546384296,171
118689,190227,266567,1.375872995,8.0530444603,-5.3587262127,172
117544,190187,266573,1.4081761001,7.970492080600001,-5.321637462399999,173
115117,190040,266435,1.3651052933,8.003991596999999,-5.280959478200001,174
112989,189873,266257,1.3818550514999999,8.0147592987,-5.3048877041999996,175
111791,189793,266224,1.3998012210000002,7.9190463947000005,-5.2462635505,176
111280,189734,266150,1.5625131578,8.0135628874,-5.2905307686,177
111185,189723,266190,1.4739787216,8.063812162,-5.2055855663,178
111502,189731,266138,1.43569356,7.9896346614,-5.2666025426,179
112039,189791,266231,1.4392827939,8.070990629799999,-5.3503513336,180
112513,189818,266245,1.4536397294999999,8.116454259200001,-5.252245607000001,181
112786,189851,266274,1.3806586402,8.0853475654,-5.2701917765,182
112985,189868,266274,1.4548361408000001,7.9310105077,-5.3647082692,183
113234,189869,266321,1.4608181972999998,8.0063844196,-5.280959478200001,184
113572,189873,266328,1.4991033588999998,8.026723411699999,-5.2749774217,185
113970,189822,266365,1.4189438018,8.0374911134,-5.2737810104,186
114386,189934,266382,1.5038890041,8.1487573643,-5.2342994375,187
114860,189899,266372,1.4811571894,8.1080793801,-5.2366922601,188
115320,190026,266426,1.4428720278,8.084151154099999,-5.2594240748,189
115768,190075,266439,1.43569356,8.061419339399999,-5.2271209697000005,190
116236,190076,266473,1.3962119871,8.0650085733,-5.2546384296,191
116674,190152,266506,1.3627124707,8.0231341778,-5.2785666556,192
117150,190173,266556,1.3292129543,8.0697942185,-5.3288159302,193
117560,190208,266586,1.4261222696,8.159525066,-5.265406131300001,194
117985,190179,266613,1.4739787216,8.1463645417,-5.2570312522,195
118484,190264,266641,1.4943177136999999,8.155935832099999,-5.3527441562,196
118930,190301,266689,1.3591232368,8.0985080897,-5.2905307686,197
119361,190301,266649,1.3136596074,8.026723411699999,-5.3407800432,198
118952,190284,266690,1.2765708571,8.0949188558,-5.300102059,199
117113,190168,266596,1.4380863826,8.0063844196,-5.3048877041999996,200
114800,190010,266467,1.3292129543,8.061419339399999,-5.2953164138,201
113247,189857,266352,1.3124631961,8.0685978072,-5.3503513336,202
112502,189784,266223,1.4141581566,8.1846497033,-5.2426743166000005,203
112192,189702,266270,1.4213366244,7.956135144999999,-5.3527441562,204
112315,189716,266187,1.5062818266999998,8.0733834524,-5.3024948815999995,205
112700,189691,266237,1.4165509792000002,8.1906317598,-5.300102059,206
113151,189756,266279,1.4919248910999998,8.1451681304,-5.276173833,207
113429,189739,266250,1.4488540843,8.0817583315,-5.3072805268000005,208
113596,189750,266289,1.328016543,8.1655071225,-5.2091748002,209
113744,189677,266216,1.4141581566,8.0853475654,-5.3647082692,210
113995,189741,266266,1.3423734786,8.1188470818,-5.2426743166000005,211
114322,189756,266255,1.4285150922,8.01595571,-5.2785666556,212
114739,189768,266327,1.3854442854000002,8.1367932513,-5.2462635505,213
115118,189770,266291,1.3471591237999998,8.0470624038,-5.309673349400001,214
115538,189791,266300,1.4500504956,8.0973116784,-5.2594240748,215
115950,189825,266322,1.4285150922,8.2037922841,-5.2845487121,216
116382,189839,266333,1.4249258583,8.0685978072,-5.292923591199999,217
116811,189829,266347,1.3746765837,8.0135628874,-5.2570312522,218
117253,189866,266325,1.3567304141999998,8.1212399044,-5.2833523008,219
117683,189892,266402,1.5086746492999998,8.0685978072,-5.223531735800001,220
118104,189897,266393,1.4165509792000002,8.0386875247,-5.324030285,221
118514,189888,266442,1.4321043261,8.0327054682,-5.3503513336,222
118940,189970,266471,1.4775679554999999,8.057830105499999,-5.3431728658,223
119366,189959,266433,1.4464612617,8.1068829688,-5.3144589946,224
119772,189987,266438,1.3986048097,8.0853475654,-5.306084115499999,225
120062,189999,266429,1.4620146086,7.9944203065999995,-5.324030285,226
119314,189955,266467,1.3950155758,8.0135628874,-5.2833523008,227
117300,189806,266267,1.3890335193,7.9812597822999996,-5.2725845991,228
115333,189668,266201,1.3459627125,8.1487573643,-5.292923591199999,229
114194,189564,266175,1.5601203352,8.1415788965,-5.276173833,230
113679,189480,266082,1.4524433182,8.0243305891,-5.2713881878,231
113580,189478,266033,1.5038890041,7.942974620699999,-5.3515477449,232
113822,189496,266068,1.4656038425,8.0063844196,-5.2546384296,233
114198,189506,266078,1.5445669883000002,8.0566336942,-5.264209719999999,234
114619,189533,266133,1.5134602944999997,8.0590265168,-5.2905307686,235
114772,189552,266060,1.4333007374,8.1667035338,-5.3228338737000005,236
114809,189571,266153,1.4931213024,8.0973116784,-5.2498527844,237
115007,189536,266115,1.3950155758,8.0961152671,-5.321637462399999,238
115262,189551,266104,1.4584253747,8.0542408716,-5.277370244299999,239
115607,189526,266148,1.4967105363,8.0422767586,-5.2833523008,240
116025,189590,266126,1.3663017045999999,8.0674013959,-5.3575298014,241
116432,189625,266204,1.375872995,8.0422767586,-5.2905307686,242
116798,189638,266227,1.4823536007,7.9262248625,-5.3455656884,243
117221,189674,266190,1.387837108,7.9657064354,-5.2713881878,244
117599,189714,266244,1.411765334,8.039883936,-5.2546384296,245
117985,189734,266291,1.4213366244,8.128418372199999,-5.2905307686,246
118378,189766,266298,1.4021940436,8.0781690976,-5.3515477449,247
118724,189794,266328,1.4536397294999999,8.0350982908,-5.181657340299999,248
119118,189814,266345,1.4165509792000002,8.0566336942,-5.2151568567,249
119549,189876,266370,1.4021940436,8.1140614366,-5.2582276635,250
119943,189855,266436,1.3016954943999999,8.171489179,-5.280959478200001,251
120255,189895,266355,1.3399806559999998,7.998009540499999,-5.3108697607,252
119861,189913,266405,1.4225330357,8.1260255496,-5.2414779053,253
118155,189797,266365,1.4991033588999998,8.1260255496,-5.312066172,254
116079,189646,266184,1.3710873497999998,8.0949188558,-5.2307102036,255
114700,189557,266125,1.4608181972999998,8.1571322434,-5.3264231076,256
114094,189531,266045,1.3411770673,8.115257847899999,-5.2594240748,257
113925,189462,266078,1.2681959779999998,8.0015987744,-5.223531735800001,258
114112,189528,266058,1.4321043261,8.0255270004,-5.2689953652,259
114591,189560,266110,1.3902299306,8.116454259200001,-5.335994398,260
115085,189637,266134,1.351944769,8.0231341778,-5.2342994375,261
115355,189658,266215,1.5158531170999998,7.980063371,-5.3288159302,262
115477,189680,266240,1.3375878334,8.063812162,-5.2630133087,263
115617,189767,266260,1.4584253747,8.1786676468,-5.3503513336,264
115842,189746,266270,1.5122638832,7.969295669299999,-5.3730831483,265
116206,189804,266349,1.3722837611,8.0781690976,-5.280959478200001,266
116660,189809,266319,1.5278172301,8.0829547428,-5.331208752799999,267
117141,189857,266391,1.4416756165,8.075776275,-5.276173833,268
117608,189864,266450,1.4548361408000001,8.1726855903,-5.3012984703,269
117961,189959,266473,1.3830514628000001,8.0590265168,-5.2426743166000005,270
117684,189979,266509,1.4620146086,8.0769726863,-5.2833523008,271
116360,189912,266441,1.3615160593999998,8.0781690976,-5.2127640341,272
114906,189775,266345,1.4488540843,8.1523465982,-5.3168518172,273
114022,189730,266296,1.4572289634,8.063812162,-5.210371211499999,274
113800,189723,266245,1.4991033588999998,8.0135628874,-5.292923591199999,275
114081,189730,266255,1.4428720278,8.0901332106,-5.3383872206000005,276
114706,189805,266325,1.2909277927,8.051848049,-5.2426743166000005,277
115362,189836,266350,1.4189438018,8.051848049,-5.2845487121,278
115817,189892,266438,1.3722837611,8.1619178886,-5.2055855663,279
116037,189921,266438,1.4560325521,8.1786676468,-5.2594240748,280
116167,189919,266483,1.387837108,8.1308111948,-5.3527441562,281
116410,189929,266490,1.4093725114000002,8.1930245824,-5.265406131300001,282
116787,189998,266514,1.3830514628000001,8.063812162,-5.292923591199999,283
117145,190023,266541,1.3244273091,8.1332040174,-5.335994398,284
116901,190013,266523,1.4991033588999998,7.9716884919,-5.300102059,285
115448,189922,266447,1.4751751328999998,7.9968131291999995,-5.3407800432,286
113823,189779,266386,1.3830514628000001,8.116454259200001,-5.3982077855999995,287
112927,189703,266298,1.3830514628000001,8.0733834524,-5.2606204861,288
112635,189653,266293,1.4021940436,8.063812162,-5.251049195699999,289
112950,189702,266289,1.5421741657,7.992027484,-5.331208752799999,290
113641,189785,266393,1.3328021881999998,8.0805619202,-5.2450671392,291
114383,189827,266406,1.4213366244,8.0542408716,-5.309673349400001,292
114858,189869,266471,1.4847464232999998,8.039883936,-5.2677989539,293
115047,189892,266478,1.3830514628000001,8.1846497033,-5.3575298014,294
115172,189907,266512,1.3854442854000002,8.1032937349,-5.3551369788,295
115413,189948,266547,1.3663017045999999,8.0410803473,-5.2091748002,296
115751,189948,266513,1.3471591237999998,8.0889367993,-5.346762099699999,297
116207,189958,266564,1.3351950108,8.0805619202,-5.2618168974,298
116693,190006,266602,1.3722837611,8.1439717191,-5.335994398,299
117137,190039,266622,1.4656038425,8.074579863699999,-5.2319066149,300
117577,190097,266669,1.2729816232,8.027919823,-5.347958511000001,301
118019,190105,266671,1.411765334,7.928617685100001,-5.2319066149,302
118451,190146,266691,1.567298803,8.1463645417,-5.309673349400001,303
118878,190162,266708,1.4189438018,7.9956167179,-5.3048877041999996,304
119268,190184,266729,1.4608181972999998,8.0769726863,-5.2953164138,305
119684,190236,266770,1.3447663012,8.1104722027,-5.2594240748,306
120171,190287,266804,1.3986048097,8.1068829688,-5.2175496793,307
120669,190289,266815,1.3830514628000001,8.0590265168,-5.2713881878,308
120570,190307,266879,1.4105689227,8.1415788965,-5.264209719999999,309
118711,190227,266740,1.4213366244,8.0111700648,-5.3180482284999995,310
115670,190004,266586,1.4213366244,7.992027484,-5.2630133087,311
113456,189823,266487,1.4572289634,8.1678999451,-5.359922623999999,312
112363,189750,266384,1.3663017045999999,8.1260255496,-5.324030285,313
111987,189733,266338,1.4249258583,8.057830105499999,-5.2582276635,314
112088,189723,266393,1.3387842447,8.1391860739,-5.3024948815999995,315
112588,189788,266406,1.3639088819999998,8.2157563971,-5.3874400839,316
113152,189796,266378,1.4620146086,8.0733834524,-5.2953164138,317
113408,189803,266438,1.3220344865,8.1188470818,-5.309673349400001,318
113524,189819,266484,1.3938191645,8.0697942185,-5.359922623999999,319
113666,189853,266451,1.4895320685,8.0530444603,-5.2594240748,320
113939,189849,266493,1.4081761001,8.0303126456,-5.3168518172,321
114310,189886,266452,1.375872995,8.1367932513,-5.252245607000001,322
114723,189918,266537,1.3950155758,8.1643107112,-5.2785666556,323
115191,189980,266558,1.3351950108,8.128418372199999,-5.288137946,324
115614,189985,266605,1.3292129543,7.9992059518000005,-5.3527441562,325
116074,189993,266605,1.4213366244,8.049455226400001,-5.2462635505,326
116536,190042,266604,1.3543375915999998,8.155935832099999,-5.2857451234,327
116974,190077,266638,1.3806586402,8.0350982908,-5.3168518172,328
117427,190081,266703,1.4333007374,8.0422767586,-5.300102059,329
117910,190152,266699,1.5206387623,8.0183485326,-5.2701917765,330
118360,190161,266737,1.4907284798,8.1487573643,-5.2366922601,331
118802,190177,266744,1.4165509792000002,8.0470624038,-5.321637462399999,332
119198,190191,266793,1.4093725114000002,8.1511501869,-5.2833523008,333
119575,190224,266782,1.3112667848,8.2325061553,-5.300102059,334
119955,190261,266809,1.3232308977999998,8.1439717191,-5.2031927437,335
120299,190230,266803,1.351944769,8.0458659925,-5.2426743166000005,336
120612,190227,266830,1.3782658175999998,8.1798640581,-5.3036912929,337
120984,190264,266801,1.3507483577,8.2468630909,-5.309673349400001,338
121361,190284,266801,1.4189438018,8.116454259200001,-5.1720860499,339
121734,190260,266862,1.4009976323,8.0721870411,-5.2079783889,340
121542,190278,266808,1.4907284798,7.9657064354,-5.280959478200001,341
119604,190169,266754,1.3950155758,8.049455226400001,-5.2666025426,342
116598,189918,266545,1.4237294470000001,8.0303126456,-5.312066172,343
114352,189761,266448,1.4237294470000001,8.1499537756,-5.3168518172,344
113211,189645,266336,1.4093725114000002,7.9645100241,-5.3419764545,345
112783,189612,266265,1.3866406967,7.9932238953,-5.2342994375,346
112796,189618,266227,1.5469598109,7.9585279676,-5.2857451234,347
113207,189603,266281,1.4093725114000002,8.1499537756,-5.2450671392,348
113673,189657,266317,1.5146567058,7.9716884919,-5.288137946,349
113946,189664,266300,1.4392827939,8.1092757914,-5.2319066149,350
114041,189717,266305,1.4249258583,8.1308111948,-5.324030285,351
114132,189660,266270,1.4129617452999998,8.0374911134,-5.2223353244999995,352
114304,189656,266261,1.3902299306,7.980063371,-5.3168518172,353
114595,189684,266339,1.3674981159,8.0733834524,-5.251049195699999,354
114984,189721,266392,1.4285150922,8.0458659925,-5.2857451234,355
115404,189711,266315,1.3710873497999998,8.0374911134,-5.2007999211,356
115808,189707,266361,1.4273186809,8.1212399044,-5.2570312522,357
116235,189691,266369,1.4285150922,8.099704501,-5.3012984703,358
116662,189775,266334,1.3962119871,8.051848049,-5.181657340299999,359
117087,189755,266419,1.4033904549,8.051848049,-5.2366922601,360
117550,189800,266464,1.4273186809,8.0231341778,-5.2977092364,361
118017,189781,266454,1.3363914221,8.1391860739,-5.276173833,362
118434,189827,266443,1.3627124707,8.1571322434,-5.2366922601,363
118866,189865,266493,1.4811571894,8.0135628874,-5.2857451234,364
119265,189835,266474,1.3926227532000002,8.0195449439,-5.213960445400001,365
119685,189906,266507,1.4093725114000002,8.195417404999999,-5.335994398,366
120142,189933,266537,1.4632110199,8.1726855903,-5.2366922601,367
120506,189926,266510,1.3663017045999999,8.1044901462,-5.2785666556,368
120435,189831,266501,1.5206387623,8.061419339399999,-5.1744788725,369
118725,189812,266511,1.5589239239000001,8.1367932513,-5.3455656884,370
116139,189619,266350,1.4392827939,8.062615750700001,-5.2821558895,371
114252,189504,266187,1.4823536007,8.0291162343,-5.2666025426,372
113400,189379,266113,1.4404792052000002,8.0650085733,-5.3431728658,373
113195,189371,266102,1.3782658175999998,7.9489566772,-5.2223353244999995,374
113358,189399,266085,1.4656038425,8.1104722027,-5.292923591199999,375
113889,189418,266121,1.3292129543,8.070990629799999,-5.312066172,376
114326,189471,266134,1.3710873497999998,8.0781690976,-5.251049195699999,377
114548,189477,266172,1.4727823103,8.0566336942,-5.3383872206000005,378
114574,189498,266142,1.4907284798,8.129614783500001,-5.292923591199999,379
114602,189508,266175,1.4572289634,8.0255270004,-5.2785666556,380
114775,189504,266180,1.3998012210000002,7.9525459111,-5.1756752837999995,381
115133,189516,266216,1.4165509792000002,8.1966138163,-5.1864429855,382
115538,189530,266228,1.4273186809,8.160721477300001,-5.312066172,383
115972,189609,266266,1.5242279962,8.0685978072,-5.292923591199999,384
116393,189611,266272,1.5014961814999999,7.9968131291999995,-5.252245607000001,385
116833,189606,266294,1.4943177136999999,8.1200434931,-5.2833523008,386
117232,189674,266329,1.4727823103,7.940581798099999,-5.1960142759,387
117650,189753,266386,1.3926227532000002,8.1678999451,-5.3144589946,388
118097,189749,266419,1.3830514628000001,8.1056865575,-5.3072805268000005,389
118524,189757,266480,1.4021940436,8.1367932513,-5.280959478200001,390
118940,189811,266485,1.3866406967,8.0183485326,-5.2857451234,391
119404,189891,266498,1.3782658175999998,8.0542408716,-5.331208752799999,392
119914,189951,266534,1.3375878334,8.0063844196,-5.4221360116,393
120372,189978,266556,1.531406464,8.017152121299999,-5.3336015753999995,394
120418,190006,266593,1.3064811396,8.1978102276,-5.2630133087,395
118929,189924,266604,1.4931213024,8.1415788965,-5.3192446398,396
116354,189760,266408,1.4703894876999999,8.051848049,-5.2869415346999995,397
114323,189570,266313,1.5014961814999999,8.1320076061,-5.3276195189,398
113361,189620,266212,1.5206387623,8.0231341778,-5.1912286306999995,399
113067,189625,266212,1.2430713407,8.111668614,-5.2689953652,400
113222,189597,266218,1.4081761001,8.070990629799999,-5.2295137923,401
113702,189649,266277,1.4428720278,8.070990629799999,-5.2725845991,402
114277,189699,266312,1.4775679554999999,8.160721477300001,-5.1780681064,403
114703,189773,266401,1.4093725114000002,8.111668614,-5.248656373099999,404
114910,189793,266409,1.5337992866,8.044669581199999,-5.371886737,405
115061,189728,266416,1.2526426310999998,8.1056865575,-5.395814963,406
115294,189852,266484,1.3902299306,7.9501530885,-5.2989056477,407
115647,189808,266472,1.4069796888000001,8.1044901462,-5.3192446398,408
116076,189887,266532,1.5038890041,8.0949188558,-5.371886737,409
116563,189955,266537,1.4249258583,8.129614783500001,-5.265406131300001,410
117040,189948,266581,1.4380863826,8.0566336942,-5.2474599618,411
117508,190011,266663,1.4584253747,8.1499537756,-5.2713881878,412
117952,190070,266624,1.5182459396999999,8.044669581199999,-5.2534420183,413
118437,190091,266639,1.387837108,8.1092757914,-5.2666025426,414
118863,190144,266694,1.351944769,8.0865439767,-5.2857451234,415
119317,190154,266756,1.4129617452999998,8.1009009123,-5.228317381,416
119753,190170,266753,1.4237294470000001,8.0458659925,-5.2211389132,417
120190,190224,266712,1.3579268255,8.0733834524,-5.2785666556,418
120650,190283,266754,1.4297115034999999,8.129614783500001,-5.312066172,419
121112,190266,266799,1.3220344865,8.2133635745,-5.3419764545,420
121456,190320,266815,1.3447663012,8.0817583315,-5.2857451234,421
120836,190316,266861,1.387837108,8.0183485326,-5.3276195189,422
118488,190153,266786,1.5349956979000001,8.039883936,-5.3431728658,423
115867,189994,266594,1.2777672683999999,8.1942209937,-5.2713881878,424
114250,189872,266486,1.4237294470000001,8.051848049,-5.3288159302,425
113534,189841,266438,1.4189438018,8.0985080897,-5.2558348409,426
113335,189809,266375,1.3710873497999998,8.2025958728,-5.2689953652,427
113605,189836,266384,1.4416756165,8.0255270004,-5.309673349400001,428
114144,189848,266438,1.3292129543,8.0566336942,-5.3168518172,429
114664,189905,266469,1.3950155758,8.0004023631,-5.2713881878,430
114882,189926,266554,1.3902299306,8.0853475654,-5.2737810104,431
114974,189952,266542,1.4799607781,8.0961152671,-5.3168518172,432
115120,189975,266544,1.4775679554999999,8.195417404999999,-5.288137946,433
115357,189977,266514,1.3387842447,8.039883936,-5.277370244299999,434
115708,189998,266523,1.5469598109,8.027919823,-5.371886737,435
116142,190002,266576,1.4967105363,8.1678999451,-5.309673349400001,436
116580,190054,266597,1.4488540843,8.1344004287,-5.3407800432,437
117038,190111,266618,1.43569356,8.1128650253,-5.2953164138,438
117490,190112,266616,1.4321043261,8.1511501869,-5.2546384296,439
117927,190144,266659,1.4285150922,8.0231341778,-5.2630133087,440
118364,190154,266711,1.4644074312,8.087740388,-5.2977092364,441
118799,190222,266699,1.351944769,8.0183485326,-5.251049195699999,442
119216,190236,266707,1.3292129543,8.124829138299999,-5.3264231076,443
119645,190209,266748,1.3710873497999998,8.070990629799999,-5.2977092364,444
120068,190282,266786,1.4763715442,8.1631142999,-5.276173833,445
120517,190339,266817,1.3902299306,8.1200434931,-5.2271209697000005,446
120982,190339,266866,1.4727823103,8.051848049,-5.198407098500001,447
121140,190368,266843,1.3591232368,8.0506516377,-5.2259245584,448
119903,190316,266833,1.3639088819999998,7.9896346614,-5.294120002500001,449
117193,190139,266709,1.4309079148000001,8.0374911134,-5.3036912929,450
114824,189977,266501,1.3112667848,8.1260255496,-5.3647082692,451
113579,189898,266460,1.4069796888000001,8.1212399044,-5.2953164138,452
113130,189833,266392,1.3208380752,8.2061851067,-5.3288159302,453
113176,189857,266455,1.4500504956,8.0937224445,-5.312066172,454
113592,189904,266420,1.3375878334,8.123632727,-5.2965128251,455
114089,189902,266447,1.4823536007,8.0961152671,-5.288137946,456
114598,189953,266479,1.3974083984,8.0685978072,-5.219942501899999,457
114785,189966,266551,1.2574282763000002,8.026723411699999,-5.2893343573,458
114872,189871,266468,1.4069796888000001,8.1044901462,-5.2737810104,459
115008,189961,266506,1.4021940436,8.0506516377,-5.276173833,460
115263,189956,266458,1.3782658175999998,8.0949188558,-5.2905307686,461
115622,189914,266496,1.4093725114000002,8.0470624038,-5.2366922601,462
116011,189980,266519,1.2311072277,8.1056865575,-5.324030285,463
116392,189943,266529,1.3734801723999999,8.027919823,-5.288137946,464
116772,189992,266573,1.3806586402,8.102097323599999,-5.359922623999999,465
117151,190030,266540,1.3328021881999998,8.0470624038,-5.198407098500001,466
117542,190040,266583,1.4344971487,8.1200434931,-5.2546384296,467
117946,190020,266563,1.4608181972999998,8.039883936,-5.240281494,468
118312,190075,266616,1.4225330357,8.0422767586,-5.2594240748,469
118705,190032,266573,1.3196416639,8.0781690976,-5.346762099699999,470
119121,190049,266524,1.5206387623,8.124829138299999,-5.2701917765,471
119572,190097,266575,1.5326028753,8.0255270004,-5.300102059,472
120012,190108,266576,1.4452648504,8.170292767700001,-5.2307102036,473
120314,190068,266585,1.387837108,8.0602229281,-5.1888358081,474
119534,190073,266620,1.4189438018,8.0386875247,-5.1720860499,475
117062,189887,266499,1.4093725114000002,8.1092757914,-5.2307102036,476
114518,189702,266281,1.3351950108,8.116454259200001,-5.2869415346999995,477
113012,189589,266186,1.43569356,8.1056865575,-5.251049195699999,478
112446,189513,266104,1.3998012210000002,8.0973116784,-5.3192446398,479
112394,189552,266085,1.3076775509,8.0769726863,-5.3048877041999996,480
112724,189510,266121,1.3686945272,8.087740388,-5.292923591199999,481
113346,189536,266153,1.5337992866,8.0685978072,-5.2438707279,482
113788,189589,266175,1.3423734786,8.0542408716,-5.3611190353,483
114019,189561,266164,1.4512469069,8.1726855903,-5.3431728658,484
114086,189623,266234,1.3615160593999998,8.137989662599999,-5.3192446398,485
114196,189576,266148,1.375872995,8.1140614366,-5.264209719999999,486
114449,189574,266200,1.4452648504,8.0374911134,-5.2833523008,487
114832,189604,266214,1.5038890041,7.9872418388,-5.321637462399999,488
115283,189619,266229,1.4452648504,7.980063371,-5.2833523008,489
115735,189685,266268,1.5122638832,8.087740388,-5.251049195699999,490
116249,189698,266247,1.4081761001,8.1810604694,-5.3192446398,491
116696,189712,266270,1.459621786,8.0362947021,-5.277370244299999,492
117150,189768,266306,1.3591232368,8.1176506705,-5.2833523008,493
117598,189767,266302,1.4285150922,7.9190463947000005,-5.2474599618,494
118000,189785,266316,1.3842478741,8.0327054682,-5.2785666556,495
118448,189807,266334,1.3938191645,8.0195449439,-5.2725845991,496
118888,189868,266385,1.4165509792000002,8.1200434931,-5.2725845991,497
119344,189889,266382,1.4380863826,8.0027951857,-5.2271209697000005,498
119756,189841,266424,1.3710873497999998,8.0327054682,-5.1864429855,499
119463,189876,266417,1.43569356,8.1009009123,-5.3192446398,500
117547,189706,266311,1.4416756165,8.116454259200001,-5.3168518172,501
115098,189566,266196,1.4237294470000001,8.116454259200001,-5.252245607000001,502
113570,189465,266071,1.4428720278,8.2325061553,-5.2713881878,503
112963,189392,266071,1.4440684390999998,8.0829547428,-5.2857451234,504
112935,189414,266010,1.4560325521,8.0674013959,-5.3048877041999996,505
113307,189431,266034,1.4261222696,8.0674013959,-5.1433721787,506
113851,189431,266021,1.4763715442,8.063812162,-5.2438707279,507
114343,189453,266076,1.4404792052000002,8.0853475654,-5.2271209697000005,508
114486,189513,266078,1.3663017045999999,8.0422767586,-5.3994041969,509
114459,189503,266133,1.4093725114000002,7.986045427500001,-5.300102059,510
114503,189525,266104,1.4703894876999999,8.0350982908,-5.292923591199999,511
114736,189520,266075,1.3184452526,8.0590265168,-5.3192446398,512
115105,189456,266118,1.4344971487,8.0733834524,-5.2582276635,513
115539,189567,266123,1.2526426310999998,8.075776275,-5.2953164138,514
115970,189594,266178,1.4679966650999998,8.0470624038,-5.3144589946,515
116397,189643,266174,1.5122638832,8.1918281711,-5.2677989539,516
116789,189689,266226,1.5002997702,8.044669581199999,-5.2857451234,517
117190,189705,266247,1.4763715442,8.01595571,-5.2749774217,518
117542,189737,266260,1.4237294470000001,7.972884903200001,-5.2618168974,519
118009,189789,266296,1.4536397294999999,8.1583286547,-5.2259245584,520
118431,189857,266347,1.5062818266999998,8.2289169214,-5.3192446398,521
118900,189907,266388,1.375872995,8.005188008300001,-5.3910293178,522
119233,189914,266407,1.4679966650999998,8.0937224445,-5.1577291143,523
118440,189935,266413,1.5804593273,7.9824561936,-5.2833523008,524
116171,189771,266346,1.3806586402,8.027919823,-5.3168518172,525
113853,189646,266189,1.4763715442,8.027919823,-5.3790652048,526
112539,189552,266134,1.3710873497999998,8.2085779293,-5.292923591199999,527
112051,189552,266102,1.4440684390999998,8.0470624038,-5.347958511000001,528
112027,189558,266082,1.4727823103,8.0973116784,-5.2666025426,529
112382,189583,266112,1.4009976323,7.9657064354,-5.3383872206000005,530
112980,189635,266199,1.4225330357,8.1044901462,-5.346762099699999,531
113546,189676,266269,1.3555340029,8.1260255496,-5.2977092364,532
113826,189696,266239,1.3244273091,8.063812162,-5.3671010918,533
113955,189765,266254,1.4811571894,7.953742322399999,-5.2666025426,534
114142,189770,266301,1.4488540843,8.0183485326,-5.3814580274,535
114482,189744,266316,1.4309079148000001,8.0470624038,-5.3383872206000005,536
114890,189837,266343,1.4500504956,8.0087772422,-5.3144589946,537
115308,189815,266371,1.4895320685,8.0901332106,-5.2259245584,538
115770,189850,266397,1.2191431147,8.1631142999,-5.3455656884,539
116174,189930,266442,1.3100703735,8.0781690976,-5.2031927437,540
116650,189969,266490,1.5110674719,7.970492080600001,-5.2271209697000005,541
117029,189994,266458,1.5589239239000001,8.1415788965,-5.2666025426,542
117499,190020,266528,1.3986048097,7.9645100241,-5.3048877041999996,543
117934,190060,266597,1.3399806559999998,8.0853475654,-5.3288159302,544
118353,190095,266574,1.3806586402,8.084151154099999,-5.395814963,545
118781,190119,266558,1.3639088819999998,8.0422767586,-5.2342994375,546
119163,190147,266671,1.375872995,8.027919823,-5.2905307686,547
119499,190185,266670,1.4632110199,8.1044901462,-5.3144589946,548
119826,190214,266653,1.3806586402,8.1332040174,-5.2570312522,549
120117,190277,266676,1.5134602944999997,8.0231341778,-5.2737810104,550
120454,190267,266732,1.3782658175999998,8.0937224445,-5.3527441562,551
120775,190327,266742,1.3351950108,8.0949188558,-5.389832906500001,552
121124,190318,266694,1.4488540843,8.1188470818,-5.2630133087,553
121449,190351,266750,1.4500504956,8.0853475654,-5.2570312522,554
121766,190359,266770,1.3411770673,8.0602229281,-5.2857451234,555
122072,190408,266826,1.387837108,7.9525459111,-5.3575298014,556
122402,190446,266805,1.5146567058,8.0590265168,-5.309673349400001,557
122674,190442,266846,1.328016543,8.1774712355,-5.300102059,558
122949,190471,266834,1.4787643668000001,8.0853475654,-5.2151568567,559
123248,190557,266869,1.4572289634,8.124829138299999,-5.2187460906,560
123527,190529,266890,1.4584253747,8.111668614,-5.3694939144,561
123806,190594,266908,1.4237294470000001,8.128418372199999,-5.2079783889,562
124065,190580,266880,1.4679966650999998,7.9034930478000005,-5.292923591199999,563
124307,190603,266947,1.3292129543,8.0566336942,-5.3611190353,564
124563,190614,266929,1.3615160593999998,8.0339018795,-5.3802616161,565
124877,190678,266986,1.3615160593999998,8.159525066,-5.2582276635,566
125143,190669,266932,1.3782658175999998,8.1140614366,-5.3168518172,567
125243,190711,267002,1.4656038425,8.087740388,-5.2666025426,568
123709,190674,267016,1.4380863826,8.1140614366,-5.2666025426,569
119912,190502,266828,1.3471591237999998,8.0422767586,-5.3647082692,570
116121,190258,266651,1.3567304141999998,7.9944203065999995,-5.3192446398,571
113827,190113,266458,1.5613167465000002,8.070990629799999,-5.395814963,572
112763,189980,266434,1.4344971487,8.1224363157,-5.3288159302,573
112398,190002,266390,1.3064811396,8.087740388,-5.2115676228000005,574
112540,190005,266327,1.2765708571,8.1212399044,-5.312066172,575
112879,189986,266317,1.4201402131,8.0315090569,-5.4185467777000005,576
113023,190039,266340,1.3926227532000002,8.1750784129,-5.359922623999999,577
112840,190000,266346,1.4392827939,8.0207413552,-5.3336015753999995,578
112594,189994,266312,1.3998012210000002,8.0781690976,-5.2677989539,579
112475,189971,266346,1.351944769,8.0733834524,-5.252245607000001,580
112520,189945,266321,1.3555340029,8.0805619202,-5.2366922601,581
112684,189944,266266,1.5038890041,8.0853475654,-5.2127640341,582
112998,189922,266241,1.3854442854000002,8.1068829688,-5.2833523008,583
113240,189956,266273,1.3316057769,8.1032937349,-5.2319066149,584
113562,189950,266284,1.5014961814999999,8.111668614,-5.335994398,585
113851,189969,266281,1.4967105363,8.0937224445,-5.14456859,586
114116,189967,266281,1.3016954943999999,7.9992059518000005,-5.2606204861,587
114414,189938,266289,1.3411770673,8.0063844196,-5.2342994375,588
114726,189969,266275,1.3818550514999999,8.1176506705,-5.3336015753999995,589
115109,190005,266332,1.4165509792000002,8.0973116784,-5.2582276635,590
115481,190049,266362,1.3998012210000002,8.0949188558,-5.181657340299999,591
115651,189927,266335,1.4452648504,7.968099258,-5.2953164138,592
114370,189966,266314,1.3710873497999998,8.0733834524,-5.2438707279,593
111051,189752,266200,1.4165509792000002,8.049455226400001,-5.2977092364,594
107995,189553,265983,1.3148560187,8.063812162,-5.2905307686,595
106495,189412,265827,1.3998012210000002,8.0961152671,-5.312066172,596
106072,189332,265780,1.3208380752,8.0829547428,-5.3168518172,597
106267,189307,265806,1.4404792052000002,8.0674013959,-5.2953164138,598
106888,189324,265773,1.3782658175999998,8.1080793801,-5.2426743166000005,599
107685,189395,265821,1.2550354537,8.0973116784,-5.2558348409,600
108263,189414,265899,1.5373885205000002,8.061419339399999,-5.3264231076,601
108446,189462,265905,1.3543375915999998,7.9896346614,-5.2414779053,602
108393,189458,265936,1.3842478741,8.1092757914,-5.3264231076,603
108447,189435,265952,1.3495519463999999,8.1272219609,-5.2833523008,604
108651,189431,265897,1.2729816232,8.075776275,-5.309673349400001,605
109017,189420,265930,1.3579268255,7.9836526049,-5.324030285,606
109442,189485,266035,1.5290136414,8.0829547428,-5.2450671392,607
109891,189558,266045,1.3794622289,8.1391860739,-5.1912286306999995,608
110339,189551,266037,1.4153545679,8.049455226400001,-5.2749774217,609
110736,189553,266030,1.4739787216,7.953742322399999,-5.2570312522,610
111122,189575,266073,1.4237294470000001,8.087740388,-5.2857451234,611
111520,189545,266079,1.3854442854000002,8.0303126456,-5.2534420183,612
112036,189664,266097,1.4991033588999998,8.099704501,-5.3407800432,613
112512,189568,266165,1.3567304141999998,8.0339018795,-5.2977092364,614
112873,189655,266129,1.3435698899,7.8999038139,-5.2319066149,615
112089,189699,266132,1.3770694063,8.160721477300001,-5.2833523008,616
109131,189488,266005,1.4069796888000001,8.0901332106,-5.4125647212,617
106070,189284,265843,1.3639088819999998,8.0685978072,-5.279763066899999,618
104634,189154,265701,1.3076775509,8.0350982908,-5.169693227300001,619
104369,189069,265683,1.4847464232999998,8.0793655089,-5.4209396003000005,620
104746,189079,265728,1.3710873497999998,8.0303126456,-5.3706903257,621
105439,189146,265700,1.4787643668000001,8.1200434931,-5.2905307686,622
106360,189223,265815,1.4476576730000001,8.0769726863,-5.2905307686,623
107009,189276,265830,1.4440684390999998,8.1571322434,-5.288137946,624
107243,189287,265878,1.3974083984,8.1044901462,-5.2582276635,625
107299,189308,265858,1.3411770673,7.9501530885,-5.3048877041999996,626
107435,189317,265887,1.3220344865,7.9597243789,-5.3503513336,627
107722,189350,265946,1.4488540843,8.01595571,-5.280959478200001,628
108243,189389,265944,1.4045868662,8.051848049,-5.2857451234,629
108725,189439,266006,1.4476576730000001,8.159525066,-5.2498527844,630
109287,189491,265964,1.3782658175999998,8.147560953,-5.279763066899999,631
109824,189517,266078,1.3543375915999998,8.0374911134,-5.347958511000001,632
110328,189588,266127,1.4739787216,8.1128650253,-5.3336015753999995,633
110836,189596,266160,1.375872995,8.1631142999,-5.2737810104,634
111399,189663,266140,1.3806586402,8.0207413552,-5.1864429855,635
111943,189755,266200,1.4560325521,8.0973116784,-5.3144589946,636
112581,189812,266295,1.3710873497999998,8.1403824852,-5.3192446398,637
113047,189819,266283,1.4644074312,8.1140614366,-5.3024948815999995,638
112177,189825,266338,1.4261222696,7.9417782094,-5.2546384296,639
109480,189617,266206,1.2741780345,8.0339018795,-5.2247281471,640
106880,189513,266067,1.3232308977999998,8.1044901462,-5.294120002500001,641
105607,189434,265984,1.4213366244,7.9740813145,-5.3527441562,642
105305,189396,265972,1.3591232368,8.2157563971,-5.2462635505,643
105555,189413,265946,1.4344971487,8.155935832099999,-5.2689953652,644
106233,189524,266059,1.5230315848999998,8.2085779293,-5.1852465742,645
107173,189569,266101,1.3734801723999999,8.061419339399999,-5.312066172,646
107996,189626,266197,1.3016954943999999,8.1320076061,-5.2677989539,647
108509,189679,266241,1.4285150922,8.1188470818,-5.2271209697000005,648
108826,189740,266228,1.4691930764,8.2348989779,-5.3336015753999995,649
109173,189763,266296,1.3028919057000001,8.0733834524,-5.2127640341,650
109574,189789,266370,1.4799607781,8.0793655089,-5.2055855663,651
110102,189897,266356,1.4500504956,7.9740813145,-5.2905307686,652
110653,189884,266372,1.4069796888000001,7.9034930478000005,-5.3431728658,653
111253,189925,266452,1.4775679554999999,8.124829138299999,-5.2893343573,654
111844,189981,266446,1.4584253747,8.1140614366,-5.347958511000001,655
112397,189991,266560,1.3830514628000001,8.1344004287,-5.321637462399999,656
112925,190040,266578,1.4069796888000001,8.0829547428,-5.280959478200001,657
113471,190100,266575,1.4799607781,8.0853475654,-5.3072805268000005,658
114004,190150,266588,1.4632110199,7.9944203065999995,-5.2845487121,659
114642,190218,266696,1.3818550514999999,8.0063844196,-5.4017970195,660
115166,190253,266688,1.4476576730000001,8.0697942185,-5.2271209697000005,661
114928,190241,266666,1.3615160593999998,8.1439717191,-5.2618168974,662
112957,190155,266611,1.3495519463999999,8.0662049846,-5.3192446398,663
110516,190025,266531,1.3591232368,8.1427753078,-5.213960445400001,664
109027,189895,266378,1.4584253747,8.0590265168,-5.2857451234,665
108446,189786,266321,1.5708880369,8.0135628874,-5.3575298014,666
108471,189753,266314,1.4823536007,8.1571322434,-5.2606204861,667
108853,189780,266351,1.2777672683999999,8.0291162343,-5.3012984703,668
109654,189838,266409,1.4871392459,8.0805619202,-5.2785666556,669
110409,189892,266467,1.3806586402,8.1906317598,-5.2594240748,670
110882,189939,266452,1.387837108,8.0805619202,-5.3371908093,671
111166,189971,266509,1.4189438018,8.074579863699999,-5.3407800432,672
111420,190017,266488,1.3986048097,8.0386875247,-5.3336015753999995,673
111742,189999,266516,1.3770694063,8.1104722027,-5.2701917765,674
112113,190013,266566,1.4093725114000002,8.005188008300001,-5.2342994375,675
112559,190067,266610,1.5170495284,8.1320076061,-5.3012984703,676
113035,190087,266597,1.3854442854000002,8.1344004287,-5.2953164138,677
113521,190131,266617,1.3567304141999998,7.953742322399999,-5.264209719999999,678
113977,190140,266668,1.4261222696,8.0554372829,-5.2917271799,679
114467,190181,266691,1.5254244074999999,8.0937224445,-5.2953164138,680
114915,190169,266700,1.3986048097,7.9932238953,-5.280959478200001,681
115368,190270,266729,1.4715858990000001,8.01595571,-5.2378886713999995,682
115783,190191,266715,1.3208380752,8.0111700648,-5.2713881878,683
116180,190255,266766,1.4285150922,8.084151154099999,-5.1673004047,684
116557,190289,266730,1.3447663012,8.039883936,-5.2630133087,685
116936,190270,266799,1.4560325521,8.1224363157,-5.2857451234,686
117336,190342,266787,1.3950155758,8.2564343813,-5.324030285,687
117565,190309,266739,1.4632110199,8.0674013959,-5.2378886713999995,688
116800,190304,266713,1.4512469069,7.992027484,-5.292923591199999,689
114295,190138,266648,1.4392827939,8.063812162,-5.3264231076,690
111598,189958,266462,1.3639088819999998,8.1056865575,-5.2271209697000005,691
109946,189816,266377,1.3938191645,8.0769726863,-5.2450671392,692
109200,189727,266252,1.5110674719,7.9836526049,-5.2582276635,693
109028,189667,266257,1.4703894876999999,8.075776275,-5.3144589946,694
109333,189684,266283,1.3854442854000002,8.1068829688,-5.2713881878,695
109957,189712,266231,1.4488540843,8.0506516377,-5.2666025426,696
110489,189760,266307,1.4799607781,8.137989662599999,-5.276173833,697
110732,189767,266354,1.4428720278,8.0949188558,-5.292923591199999,698
110834,189789,266345,1.3926227532000002,8.0805619202,-5.2953164138,699
110929,189770,266360,1.4548361408000001,7.9872418388,-5.264209719999999,700
111108,189750,266303,1.4021940436,8.0470624038,-5.279763066899999,701
111402,189799,266342,1.4656038425,8.1188470818,-5.2689953652,702
111754,189724,266316,1.3698909385,8.075776275,-5.376672382200001,703
112106,189795,266350,1.5421741657,8.049455226400001,-5.2618168974,704
112492,189819,266350,1.4093725114000002,8.1523465982,-5.324030285,705
112914,189853,266372,1.3686945272,8.01595571,-5.2833523008,706
113300,189819,266327,1.4069796888000001,7.9716884919,-5.2677989539,707
113706,189882,266377,1.3483555351,8.111668614,-5.2725845991,708
114124,189887,266375,1.3148560187,8.0386875247,-5.2319066149,709
114549,189868,266422,1.3866406967,8.0470624038,-5.2725845991,710
114940,189893,266410,1.3543375915999998,7.9597243789,-5.2259245584,711
115307,189955,266461,1.3926227532000002,8.0781690976,-5.2319066149,712
115659,189939,266402,1.4380863826,8.0255270004,-5.3336015753999995,713
116012,189961,266408,1.5756736821000001,8.111668614,-5.288137946,714
116369,190011,266512,1.3663017045999999,8.0566336942,-5.2175496793,715
116761,190014,266453,1.4895320685,8.1810604694,-5.309673349400001,716
117107,189994,266439,1.4380863826,8.0327054682,-5.3192446398,717
117168,190009,266433,1.4057832774999999,8.0542408716,-5.324030285,718
115748,190000,266494,1.3399806559999998,8.0674013959,-5.292923591199999,719
113032,189859,266303,1.304088317,8.0554372829,-5.3862436726,720
110839,189687,266159,1.4428720278,8.1678999451,-5.3527441562,721
109747,189592,266073,1.4943177136999999,8.0949188558,-5.321637462399999,722
109418,189515,266044,1.4093725114000002,8.0111700648,-5.2546384296,723
109582,189549,265995,1.3555340029,8.01595571,-5.2570312522,724
110169,189582,265990,1.4021940436,8.039883936,-5.3383872206000005,725
110840,189602,266084,1.495514125,8.0434731699,-5.1960142759,726
111239,189641,266147,1.3148560187,8.070990629799999,-5.3455656884,727
111316,189629,266116,1.4584253747,8.057830105499999,-5.252245607000001,728
111290,189679,266159,1.4524433182,8.0817583315,-5.2737810104,729
111388,189670,266167,1.3902299306,8.1344004287,-5.2977092364,730
111640,189689,266146,1.4943177136999999,8.0733834524,-5.2570312522,731
111969,189638,266158,1.4069796888000001,8.0985080897,-5.3108697607,732
112329,189732,266218,1.4907284798,8.1942209937,-5.2666025426,733
112692,189808,266211,1.4093725114000002,8.1511501869,-5.2342994375,734
113106,189819,266154,1.3926227532000002,8.0219377665,-5.2019963324,735
113513,189864,266212,1.4189438018,8.0063844196,-5.2618168974,736
113932,189882,266274,1.387837108,8.0829547428,-5.2271209697000005,737
114370,189929,266240,1.4404792052000002,8.051848049,-5.288137946,738
114833,189937,266271,1.3866406967,8.102097323599999,-5.2953164138,739
115257,190004,266385,1.5158531170999998,8.0087772422,-5.2953164138,740
115715,190043,266309,1.3591232368,8.099704501,-5.1864429855,741
116155,190077,266304,1.4237294470000001,8.160721477300001,-5.2953164138,742
116549,190142,266433,1.3902299306,8.003991596999999,-5.1888358081,743
116937,190165,266406,1.3292129543,8.0327054682,-5.2630133087,744
117329,190178,266471,1.375872995,8.051848049,-5.2534420183,745
117756,190272,266504,1.4572289634,8.1918281711,-5.3431728658,746
118207,190332,266558,1.3328021881999998,8.102097323599999,-5.2223353244999995,747
118530,190316,266588,1.4273186809,8.0937224445,-5.251049195699999,748
118069,190347,266589,1.4715858990000001,8.0829547428,-5.3180482284999995,749
116075,190318,266566,1.5158531170999998,8.116454259200001,-5.2031927437,750
113673,190216,266432,1.3627124707,8.0470624038,-5.306084115499999,751
112202,190116,266368,1.3447663012,8.1044901462,-5.3264231076,752
111530,190062,266356,1.5230315848999998,8.1080793801,-5.2175496793,753
111397,190044,266279,1.4333007374,8.0901332106,-5.2977092364,754
111679,190070,266299,1.387837108,8.1439717191,-5.331208752799999,755
112289,190124,266302,1.3806586402,8.1619178886,-5.3264231076,756
112892,190134,266362,1.4656038425,8.039883936,-5.3108697607,757
113246,190144,266434,1.3806586402,7.9453674433,-5.309673349400001,758
113396,190254,266433,1.3292129543,8.1140614366,-5.3024948815999995,759
113512,190246,266455,1.3567304141999998,8.003991596999999,-5.2666025426,760
113697,190241,266434,1.4548361408000001,8.0985080897,-5.3048877041999996,761
113986,190308,266474,1.4081761001,8.0973116784,-5.3048877041999996,762
114317,190327,266449,1.4871392459,8.0721870411,-5.251049195699999,763
114683,190389,266553,1.3926227532000002,8.1092757914,-5.4101718986,764
115071,190390,266537,1.375872995,8.0207413552,-5.292923591199999,765
115498,190400,266533,1.4883356572,8.170292767700001,-5.2701917765,766
115876,190476,266552,1.3639088819999998,8.1068829688,-5.292923591199999,767
116295,190450,266574,1.4416756165,8.1415788965,-5.2378886713999995,768
116680,190474,266630,1.5038890041,8.044669581199999,-5.3264231076,769
117048,190537,266572,1.4189438018,8.0339018795,-5.324030285,770
117422,190525,266630,1.3902299306,8.0566336942,-5.362315446599999,771
117835,190597,266653,1.5266208188,8.0350982908,-5.324030285,772
118233,190621,266684,1.328016543,8.2253276875,-5.312066172,773
118579,190609,266684,1.4967105363,7.972884903200001,-5.2857451234,774
118279,190646,266710,1.4500504956,8.0542408716,-5.2546384296,775
116621,190575,266708,1.4476576730000001,8.240881034400001,-5.2857451234,776
114444,190485,266579,1.4428720278,8.171489179,-5.2905307686,777
112932,190336,266465,1.5110674719,8.1798640581,-5.3192446398,778
112184,190295,266355,1.3950155758,8.0386875247,-5.3072805268000005,779
111978,190292,266328,1.3938191645,8.2253276875,-5.240281494,780
112160,190284,266361,1.3148560187,8.1774712355,-5.2845487121,781
112667,190300,266387,1.4679966650999998,8.0937224445,-5.2594240748,782
113234,190317,266413,1.3734801723999999,8.1140614366,-5.3300123415,783
113564,190366,266408,1.3639088819999998,8.1272219609,-5.2558348409,784
113686,190396,266436,1.4333007374,8.027919823,-5.292923591199999,785
113786,190411,266393,1.4225330357,8.1870425259,-5.2331030262,786
113928,190421,266442,1.3734801723999999,8.0183485326,-5.3814580274,787
114183,190409,266432,1.4129617452999998,8.0207413552,-5.294120002500001,788
114471,190428,266422,1.5014961814999999,8.0650085733,-5.3288159302,789
114808,190470,266487,1.3830514628000001,7.9788669596999995,-5.2570312522,790
115148,190446,266422,1.4009976323,8.0805619202,-5.2713881878,791
115510,190470,266439,1.4237294470000001,8.1786676468,-5.2689953652,792
115888,190537,266467,1.4021940436,8.1583286547,-5.306084115499999,793
116258,190543,266503,1.3998012210000002,8.063812162,-5.2450671392,794
116630,190555,266507,1.4201402131,7.9908310727,-5.2713881878,795
117056,190587,266519,1.4213366244,8.051848049,-5.182853751600001,796
117386,190604,266515,1.3543375915999998,8.111668614,-5.3012984703,797
117713,190631,266476,1.4943177136999999,8.1499537756,-5.2426743166000005,798
117994,190580,266492,1.3890335193,8.1667035338,-5.2594240748,799
118245,190553,266509,1.3746765837,8.0721870411,-5.3192446398,800
118506,190565,266496,1.3686945272,8.1032937349,-5.2534420183,801
118703,190581,266501,1.3232308977999998,8.0506516377,-5.306084115499999,802
119086,190577,266450,1.483550012,7.969295669299999,-5.2570312522,803
119238,190569,266454,1.4500504956,8.1427753078,-5.169693227300001,804
118489,190575,266435,1.4512469069,8.1344004287,-5.223531735800001,805
116398,190492,266392,1.3579268255,8.0362947021,-5.2833523008,806
114247,190319,266285,1.5086746492999998,7.9669028467,-5.3742795596,807
112905,190219,266154,1.3794622289,8.1140614366,-5.3455656884,808
112240,190111,266094,1.5661023917,8.1200434931,-5.252245607000001,809
112059,190070,266045,1.4069796888000001,8.0913296219,-5.235495848799999,810
112253,190053,265993,1.4524433182,8.1451681304,-5.2247281471,811
112710,190069,266016,1.3112667848,8.0793655089,-5.371886737,812
113088,190120,266002,1.5002997702,8.0207413552,-5.2175496793,813
113264,190072,266020,1.4608181972999998,8.0075808309,-5.2677989539,814
113271,190059,266032,1.3375878334,8.0865439767,-5.3419764545,815
113292,190067,266023,1.4285150922,8.128418372199999,-5.3264231076,816
113389,190060,266003,1.5038890041,8.147560953,-5.294120002500001,817
113572,190046,266000,1.3555340029,8.0482588151,-5.3144589946,818
113841,190055,266009,1.3830514628000001,7.969295669299999,-5.2342994375,819
114140,190078,265978,1.3579268255,7.9968131291999995,-5.2965128251,820
114445,190090,265938,1.4428720278,8.075776275,-5.3132625833,821
114778,190084,265997,1.4021940436,8.1487573643,-5.292923591199999,822
115137,190079,265966,1.3854442854000002,8.1894353485,-5.2582276635,823
115496,190111,265976,1.3710873497999998,8.1583286547,-5.3431728658,824
115852,190083,265994,1.2873385588,8.075776275,-5.2857451234,825
116215,190093,265996,1.4787643668000001,8.099704501,-5.3336015753999995,826
116579,190157,266065,1.5589239239000001,8.0805619202,-5.2438707279,827
116935,190175,266021,1.351944769,8.1200434931,-5.2570312522,828
117267,190168,266045,1.3304093655999998,8.1200434931,-5.359922623999999,829
117578,190178,266025,1.2777672683999999,8.0327054682,-5.2498527844,830
117865,190159,266002,1.5050854154,8.0602229281,-5.2689953652,831
118162,190179,266050,1.4213366244,8.0901332106,-5.3682975031,832
118468,190172,266064,1.411765334,8.1140614366,-5.3264231076,833
118825,190221,265998,1.4512469069,8.1463645417,-5.2618168974,834
119113,190211,265997,1.3806586402,8.115257847899999,-5.2857451234,835
119105,190200,266017,1.3112667848,7.970492080600001,-5.264209719999999,836
117720,190175,266043,1.387837108,8.0219377665,-5.312066172,837
115632,190082,265859,1.4883356572,8.2205420423,-5.3048877041999996,838
113979,189949,265829,1.4069796888000001,8.1044901462,-5.2857451234,839
113105,189867,265798,1.5206387623,7.9226356286,-5.2271209697000005,840
112839,189819,265727,1.4512469069,8.0662049846,-5.2558348409,841
112882,189834,265692,1.3782658175999998,8.1463645417,-5.3048877041999996,842
113204,189855,265745,1.5014961814999999,8.1212399044,-5.2438707279,843
113588,189863,265749,1.4237294470000001,8.169096356399999,-5.3934221404,844
113775,189907,265743,1.5038890041,8.0925260332,-5.3048877041999996,845
113777,189917,265805,1.5254244074999999,8.0865439767,-5.2558348409,846
113721,189922,265819,1.3244273091,8.271987728200001,-5.1601219369,847
113762,189901,265823,1.4476576730000001,7.9824561936,-5.321637462399999,848
113943,189954,265808,1.3399806559999998,8.1439717191,-5.280959478200001,849
114222,189998,265848,1.3483555351,8.129614783500001,-5.2737810104,850
114576,189927,265840,1.4368899712999998,7.932206919,-5.2630133087,851
114918,190035,265875,1.3531411803,8.0422767586,-5.3192446398,852
115288,190106,265926,1.4548361408000001,8.123632727,-5.2953164138,853
115706,190161,265982,1.3686945272,7.980063371,-5.3264231076,854
116082,190178,266010,1.3088739621999999,8.044669581199999,-5.2713881878,855
116465,190199,266041,1.2717852119000002,8.0327054682,-5.2175496793,856
116828,190191,266028,1.4775679554999999,8.0662049846,-5.3946185517,857
117222,190241,266062,1.4165509792000002,8.1439717191,-5.264209719999999,858
117646,190327,266142,1.5613167465000002,7.9621172015,-5.3288159302,859
118073,190359,266198,1.4237294470000001,8.13559684,-5.3419764545,860
118383,190376,266177,1.328016543,8.1080793801,-5.2474599618,861
117927,190425,266209,1.5828521499000001,8.0410803473,-5.2953164138,862
116189,190365,266177,1.5397813431,7.9585279676,-5.2953164138,863
114189,190225,266059,1.3998012210000002,8.0470624038,-5.2785666556,864
112935,190141,266021,1.4380863826,8.099704501,-5.3647082692,865
112372,190051,265962,1.4799607781,8.0793655089,-5.2737810104,866
112220,190040,265936,1.328016543,8.129614783500001,-5.3144589946,867
112406,190097,265965,1.3124631961,8.129614783500001,-5.2737810104,868
112918,190138,266007,1.4500504956,8.0674013959,-5.2630133087,869
113422,190188,266003,1.4404792052000002,8.1487573643,-5.264209719999999,870
113757,190186,266056,1.3639088819999998,8.0985080897,-5.362315446599999,871
113886,190236,266082,1.4285150922,7.9872418388,-5.2833523008,872
114035,190244,266106,1.4656038425,8.044669581199999,-5.2259245584,873
114280,190272,266135,1.4967105363,8.1176506705,-5.248656373099999,874
114526,190287,266144,1.4165509792000002,8.1320076061,-5.2378886713999995,875
114889,190320,266208,1.4404792052000002,8.0087772422,-5.3455656884,876
115284,190330,266232,1.3746765837,8.087740388,-5.3276195189,877
115661,190350,266218,1.4261222696,8.1140614366,-5.2713881878,878
116064,190388,266282,1.4021940436,8.1511501869,-5.2737810104,879
116460,190391,266185,1.375872995,8.155935832099999,-5.292923591199999,880
116874,190485,266219,1.3686945272,8.0327054682,-5.3455656884,881
117277,190472,266324,1.3710873497999998,8.084151154099999,-5.2606204861,882
117704,190482,266330,1.5613167465000002,7.998009540499999,-5.3264231076,883
118080,190484,266300,1.4189438018,8.0674013959,-5.4125647212,884
118493,190522,266348,1.4644074312,8.0925260332,-5.312066172,885
118834,190559,266339,1.4452648504,8.063812162,-5.2857451234,886
119244,190598,266401,1.5182459396999999,8.1870425259,-5.3144589946,887
119645,190593,266368,1.3088739621999999,7.9214392173,-5.2785666556,888
119588,190595,266415,1.4009976323,7.9190463947000005,-5.3336015753999995,889
118293,190613,266425,1.3734801723999999,8.1966138163,-5.3168518172,890
116098,190497,266348,1.3316057769,8.0470624038,-5.3671010918,891
114397,190331,266157,1.4799607781,8.0865439767,-5.2677989539,892
113524,190267,266142,1.351944769,8.0506516377,-5.2677989539,893
113201,190235,266097,1.3854442854000002,8.1487573643,-5.335994398,894
113240,190259,266149,1.4404792052000002,8.0147592987,-5.3611190353,895
113555,190265,266149,1.5086746492999998,8.0530444603,-5.2582276635,896
114074,190283,266164,1.4261222696,8.0542408716,-5.324030285,897
114464,190344,266170,1.3806586402,8.063812162,-5.2534420183,898
114617,190380,266247,1.3459627125,8.0063844196,-5.3300123415,899
114692,190379,266264,1.3686945272,8.0925260332,-5.3048877041999996,900
114836,190354,266224,1.5218351736,8.061419339399999,-5.2055855663,901
115018,190341,266266,1.3926227532000002,8.0685978072,-5.2713881878,902
115331,190397,266304,1.4536397294999999,8.111668614,-5.2821558895,903
115677,190422,266331,1.5445669883000002,8.0973116784,-5.321637462399999,904
116056,190460,266337,1.3866406967,8.1643107112,-5.3742795596,905
116432,190468,266352,1.3950155758,8.074579863699999,-5.3694939144,906
116791,190474,266330,1.4093725114000002,8.063812162,-5.3072805268000005,907
117219,190485,266431,1.4069796888000001,8.2133635745,-5.3431728658,908
117588,190439,266399,1.5577275125999999,8.0470624038,-5.1960142759,909
117997,190551,266442,1.3316057769,8.0662049846,-5.3024948815999995,910
118375,190597,266451,1.3998012210000002,8.0937224445,-5.2713881878,911
118736,190552,266452,1.3902299306,8.1080793801,-5.2737810104,912
119107,190561,266434,1.43569356,8.0805619202,-5.3072805268000005,913
119473,190550,266422,1.3543375915999998,8.0685978072,-5.362315446599999,914
119834,190636,266439,1.4452648504,8.0865439767,-5.2917271799,915
120152,190613,266467,1.4009976323,8.0829547428,-5.2019963324,916
120038,190601,266494,1.3531411803,7.9824561936,-5.2953164138,917
118546,190516,266447,1.4057832774999999,8.0183485326,-5.3288159302,918
116301,190402,266263,1.351944769,8.1367932513,-5.279763066899999,919
114641,190252,266191,1.4009976323,8.1499537756,-5.2175496793,920
113778,190167,266090,1.4333007374,7.9597243789,-5.3850472612999996,921
113480,190122,266058,1.4979069476,8.027919823,-5.3671010918,922
113483,190105,266066,1.3734801723999999,7.9884382501,-5.3168518172,923
113794,190116,266072,1.4165509792000002,8.061419339399999,-5.2618168974,924
114256,190148,266093,1.4476576730000001,8.070990629799999,-5.2713881878,925
114569,190136,266072,1.3710873497999998,8.0530444603,-5.1744788725,926
114683,190119,266126,1.4261222696,8.0973116784,-5.3503513336,927
114713,190078,266125,1.4967105363,8.137989662599999,-5.2977092364,928
114818,190109,266098,1.4057832774999999,8.1092757914,-5.347958511000001,929
115013,190123,266075,1.4572289634,8.0434731699,-5.2378886713999995,930
115269,190070,266062,1.3459627125,8.173882001600001,-5.2689953652,931
115591,190122,266120,1.3567304141999998,8.051848049,-5.2785666556,932
115938,190133,266091,1.5254244074999999,7.9992059518000005,-5.3336015753999995,933
116298,190145,266068,1.5026925928000001,7.9633136127999995,-5.210371211499999,934
116609,190154,266113,1.5110674719,8.0135628874,-5.2953164138,935
116993,190193,266151,1.4440684390999998,8.1655071225,-5.309673349400001,936
117363,190187,266135,1.4452648504,7.9776705484,-5.324030285,937
117763,190202,266158,1.3902299306,8.0925260332,-5.2295137923,938
118117,190219,266146,1.4715858990000001,8.0362947021,-5.140979356100001,939
118452,190196,266177,1.4775679554999999,8.0231341778,-5.2905307686,940
118781,190250,266146,1.3902299306,8.039883936,-5.1673004047,941
119202,190240,266189,1.4584253747,8.1631142999,-5.362315446599999,942
119548,190232,266204,1.2885349701,8.160721477300001,-5.3383872206000005,943
119837,190237,266208,1.3088739621999999,8.0542408716,-5.2689953652,944
119570,190210,266196,1.4919248910999998,8.0422767586,-5.3072805268000005,945
118016,190187,266086,1.4153545679,8.1200434931,-5.2558348409,946
115953,190081,266049,1.4237294470000001,8.1104722027,-5.2977092364,947
114536,189958,265926,1.5349956979000001,8.0327054682,-5.2977092364,948
113887,189879,265912,1.4787643668000001,8.0793655089,-5.2331030262,949
113722,189852,265888,1.4572289634,8.0087772422,-5.2701917765,950
113878,189885,265835,1.4249258583,8.0434731699,-5.3527441562,951
114283,189875,265846,1.280160091,8.1870425259,-5.239085082699999,952
114734,189914,265865,1.3435698899,8.0805619202,-5.2534420183,953
114953,189931,265927,1.3734801723999999,8.1128650253,-5.3706903257,954
114987,189909,265906,1.328016543,7.998009540499999,-5.2737810104,955
114988,189951,265958,1.43569356,8.0063844196,-5.3407800432,956
115103,189936,265913,1.5565311013,7.9477602659,-5.2677989539,957
115339,189951,265940,1.3962119871,8.0853475654,-5.264209719999999,958
115641,189988,265940,1.4703894876999999,7.980063371,-5.4209396003000005,959
115981,189982,265968,1.4811571894,7.925028451199999,-5.292923591199999,960
116329,190021,265954,1.5062818266999998,8.182256880699999,-5.264209719999999,961
116642,190060,265992,1.4129617452999998,8.0303126456,-5.3336015753999995,962
117010,190069,266011,1.3543375915999998,8.074579863699999,-5.2977092364,963
117369,190051,266054,1.4464612617,8.0901332106,-5.248656373099999,964
117719,190148,266049,1.3579268255,8.0015987744,-5.210371211499999,965
118058,190151,266052,1.4129617452999998,8.027919823,-5.2450671392,966
118451,190173,266079,1.4691930764,7.911867926899999,-5.3024948815999995,967
118807,190233,266200,1.2239287599,8.049455226400001,-5.264209719999999,968
119221,190294,266159,1.3854442854000002,8.070990629799999,-5.3024948815999995,969
119628,190302,266180,1.2789636797000001,7.9908310727,-5.3431728658,970
119695,190336,266249,1.4189438018,7.9585279676,-5.252245607000001,971
118561,190362,266193,1.5254244074999999,7.998009540499999,-5.239085082699999,972
116467,190169,266083,1.387837108,8.0327054682,-5.2319066149,973
114760,190040,266054,1.3184452526,8.116454259200001,-5.2869415346999995,974
113847,190015,265948,1.351944769,7.9633136127999995,-5.2223353244999995,975
113509,190011,265980,1.4656038425,8.1511501869,-5.1936214533,976
113552,190028,265967,1.4213366244,8.0853475654,-5.309673349400001,977
113963,190075,265958,1.3387842447,8.0422767586,-5.3575298014,978
114466,190097,265999,1.2921242039999998,8.1918281711,-5.3874400839,979
114900,190176,266097,1.4584253747,8.0733834524,-5.3826544387,980
115077,190158,266066,1.4703894876999999,8.0410803473,-5.300102059,981
115171,190204,266077,1.3639088819999998,8.1583286547,-5.292923591199999,982
115355,190210,266146,1.3304093655999998,8.13559684,-5.309673349400001,983
115640,190218,266167,1.4297115034999999,8.195417404999999,-5.300102059,984
116000,190236,266098,1.3902299306,8.063812162,-5.359922623999999,985
116363,190287,266201,1.3962119871,8.1200434931,-5.312066172,986
116727,190309,266187,1.3543375915999998,8.185846114599999,-5.2977092364,987
117140,190345,266236,1.4416756165,8.0662049846,-5.3168518172,988
117595,190410,266233,1.4141581566,8.1547394208,-5.2247281471,989
117946,190382,266247,1.3399806559999998,8.039883936,-5.2426743166000005,990
118390,190442,266269,1.4811571894,8.0769726863,-5.3168518172,991
118803,190472,266261,1.4584253747,8.1415788965,-5.223531735800001,992
119234,190515,266354,1.3974083984,8.1846497033,-5.2091748002,993
119602,190533,266366,1.4632110199,8.0542408716,-5.324030285,994
119952,190561,266364,1.3100703735,8.124829138299999,-5.3431728658,995
120284,190614,266356,1.4045868662,8.1750784129,-5.2977092364,996
120600,190605,266424,1.4404792052000002,8.0925260332,-5.2785666556,997
120907,190604,266373,1.43569356,8.0219377665,-5.376672382200001,998
121230,190650,266413,1.4823536007,8.102097323599999,-5.288137946,999
121562,190659,266449,1.3663017045999999,8.0925260332,-5.2618168974,1000
121895,190655,266512,1.3615160593999998,8.099704501,-5.2977092364,1001
122215,190692,266423,1.4213366244,8.0087772422,-5.252245607000001,1002
122534,190724,266531,1.375872995,8.0015987744,-5.300102059,1003
122834,190734,266520,1.3591232368,8.063812162,-5.2582276635,1004
123158,190770,266572,1.3112667848,8.084151154099999,-5.2546384296,1005
123457,190826,266534,1.4644074312,8.0063844196,-5.3826544387,1006
123772,190799,266599,1.3926227532000002,8.0925260332,-5.276173833,1007
124056,190873,266531,1.4572289634,8.111668614,-5.3192446398,1008
124366,190846,266624,1.3974083984,8.070990629799999,-5.2223353244999995,1009
124652,190862,266627,1.3483555351,8.0590265168,-5.2953164138,1010
124934,190871,266620,1.387837108,8.0973116784,-5.2546384296,1011
125236,190920,266595,1.4333007374,8.0327054682,-5.1912286306999995,1012
125487,190925,266645,1.3794622289,8.0111700648,-5.3072805268000005,1013
125765,190925,266642,1.4009976323,8.057830105499999,-5.2450671392,1014
126018,190917,266619,1.4703894876999999,8.102097323599999,-5.309673349400001,1015
126289,190981,266625,1.4703894876999999,8.0530444603,-5.3252266963,1016
126592,190990,266672,1.3806586402,8.1056865575,-5.404189842099999,1017
126858,191006,266661,1.4321043261,8.099704501,-5.4017970195,1018
127108,191023,266709,1.2873385588,8.049455226400001,-5.2247281471,1019
126648,191071,266697,1.3256237203999999,8.1032937349,-5.2366922601,1020
124430,190963,266689,1.2406785181,8.1535430095,-5.2474599618,1021
121675,190797,266543,1.4021940436,8.044669581199999,-5.2689953652,1022
119604,190660,266398,1.3507483577,8.1391860739,-5.315655405899999,1023
118463,190612,266345,1.3806586402,7.9453674433,-5.2055855663,1024
117963,190525,266252,1.4069796888000001,8.039883936,-5.335994398,1025
117847,190556,266306,1.4165509792000002,8.0015987744,-5.292923591199999,1026
118058,190546,266283,1.4871392459,8.0865439767,-5.306084115499999,1027
118291,190563,266293,1.4380863826,8.1212399044,-5.3048877041999996,1028
118308,190604,266285,1.5134602944999997,8.1439717191,-5.3336015753999995,1029
118188,190559,266310,1.3938191645,8.099704501,-5.3168518172,1030
118110,190545,266306,1.5002997702,8.0243305891,-5.3527441562,1031
118118,190573,266308,1.5218351736,8.0374911134,-5.3407800432,1032
118273,190549,266310,1.4081761001,8.099704501,-5.2594240748,1033
118460,190586,266325,1.4943177136999999,7.9836526049,-5.3168518172,1034
118684,190593,266244,1.4512469069,8.0374911134,-5.2115676228000005,1035
118933,190576,266293,1.3639088819999998,8.0566336942,-5.2618168974,1036
119229,190623,266278,1.4261222696,8.1092757914,-5.2594240748,1037
119524,190626,266339,1.3663017045999999,8.2169528084,-5.3659046805,1038
119855,190624,266310,1.3818550514999999,8.0554372829,-5.2953164138,1039
120166,190625,266313,1.3579268255,8.13559684,-5.1900322194,1040
120454,190616,266297,1.3950155758,8.0530444603,-5.1960142759,1041
120747,190621,266292,1.5158531170999998,8.070990629799999,-5.3084769381,1042
121007,190572,266317,1.3591232368,7.9633136127999995,-5.2618168974,1043
121315,190593,266307,1.5302100526999998,8.1092757914,-5.3551369788,1044
121651,190599,266320,1.4189438018,8.1750784129,-5.3288159302,1045
121965,190618,266289,1.4907284798,8.003991596999999,-5.2618168974,1046
121912,190614,266352,1.3974083984,8.1128650253,-5.3192446398,1047
120357,190512,266253,1.2681959779999998,8.0350982908,-5.3503513336,1048
117842,190349,266113,1.4249258583,8.1212399044,-5.2749774217,1049
115883,190071,265985,1.4213366244,7.9812597822999996,-5.3527441562,1050
114825,190078,265864,1.5361921092,8.0243305891,-5.1936214533,1051
114387,190065,265917,1.5134602944999997,8.0853475654,-5.3431728658,1052
114407,189974,265839,1.5086746492999998,8.0327054682,-5.2438707279,1053
114714,190038,265847,1.4572289634,7.998009540499999,-5.2031927437,1054
115159,190086,265853,1.5026925928000001,7.9824561936,-5.312066172,1055
115474,190078,265896,1.3734801723999999,8.0781690976,-5.4221360116,1056
115613,190071,265898,1.4883356572,8.0769726863,-5.2821558895,1057
115605,190068,265882,1.4703894876999999,7.9824561936,-5.2378886713999995,1058
115681,190040,265845,1.4644074312,8.057830105499999,-5.2582276635,1059
115846,190068,265871,1.5134602944999997,8.1092757914,-5.216353268,1060
116108,190065,265867,1.4500504956,8.0422767586,-5.312066172,1061
116457,190048,265894,1.4225330357,8.099704501,-5.2713881878,1062
116782,190061,265899,1.3830514628000001,8.1344004287,-5.2534420183,1063
117160,190117,265885,1.3220344865,8.0853475654,-5.2701917765,1064
117529,190048,265913,1.2789636797000001,7.9190463947000005,-5.3491549223,1065
117904,190085,265914,1.3064811396,8.0183485326,-5.2618168974,1066
118283,190146,265949,1.4093725114000002,8.0255270004,-5.2737810104,1067
118654,190102,265915,1.5242279962,8.01595571,-5.321637462399999,1068
119061,190136,265917,1.4261222696,7.980063371,-5.2594240748,1069
119444,190162,265964,1.4069796888000001,8.051848049,-5.3144589946,1070
119867,190168,265980,1.3998012210000002,8.1140614366,-5.2713881878,1071
120263,190150,265974,1.3998012210000002,8.061419339399999,-5.309673349400001,1072
120224,190142,266008,1.4787643668000001,8.0231341778,-5.264209719999999,1073
118753,190052,265960,1.5589239239000001,8.0470624038,-5.2606204861,1074
116403,189931,265818,1.4799607781,8.1068829688,-5.324030285,1075
114679,189789,265738,1.3902299306,8.0530444603,-5.2905307686,1076
113848,189716,265651,1.4871392459,8.1044901462,-5.2546384296,1077
113664,189754,265606,1.4285150922,8.1631142999,-5.324030285,1078
113868,189700,265603,1.387837108,8.1128650253,-5.3048877041999996,1079
114353,189715,265664,1.4751751328999998,8.1092757914,-5.2127640341,1080
114847,189758,265683,1.4069796888000001,8.039883936,-5.1888358081,1081
115156,189816,265717,1.3328021881999998,8.1104722027,-5.2689953652,1082
115217,189766,265737,1.5948162629,8.044669581199999,-5.2689953652,1083
115205,189787,265711,1.4632110199,7.9872418388,-5.3551369788,1084
115298,189738,265726,1.2957134379000002,8.0542408716,-5.3024948815999995,1085
115531,189780,265749,1.3722837611,8.160721477300001,-5.194817864599999,1086
115881,189830,265774,1.3926227532000002,8.0207413552,-5.359922623999999,1087
116241,189749,265786,1.3543375915999998,8.115257847899999,-5.251049195699999,1088
116644,189869,265813,1.4608181972999998,8.124829138299999,-5.2737810104,1089
117039,189869,265846,1.3543375915999998,7.9932238953,-5.3024948815999995,1090
117436,189951,265885,1.4321043261,8.124829138299999,-5.2857451234,1091
117828,189978,265919,1.3567304141999998,7.984849016199999,-5.3551369788,1092
118190,189976,265935,1.4333007374,8.1750784129,-5.288137946,1093
118604,190022,266020,1.5230315848999998,8.0530444603,-5.2331030262,1094
119056,190115,266004,1.4380863826,7.9992059518000005,-5.3048877041999996,1095
119571,190166,266043,1.4428720278,8.1068829688,-5.2833523008,1096
119895,190148,266083,1.3124631961,8.003991596999999,-5.2701917765,1097
119255,190213,266138,1.4931213024,7.9645100241,-5.2498527844,1098
117224,190058,266024,1.4093725114000002,7.953742322399999,-5.280959478200001,1099
115115,189959,265978,1.3902299306,8.0901332106,-5.2917271799,1100
113925,189879,265909,1.3232308977999998,8.182256880699999,-5.3503513336,1101
113470,189812,265834,1.4656038425,8.0374911134,-5.2223353244999995,1102
113433,189873,265877,1.411765334,8.0590265168,-5.2713881878,1103
113787,189921,265872,1.4392827939,8.0004023631,-5.2342994375,1104
114368,189913,265960,1.4069796888000001,8.075776275,-5.3264231076,1105
114913,190015,265917,1.4560325521,8.0985080897,-5.2534420183,1106
115211,190032,266039,1.3986048097,8.1367932513,-5.3204410510999995,1107
115347,190041,266047,1.3974083984,8.13559684,-5.239085082699999,1108
115491,190065,266058,1.5038890041,8.1176506705,-5.288137946,1109
115764,190089,266125,1.3603196481,8.1068829688,-5.2737810104,1110
116157,190111,266179,1.5062818266999998,8.1990066389,-5.279763066899999,1111
116573,190136,266145,1.4021940436,7.957331556300001,-5.300102059,1112
117051,190205,266193,1.4189438018,8.0482588151,-5.2606204861,1113
117485,190212,266296,1.2885349701,8.111668614,-5.292923591199999,1114
117930,190175,266287,1.411765334,8.0374911134,-5.38385085,1115
118387,190287,266337,1.411765334,8.0590265168,-5.3455656884,1116
118818,190329,266337,1.4691930764,8.099704501,-5.2558348409,1117
119247,190220,266379,1.4991033588999998,7.9657064354,-5.38385085,1118
119644,190359,266364,1.3603196481,8.129614783500001,-5.3850472612999996,1119
120073,190403,266431,1.4213366244,8.102097323599999,-5.3168518172,1120
120549,190453,266418,1.4967105363,8.0925260332,-5.2953164138,1121
120957,190496,266478,1.4105689227,8.070990629799999,-5.2474599618,1122
121023,190517,266506,1.4368899712999998,8.003991596999999,-5.2833523008,1123
119586,190426,266465,1.4141581566,7.9896346614,-5.2474599618,1124
117217,190291,266388,1.4045868662,7.972884903200001,-5.3264231076,1125
115371,190144,266276,1.4500504956,8.123632727,-5.3455656884,1126
114405,190099,266198,1.4775679554999999,8.0183485326,-5.3419764545,1127
114074,190061,266113,1.4775679554999999,8.061419339399999,-5.264209719999999,1128
114117,190080,266137,1.4249258583,7.992027484,-5.2833523008,1129
114426,190060,266158,1.3926227532000002,8.1092757914,-5.251049195699999,1130
114921,190116,266194,1.3615160593999998,8.051848049,-5.2701917765,1131
115377,190154,266239,1.3950155758,8.137989662599999,-5.2175496793,1132
115565,190156,266300,1.4524433182,8.1774712355,-5.280959478200001,1133
115667,190164,266246,1.3268201317000001,8.0327054682,-5.2977092364,1134
115833,190173,266271,1.4476576730000001,8.0781690976,-5.2725845991,1135
116153,190191,266266,1.411765334,8.102097323599999,-5.389832906500001,1136
116500,190202,266326,1.4763715442,7.9872418388,-5.309673349400001,1137
116860,190199,266324,1.3483555351,8.1631142999,-5.3575298014,1138
117241,190259,266292,1.4141581566,8.1367932513,-5.2630133087,1139
117628,190224,266402,1.3842478741,8.063812162,-5.363511857900001,1140
118040,190295,266397,1.459621786,8.0231341778,-5.3826544387,1141
118483,190306,266417,1.4691930764,8.2648092604,-5.288137946,1142
118972,190369,266478,1.4225330357,8.0566336942,-5.182853751600001,1143
119440,190402,266509,1.3615160593999998,8.027919823,-5.1936214533,1144
119839,190370,266445,1.3710873497999998,8.0111700648,-5.292923591199999,1145
120253,190418,266505,1.5565311013,7.9585279676,-5.2845487121,1146
120628,190439,266521,1.4237294470000001,8.0961152671,-5.3982077855999995,1147
120966,190460,266569,1.3495519463999999,8.0805619202,-5.2977092364,1148
121317,190465,266601,1.3387842447,8.0231341778,-5.235495848799999,1149
121668,190481,266552,1.4703894876999999,8.087740388,-5.2271209697000005,1150
122022,190546,266598,1.4859428346,8.1092757914,-5.3383872206000005,1151
122374,190551,266578,1.4476576730000001,8.044669581199999,-5.3024948815999995,1152
122700,190589,266581,1.3830514628000001,8.0207413552,-5.3778687935,1153
123066,190588,266616,1.4201402131,8.0733834524,-5.2127640341,1154
123439,190660,266668,1.4488540843,8.0015987744,-5.335994398,1155
123765,190659,266659,1.43569356,8.070990629799999,-5.2319066149,1156
124101,190625,266698,1.3974083984,8.1667035338,-5.3264231076,1157
124425,190686,266740,1.483550012,8.0949188558,-5.2713881878,1158
124681,190705,266750,1.3351950108,8.137989662599999,-5.276173833,1159
125073,190727,266746,1.4333007374,8.0015987744,-5.2151568567,1160
125359,190686,266771,1.5589239239000001,8.123632727,-5.309673349400001,1161
125676,190749,266802,1.4524433182,8.1128650253,-5.2570312522,1162
125988,190773,266760,1.4871392459,8.0207413552,-5.219942501899999,1163
126290,190788,266846,1.3866406967,8.061419339399999,-5.3742795596,1164
126656,190805,266794,1.2945170266,8.0362947021,-5.2749774217,1165
126849,190804,266805,1.4644074312,8.0111700648,-5.2271209697000005,1166
127106,190792,266794,1.3986048097,8.0781690976,-5.359922623999999,1167
127426,190874,266863,1.4141581566,8.169096356399999,-5.2007999211,1168
127733,190888,266888,1.4703894876999999,8.115257847899999,-5.3192446398,1169
127952,190855,266875,1.495514125,8.0662049846,-5.279763066899999,1170
127588,190893,266890,1.4524433182,8.017152121299999,-5.2055855663,1171
125406,190775,266790,1.4069796888000001,8.063812162,-5.3072805268000005,1172
122505,190580,266678,1.3674981159,8.0925260332,-5.292923591199999,1173
120296,190413,266546,1.43569356,8.062615750700001,-5.280959478200001,1174
119026,190340,266416,1.5302100526999998,7.940581798099999,-5.2319066149,1175
118437,190324,266360,1.5086746492999998,8.0243305891,-5.3072805268000005,1176
118263,190299,266330,1.3962119871,8.0853475654,-5.3551369788,1177
118399,190329,266335,1.4261222696,8.0985080897,-5.324030285,1178
118541,190329,266357,1.4883356572,8.0470624038,-5.3515477449,1179
118587,190277,266333,1.4297115034999999,8.0853475654,-5.3431728658,1180
118445,190297,266314,1.5565311013,7.9501530885,-5.3383872206000005,1181
118322,190244,266344,1.5086746492999998,8.0805619202,-5.3611190353,1182
118302,190277,266284,1.4416756165,8.1272219609,-5.2857451234,1183
118400,190237,266281,1.4895320685,8.1200434931,-5.2546384296,1184
118570,190225,266274,1.3806586402,8.0015987744,-5.2558348409,1185
118835,190214,266261,1.4715858990000001,8.1415788965,-5.251049195699999,1186
119126,190159,266235,1.3016954943999999,8.0985080897,-5.3527441562,1187
119394,190217,266280,1.4333007374,8.0458659925,-5.2666025426,1188
119707,190211,266279,1.375872995,8.051848049,-5.240281494,1189
120038,190235,266275,1.4919248910999998,8.0949188558,-5.288137946,1190
120412,190250,266270,1.3615160593999998,8.063812162,-5.3048877041999996,1191
120695,190248,266325,1.4380863826,8.062615750700001,-5.2474599618,1192
120995,190239,266302,1.3854442854000002,8.0099736535,-5.2187460906,1193
121386,190284,266265,1.5230315848999998,8.155935832099999,-5.2905307686,1194
121742,190302,266263,1.4823536007,8.0339018795,-5.252245607000001,1195
122069,190269,266255,1.4584253747,8.1080793801,-5.3144589946,1196
122002,190304,266323,1.5302100526999998,8.0458659925,-5.2713881878,1197
120422,190205,266271,1.4165509792000002,7.9142607494999995,-5.1864429855,1198
117957,190030,266147,1.3304093655999998,8.1750784129,-5.280959478200001,1199
116098,189841,265995,1.3998012210000002,8.063812162,-5.2713881878,1200
115115,189821,265849,1.3842478741,8.0303126456,-5.3072805268000005,1201
114791,189769,265957,1.5230315848999998,8.0255270004,-5.371886737,1202
114847,189770,265860,1.43569356,8.0793655089,-5.219942501899999,1203
115218,189763,265874,1.5445669883000002,8.1451681304,-5.3144589946,1204
115689,189714,265884,1.3950155758,8.0327054682,-5.2821558895,1205
116005,189812,265934,1.3926227532000002,8.0685978072,-5.2319066149,1206
116073,189818,265968,1.4895320685,8.1092757914,-5.3084769381,1207
116074,189820,265941,1.4847464232999998,8.0542408716,-5.2977092364,1208
116186,189796,265942,1.3160524299999998,8.0829547428,-5.3814580274,1209
116391,189830,265900,1.4285150922,8.0925260332,-5.321637462399999,1210
116742,189837,265943,1.3459627125,8.075776275,-5.276173833,1211
117123,189851,265939,1.4548361408000001,8.155935832099999,-5.3024948815999995,1212
117537,189900,266036,1.3950155758,8.0386875247,-5.3168518172,1213
117937,189898,266041,1.4620146086,8.049455226400001,-5.3742795596,1214
118320,189899,266081,1.4404792052000002,8.0805619202,-5.3383872206000005,1215
118684,189928,266066,1.5038890041,8.087740388,-5.312066172,1216
119042,189964,266064,1.3543375915999998,8.0650085733,-5.3168518172,1217
119425,190004,266148,1.5984054967999999,8.1272219609,-5.321637462399999,1218
119870,190014,266180,1.4644074312,8.1750784129,-5.276173833,1219
120253,190032,266203,1.3663017045999999,8.0650085733,-5.331208752799999,1220
120455,190056,266228,1.4297115034999999,8.049455226400001,-5.2127640341,1221
119429,190041,266157,1.3710873497999998,8.1535430095,-5.288137946,1222
117152,189896,266075,1.3854442854000002,7.9896346614,-5.2953164138,1223
115159,189780,265963,1.4333007374,8.182256880699999,-5.312066172,1224
114151,189720,265884,1.3914263419,8.1332040174,-5.3192446398,1225
113810,189669,265841,1.4644074312,8.087740388,-5.276173833,1226
113912,189719,265925,1.4883356572,8.0255270004,-5.2857451234,1227
114403,189748,265914,1.4213366244,8.01595571,-5.292923591199999,1228
115023,189811,265984,1.3615160593999998,8.0350982908,-5.3431728658,1229
115492,189807,266053,1.4261222696,8.185846114599999,-5.276173833,1230
115690,189881,266100,1.4081761001,8.0781690976,-5.324030285,1231
115775,189915,266106,1.4213366244,8.1224363157,-5.3587262127,1232
115952,189901,266159,1.4895320685,8.0470624038,-5.3527441562,1233
116247,189969,266186,1.5565311013,7.9549387337,-5.2737810104,1234
116675,189999,266240,1.3722837611,8.0470624038,-5.2953164138,1235
117152,190069,266293,1.3555340029,8.102097323599999,-5.2259245584,1236
117601,190090,266300,1.3004990831,8.1619178886,-5.4137611324999995,1237
118117,190137,266309,1.4392827939,8.061419339399999,-5.2534420183,1238
118554,190162,266343,1.3806586402,8.0985080897,-5.2055855663,1239
119025,190252,266417,1.4404792052000002,8.123632727,-5.251049195699999,1240
119447,190269,266467,1.5026925928000001,8.1403824852,-5.2953164138,1241
119880,190270,266483,1.4009976323,8.0243305891,-5.3431728658,1242
120369,190342,266501,1.2430713407,8.116454259200001,-5.331208752799999,1243
120863,190387,266597,1.4524433182,8.1487573643,-5.2725845991,1244
121267,190411,266552,1.3734801723999999,8.0829547428,-5.198407098500001,1245
120778,190411,266625,1.3722837611,8.01595571,-5.2833523008,1246
118695,190188,266489,1.3483555351,8.044669581199999,-5.312066172,1247
116266,190136,266355,1.4799607781,8.01595571,-5.2558348409,1248
114679,189999,266309,1.3998012210000002,8.0925260332,-5.2474599618,1249
113935,189978,266217,1.43569356,7.9609207902,-5.3826544387,1250
113713,189955,266223,1.387837108,8.1009009123,-5.2211389132,1251
113887,189916,266237,1.3531411803,8.044669581199999,-5.279763066899999,1252
114352,189980,266266,1.4404792052000002,8.1726855903,-5.3192446398,1253
114882,190052,266279,1.4285150922,8.1009009123,-5.2366922601,1254
115190,190100,266282,1.4309079148000001,8.061419339399999,-5.288137946,1255
115328,190070,266327,1.3710873497999998,8.102097323599999,-5.309673349400001,1256
115471,190066,266367,1.375872995,8.1439717191,-5.1673004047,1257
115658,190150,266378,1.3974083984,8.2085779293,-5.2187460906,1258
115977,190083,266405,1.5361921092,8.0602229281,-5.2366922601,1259
116377,190122,266390,1.3316057769,8.070990629799999,-5.2127640341,1260
116810,190174,266412,1.3974083984,8.155935832099999,-5.331208752799999,1261
117252,190192,266445,1.3292129543,8.0817583315,-5.347958511000001,1262
117692,190272,266472,1.3196416639,8.074579863699999,-5.2426743166000005,1263
118133,190250,266549,1.4440684390999998,8.0829547428,-5.3084769381,1264
118551,190253,266531,1.4333007374,8.1451681304,-5.3276195189,1265
118943,190317,266541,1.3483555351,8.236095389199999,-5.2833523008,1266
119386,190324,266588,1.3387842447,8.0255270004,-5.3371908093,1267
119818,190391,266541,1.4644074312,8.1308111948,-5.3455656884,1268
120282,190383,266626,1.4021940436,7.984849016199999,-5.1792645177,1269
120663,190422,266606,1.3974083984,8.0961152671,-5.371886737,1270
120324,190432,266669,1.5098710606,8.0805619202,-5.2546384296,1271
118363,190309,266519,1.4428720278,7.9657064354,-5.3862436726,1272
115908,190104,266434,1.3663017045999999,8.049455226400001,-5.2977092364,1273
114290,189996,266324,1.4297115034999999,8.1068829688,-5.3503513336,1274
113536,189929,266273,1.2957134379000002,8.01595571,-5.4376893585,1275
113329,189952,266226,1.4141581566,8.0697942185,-5.3072805268000005,1276
113503,189934,266261,1.4045868662,8.0697942185,-5.4089754873,1277
113988,189953,266298,1.4045868662,8.0973116784,-5.3539405675,1278
114533,190031,266361,1.304088317,8.0733834524,-5.2378886713999995,1279
114844,190023,266337,1.4656038425,8.0793655089,-5.2689953652,1280
115027,190060,266371,1.2598210989,8.084151154099999,-5.292923591199999,1281
115178,190016,266398,1.4715858990000001,8.0901332106,-5.331208752799999,1282
115492,190075,266407,1.4428720278,8.063812162,-5.3072805268000005,1283
115824,190097,266396,1.4632110199,8.1583286547,-5.312066172,1284
116165,190100,266395,1.5541382787000002,8.0781690976,-5.213960445400001,1285
116522,190141,266474,1.3710873497999998,7.972884903200001,-5.251049195699999,1286
116965,190166,266437,1.375872995,8.1068829688,-5.2031927437,1287
117469,190157,266485,1.3435698899,8.1176506705,-5.309673349400001,1288
117989,190238,266514,1.4536397294999999,8.1092757914,-5.3168518172,1289
118482,190231,266582,1.3567304141999998,8.0697942185,-5.2187460906,1290
118932,190272,266581,1.4560325521,8.1044901462,-5.1744788725,1291
119292,190323,266546,1.5254244074999999,8.0590265168,-5.2689953652,1292
119704,190338,266615,1.4045868662,8.0015987744,-5.2307102036,1293
120074,190303,266615,1.4476576730000001,8.1415788965,-5.251049195699999,1294
120407,190338,266648,1.4273186809,8.0470624038,-5.2701917765,1295
120749,190340,266649,1.4309079148000001,8.1619178886,-5.2450671392,1296
121103,190371,266625,1.4452648504,8.1200434931,-5.240281494,1297
121412,190398,266653,1.5397813431,8.0291162343,-5.3276195189,1298
121746,190374,266673,1.5565311013,7.9549387337,-5.3072805268000005,1299
122064,190366,266665,1.5206387623,8.155935832099999,-5.2474599618,1300
122353,190376,266689,1.3974083984,8.0027951857,-5.2953164138,1301
122649,190369,266648,1.4871392459,8.0386875247,-5.280959478200001,1302
122982,190404,266646,1.5182459396999999,8.1571322434,-5.3072805268000005,1303
123288,190389,266705,1.3447663012,8.1463645417,-5.2953164138,1304
123587,190411,266668,1.3591232368,8.1068829688,-5.2666025426,1305
123903,190415,266675,1.4404792052000002,8.084151154099999,-5.3048877041999996,1306
124214,190460,266649,1.5230315848999998,8.1080793801,-5.264209719999999,1307
124484,190415,266666,1.4249258583,8.0350982908,-5.335994398,1308
124789,190394,266674,1.5625131578,8.0458659925,-5.248656373099999,1309
125077,190438,266689,1.459621786,8.0255270004,-5.277370244299999,1310
125390,190412,266658,1.3998012210000002,8.0374911134,-5.2713881878,1311
125663,190465,266668,1.5266208188,8.0470624038,-5.3336015753999995,1312
125950,190453,266675,1.3926227532000002,8.017152121299999,-5.2414779053,1313
126182,190459,266683,1.5565311013,8.0949188558,-5.3407800432,1314
126456,190441,266692,1.3890335193,8.170292767700001,-5.324030285,1315
126774,190434,266697,1.4452648504,8.0985080897,-5.3982077855999995,1316
127072,190474,266693,1.4799607781,8.171489179,-5.3192446398,1317
127308,190457,266735,1.4691930764,7.984849016199999,-5.265406131300001,1318
126975,190497,266728,1.4703894876999999,8.0853475654,-5.279763066899999,1319
124599,190366,266632,1.4691930764,8.087740388,-5.2319066149,1320
121494,190151,266502,1.4476576730000001,8.051848049,-5.3324051641,1321
119136,189981,266316,1.483550012,7.9621172015,-5.2785666556,1322
117860,189916,266207,1.3112667848,8.0937224445,-5.2582276635,1323
117274,189878,266176,1.3734801723999999,7.969295669299999,-5.3168518172,1324
117115,189834,266129,1.4644074312,7.9489566772,-5.292923591199999,1325
117290,189872,266113,1.4775679554999999,8.084151154099999,-5.3934221404,1326
117467,189862,266142,1.3304093655999998,8.1403824852,-5.4065826647,1327
117490,189829,266173,1.4237294470000001,8.0733834524,-5.288137946,1328
117392,189877,266156,1.4859428346,8.13559684,-5.219942501899999,1329
117277,189863,266132,1.4201402131,8.051848049,-5.2749774217,1330
117290,189850,266126,1.4787643668000001,8.0422767586,-5.2713881878,1331
117423,189837,266094,1.3986048097,8.044669581199999,-5.2414779053,1332
117674,189729,266109,1.3830514628000001,8.0769726863,-5.3431728658,1333
117956,189852,266122,1.4093725114000002,8.147560953,-5.288137946,1334
118283,189869,266114,1.4213366244,8.057830105499999,-5.2498527844,1335
118625,189916,266190,1.5828521499000001,8.1140614366,-5.2953164138,1336
118977,189884,266170,1.3974083984,8.063812162,-5.2474599618,1337
119315,189919,266177,1.4093725114000002,8.0183485326,-5.3527441562,1338
119641,189883,266197,1.2813565023,8.128418372199999,-5.251049195699999,1339
120009,189945,266214,1.3591232368,8.0183485326,-5.2570312522,1340
120417,189960,266214,1.4476576730000001,8.1332040174,-5.405386253400001,1341
120887,189994,266225,1.3722837611,8.087740388,-5.1720860499,1342
121152,190013,266223,1.4500504956,8.1511501869,-5.309673349400001,1343
120871,190040,266263,1.3998012210000002,7.8927253461,-5.2223353244999995,1344
118929,189911,266183,1.4045868662,8.0781690976,-5.4006006081999995,1345
116407,189682,266044,1.4500504956,8.1798640581,-5.347958511000001,1346
114699,189578,265932,1.3208380752,8.182256880699999,-5.2737810104,1347
113914,189535,265850,1.4213366244,8.0255270004,-5.3874400839,1348
113674,189514,265848,1.3974083984,7.9944203065999995,-5.300102059,1349
113863,189549,265860,1.4069796888000001,8.0063844196,-5.3742795596,1350
114368,189538,265881,1.4847464232999998,8.1643107112,-5.335994398,1351
114880,189602,265933,1.3830514628000001,7.9968131291999995,-5.2127640341,1352
115175,189641,265967,1.5170495284,8.0961152671,-5.2438707279,1353
115264,189639,265977,1.3663017045999999,8.01595571,-5.288137946,1354
115313,189650,265987,1.4165509792000002,8.0973116784,-5.2438707279,1355
115501,189716,266028,1.3615160593999998,8.0255270004,-5.2067819775999995,1356
115858,189728,266038,1.4189438018,8.1942209937,-5.3491549223,1357
116355,189788,266091,1.4584253747,7.920242806,-5.376672382200001,1358
116845,189872,266144,1.4309079148000001,8.0350982908,-5.280959478200001,1359
116687,189865,266161,1.5182459396999999,8.026723411699999,-5.276173833,1360
115357,189820,266132,1.43569356,8.1128650253,-5.3192446398,1361
113758,189687,266056,1.3136596074,8.1140614366,-5.2247281471,1362
112799,189632,266008,1.3782658175999998,8.0865439767,-5.2546384296,1363
112615,189629,266006,1.4069796888000001,8.1128650253,-5.3455656884,1364
112940,189656,266083,1.4691930764,8.0901332106,-5.3024948815999995,1365
113631,189707,266045,1.3471591237999998,8.0374911134,-5.309673349400001,1366
114449,189787,266183,1.387837108,8.1009009123,-5.276173833,1367
115033,189813,266172,1.2777672683999999,8.0817583315,-5.2845487121,1368
115350,189879,266216,1.3926227532000002,8.051848049,-5.2953164138,1369
115499,189912,266294,1.3663017045999999,8.0063844196,-5.371886737,1370
115675,189924,266283,1.328016543,8.124829138299999,-5.2031927437,1371
115970,189924,266318,1.3663017045999999,8.0386875247,-5.3659046805,1372
116356,189972,266359,1.3076775509,8.099704501,-5.321637462399999,1373
116849,190001,266339,1.4668002538,8.1200434931,-5.239085082699999,1374
117321,190023,266389,1.3567304141999998,8.061419339399999,-5.300102059,1375
117789,190073,266430,1.4392827939,8.102097323599999,-5.2319066149,1376
118259,190094,266474,1.4368899712999998,8.0458659925,-5.3144589946,1377
118686,190144,266495,1.3495519463999999,8.0853475654,-5.251049195699999,1378
119127,190178,266467,1.4500504956,8.0339018795,-5.2414779053,1379
119542,190215,266542,1.3387842447,8.1487573643,-5.2414779053,1380
119970,190250,266578,1.4093725114000002,7.9501530885,-5.2905307686,1381
120391,190281,266607,1.4368899712999998,8.0853475654,-5.331208752799999,1382
120819,190308,266650,1.4141581566,8.0889367993,-5.2618168974,1383
121222,190321,266631,1.3160524299999998,8.0925260332,-5.219942501899999,1384
121596,190383,266688,1.4991033588999998,8.0889367993,-5.288137946,1385
121944,190361,266604,1.4775679554999999,8.0566336942,-5.2342994375,1386
122378,190346,266713,1.3591232368,8.1667035338,-5.3288159302,1387
122750,190464,266731,1.3591232368,8.1128650253,-5.306084115499999,1388
123060,190452,266767,1.2885349701,7.9310105077,-5.2426743166000005,1389
122448,190470,266758,1.3304093655999998,8.0015987744,-5.2977092364,1390
119667,190303,266650,1.5589239239000001,8.051848049,-5.2007999211,1391
116546,190097,266469,1.483550012,8.124829138299999,-5.280959478200001,1392
114540,189952,266311,1.4368899712999998,8.1260255496,-5.292923591199999,1393
113472,189865,266229,1.304088317,8.1032937349,-5.3407800432,1394
113133,189856,266228,1.4309079148000001,8.0889367993,-5.3084769381,1395
113268,189789,266218,1.4919248910999998,8.1523465982,-5.2474599618,1396
113675,189872,266219,1.3734801723999999,7.9836526049,-5.2606204861,1397
114002,189907,266260,1.4739787216,8.0901332106,-5.300102059,1398
114140,189916,266241,1.375872995,8.116454259200001,-5.248656373099999,1399
114119,189971,266263,1.3328021881999998,8.0566336942,-5.3024948815999995,1400
114159,189957,266278,1.5397813431,8.0853475654,-5.2618168974,1401
114320,189939,266285,1.2957134379000002,7.998009540499999,-5.2247281471,1402
114590,189937,266345,1.4440684390999998,7.9752777258,-5.2833523008,1403
114911,189968,266373,1.3615160593999998,8.0111700648,-5.2869415346999995,1404
115281,189997,266346,1.4715858990000001,8.111668614,-5.3024948815999995,1405
115664,190020,266361,1.5062818266999998,8.1643107112,-5.309673349400001,1406
116061,190053,266402,1.3531411803,8.01595571,-5.3024948815999995,1407
116415,190033,266383,1.3375878334,8.0733834524,-5.2630133087,1408
116805,190120,266468,1.4189438018,7.927421273799999,-5.2953164138,1409
117201,190137,266438,1.4416756165,8.0973116784,-5.3850472612999996,1410
117590,190123,266449,1.3328021881999998,8.1667035338,-5.331208752799999,1411
117972,190145,266482,1.4309079148000001,7.9944203065999995,-5.2271209697000005,1412
118432,190220,266517,1.43569356,8.1176506705,-5.239085082699999,1413
118826,190239,266550,1.4476576730000001,8.0470624038,-5.252245607000001,1414
118891,190233,266561,1.4141581566,8.0913296219,-5.2977092364,1415
117391,190144,266580,1.4452648504,8.0111700648,-5.3647082692,1416
114809,189997,266426,1.4536397294999999,8.1403824852,-5.276173833,1417
112667,189829,266235,1.4189438018,8.1188470818,-5.2534420183,1418
111591,189753,266134,1.4620146086,8.0685978072,-5.3288159302,1419
111212,189741,266144,1.3902299306,8.2109707519,-5.2498527844,1420
111291,189699,266178,1.4213366244,8.1774712355,-5.3048877041999996,1421
111769,189760,266183,1.5062818266999998,8.1344004287,-5.3192446398,1422
112397,189775,266239,1.4045868662,8.1655071225,-5.2606204861,1423
112860,189823,266266,1.2215359373,8.1080793801,-5.2606204861,1424
112912,189804,266316,1.4679966650999998,8.2061851067,-5.2115676228000005,1425
112952,189821,266277,1.4261222696,7.9776705484,-5.2342994375,1426
113109,189756,266232,1.4093725114000002,8.0063844196,-5.3455656884,1427
113419,189896,266260,1.5086746492999998,8.0362947021,-5.2594240748,1428
113781,189867,266340,1.4536397294999999,8.1188470818,-5.3108697607,1429
114219,189874,266362,1.5158531170999998,8.075776275,-5.264209719999999,1430
114556,189900,266339,1.6175480776,8.087740388,-5.2833523008,1431
114948,189869,266361,1.55533469,8.0147592987,-5.219942501899999,1432
115297,189904,266384,1.5230315848999998,7.953742322399999,-5.300102059,1433
115646,189953,266348,1.4368899712999998,8.0327054682,-5.331208752799999,1434
116015,189917,266358,1.5661023917,8.0733834524,-5.2905307686,1435
116434,189948,266427,1.4476576730000001,8.0339018795,-5.1625147595,1436
116858,189961,266430,1.3208380752,8.0733834524,-5.3192446398,1437
117312,189997,266468,1.3507483577,8.1344004287,-5.2785666556,1438
117692,189986,266448,1.4285150922,8.0853475654,-5.312066172,1439
118051,190079,266447,1.4524433182,8.0889367993,-5.2594240748,1440
118409,190020,266447,1.4943177136999999,8.1080793801,-5.2067819775999995,1441
118758,190077,266482,1.3938191645,8.051848049,-5.2438707279,1442
119110,190042,266437,1.3926227532000002,8.1272219609,-5.251049195699999,1443
119447,190035,266467,1.4560325521,8.062615750700001,-5.2570312522,1444
119776,190055,266453,1.5541382787000002,8.0853475654,-5.3168518172,1445
120153,190104,266505,1.3579268255,8.1320076061,-5.3144589946,1446
120500,190096,266542,1.4656038425,8.0422767586,-5.2450671392,1447
120894,190088,266508,1.5062818266999998,8.137989662599999,-5.198407098500001,1448
121287,190158,266560,1.3686945272,8.170292767700001,-5.276173833,1449
121658,190175,266613,1.4392827939,8.1631142999,-5.3455656884,1450
122063,190231,266586,1.3854442854000002,8.099704501,-5.2295137923,1451
122498,190267,266658,1.3830514628000001,8.1487573643,-5.3288159302,1452
123081,190448,266805,1.43569356,8.0255270004,-5.2713881878,1453
123828,190647,266983,1.3399806559999998,8.070990629799999,-5.3168518172,1454
124466,190752,267069,1.3914263419,8.129614783500001,-5.1649075821,1455
124938,190720,267034,1.4500504956,8.1870425259,-5.3264231076,1456
125320,190672,266960,1.4129617452999998,8.1391860739,-5.362315446599999,1457
125544,190568,266927,1.4488540843,7.9968131291999995,-5.265406131300001,1458
125693,190497,266832,1.3926227532000002,8.0063844196,-5.279763066899999,1459
125217,190530,266835,1.5230315848999998,8.0506516377,-5.279763066899999,1460
122899,190398,266786,1.5373885205000002,8.173882001600001,-5.3671010918,1461
120110,190157,266559,1.4404792052000002,8.039883936,-5.2271209697000005,1462
118091,190032,266490,1.387837108,8.1463645417,-5.3994041969,1463
116993,189947,266304,1.3974083984,8.0183485326,-5.375475970899999,1464
116487,189923,266359,1.4021940436,8.0781690976,-5.280959478200001,1465
116421,189899,266266,1.3232308977999998,8.1463645417,-5.2833523008,1466
116613,189906,266296,1.5062818266999998,8.0315090569,-5.264209719999999,1467
116784,189906,266287,1.411765334,8.1798640581,-5.3419764545,1468
116744,189880,266263,1.5397813431,8.1439717191,-5.3551369788,1469
116516,189860,266264,1.2311072277,8.049455226400001,-5.3024948815999995,1470
116312,189855,266218,1.3974083984,8.0901332106,-5.3503513336,1471
116253,189839,266208,1.43569356,8.1104722027,-5.276173833,1472
116323,189842,266182,1.4321043261,8.005188008300001,-5.3647082692,1473
116518,189867,266293,1.4273186809,8.1463645417,-5.3168518172,1474
116779,189894,266215,1.4572289634,8.1140614366,-5.335994398,1475
116999,189929,266240,1.4165509792000002,8.0602229281,-5.3072805268000005,1476
117272,189991,266255,1.4428720278,7.972884903200001,-5.2366922601,1477
117478,189943,266278,1.4189438018,8.0817583315,-5.3132625833,1478
117689,189950,266279,1.3459627125,7.9609207902,-5.219942501899999,1479
117960,189940,266326,1.4787643668000001,8.0004023631,-5.3144589946,1480
118244,190009,266294,1.4500504956,8.1092757914,-5.2175496793,1481
118546,190010,266345,1.3244273091,8.039883936,-5.3144589946,1482
118764,190024,266369,1.3363914221,7.9992059518000005,-5.2701917765,1483
118274,190057,266347,1.5900306177,7.9238320399,-5.2701917765,1484
116343,189930,266261,1.4727823103,8.1535430095,-5.3742795596,1485
114026,189803,266106,1.4775679554999999,8.0506516377,-5.2749774217,1486
112453,189704,266082,1.4045868662,8.1260255496,-5.2582276635,1487
111793,189650,265976,1.4333007374,8.1774712355,-5.2618168974,1488
111674,189671,265994,1.4261222696,8.1427753078,-5.3168518172,1489
112000,189680,266042,1.4189438018,8.0183485326,-5.395814963,1490
112610,189738,266098,1.4273186809,8.0147592987,-5.3383872206000005,1491
113138,189826,266131,1.375872995,8.0422767586,-5.2606204861,1492
113344,189910,266188,1.459621786,7.953742322399999,-5.2462635505,1493
113313,189882,266176,1.3615160593999998,8.061419339399999,-5.2666025426,1494
113373,189893,266197,1.4165509792000002,7.986045427500001,-5.276173833,1495
113658,189947,266284,1.4045868662,8.0470624038,-5.312066172,1496
114002,190032,266260,1.4021940436,8.1044901462,-5.3587262127,1497
114008,190015,266354,1.3998012210000002,8.049455226400001,-5.2965128251,1498
112930,189990,266347,1.4919248910999998,8.0291162343,-5.2977092364,1499
111194,189949,266270,1.4057832774999999,8.1176506705,-5.2833523008,1500
109906,189858,266182,1.5086746492999998,7.9968131291999995,-5.3192446398,1501
109438,189776,266107,1.3854442854000002,8.0961152671,-5.3288159302,1502
109650,189834,266133,1.3998012210000002,8.0374911134,-5.252245607000001,1503
110377,189866,266214,1.4333007374,8.1320076061,-5.2725845991,1504
111328,189895,266281,1.5002997702,8.0901332106,-5.239085082699999,1505
112064,189926,266338,1.4404792052000002,8.0781690976,-5.3862436726,1506
112459,190031,266363,1.43569356,8.1272219609,-5.2378886713999995,1507
112542,190092,266380,1.43569356,8.0255270004,-5.2319066149,1508
112597,190090,266476,1.4644074312,8.087740388,-5.276173833,1509
112738,190106,266495,1.4584253747,8.087740388,-5.265406131300001,1510
113078,190128,266464,1.3136596074,8.017152121299999,-5.2905307686,1511
113441,190187,266508,1.4285150922,8.1344004287,-5.3264231076,1512
113845,190213,266515,1.2909277927,8.1990066389,-5.300102059,1513
114277,190250,266552,1.4488540843,8.0219377665,-5.3455656884,1514
114653,190290,266591,1.375872995,8.1415788965,-5.2331030262,1515
115042,190292,266600,1.3806586402,8.0662049846,-5.2079783889,1516
115427,190338,266641,1.2789636797000001,8.039883936,-5.2474599618,1517
115807,190337,266628,1.4703894876999999,7.9453674433,-5.2833523008,1518
