green,red,IR,acc_x,acc_y,acc_z,sample_index
74958,181460,207244,-2.6943182475999996,5.140979356100001,-7.980063371,1
75355,181494,207275,-2.7326034091999998,5.2366922601,-7.9465638546,2
75629,181513,207282,-2.6859433685,5.346762099699999,-7.980063371,3
75831,181519,207312,-2.6991038927999997,5.0356951617,-7.9489566772,4
76021,181480,207323,-2.6943182475999996,5.2606204861,-8.039883936,5
76198,181487,207292,-2.5854448193,5.248656373099999,-8.0183485326,6
76405,181487,207334,-2.6512474407999997,5.279763066899999,-7.972884903200001,7
76480,181538,207393,-2.6333012713,5.120640364,-7.9896346614,8
76762,181579,207388,-2.75174599,5.2115676228000005,-7.9752777258,9
76855,181581,207367,-2.7230321187999995,5.1589255256,-7.908278693,10
76424,181541,207366,-2.7936203855,5.3300123415,-7.9262248625,11
75575,181445,207286,-2.8917261120999997,5.2869415346999995,-7.9549387337,12
75062,181386,207259,-2.715853651,5.3395836319,-7.9501530885,13
74864,181348,207249,-2.6428725617,5.197210687199999,-8.0566336942,14
74996,181274,207281,-2.6871397798,5.277370244299999,-7.9465638546,15
75311,181340,207352,-2.6907290137,5.182853751600001,-8.0434731699,16
75687,181357,207396,-2.5938196984,5.2019963324,-7.968099258,17
75951,181296,207426,-2.7936203855,5.1541398804,-7.9585279676,18
76067,181435,207469,-2.6285156261,5.2821558895,-7.9070822817,19
76305,181442,207456,-2.6452653843,5.204389154999999,-7.9142607494999995,20
76467,181491,207501,-2.6703900216,5.2259245584,-7.968099258,21
76616,181433,207525,-2.6895326024,5.3180482284999995,-7.9381889755,22
76809,181538,207517,-2.6799613119999997,5.430510890700001,-7.9226356286,23
76979,181507,207499,-2.6656043763999997,5.240281494,-7.9716884919,24
77147,181481,207460,-2.5615165933,5.114658307499999,-7.968099258,25
77297,181547,207466,-2.6356940939,5.315655405899999,-7.9872418388,26
77456,181515,207459,-2.5902304645,5.2546384296,-7.9238320399,27
77627,181625,207437,-2.7421746995999996,5.294120002500001,-8.01595571,28
77768,181664,207394,-2.7349962318,5.2187460906,-8.0135628874,29
77916,181689,207418,-2.6811577232999997,5.2223353244999995,-8.0087772422,30
78068,181710,207445,-2.7661029256000003,5.1254260092,-7.9465638546,31
78201,181610,207413,-2.5471596577,5.2869415346999995,-7.9896346614,32
78327,181746,207407,-2.6895326024,5.2450671392,-8.0207413552,33
78452,181722,207441,-2.6476582069,5.1158547188000005,-7.980063371,34
78578,181706,207426,-2.75174599,5.264209719999999,-8.0111700648,35
78694,181672,207451,-2.7254249414,5.194817864599999,-7.9872418388,36
78827,181728,207430,-2.7230321187999995,5.2378886713999995,-7.9968131291999995,37
78941,181732,207450,-2.7445675222,5.1541398804,-8.057830105499999,38
78848,181643,207429,-2.8019952646,5.2091748002,-7.9585279676,39
77916,181638,207415,-2.6703900216,5.240281494,-7.8975109913,40
76657,181529,207356,-2.6356940939,5.279763066899999,-8.0470624038,41
75752,181415,207274,-2.7948167968,5.2965128251,-7.9896346614,42
75237,181383,207266,-2.6213371583000002,5.280959478200001,-8.01595571,43
75022,181279,207271,-2.7481567560999998,5.194817864599999,-7.9597243789,44
75030,181281,207225,-2.6368905052,5.2905307686,-7.9992059518000005,45
75261,181308,207220,-2.6464617955999996,5.240281494,-7.8951181687,46
75635,181380,207251,-2.7385854657,5.223531735800001,-8.0542408716,47
75926,181413,207301,-2.5387847786,5.1254260092,-7.9011002251999995,48
76151,181428,207303,-2.7326034091999998,5.0919264928,-7.9310105077,49
76341,181498,207353,-2.7613172804,5.132604477,-8.0111700648,50
76481,181475,207383,-2.7613172804,5.1003013719000005,-7.9465638546,51
76678,181570,207401,-2.691925425,5.228317381,-8.01595571,52
76852,181671,207456,-2.7266213527,5.2115676228000005,-7.980063371,53
77093,181884,207541,-2.5435704238000003,5.2677989539,-7.9489566772,54
77287,181975,207580,-2.6787649007,5.2713881878,-8.1128650253,55
77469,182007,207590,-2.6488546182,5.2570312522,-8.0422767586,56
77629,182049,207588,-2.6356940939,5.2582276635,-8.0303126456,57
77699,182027,207579,-2.7421746995999996,5.192425042,-8.0195449439,58
77293,182057,207551,-2.6871397798,5.2606204861,-7.8711899427,59
76502,182020,207514,-2.7661029256000003,5.1936214533,-7.972884903200001,60
75945,181933,207509,-2.7110680058,5.228317381,-7.9884382501,61
75738,181937,207528,-2.6871397798,5.2677989539,-7.9489566772,62
75812,181909,207505,-2.6009981662,5.2247281471,-8.0015987744,63
76092,181949,207534,-2.5998017549,5.228317381,-8.0255270004,64
76472,182049,207605,-2.7852455064000003,5.168496815999999,-8.0374911134,65
76691,182002,207631,-2.8366911923,5.2187460906,-7.890332523500001,66
76840,181994,207610,-2.5938196984,5.264209719999999,-7.9465638546,67
76963,181967,207601,-2.7062823606,5.251049195699999,-8.039883936,68
77107,181936,207611,-2.6213371583000002,5.204389154999999,-7.9417782094,69
77189,182000,207634,-2.6117658679000004,5.1170511301,-7.8879397009000005,70
77399,182070,207612,-2.691925425,5.2378886713999995,-7.986045427500001,71
77558,182057,207600,-2.6763720781,5.3994041969,-8.0183485326,72
77738,182124,207642,-2.8247270792999997,5.1457650013,-8.070990629799999,73
77929,182168,207612,-2.6967110702,5.2977092364,-7.992027484,74
78089,182171,207630,-2.7816562725,5.2725845991,-7.9094751043,75
78226,182178,207617,-2.7708885708000004,5.280959478200001,-7.9106715156,76
78346,182246,207574,-2.7637101029999998,5.2893343573,-7.9633136127999995,77
78495,182285,207647,-2.6213371583000002,5.1637111708,-7.980063371,78
78638,182366,207683,-2.7349962318,5.2713881878,-7.9824561936,79
78799,182452,207702,-2.703889538,5.3144589946,-7.9345997416,80
78946,182582,207765,-2.7625136916999997,5.4149575438,-8.0374911134,81
79091,182690,207839,-2.5543381254999997,5.3671010918,-8.0027951857,82
79200,182652,207881,-2.7768706272999997,5.248656373099999,-7.9585279676,83
79299,182926,208025,-2.6895326024,5.3228338737000005,-7.9094751043,84
78940,183112,208089,-2.691925425,5.1936214533,-8.044669581199999,85
77809,182958,208002,-2.7720849821,5.331208752799999,-8.0135628874,86
76631,182641,207822,-2.6261228035000004,5.306084115499999,-7.9824561936,87
75831,182340,207714,-2.7110680058,5.180460929,-7.9836526049,88
75305,182357,207689,-2.7852455064000003,5.2331030262,-7.9752777258,89
75175,182307,207691,-2.7972096194,5.252245607000001,-8.003991596999999,90
75223,182412,207747,-2.6500510295,5.2917271799,-8.0255270004,91
75478,182573,207856,-2.8546373618,5.2450671392,-7.980063371,92
75890,182675,207918,-2.6105694566,5.2271209697000005,-8.026723411699999,93
76211,182704,207950,-2.7349962318,5.2989056477,-7.9669028467,94
76437,182742,207905,-2.7613172804,5.1996035098,-7.9968131291999995,95
76698,182876,207979,-2.7110680058,5.2187460906,-7.9896346614,96
76922,182983,208044,-2.691925425,5.1110690735999995,-7.9776705484,97
77163,183078,208109,-2.644068973,5.1792645177,-7.9369925642,98
77381,183145,208153,-2.8187450228000004,5.265406131300001,-8.049455226400001,99
77603,183235,208200,-2.7936203855,5.2618168974,-7.9525459111,100
77869,183390,208322,-2.5854448193,5.2067819775999995,-8.0470624038,101
78048,183473,208338,-2.6392833278,5.2953164138,-7.8711899427,102
78197,183330,208270,-2.6297120374,5.2474599618,-8.0063844196,103
78284,183224,208185,-2.7254249414,5.2689953652,-7.9824561936,104
78001,183224,208187,-2.8115665549999997,5.132604477,-7.9393853868,105
77144,183060,208087,-2.7840490951,5.2869415346999995,-7.9345997416,106
76441,183073,208029,-2.8031916759,5.192425042,-8.0015987744,107
76079,183063,208049,-2.6907290137,5.1613183482,-7.9310105077,108
76071,183144,208039,-2.7445675222,5.2450671392,-7.940581798099999,109
76324,183335,208195,-2.6476582069,5.1266224204999995,-8.0183485326,110
76552,183332,208206,-2.7074787719,5.3994041969,-8.0099736535,111
76927,183263,208194,-2.8259234905999997,5.1756752837999995,-7.970492080600001,112
77144,183230,208199,-2.8139593776000003,5.216353268,-8.049455226400001,113
77310,183290,208245,-2.7493531674,5.181657340299999,-7.9094751043,114
77438,183285,208187,-2.739781877,5.276173833,-7.9465638546,115
77626,183362,208283,-2.8091737324,5.156532702999999,-7.9872418388,116
77815,183390,208292,-2.6751756668,5.132604477,-7.944171031999999,117
77982,183386,208274,-2.6775684894,5.2295137923,-7.9992059518000005,118
78138,183365,208247,-2.6967110702,5.2666025426,-7.9238320399,119
78301,183304,208269,-2.7984060307000003,5.2127640341,-7.9764741371,120
78424,183259,208203,-2.7206392962,5.2785666556,-7.9310105077,121
78570,183164,208203,-2.6117658679000004,5.3407800432,-7.9549387337,122
78593,183206,208150,-2.7696921595,5.1649075821,-8.061419339399999,123
78823,183259,208164,-2.7601208691,5.2474599618,-7.9932238953,124
78939,183285,208159,-2.7541388126,5.3144589946,-7.9369925642,125
79066,183274,208161,-2.5447668351,5.204389154999999,-7.9908310727,126
79233,183343,208181,-2.8462624827,5.1732824612,-8.01595571,127
79323,183497,208245,-2.7493531674,5.1481578239,-8.0350982908,128
78987,183449,208212,-2.7912275628999996,5.2378886713999995,-8.0087772422,129
77833,183286,208132,-2.7421746995999996,5.3850472612999996,-8.049455226400001,130
76663,183160,207988,-2.7505495787000003,5.1290152431000005,-7.9094751043,131
75889,183071,207939,-2.775674216,5.2618168974,-8.0255270004,132
75457,183132,207962,-2.6285156261,5.1613183482,-7.956135144999999,133
75301,183257,208049,-2.7481567560999998,5.228317381,-7.8424760715,134
75318,183256,208044,-2.608176634,5.2211389132,-7.9609207902,135
75586,183420,208194,-2.7661029256000003,5.235495848799999,-7.8520473619,136
76100,183794,208333,-2.6943182475999996,5.228317381,-7.9657064354,137
76552,183907,208436,-2.7613172804,5.2893343573,-8.0207413552,138
76848,183807,208395,-2.7170500623000002,5.1960142759,-7.832904781100001,139
77032,183650,208402,-2.7146572396999997,5.2845487121,-8.0327054682,140
77156,183486,208293,-2.5830519966999996,5.306084115499999,-7.8927253461,141
77260,183292,208121,-2.5830519966999996,5.3778687935,-7.9142607494999995,142
77369,183091,208028,-2.5854448193,5.3012984703,-7.9034930478000005,143
77534,183119,208069,-2.6512474407999997,5.2857451234,-7.9477602659,144
77733,183227,208113,-2.6835505459,5.309673349400001,-7.992027484,145
77928,183203,208129,-2.656033086,5.2450671392,-7.9633136127999995,146
78045,183162,208026,-2.7373890544,5.3395836319,-7.9896346614,147
78171,183146,208049,-2.6464617955999996,5.2450671392,-7.9812597822999996,148
78357,183206,208064,-2.6943182475999996,5.1936214533,-8.0183485326,149
78350,183172,208042,-2.7086751831999996,5.197210687199999,-7.944171031999999,150
77650,183057,208009,-2.6333012713,5.239085082699999,-8.0135628874,151
76434,182790,207828,-2.6907290137,5.204389154999999,-8.0075808309,152
75565,182615,207767,-2.6943182475999996,5.2247281471,-7.9465638546,153
75082,182533,207698,-2.8845476443,5.240281494,-7.9142607494999995,154
74800,182490,207702,-2.6512474407999997,5.1457650013,-8.0315090569,155
74704,182411,207672,-2.715853651,5.1290152431000005,-7.969295669299999,156
74799,182349,207683,-2.8869404668999996,5.2701917765,-8.0733834524,157
75130,182351,207672,-2.6476582069,5.2295137923,-8.0207413552,158
75547,182414,207728,-2.7780670386,5.1780681064,-8.0111700648,159
75882,182468,207760,-2.715853651,5.2378886713999995,-7.902296636499999,160
76093,182476,207720,-2.7972096194,5.180460929,-7.9633136127999995,161
76303,182524,207696,-2.8534409504999996,5.2618168974,-8.061419339399999,162
76481,182497,207701,-2.7625136916999997,5.334797986699999,-7.9836526049,163
76698,182521,207738,-2.7708885708000004,5.168496815999999,-8.051848049,164
76881,182485,207716,-2.6871397798,5.1649075821,-8.0111700648,165
77034,182478,207753,-2.7373890544,5.169693227300001,-7.9896346614,166
77203,182414,207774,-2.703889538,5.2319066149,-7.9896346614,167
77368,182519,207799,-2.7254249414,5.264209719999999,-8.084151154099999,168
77525,182544,207812,-2.6416761504,5.2151568567,-8.0350982908,169
77655,182613,207819,-2.7206392962,5.363511857900001,-7.8783684105,170
77787,182600,207777,-2.6907290137,5.1421757674,-7.8999038139,171
77800,182691,207840,-2.703889538,5.2917271799,-8.027919823,172
77089,182578,207809,-2.6476582069,5.0811587911,-7.992027484,173
75867,182439,207733,-2.7050859493,5.223531735800001,-7.9621172015,174
74972,182256,207618,-2.75174599,5.315655405899999,-7.932206919,175
74435,182154,207578,-2.6476582069,5.1361937109,-7.9836526049,176
74207,182063,207650,-2.6715864329,5.3778687935,-7.9836526049,177
74045,182094,207674,-2.7122644171,5.2007999211,-7.9944203065999995,178
74165,182136,207647,-2.6045874001,5.2737810104,-7.902296636499999,179
74501,182207,207694,-2.7050859493,5.1254260092,-7.9944203065999995,180
74948,182289,207729,-2.7445675222,5.2187460906,-7.928617685100001,181
75326,182426,207798,-2.7565316351999996,5.2259245584,-8.0362947021,182
75572,182381,207829,-2.7086751831999996,5.3132625833,-7.9824561936,183
75783,182364,207846,-2.6883361911000003,5.1637111708,-8.0231341778,184
75994,182460,207872,-2.6703900216,5.1876393968,-7.9645100241,185
76192,182429,207892,-2.6009981662,5.1936214533,-7.9872418388,186
76394,182511,207875,-2.6524438520999998,5.3491549223,-8.049455226400001,187
76534,182493,207924,-2.8115665549999997,5.3455656884,-7.9884382501,188
76788,182575,207918,-2.8211378454,5.1792645177,-7.9369925642,189
77031,182623,207924,-2.8941189347,5.240281494,-7.9142607494999995,190
77167,182614,207942,-2.7529424013,5.1613183482,-7.970492080600001,191
77301,182565,207909,-2.6117658679000004,5.3264231076,-8.0231341778,192
77436,182586,207886,-2.6309084487,5.264209719999999,-7.9417782094,193
77482,182591,207885,-2.6572294973,5.213960445400001,-8.0195449439,194
76924,182564,207926,-2.8223342567,5.2295137923,-7.9298140964,195
75718,182411,207840,-2.7014967154,5.1852465742,-8.0231341778,196
74758,182203,207794,-2.6823541346,5.2677989539,-7.9453674433,197
74168,181990,207674,-2.7732813934,5.3024948815999995,-8.003991596999999,198
73840,181908,207664,-2.6524438520999998,5.1589255256,-8.01595571,199
73700,181899,207672,-2.6249263922,5.3168518172,-8.0063844196,200
73733,181866,207621,-2.715853651,5.3048877041999996,-8.0685978072,201
73984,181916,207564,-2.7565316351999996,5.197210687199999,-8.0374911134,202
74430,181936,207682,-2.8259234905999997,5.2498527844,-7.969295669299999,203
74862,182029,207701,-2.691925425,5.2630133087,-7.9633136127999995,204
75150,182055,207783,-2.7026931267000003,5.2378886713999995,-7.9740813145,205
75388,182122,207797,-2.5854448193,5.3204410510999995,-7.984849016199999,206
75590,182118,207817,-2.7936203855,5.2426743166000005,-7.942974620699999,207
75798,182059,207807,-2.7732813934,5.1876393968,-8.0255270004,208
76002,182151,207848,-2.7684957482,5.2079783889,-7.956135144999999,209
76231,182204,207834,-2.6297120374,5.3036912929,-7.9345997416,210
76428,182257,207876,-2.7278177639999996,5.2307102036,-8.01595571,211
76628,182252,207886,-2.8031916759,5.3288159302,-8.0195449439,212
76717,182310,207891,-2.6548366747000003,5.1780681064,-8.0315090569,213
76303,182132,207892,-2.6368905052,5.2546384296,-7.9944203065999995,214
75410,182033,207820,-2.7062823606,5.1780681064,-8.061419339399999,215
74799,181873,207778,-2.6943182475999996,5.2917271799,-8.0015987744,216
74553,181823,207769,-2.7326034091999998,5.2426743166000005,-8.0374911134,217
74638,181761,207732,-2.6177479243999997,5.194817864599999,-8.003991596999999,218
74909,181788,207806,-2.7086751831999996,5.197210687199999,-7.9776705484,219
75298,181778,207822,-2.6668007876999997,5.2342994375,-8.0015987744,220
75488,181876,207824,-2.6823541346,5.1517470578,-7.940581798099999,221
75755,181926,207793,-2.7481567560999998,5.276173833,-8.0662049846,222
75911,181937,207798,-2.6368905052,5.166103993399999,-8.0829547428,223
76064,182018,207812,-2.8331019584000003,5.2019963324,-7.968099258,224
76278,182067,207848,-2.596212521,5.2474599618,-8.0135628874,225
76459,182037,207822,-2.6979074815,5.3706903257,-7.9501530885,226
76645,182078,207835,-2.691925425,5.2115676228000005,-7.953742322399999,227
76819,182102,207861,-2.6895326024,5.3192446398,-7.9070822817,228
77005,182113,207899,-2.5495524802999996,5.294120002500001,-7.968099258,229
77175,182233,207950,-2.8331019584000003,5.2570312522,-7.957331556300001,230
77269,182361,207999,-2.6333012713,5.252245607000001,-7.9046894591,231
77556,182470,208047,-2.787638329,5.3395836319,-7.9190463947000005,232
77721,182482,208050,-2.7278177639999996,5.235495848799999,-8.0063844196,233
77847,182383,208011,-2.6524438520999998,5.288137946,-8.0231341778,234
77936,182301,207943,-2.6584259086,5.3168518172,-8.0362947021,235
78050,182167,207932,-2.7062823606,5.1756752837999995,-8.061419339399999,236
78076,182287,207918,-2.5914268758000003,5.2211389132,-7.9609207902,237
78280,182251,207948,-2.6883361911000003,5.2917271799,-8.01595571,238
78356,182302,207937,-2.667997199,5.2438707279,-7.9621172015,239
77990,182254,207919,-2.6524438520999998,5.1708896386,-7.953742322399999,240
76801,182108,207875,-2.6380869165,5.2989056477,-8.0733834524,241
75659,181930,207788,-2.8402804262,5.2594240748,-7.9369925642,242
74864,181785,207717,-2.6823541346,5.2378886713999995,-7.9824561936,243
74487,181645,207694,-2.7625136916999997,5.346762099699999,-7.9956167179,244
74307,181580,207597,-2.7780670386,5.3084769381,-7.9190463947000005,245
74253,181602,207554,-2.7613172804,5.331208752799999,-7.9178499834,246
74526,181547,207603,-2.5698914723999997,5.2067819775999995,-8.0135628874,247
74925,181527,207656,-2.6404797391000003,5.2701917765,-8.0015987744,248
75361,181613,207728,-2.7314069979,5.198407098500001,-7.9872418388,249
75638,181650,207690,-2.6811577232999997,5.3419764545,-7.9740813145,250
75872,181616,207765,-2.6057838114000003,5.216353268,-8.039883936,251
76099,181630,207739,-2.6620151425,5.1158547188000005,-8.0255270004,252
76291,181696,207738,-2.7086751831999996,5.2821558895,-7.9824561936,253
76434,181716,207729,-2.7134608283999997,5.240281494,-8.0183485326,254
76731,181711,207698,-2.7278177639999996,5.1732824612,-8.0063844196,255
76935,181721,207750,-2.7888347403,5.2450671392,-7.956135144999999,256
77114,181707,207765,-2.6727828442,5.442475003699999,-8.0865439767,257
77305,181779,207789,-2.6632115538,5.2474599618,-8.0063844196,258
77501,181885,207870,-2.8151557889,5.3383872206000005,-8.0925260332,259
77670,181879,207899,-2.6464617955999996,5.1792645177,-8.0123664761,260
77497,181860,207903,-2.6249263922,5.3276195189,-7.9046894591,261
76660,181769,207852,-2.7732813934,5.321637462399999,-8.061419339399999,262
75813,181622,207803,-2.644068973,5.2869415346999995,-7.9824561936,263
75369,181586,207748,-2.5806591741,5.2115676228000005,-8.0207413552,264
75209,181517,207778,-2.7337998205,5.216353268,-7.984849016199999,265
75222,181553,207784,-2.6093730453,5.277370244299999,-7.9393853868,266
75623,181570,207769,-2.6452653843,5.204389154999999,-7.902296636499999,267
75993,181647,207760,-2.703889538,5.315655405899999,-7.992027484,268
76276,181688,207729,-2.6967110702,5.3228338737000005,-7.9513494998,269
76484,181680,207720,-2.5938196984,5.2618168974,-8.0362947021,270
76672,181699,207708,-2.8618158296000002,5.2127640341,-7.9872418388,271
76848,181648,207682,-2.715853651,5.2618168974,-7.944171031999999,272
77032,181683,207769,-2.7601208691,5.2067819775999995,-8.0255270004,273
77217,181709,207794,-2.7493531674,5.1996035098,-8.1487573643,274
77389,181711,207753,-2.6835505459,5.3228338737000005,-8.0422767586,275
77564,181729,207820,-2.7218357075,5.240281494,-7.9944203065999995,276
77731,181740,207807,-2.7014967154,5.2977092364,-7.9896346614,277
77915,181745,207794,-2.7182464736,5.2331030262,-8.0327054682,278
78056,181744,207791,-2.6356940939,5.213960445400001,-7.944171031999999,279
78193,181805,207827,-2.6991038927999997,5.2115676228000005,-8.0470624038,280
78277,181795,207802,-2.7170500623000002,5.2498527844,-8.0207413552,281
78466,181824,207824,-2.6404797391000003,5.3515477449,-8.084151154099999,282
78371,181822,207804,-2.6799613119999997,5.2115676228000005,-7.8831540556999995,283
77485,181674,207739,-2.7637101029999998,5.3132625833,-7.9944203065999995,284
76350,181501,207690,-2.5639094158999995,5.2474599618,-7.9788669596999995,285
75601,181356,207603,-2.6117658679000004,5.2115676228000005,-7.8831540556999995,286
75122,181287,207617,-2.7349962318,5.2965128251,-7.9334033303,287
74879,181247,207641,-2.7242285301,5.2977092364,-7.9824561936,288
74823,181213,207618,-2.7816562725,5.292923591199999,-8.0255270004,289
74974,181217,207566,-2.7661029256000003,5.288137946,-7.9393853868,290
75322,181313,207656,-2.7421746995999996,5.2701917765,-8.01595571,291
75695,181344,207715,-2.7337998205,5.3228338737000005,-8.0566336942,292
75991,181399,207731,-2.6668007876999997,5.2247281471,-8.0327054682,293
76244,181421,207732,-2.7577280465,5.288137946,-7.9513494998,294
76417,181411,207766,-2.7840490951,5.2474599618,-8.061419339399999,295
76608,181433,207751,-2.7349962318,5.4029934308,-8.027919823,296
76796,181488,207754,-2.7708885708000004,5.1421757674,-8.0685978072,297
76968,181539,207760,-2.6859433685,5.315655405899999,-8.0255270004,298
77159,181529,207755,-2.7314069979,5.2091748002,-7.8951181687,299
77333,181514,207770,-2.7230321187999995,5.2426743166000005,-8.0243305891,300
77518,181529,207825,-2.6117658679000004,5.265406131300001,-7.9944203065999995,301
77680,181615,207859,-2.7984060307000003,5.2749774217,-7.927421273799999,302
77800,181625,207893,-2.6536402634000003,5.1876393968,-7.9788669596999995,303
77908,181595,207903,-2.787638329,5.1876393968,-7.9597243789,304
77307,181639,207918,-2.7373890544,5.2331030262,-7.969295669299999,305
76235,181422,207815,-2.5710878837,5.2426743166000005,-7.8759755879,306
75463,181317,207784,-2.7577280465,5.2067819775999995,-8.0542408716,307
74962,181318,207712,-2.6620151425,5.292923591199999,-7.9968131291999995,308
74614,181200,207693,-2.7792634499,5.2426743166000005,-8.0231341778,309
74562,181189,207626,-2.6596223199,5.252245607000001,-8.0949188558,310
74647,181186,207580,-2.6225335696,5.389832906500001,-7.9393853868,311
74924,181216,207627,-2.7349962318,5.1601219369,-8.0327054682,312
75349,181258,207677,-2.7421746995999996,5.2271209697000005,-7.9381889755,313
75724,181290,207714,-2.7457639335,5.334797986699999,-7.8999038139,314
75995,181343,207745,-2.7361926431000003,5.2725845991,-8.0135628874,315
76209,181327,207761,-2.8211378454,5.1625147595,-7.980063371,316
76399,181354,207828,-2.6668007876999997,5.2187460906,-7.9489566772,317
76626,181485,207778,-2.6763720781,5.1170511301,-7.9357961529,318
76816,181441,207832,-2.7780670386,5.1385865335,-7.9812597822999996,319
77033,181523,207862,-2.7948167968,5.2582276635,-8.005188008300001,320
77236,181615,207899,-2.7326034091999998,5.2666025426,-7.972884903200001,321
77384,181666,207943,-2.7744778047,5.3970113743,-8.039883936,322
77086,181717,208013,-2.5758735289,5.3611190353,-7.9609207902,323
76322,181683,207975,-2.7529424013,5.1732824612,-7.9609207902,324
75719,181550,207925,-2.8019952646,5.3204410510999995,-8.0362947021,325
75405,181468,207915,-2.703889538,5.2845487121,-8.061419339399999,326
75510,181434,207909,-2.6967110702,5.3324051641,-7.9453674433,327
75769,181489,207918,-2.5280170769,5.3204410510999995,-7.984849016199999,328
76113,181432,207943,-2.6213371583000002,5.251049195699999,-7.956135144999999,329
76315,181487,207934,-2.7433711108999996,5.321637462399999,-7.932206919,330
76584,181499,207939,-2.6333012713,5.2689953652,-8.1080793801,331
76692,181498,207935,-2.6356940939,5.1577291143,-8.0063844196,332
76893,181480,207914,-2.6799613119999997,5.2319066149,-7.9645100241,333
77060,181431,207891,-2.5686950610999997,5.2019963324,-7.9609207902,334
77261,181565,207898,-2.7888347403,5.300102059,-8.0327054682,335
77311,181570,207926,-2.6620151425,5.2857451234,-8.0350982908,336
77577,181572,207941,-2.7421746995999996,5.1194439527,-7.984849016199999,337
77746,181631,207916,-2.6739792555000004,5.194817864599999,-7.9226356286,338
77922,181635,207955,-2.6871397798,5.3300123415,-8.044669581199999,339
78101,181660,207944,-2.596212521,5.192425042,-7.9369925642,340
78211,181718,207952,-2.6859433685,5.2701917765,-8.0733834524,341
78343,181681,207979,-2.7290141752999997,5.2091748002,-8.0063844196,342
78471,181674,207940,-2.5734807063,5.3682975031,-8.0303126456,343
78583,181651,207962,-2.7924239742,5.204389154999999,-7.972884903200001,344
78711,181622,207957,-2.6380869165,5.2019963324,-8.0901332106,345
78852,181687,207959,-2.6847469572,5.3395836319,-8.061419339399999,346
78924,181691,207999,-2.7230321187999995,5.3252266963,-7.9011002251999995,347
79076,181732,208032,-2.7086751831999996,5.3706903257,-7.8424760715,348
79113,181764,208006,-2.7014967154,5.1038906058,-7.9812597822999996,349
78518,181667,207982,-2.6632115538,5.1936214533,-7.8999038139,350
77280,181504,207874,-2.6512474407999997,5.306084115499999,-8.039883936,351
76223,181342,207799,-2.6237299809,5.2749774217,-8.0817583315,352
75564,181231,207736,-2.7278177639999996,5.166103993399999,-7.9884382501,353
75190,181180,207659,-2.6297120374,5.3276195189,-7.970492080600001,354
75019,181163,207602,-2.6380869165,5.2450671392,-7.980063371,355
75025,181175,207658,-2.739781877,5.2666025426,-8.0985080897,356
75296,181212,207700,-2.7684957482,5.3491549223,-7.902296636499999,357
75700,181272,207742,-2.8163522002,5.2331030262,-8.005188008300001,358
76041,181184,207749,-2.6943182475999996,5.1768716951,-7.8759755879,359
76231,181342,207795,-2.6823541346,5.2259245584,-7.9872418388,360
76524,181413,207782,-2.656033086,5.3132625833,-7.915457160799999,361
76714,181462,207804,-2.7708885708000004,5.3491549223,-7.9645100241,362
76885,181437,207823,-2.6261228035000004,5.2115676228000005,-7.9549387337,363
77079,181482,207785,-2.7637101029999998,5.152943469099999,-7.9214392173,364
77282,181490,207765,-2.6141586905,5.2857451234,-7.968099258,365
77476,181541,207841,-2.7445675222,5.3300123415,-8.051848049,366
77655,181553,207839,-2.6021945774999997,5.2749774217,-7.9262248625,367
77827,181569,207854,-2.6847469572,5.277370244299999,-8.044669581199999,368
77988,181629,207868,-2.6991038927999997,5.3012984703,-7.9310105077,369
78126,181510,207895,-2.7589244578,5.1852465742,-8.0243305891,370
78027,181503,207905,-2.7278177639999996,5.2462635505,-7.940581798099999,371
77179,181455,207887,-2.7984060307000003,5.248656373099999,-7.986045427500001,372
76291,181183,207797,-2.75174599,5.2223353244999995,-7.9190463947000005,373
75718,181054,207725,-2.7050859493,5.2259245584,-8.0925260332,374
75416,181094,207691,-2.7637101029999998,5.288137946,-7.9345997416,375
75453,181043,207709,-2.6967110702,5.192425042,-7.9262248625,376
75668,181115,207630,-2.7182464736,5.264209719999999,-8.0255270004,377
76025,181192,207652,-2.6165515131,5.2115676228000005,-8.0327054682,378
76347,181248,207632,-2.7206392962,5.235495848799999,-8.0255270004,379
76582,181258,207654,-2.548356069,5.1433721787,-7.9872418388,380
76806,181303,207676,-2.7110680058,5.2869415346999995,-8.0015987744,381
76941,181305,207695,-2.7445675222,5.264209719999999,-7.8855468783,382
77155,181330,207757,-2.5854448193,5.216353268,-8.005188008300001,383
77299,181355,207786,-2.715853651,5.2307102036,-7.9633136127999995,384
77497,181393,207796,-2.6512474407999997,5.1613183482,-7.9334033303,385
77688,181417,207799,-2.8378876036,5.0943193154,-7.944171031999999,386
77835,181419,207784,-2.691925425,5.1960142759,-8.0374911134,387
78027,181445,207822,-2.7194428849,5.4065826647,-7.9453674433,388
78186,181483,207799,-2.7086751831999996,5.213960445400001,-7.9453674433,389
78312,181474,207855,-2.6356940939,5.346762099699999,-7.984849016199999,390
78500,181537,207835,-2.7086751831999996,5.1290152431000005,-8.017152121299999,391
78644,181501,207828,-2.7912275628999996,5.152943469099999,-7.9070822817,392
78709,181546,207851,-2.6691936103000002,5.2821558895,-7.9477602659,393
78308,181448,207847,-2.7266213527,5.1840501629,-7.9884382501,394
77204,181348,207817,-2.6787649007,5.2223353244999995,-7.984849016199999,395
76216,181199,207703,-2.6213371583000002,5.3012984703,-7.9992059518000005,396
75609,181056,207651,-2.6787649007,5.1876393968,-7.970492080600001,397
75187,181021,207693,-2.7900311516,5.2666025426,-7.9310105077,398
75048,181009,207657,-2.7936203855,5.306084115499999,-7.9070822817,399
75047,181007,207645,-2.7026931267000003,5.2725845991,-7.9070822817,400
75263,181032,207545,-2.5184457865,5.2091748002,-7.956135144999999,401
75638,181049,207619,-2.5782663514999995,5.2965128251,-8.0135628874,402
75906,181113,207678,-2.7098715945,5.315655405899999,-7.957331556300001,403
76228,181158,207644,-2.7326034091999998,5.3539405675,-8.0422767586,404
76372,181207,207649,-2.691925425,5.194817864599999,-7.9776705484,405
76572,181231,207751,-2.7326034091999998,5.2845487121,-8.0733834524,406
76749,181318,207738,-2.7074787719,5.2187460906,-7.980063371,407
76834,181325,207734,-2.7062823606,5.375475970899999,-7.957331556300001,408
77156,181361,207734,-2.8761727652,5.213960445400001,-7.9992059518000005,409
77334,181353,207788,-2.6799613119999997,5.2019963324,-8.0087772422,410
77509,181354,207771,-2.7326034091999998,5.169693227300001,-7.9944203065999995,411
77648,181373,207812,-2.7278177639999996,5.2666025426,-7.9178499834,412
77767,181356,207777,-2.7182464736,5.2115676228000005,-8.061419339399999,413
77921,181425,207875,-2.7613172804,5.2570312522,-7.925028451199999,414
78011,181428,207874,-2.7014967154,5.240281494,-7.956135144999999,415
77551,181427,207878,-2.7421746995999996,5.3383872206000005,-7.9310105077,416
76476,181175,207768,-2.7589244578,5.3563333901,-7.972884903200001,417
75583,181144,207699,-2.7828526838,5.1577291143,-7.8939217574,418
75013,181004,207652,-2.7278177639999996,5.2091748002,-7.9944203065999995,419
74670,180936,207648,-2.7337998205,5.363511857900001,-8.0015987744,420
74544,180905,207565,-2.6524438520999998,5.2594240748,-7.9489566772,421
74557,180910,207456,-2.8151557889,5.306084115499999,-8.0303126456,422
74787,180949,207510,-2.703889538,5.216353268,-7.9369925642,423
75210,180983,207595,-2.7589244578,5.2462635505,-7.9417782094,424
75604,181021,207649,-2.5866412306,5.2905307686,-8.0015987744,425
75820,181061,207682,-2.7732813934,5.112265484900001,-7.9944203065999995,426
76098,181109,207670,-2.5902304645,5.2905307686,-8.0339018795,427
76302,181120,207742,-2.6333012713,5.3264231076,-8.084151154099999,428
76490,181220,207729,-2.6656043763999997,5.2570312522,-8.0135628874,429
76666,181193,207769,-2.7349962318,5.1505506465,-7.9262248625,430
76899,181241,207770,-2.6991038927999997,5.2594240748,-7.928617685100001,431
77112,181270,207781,-2.644068973,5.2713881878,-7.9178499834,432
77302,181311,207863,-2.8043880872,5.1912286306999995,-7.9417782094,433
77159,181295,207818,-2.6608187311999996,5.1457650013,-7.9752777258,434
76377,181217,207791,-2.6644079651,5.3192446398,-7.9776705484,435
75675,181114,207720,-2.7254249414,5.2546384296,-7.942974620699999,436
75323,181017,207717,-2.7972096194,5.2342994375,-7.9549387337,437
75272,181010,207706,-2.7493531674,5.1768716951,-7.848458128,438
75436,181028,207766,-2.7361926431000003,5.395814963,-8.0422767586,439
75783,181074,207787,-2.7361926431000003,5.216353268,-7.8520473619,440
76011,181093,207808,-2.7972096194,5.1732824612,-8.0063844196,441
76346,181162,207786,-2.6775684894,5.2893343573,-7.9824561936,442
76501,181187,207770,-2.6991038927999997,5.300102059,-7.9489566772,443
76675,181211,207796,-2.6213371583000002,5.2462635505,-7.953742322399999,444
76854,181267,207769,-2.703889538,5.1637111708,-7.9357961529,445
77018,181244,207769,-2.691925425,5.276173833,-7.998009540499999,446
77209,181251,207760,-2.6380869165,5.2342994375,-8.0075808309,447
77372,181284,207788,-2.7457639335,5.3084769381,-7.972884903200001,448
77544,181277,207854,-2.7469603447999997,5.3371908093,-8.003991596999999,449
77704,181363,207793,-2.6739792555000004,5.2378886713999995,-8.0015987744,450
77862,181369,207860,-2.7421746995999996,5.2211389132,-8.027919823,451
78034,181362,207855,-2.7206392962,5.2677989539,-7.9992059518000005,452
78154,181427,207823,-2.6955146589,5.2749774217,-7.9944203065999995,453
78292,181438,207821,-2.7708885708000004,5.235495848799999,-8.017152121299999,454
78475,181433,207846,-2.7637101029999998,5.3024948815999995,-7.8999038139,455
78473,181412,207865,-2.5830519966999996,5.292923591199999,-7.8520473619,456
78703,181465,207875,-2.7912275628999996,5.2701917765,-8.0422767586,457
78811,181461,207889,-2.6261228035000004,5.2067819775999995,-7.9752777258,458
78936,181487,207898,-2.656033086,5.084748025,-7.992027484,459
79029,181488,207922,-2.9156543381000004,5.3336015753999995,-8.051848049,460
79153,181496,207939,-2.7541388126,5.3551369788,-8.0111700648,461
78998,181493,207926,-2.7314069979,5.3395836319,-8.0590265168,462
77970,181439,207899,-2.6943182475999996,5.2785666556,-7.8975109913,463
76882,181265,207823,-2.7493531674,5.3682975031,-7.969295669299999,464
75888,181085,207727,-2.7708885708000004,5.2857451234,-8.061419339399999,465
75389,180972,207655,-2.6165515131,5.194817864599999,-7.9130643382,466
75092,180747,207568,-2.7098715945,5.181657340299999,-7.8855468783,467
74978,180547,207475,-2.6548366747000003,5.264209719999999,-7.9633136127999995,468
75068,180384,207435,-2.7613172804,5.182853751600001,-7.9633136127999995,469
75354,180298,207470,-2.6500510295,5.1493542352,-7.9776705484,470
75706,180350,207464,-2.6943182475999996,5.276173833,-7.9824561936,471
75987,180325,207425,-2.5854448193,5.1194439527,-7.9046894591,472
76232,180428,207383,-2.5268206656,5.3455656884,-8.070990629799999,473
76393,180413,207399,-2.620140747,5.3204410510999995,-8.044669581199999,474
76578,180478,207423,-2.7122644171,5.2115676228000005,-7.9764741371,475
76766,180467,207405,-2.7326034091999998,5.334797986699999,-7.956135144999999,476
77018,180640,207427,-2.7565316351999996,5.2079783889,-7.9489566772,477
77213,180677,207517,-2.6859433685,5.3108697607,-7.9298140964,478
77423,180770,207524,-2.7661029256000003,5.344369277099999,-8.0135628874,479
77595,180820,207553,-2.6811577232999997,5.3503513336,-7.984849016199999,480
77787,180888,207580,-2.6416761504,5.2031927437,-7.8951181687,481
77937,180899,207633,-2.75174599,5.127818831799999,-8.0590265168,482
77873,180900,207652,-2.6045874001,5.3802616161,-8.0470624038,483
77221,180799,207622,-2.6309084487,5.321637462399999,-8.070990629799999,484
76479,180654,207567,-2.7625136916999997,5.2689953652,-7.9298140964,485
76026,180600,207470,-2.7278177639999996,5.324030285,-7.9932238953,486
75875,180563,207501,-2.7086751831999996,5.182853751600001,-7.980063371,487
76022,180576,207397,-2.7852455064000003,5.3084769381,-8.0243305891,488
76224,180635,207401,-2.7074787719,5.288137946,-7.911867926899999,489
76616,180701,207400,-2.7050859493,5.276173833,-8.0087772422,490
76845,180782,207406,-2.7577280465,5.1601219369,-7.8807612331,491
77012,180757,207428,-2.8474588940000003,5.1493542352,-8.0123664761,492
77158,180755,207441,-2.7541388126,5.407779076,-7.8496545393,493
77327,180768,207443,-2.7696921595,5.228317381,-7.9465638546,494
77495,180708,207500,-2.6991038927999997,5.294120002500001,-8.074579863699999,495
77656,180793,207501,-2.6213371583000002,5.4137611324999995,-7.9621172015,496
77809,180827,207494,-2.7302105866,5.2845487121,-8.0685978072,497
77987,180833,207500,-2.75174599,5.2019963324,-7.984849016199999,498
78152,180874,207511,-2.7086751831999996,5.2630133087,-8.0207413552,499
78295,180878,207523,-2.7278177639999996,5.2462635505,-8.0303126456,500
78458,180878,207544,-2.6177479243999997,5.294120002500001,-7.9968131291999995,501
78591,180903,207539,-2.739781877,5.2965128251,-8.044669581199999,502
78728,180890,207526,-2.8115665549999997,5.1936214533,-8.0422767586,503
78844,180925,207560,-2.7074787719,5.2606204861,-7.9824561936,504
78974,180935,207589,-2.8677978860999995,5.3742795596,-7.980063371,505
79106,180980,207609,-2.5459632464,5.0883372589,-8.027919823,506
79173,181016,207621,-2.7385854657,5.315655405899999,-7.9262248625,507
78513,180907,207606,-2.7996024420000003,5.2594240748,-8.0685978072,508
77505,180819,207548,-2.7469603447999997,5.3108697607,-7.9298140964,509
76537,180629,207433,-2.7469603447999997,5.2845487121,-8.0590265168,510
75918,180565,207424,-2.6476582069,5.2977092364,-7.9968131291999995,511
75596,180555,207359,-2.6656043763999997,5.198407098500001,-7.9190463947000005,512
75453,180484,207303,-2.6189443356999997,5.264209719999999,-7.9872418388,513
75504,180486,207302,-2.7565316351999996,5.4652068183999996,-8.027919823,514
75775,180518,207379,-2.9132615155,5.2845487121,-8.0063844196,515
76097,180574,207391,-2.7780670386,5.2594240748,-8.0470624038,516
76385,180614,207424,-2.8498517166,5.2689953652,-8.0374911134,517
76605,180631,207445,-2.6129622792,5.344369277099999,-8.0805619202,518
76760,180642,207459,-2.6799613119999997,5.264209719999999,-7.9525459111,519
76914,180723,207436,-2.7110680058,5.228317381,-7.9142607494999995,520
76993,180718,207467,-2.75174599,5.2905307686,-7.9465638546,521
77255,180740,207459,-2.8378876036,5.3551369788,-8.0087772422,522
77345,180752,207486,-2.823530668,5.3539405675,-7.9669028467,523
77578,180782,207526,-2.6620151425,5.2223353244999995,-8.01595571,524
77751,180849,207538,-2.6931218363,5.3611190353,-7.9908310727,525
77890,180884,207548,-2.6165515131,5.0979085493,-7.9752777258,526
78041,180864,207569,-2.6620151425,5.3024948815999995,-8.0231341778,527
78171,180896,207611,-2.6572294973,5.2462635505,-8.075776275,528
77998,180887,207598,-2.6548366747000003,5.1912286306999995,-7.9298140964,529
77128,180774,207578,-2.7421746995999996,5.3970113743,-7.9944203065999995,530
76159,180591,207443,-2.6823541346,5.1469614126,-7.9669028467,531
75472,180483,207389,-2.7385854657,5.1254260092,-8.087740388,532
75054,180475,207334,-2.7194428849,5.228317381,-8.087740388,533
74841,180327,207238,-2.8498517166,5.2366922601,-8.003991596999999,534
74801,180412,207221,-2.7900311516,5.2905307686,-8.027919823,535
74932,180472,207257,-2.7661029256000003,5.3324051641,-8.1044901462,536
75330,180505,207334,-2.7708885708000004,5.2630133087,-8.0015987744,537
75670,180517,207381,-2.7134608283999997,5.2331030262,-8.0183485326,538
75994,180562,207449,-2.6380869165,5.2965128251,-7.9657064354,539
76237,180609,207438,-2.7637101029999998,5.1780681064,-8.0063844196,540
76433,180628,207463,-2.7661029256000003,5.1876393968,-7.9896346614,541
76627,180677,207511,-2.7613172804,5.2713881878,-8.0183485326,542
76853,180685,207541,-2.7457639335,5.1780681064,-7.992027484,543
77036,180710,207573,-2.7888347403,5.2414779053,-8.044669581199999,544
77267,180765,207591,-2.6500510295,5.180460929,-8.0087772422,545
77431,180823,207622,-2.7732813934,5.2570312522,-7.9645100241,546
77534,180817,207672,-2.7469603447999997,5.2259245584,-7.9896346614,547
77100,180815,207639,-2.7493531674,5.2833523008,-8.0327054682,548
76293,180711,207589,-2.7278177639999996,5.2618168974,-7.9070822817,549
75725,180633,207526,-2.7254249414,5.3012984703,-7.9357961529,550
75477,180531,207504,-2.7421746995999996,5.309673349400001,-7.9489566772,551
75409,180529,207510,-2.5806591741,5.168496815999999,-8.0374911134,552
75712,180561,207508,-2.775674216,5.1708896386,-8.0350982908,553
76073,180630,207516,-2.6524438520999998,5.1876393968,-7.8807612331,554
76365,180656,207509,-2.6835505459,5.3706903257,-8.0255270004,555
76584,180718,207529,-2.739781877,5.152943469099999,-7.9070822817,556
76758,180745,207566,-2.7912275628999996,5.4065826647,-7.972884903200001,557
76911,180752,207544,-2.6225335696,5.235495848799999,-7.9872418388,558
77075,180727,207559,-2.8845476443,5.235495848799999,-7.9190463947000005,559
77181,180780,207593,-2.8582265956999997,5.2450671392,-7.8831540556999995,560
77408,180811,207564,-2.6787649007,5.240281494,-8.0135628874,561
77601,180839,207570,-2.8151557889,5.3491549223,-7.953742322399999,562
77767,180930,207619,-2.7816562725,5.180460929,-7.932206919,563
77899,180868,207669,-2.7852455064000003,5.335994398,-8.0087772422,564
78070,180909,207645,-2.7684957482,5.292923591199999,-7.968099258,565
78206,180900,207679,-2.7134608283999997,5.1876393968,-8.0255270004,566
78349,180939,207708,-2.6811577232999997,5.3132625833,-7.8496545393,567
78471,180982,207679,-2.7972096194,5.216353268,-8.0207413552,568
78609,180956,207730,-2.6105694566,5.2905307686,-7.9166535721,569
78754,180996,207752,-2.7062823606,5.1266224204999995,-7.9896346614,570
78881,181037,207786,-2.5782663514999995,5.2187460906,-8.0374911134,571
78989,181005,207788,-2.644068973,5.1708896386,-8.0470624038,572
79001,181053,207783,-2.6213371583000002,5.2594240748,-7.9262248625,573
79201,180978,207800,-2.8474588940000003,5.2713881878,-7.9872418388,574
79237,181093,207851,-2.8366911923,5.3192446398,-7.9992059518000005,575
78664,181036,207793,-2.7493531674,5.216353268,-7.9776705484,576
77465,180927,207686,-2.6129622792,5.1708896386,-7.9190463947000005,577
76388,180744,207518,-2.6656043763999997,5.2079783889,-8.0207413552,578
75686,180613,207398,-2.7972096194,5.1457650013,-7.9070822817,579
75291,180555,207325,-2.7493531674,5.2187460906,-7.8759755879,580
75111,180472,207366,-2.6823541346,5.3850472612999996,-8.0015987744,581
75143,180535,207396,-2.8271199019,5.2630133087,-7.992027484,582
75400,180574,207403,-2.8809584104000003,5.1840501629,-7.9896346614,583
75808,180643,207447,-2.8510481279,5.3706903257,-7.9345997416,584
76013,180682,207483,-2.7541388126,5.192425042,-7.9190463947000005,585
76328,180582,207492,-2.6691936103000002,5.3228338737000005,-7.9752777258,586
76479,180409,207453,-2.7062823606,5.309673349400001,-7.8975109913,587
76588,180160,207429,-2.739781877,5.2725845991,-8.027919823,588
76658,180009,207340,-2.5148565526000004,5.4484570602,-7.980063371,589
76772,179969,207277,-2.6991038927999997,5.1338008883,-8.049455226400001,590
76910,180037,207296,-2.7637101029999998,5.3252266963,-7.998009540499999,591
77126,180212,207319,-2.7613172804,5.2630133087,-8.0183485326,592
77347,180251,207339,-2.6763720781,5.2570312522,-8.0195449439,593
77608,180475,207437,-2.5890340532,5.3072805268000005,-7.8951181687,594
77754,180575,207429,-2.7230321187999995,5.2677989539,-8.0566336942,595
77956,180598,207500,-2.835494781,5.335994398,-7.911867926899999,596
78075,180609,207514,-2.6691936103000002,5.1876393968,-7.9657064354,597
77910,180620,207543,-2.8187450228000004,5.239085082699999,-8.0590265168,598
77034,180549,207470,-2.6524438520999998,5.3024948815999995,-8.0255270004,599
76042,180396,207359,-2.5854448193,5.2414779053,-8.0015987744,600
75333,180294,207196,-2.8773691765,5.169693227300001,-8.1032937349,601
74978,180194,207005,-2.7230321187999995,5.1852465742,-7.927421273799999,602
74762,180149,207053,-2.6177479243999997,5.2223353244999995,-7.9968131291999995,603
74782,180144,207105,-2.7254249414,5.1756752837999995,-7.9896346614,604
74927,180129,207137,-2.7314069979,5.2893343573,-7.9776705484,605
75297,180141,207175,-2.8247270792999997,5.2187460906,-8.075776275,606
75680,180242,207203,-2.7182464736,5.3515477449,-7.9872418388,607
75989,180287,207216,-2.8259234905999997,5.194817864599999,-8.0327054682,608
76252,180349,207292,-2.8307091358,5.235495848799999,-7.9549387337,609
76426,180416,207294,-2.7254249414,5.194817864599999,-7.9549387337,610
76625,180402,207362,-2.7230321187999995,5.1732824612,-8.084151154099999,611
76837,180479,207362,-2.8390840148999996,5.276173833,-7.9776705484,612
77029,180460,207420,-2.7445675222,5.2426743166000005,-8.0207413552,613
77218,180541,207482,-2.7421746995999996,5.315655405899999,-7.928617685100001,614
77403,180465,207489,-2.8295127245,5.3252266963,-7.9381889755,615
77582,180538,207537,-2.8510481279,5.251049195699999,-7.9190463947000005,616
77755,180570,207532,-2.8426732488,5.2618168974,-7.9369925642,617
77913,180608,207590,-2.7936203855,5.2570312522,-8.0566336942,618
78054,180644,207591,-2.5686950610999997,5.2450671392,-8.0602229281,619
77888,180629,207570,-2.6117658679000004,5.331208752799999,-7.9585279676,620
76937,180552,207549,-2.8187450228000004,5.2917271799,-8.0015987744,621
75918,180335,207398,-2.7062823606,5.2558348409,-7.998009540499999,622
75273,180233,207268,-2.6368905052,5.3072805268000005,-8.0075808309,623
74960,180249,207164,-2.7314069979,5.2091748002,-7.957331556300001,624
74744,180150,207105,-2.6991038927999997,5.2462635505,-8.0697942185,625
74763,180146,207133,-2.5974089322999996,5.4831529879,-8.01595571,626
74964,180150,207188,-2.6572294973,5.228317381,-7.953742322399999,627
75340,180252,207253,-2.6536402634000003,5.389832906500001,-8.0087772422,628
75740,180307,207253,-2.6069802227000003,5.279763066899999,-7.9944203065999995,629
76035,180302,207281,-2.787638329,5.2007999211,-7.984849016199999,630
76275,180341,207309,-2.7696921595,5.2677989539,-8.129614783500001,631
76452,180382,207362,-2.7457639335,5.3204410510999995,-7.940581798099999,632
76665,180396,207377,-2.7744778047,5.1062834284,-7.9501530885,633
76866,180415,207418,-2.6333012713,5.3946185517,-8.057830105499999,634
77133,180513,207440,-2.5531417142,5.346762099699999,-8.0087772422,635
77273,180530,207488,-2.6356940939,5.3132625833,-7.8053873212000005,636
77482,180562,207542,-2.7230321187999995,5.3264231076,-7.9645100241,637
77656,180582,207564,-2.8701907087,5.1493542352,-7.9944203065999995,638
77813,180593,207542,-2.7541388126,5.2295137923,-7.992027484,639
77989,180658,207599,-2.6763720781,5.2474599618,-7.8999038139,640
77997,180638,207594,-2.6931218363,5.2295137923,-7.902296636499999,641
77367,180582,207567,-2.6237299809,5.3072805268000005,-7.9896346614,642
76207,180429,207486,-2.7637101029999998,5.1852465742,-8.0231341778,643
75375,180299,207334,-2.7170500623000002,5.2342994375,-7.942974620699999,644
74894,180224,207184,-2.8223342567,5.2713881878,-7.9417782094,645
74601,180170,207095,-2.6751756668,5.1708896386,-7.8999038139,646
74544,180137,207120,-2.6464617955999996,5.0955157266999995,-8.0685978072,647
74608,180130,207172,-2.691925425,5.2917271799,-7.9549387337,648
74986,180085,207229,-2.835494781,5.156532702999999,-8.0183485326,649
75388,180191,207272,-2.7565316351999996,5.2905307686,-7.9944203065999995,650
75712,180273,207259,-2.8821548217,5.192425042,-7.9585279676,651
75965,180309,207329,-2.8941189347,5.2606204861,-8.063812162,652
76187,180355,207387,-2.8486553053,5.2606204861,-7.9585279676,653
76403,180407,207405,-2.7804598612,5.228317381,-8.0410803473,654
76605,180426,207457,-2.6045874001,5.182853751600001,-7.9944203065999995,655
76816,180477,207484,-2.8606194183,5.192425042,-7.970492080600001,656
77009,180491,207513,-2.6907290137,5.4125647212,-8.0350982908,657
77205,180484,207524,-2.6500510295,5.363511857900001,-7.9178499834,658
77378,180502,207555,-2.8438696600999998,5.1936214533,-8.129614783500001,659
77531,180577,207594,-2.6380869165,5.2701917765,-7.9489566772,660
77683,180622,207638,-2.5890340532,5.2079783889,-8.0063844196,661
77844,180695,207656,-2.9060830476999997,5.309673349400001,-7.9142607494999995,662
77934,180714,207678,-2.5974089322999996,5.280959478200001,-7.9896346614,663
77648,180701,207633,-2.7421746995999996,5.2785666556,-7.9944203065999995,664
76626,180599,207559,-2.8031916759,5.2666025426,-7.969295669299999,665
75638,180412,207381,-2.7349962318,5.2259245584,-7.9992059518000005,666
75005,180314,207235,-2.7637101029999998,5.240281494,-7.9968131291999995,667
74652,180203,207157,-2.6153551018,5.204389154999999,-8.0207413552,668
74495,180191,207146,-2.8019952646,5.321637462399999,-7.9166535721,669
74532,180151,207127,-2.6799613119999997,5.240281494,-8.003991596999999,670
74732,180174,207184,-2.7326034091999998,5.315655405899999,-8.0470624038,671
75115,180221,207234,-2.7780670386,5.2953164138,-7.9968131291999995,672
75579,180334,207305,-2.8366911923,5.1385865335,-8.0542408716,673
75869,180360,207344,-2.7349962318,5.2307102036,-8.017152121299999,674
76133,180466,207373,-2.8187450228000004,5.312066172,-7.9872418388,675
76323,180439,207437,-2.7972096194,5.3204410510999995,-8.0386875247,676
76522,180429,207474,-2.7074787719,5.216353268,-8.075776275,677
76729,180495,207510,-2.7182464736,5.3024948815999995,-8.0135628874,678
76941,180581,207482,-2.8402804262,5.2965128251,-8.0697942185,679
77164,180600,207581,-2.9216363945999997,5.2498527844,-8.0470624038,680
77357,180629,207631,-2.8067809098,5.2618168974,-8.1032937349,681
77487,180338,207472,-2.6751756668,5.235495848799999,-7.957331556300001,682
77463,179949,207209,-2.7050859493,5.197210687199999,-8.0111700648,683
77628,179887,207193,-2.7469603447999997,5.2893343573,-7.9585279676,684
77707,180065,207365,-2.75174599,5.2689953652,-8.01595571,685
77644,180402,207540,-2.7900311516,5.3300123415,-7.9992059518000005,686
76793,180467,207515,-2.7984060307000003,5.1314080657000005,-8.0195449439,687
75833,180365,207374,-2.7385854657,5.2055855663,-7.9633136127999995,688
75166,180313,207279,-2.6452653843,5.139782944799999,-8.044669581199999,689
74814,180269,207220,-2.7972096194,5.2546384296,-7.984849016199999,690
74657,180253,207147,-2.715853651,5.2247281471,-8.0303126456,691
74658,180235,207229,-2.7481567560999998,5.1876393968,-7.9740813145,692
74850,180236,207235,-2.7062823606,5.213960445400001,-7.932206919,693
75151,180335,207304,-2.6847469572,5.3419764545,-7.9393853868,694
75654,180368,207351,-2.8007988533,5.204389154999999,-8.027919823,695
76022,180496,207422,-2.7326034091999998,5.2127640341,-8.0015987744,696
76297,180789,207501,-2.6835505459,5.321637462399999,-8.049455226400001,697
76554,180848,207561,-2.7254249414,5.2701917765,-7.9310105077,698
76777,180982,207675,-2.6404797391000003,5.1170511301,-8.017152121299999,699
77016,181111,207748,-2.6979074815,5.2737810104,-8.0135628874,700
77260,181254,207871,-2.6763720781,5.3407800432,-7.9836526049,701
77504,181331,207908,-2.7290141752999997,5.2689953652,-7.9334033303,702
77743,181393,207900,-2.7086751831999996,5.1732824612,-8.0925260332,703
77912,181416,207953,-2.7326034091999998,5.213960445400001,-8.0255270004,704
78077,181424,207969,-2.7254249414,5.2474599618,-8.0973116784,705
78292,181530,207996,-2.7637101029999998,5.2007999211,-8.0087772422,706
78405,181476,208009,-2.835494781,5.2857451234,-7.9716884919,707
78300,181442,207996,-2.7337998205,5.0644090329,-8.0327054682,708
77460,181236,207861,-2.7194428849,5.182853751600001,-7.9130643382,709
76406,180896,207650,-2.6847469572,5.3515477449,-7.9621172015,710
75678,180726,207424,-2.8223342567,5.1541398804,-7.970492080600001,711
75241,180571,207364,-2.7661029256000003,5.3419764545,-7.957331556300001,712
75019,180738,207386,-2.7326034091999998,5.3228338737000005,-7.9657064354,713
75013,180791,207461,-2.6237299809,5.1732824612,-7.984849016199999,714
75150,180821,207500,-2.5998017549,5.2785666556,-7.984849016199999,715
75532,180771,207511,-2.6787649007,5.2127640341,-7.9585279676,716
75953,180869,207565,-2.7577280465,5.3419764545,-8.0255270004,717
76243,180923,207560,-2.7505495787000003,5.3730831483,-7.984849016199999,718
76539,180908,207603,-2.7996024420000003,5.1469614126,-7.9381889755,719
76769,180944,207661,-2.8295127245,5.2582276635,-7.8831540556999995,720
76969,180910,207634,-2.7948167968,5.2821558895,-7.9968131291999995,721
77173,180960,207670,-2.823530668,5.3036912929,-7.915457160799999,722
77400,181085,207724,-2.7086751831999996,5.3300123415,-7.957331556300001,723
77617,181024,207762,-2.775674216,5.3276195189,-8.070990629799999,724
77820,181095,207790,-2.87138712,5.1589255256,-7.972884903200001,725
77914,181196,207827,-2.8965117573,5.1649075821,-8.0327054682,726
78205,181255,207850,-2.739781877,5.14456859,-7.9896346614,727
78352,181302,207880,-2.7062823606,5.3503513336,-7.940581798099999,728
78520,181372,207885,-2.644068973,5.1864429855,-8.0255270004,729
78419,181376,207956,-2.6452653843,5.197210687199999,-7.8999038139,730
77565,181307,207884,-2.7206392962,5.192425042,-8.0697942185,731
76514,181092,207753,-2.6321048599999997,5.1744788725,-7.970492080600001,732
75865,180912,207581,-2.7074787719,5.3515477449,-8.0183485326,733
75475,180864,207455,-2.7613172804,5.3108697607,-8.0087772422,734
75240,180779,207436,-2.7098715945,5.3252266963,-8.0207413552,735
75233,180795,207434,-2.6285156261,5.2438707279,-8.0231341778,736
75405,180784,207452,-2.6165515131,5.2666025426,-8.0255270004,737
75772,180829,207470,-2.7661029256000003,5.1182475414,-8.044669581199999,738
76162,180799,207493,-2.7373890544,5.264209719999999,-8.0350982908,739
76480,180886,207508,-2.8187450228000004,5.2319066149,-7.9238320399,740
76724,180992,207594,-2.8271199019,5.0596233877,-8.01595571,741
76948,181058,207638,-2.7026931267000003,5.219942501899999,-8.0566336942,742
77176,181162,207700,-2.7110680058,5.2211389132,-8.0374911134,743
77402,181106,207724,-2.6703900216,5.2474599618,-7.940581798099999,744
77583,181093,207694,-2.7385854657,5.2271209697000005,-7.9992059518000005,745
77810,181118,207730,-2.6835505459,5.2701917765,-7.928617685100001,746
77991,181177,207770,-2.7553352239,5.2977092364,-8.0183485326,747
78191,181233,207813,-2.6955146589,5.1649075821,-7.9369925642,748
78381,181295,207896,-2.823530668,5.0524449199,-7.980063371,749
78523,181274,207875,-2.7960132080999998,5.2701917765,-8.0781690976,750
78621,181239,207858,-2.7948167968,5.2857451234,-8.039883936,751
78178,181163,207829,-2.7003003040999998,5.1254260092,-8.0530444603,752
77129,180968,207728,-2.835494781,5.276173833,-7.986045427500001,753
76250,180787,207556,-2.8271199019,5.1589255256,-7.940581798099999,754
75708,180633,207426,-2.7457639335,5.2019963324,-7.9968131291999995,755
75400,180621,207310,-2.775674216,5.1254260092,-8.0303126456,756
75250,180565,207315,-2.6871397798,5.2630133087,-7.9824561936,757
75266,180482,207316,-2.6847469572,5.2689953652,-7.928617685100001,758
75568,180485,207361,-2.7924239742,5.347958511000001,-7.9609207902,759
75924,180491,207368,-2.919243572,5.120640364,-7.9621172015,760
76272,180579,207393,-2.6727828442,5.3288159302,-8.0135628874,761
76558,180662,207445,-2.8175486115,5.3012984703,-8.0087772422,762
76733,180687,207463,-2.7936203855,5.3395836319,-8.070990629799999,763
76966,180815,207490,-2.7565316351999996,5.228317381,-7.980063371,764
77136,180815,207563,-2.703889538,5.3024948815999995,-8.0087772422,765
77327,180807,207592,-2.7290141752999997,5.182853751600001,-7.9393853868,766
77546,180818,207598,-2.7792634499,5.2546384296,-8.0566336942,767
77737,180841,207634,-2.6811577232999997,5.228317381,-8.039883936,768
77885,180859,207653,-2.6596223199,5.1996035098,-8.0422767586,769
78064,180866,207675,-2.6548366747000003,5.2821558895,-8.0135628874,770
78193,180953,207675,-2.6811577232999997,5.3084769381,-7.980063371,771
78353,180921,207713,-2.8378876036,5.223531735800001,-7.9872418388,772
78337,180991,207758,-2.7565316351999996,5.2498527844,-8.051848049,773
77629,180975,207726,-2.7780670386,5.2115676228000005,-7.911867926899999,774
76575,180778,207557,-2.5471596577,5.2450671392,-8.0087772422,775
75766,180603,207417,-2.7529424013,5.252245607000001,-8.0566336942,776
75326,180456,207237,-2.8857440556,5.235495848799999,-7.9824561936,777
75091,180487,207252,-2.8618158296000002,5.38385085,-7.932206919,778
75015,180476,207211,-2.6955146589,5.2031927437,-7.9657064354,779
75118,180404,207289,-2.7900311516,5.3228338737000005,-7.9513494998,780
75451,180418,207282,-2.7302105866,5.2019963324,-7.8640114749,781
75872,180527,207352,-2.7864419177,5.3371908093,-7.9214392173,782
76228,180605,207447,-2.8115665549999997,5.309673349400001,-8.0327054682,783
76489,180702,207432,-2.7637101029999998,5.3503513336,-7.956135144999999,784
76711,180724,207482,-2.7948167968,5.204389154999999,-7.9812597822999996,785
76896,180811,207470,-2.8677978860999995,5.1888358081,-8.0087772422,786
77105,180795,207569,-2.8797619991,5.1900322194,-7.8783684105,787
77306,180816,207579,-2.7828526838,5.1481578239,-7.957331556300001,788
77500,180807,207602,-2.5806591741,5.197210687199999,-8.0530444603,789
77686,180867,207582,-2.6392833278,5.2271209697000005,-7.9968131291999995,790
77861,180885,207646,-2.7278177639999996,5.1852465742,-7.911867926899999,791
78027,180956,207659,-2.6775684894,5.2893343573,-7.8831540556999995,792
78178,180967,207698,-2.7996024420000003,5.3228338737000005,-8.102097323599999,793
78353,180956,207711,-2.6955146589,5.3144589946,-8.0590265168,794
78327,180933,207708,-2.8175486115,5.265406131300001,-7.9716884919,795
77586,180848,207657,-2.6691936103000002,5.1302116544,-8.0255270004,796
76562,180717,207464,-2.7302105866,5.251049195699999,-7.9633136127999995,797
75729,180503,207356,-2.7565316351999996,5.2307102036,-7.8927253461,798
75259,180429,207199,-2.7565316351999996,5.2570312522,-7.9393853868,799
75002,180338,207176,-2.6979074815,5.2701917765,-7.920242806,800
74939,180350,207179,-2.6644079651,5.2833523008,-7.9465638546,801
75038,180323,207238,-2.7146572396999997,5.166103993399999,-8.0530444603,802
75368,180371,207215,-2.7421746995999996,5.276173833,-7.9034930478000005,803
75802,180402,207260,-2.8283163132,5.2115676228000005,-8.0111700648,804
76183,180467,207312,-2.8522445392,5.2331030262,-7.9345997416,805
76379,180504,207331,-2.6967110702,5.2259245584,-7.972884903200001,806
76614,180551,207370,-2.8773691765,5.2677989539,-7.9872418388,807
76803,180574,207412,-2.6811577232999997,5.2067819775999995,-8.0063844196,808
77019,180629,207461,-2.6596223199,5.2378886713999995,-7.9513494998,809
77212,180672,207453,-2.5914268758000003,5.277370244299999,-8.0183485326,810
77428,180727,207512,-2.7445675222,5.2893343573,-8.0255270004,811
77576,180754,207555,-2.7373890544,5.1744788725,-7.9956167179,812
77717,180743,207553,-2.787638329,5.2187460906,-8.017152121299999,813
77916,180800,207597,-2.6093730453,5.2187460906,-8.039883936,814
77983,180845,207633,-2.8462624827,5.192425042,-7.927421273799999,815
78243,180771,207606,-2.7266213527,5.192425042,-7.9465638546,816
78221,180832,207642,-2.8283163132,5.2331030262,-8.049455226400001,817
77549,180850,207634,-2.6883361911000003,5.4161539550999995,-7.9453674433,818
76466,180685,207470,-2.691925425,5.2223353244999995,-8.0123664761,819
75701,180510,207319,-2.7888347403,5.3012984703,-7.8592258297,820
75229,180460,207182,-2.6775684894,5.197210687199999,-8.0542408716,821
75018,180427,207141,-2.6751756668,5.2342994375,-8.0339018795,822
74890,180399,207144,-2.8223342567,5.2546384296,-8.0602229281,823
75016,180256,207179,-2.6309084487,5.292923591199999,-7.953742322399999,824
75351,180320,207244,-2.6452653843,5.2917271799,-8.0685978072,825
75781,180512,207261,-2.7290141752999997,5.3012984703,-7.9776705484,826
76153,180548,207315,-2.7182464736,5.194817864599999,-8.0303126456,827
76439,180762,207396,-2.7661029256000003,5.2378886713999995,-7.984849016199999,828
76669,180751,207422,-2.7541388126,5.265406131300001,-7.9740813145,829
76876,180869,207463,-2.8019952646,5.2366922601,-7.9824561936,830
77065,180857,207519,-2.6847469572,5.2893343573,-8.01595571,831
77284,180824,207508,-2.9048866364,5.1074798397,-7.9465638546,832
77473,180861,207536,-2.7457639335,5.2462635505,-7.9477602659,833
77646,180938,207573,-2.775674216,5.2450671392,-8.0183485326,834
77858,180988,207590,-2.5998017549,5.300102059,-7.9992059518000005,835
78019,180949,207597,-2.7912275628999996,5.3371908093,-8.0004023631,836
78197,180989,207602,-2.7122644171,5.2115676228000005,-7.8927253461,837
78351,180982,207611,-2.8199414341,5.073980323300001,-7.956135144999999,838
78350,180999,207637,-2.7146572396999997,5.2845487121,-8.0087772422,839
77637,180923,207580,-2.7613172804,5.223531735800001,-8.0111700648,840
76582,180739,207455,-2.5734807063,5.1900322194,-7.9609207902,841
75788,180585,207336,-2.6356940939,5.2247281471,-8.074579863699999,842
75336,180523,207231,-2.6428725617,5.1230331866,-8.1427753078,843
75094,180510,207167,-2.6165515131,5.1003013719000005,-8.0015987744,844
75047,180478,207129,-2.691925425,5.2953164138,-7.9094751043,845
75205,180500,207198,-2.7912275628999996,5.2582276635,-7.972884903200001,846
75558,180527,207203,-2.7900311516,5.1469614126,-7.9609207902,847
75959,180597,207236,-2.7840490951,5.300102059,-7.902296636499999,848
76288,180663,207282,-2.7529424013,5.3826544387,-7.9872418388,849
76536,180631,207310,-2.5854448193,5.235495848799999,-8.0422767586,850
76747,180625,207323,-2.7996024420000003,5.169693227300001,-7.9489566772,851
76958,180709,207342,-2.7445675222,5.192425042,-8.0255270004,852
77164,180765,207412,-2.7122644171,5.169693227300001,-8.0099736535,853
77363,180858,207440,-2.7445675222,5.240281494,-7.980063371,854
77579,180911,207487,-2.7194428849,5.239085082699999,-7.9992059518000005,855
77766,180925,207490,-2.667997199,5.0476592747,-7.968099258,856
77941,180987,207534,-2.6751756668,5.2414779053,-7.953742322399999,857
78120,180999,207590,-2.6739792555000004,5.300102059,-8.0111700648,858
78265,180996,207581,-2.7314069979,5.2821558895,-7.9609207902,859
78446,181153,207582,-2.7804598612,5.2965128251,-8.044669581199999,860
78302,181338,207702,-2.6931218363,5.294120002500001,-8.0135628874,861
77319,181437,207696,-2.7948167968,5.3036912929,-8.0027951857,862
76377,181182,207597,-2.835494781,5.2546384296,-7.980063371,863
75746,180992,207455,-2.6715864329,5.2438707279,-7.9968131291999995,864
75373,180975,207375,-2.6871397798,5.264209719999999,-8.0147592987,865
75168,180841,207228,-2.6799613119999997,5.3012984703,-8.0339018795,866
75162,180798,207187,-2.7349962318,5.213960445400001,-8.0470624038,867
75387,180769,207236,-2.7529424013,5.0955157266999995,-8.155935832099999,868
75777,180800,207261,-2.6811577232999997,5.3180482284999995,-8.0231341778,869
76131,180770,207266,-2.7637101029999998,5.1708896386,-8.0004023631,870
76418,180795,207294,-2.7708885708000004,5.2091748002,-7.970492080600001,871
76673,180844,207341,-2.6285156261,5.2534420183,-8.0422767586,872
76851,180886,207308,-2.8247270792999997,5.3180482284999995,-7.9477602659,873
77051,180918,207388,-2.7708885708000004,5.197210687199999,-7.927421273799999,874
77269,180985,207431,-2.8283163132,5.1888358081,-8.0111700648,875
77468,181044,207447,-2.739781877,5.1170511301,-7.9896346614,876
77663,181035,207474,-2.7541388126,5.2666025426,-8.057830105499999,877
77870,181085,207517,-2.7361926431000003,5.2570312522,-7.9752777258,878
78037,181004,207564,-2.6273192148,5.404189842099999,-8.0183485326,879
78174,181180,207553,-2.7852455064000003,5.1900322194,-7.992027484,880
78335,181222,207577,-2.6811577232999997,5.2378886713999995,-8.0303126456,881
78421,181255,207561,-2.7469603447999997,5.1014977832,-7.9621172015,882
77965,181217,207618,-2.6691936103000002,5.3132625833,-7.953742322399999,883
76967,181066,207542,-2.7852455064000003,5.240281494,-7.984849016199999,884
76063,180911,207399,-2.5974089322999996,5.1732824612,-7.9106715156,885
75476,180843,207280,-2.7780670386,5.3108697607,-8.0422767586,886
75140,180681,207124,-2.7086751831999996,5.279763066899999,-8.0135628874,887
74963,180729,207120,-2.5651058272,5.1708896386,-8.0506516377,888
75066,180858,207187,-2.7984060307000003,5.239085082699999,-8.0015987744,889
75324,180980,207281,-2.715853651,5.1876393968,-7.9669028467,890
75757,181095,207346,-2.775674216,5.216353268,-7.9369925642,891
76107,181017,207346,-2.5615165933,5.2713881878,-8.0829547428,892
76334,181115,207363,-2.7565316351999996,5.155336291699999,-8.0087772422,893
76524,181139,207392,-2.6476582069,5.1996035098,-7.8759755879,894
76704,181268,207456,-2.6512474407999997,5.197210687199999,-8.0135628874,895
76920,181266,207505,-2.7206392962,5.1996035098,-8.0662049846,896
77111,181341,207591,-2.7672993369,5.1014977832,-8.0458659925,897
77315,181506,207622,-2.7421746995999996,5.2737810104,-7.9585279676,898
77497,181717,207703,-2.7732813934,5.1433721787,-8.0015987744,899
77708,181931,207838,-2.5866412306,5.2055855663,-8.003991596999999,900
77824,181968,207848,-2.7110680058,5.235495848799999,-8.1463645417,901
78007,181846,207841,-2.7074787719,5.1780681064,-7.9633136127999995,902
78075,182024,207906,-2.6668007876999997,5.2582276635,-7.9752777258,903
78289,182234,207992,-2.715853651,5.204389154999999,-7.8927253461,904
77824,182197,208013,-2.6967110702,5.2965128251,-7.902296636499999,905
76812,181915,207883,-2.775674216,5.0931229041,-7.992027484,906
76019,181740,207733,-2.5698914723999997,5.1876393968,-7.9812597822999996,907
75486,181555,207583,-2.6249263922,5.5429735529,-8.0590265168,908
75177,181476,207528,-2.6392833278,5.2307102036,-8.0123664761,909
75060,181493,207422,-2.7206392962,5.3371908093,-7.9932238953,910
75115,181483,207457,-2.8247270792999997,5.2869415346999995,-7.9764741371,911
75373,181579,207525,-2.6428725617,5.2965128251,-8.0566336942,912
75807,181539,207505,-2.6189443356999997,5.2414779053,-8.0111700648,913
76080,181488,207521,-2.7672993369,5.2570312522,-7.9992059518000005,914
76356,181639,207582,-2.7242285301,5.2606204861,-7.9501530885,915
76585,181805,207676,-2.6452653843,5.2127640341,-7.9525459111,916
76794,181981,207758,-2.7421746995999996,5.2067819775999995,-7.927421273799999,917
77039,182078,207779,-2.7505495787000003,5.3970113743,-8.0374911134,918
77270,182131,207848,-2.8115665549999997,5.3012984703,-7.968099258,919
77512,182287,207937,-2.6356940939,5.2175496793,-8.0111700648,920
77745,182394,207998,-2.8187450228000004,5.1792645177,-7.9944203065999995,921
77920,182359,208017,-2.7421746995999996,5.235495848799999,-7.9142607494999995,922
78107,182476,208067,-2.6644079651,5.2115676228000005,-7.953742322399999,923
78337,182778,208196,-2.7888347403,5.168496815999999,-7.972884903200001,924
78596,183018,208371,-2.6189443356999997,5.3527441562,-7.9489566772,925
78754,183178,208457,-2.6883361911000003,5.3563333901,-8.0805619202,926
78356,183145,208420,-2.8295127245,5.252245607000001,-8.061419339399999,927
77301,182916,208339,-2.75174599,5.1577291143,-7.902296636499999,928
76548,182959,208282,-2.8019952646,5.2785666556,-7.9166535721,929
76050,182770,208236,-2.5651058272,5.1649075821,-7.980063371,930
75752,182671,208102,-2.6907290137,5.2785666556,-8.0291162343,931
75597,182516,208019,-2.7972096194,5.2366922601,-7.9657064354,932
75690,182567,208095,-2.7744778047,5.3814580274,-7.984849016199999,933
76002,182735,208056,-2.7613172804,5.3515477449,-7.9345997416,934
76456,182897,208186,-2.7541388126,5.2414779053,-7.8879397009000005,935
76863,182868,208168,-2.6476582069,5.228317381,-8.01595571,936
77144,182808,208177,-2.7050859493,5.3108697607,-7.972884903200001,937
77378,182854,208183,-2.6141586905,5.2749774217,-8.0374911134,938
77557,182963,208299,-2.7577280465,5.2331030262,-8.057830105499999,939
77875,183047,208346,-2.6943182475999996,5.1792645177,-8.0303126456,940
78168,183410,208491,-2.6644079651,5.1074798397,-7.9633136127999995,941
78611,184019,208746,-2.6129622792,5.371886737,-7.9226356286,942
79327,185114,209360,-2.7577280465,5.277370244299999,-7.9633136127999995,943
80090,185792,209794,-2.7553352239,5.2713881878,-7.911867926899999,944
80915,186368,210033,-2.7457639335,5.499902746099999,-8.0231341778,945
81691,186734,210247,-2.7780670386,5.2378886713999995,-7.957331556300001,946
82351,186990,210363,-2.8905297008,5.3982077855999995,-7.902296636499999,947
83036,187231,210486,-2.7122644171,5.3431728658,-7.8915289348,948
83367,187292,210522,-2.9754749031,5.371886737,-7.861618652300001,949
82754,187112,210405,-2.8259234905999997,5.2953164138,-7.9393853868,950
81853,186891,210312,-2.9036902251,5.306084115499999,-7.7539416353,951
81245,186849,210235,-2.7816562725,5.4400821811,-7.8951181687,952
80785,186593,210179,-2.7924239742,5.2594240748,-7.9417782094,953
80369,186453,210120,-2.8546373618,5.3204410510999995,-7.844868894099999,954
80135,186301,210082,-2.8307091358,5.223531735800001,-7.972884903200001,955
80162,186241,210076,-2.7852455064000003,5.2067819775999995,-7.9190463947000005,956
80309,186152,209993,-2.8283163132,5.3575298014,-7.8795648218,957
80613,186179,210025,-2.9228328059,5.2211389132,-7.9369925642,958
80958,186306,210061,-2.8594230069999997,5.4125647212,-7.9298140964,959
81320,186471,210143,-2.8821548217,5.3024948815999995,-8.1535430095,960
81655,186551,210190,-2.8498517166,5.444867826299999,-7.791030385599999,961
81976,186608,210218,-2.7708885708000004,5.216353268,-7.9094751043,962
82271,186699,210252,-2.8175486115,5.3515477449,-7.8352976037,963
82611,186795,210309,-2.8414768375,5.3012984703,-7.9489566772,964
82946,186838,210344,-2.7780670386,5.2474599618,-7.9070822817,965
83323,186922,210403,-2.835494781,5.3084769381,-7.9489566772,966
83707,187095,210451,-2.7804598612,5.335994398,-7.844868894099999,967
84070,187191,210518,-2.7230321187999995,5.2570312522,-7.9824561936,968
84394,187223,210485,-2.8103701436999997,5.294120002500001,-7.9896346614,969
84722,187308,210569,-2.787638329,5.2331030262,-8.039883936,970
84687,187338,210574,-2.8307091358,5.2833523008,-7.9369925642,971
83891,187156,210443,-2.9084758702999998,5.1385865335,-7.970492080600001,972
82789,186914,210325,-2.775674216,5.2462635505,-8.003991596999999,973
81777,186511,210188,-2.9120651042,5.216353268,-7.8807612331,974
81150,186522,210115,-2.9168507494,5.294120002500001,-7.9058858704,975
80808,186576,210133,-2.9156543381000004,5.3515477449,-7.9812597822999996,976
80613,186489,210118,-2.8043880872,5.228317381,-7.9417782094,977
80650,186423,210097,-2.7696921595,5.3324051641,-8.0362947021,978
80944,186459,210090,-2.8474588940000003,5.1541398804,-7.9513494998,979
81369,186576,210127,-2.7684957482,5.2187460906,-8.0219377665,980
81634,186553,210141,-2.7481567560999998,5.140979356100001,-8.0530444603,981
81803,186498,210153,-2.835494781,5.1996035098,-7.8352976037,982
82082,186624,210224,-2.8163522002,5.3946185517,-8.0590265168,983
82365,186728,210249,-2.8067809098,5.2307102036,-7.920242806,984
82650,186704,210249,-2.7972096194,5.280959478200001,-7.9345997416,985
82903,186710,210271,-2.8331019584000003,5.181657340299999,-7.9968131291999995,986
83170,186783,210275,-2.9623143788,5.228317381,-7.992027484,987
83374,186793,210262,-2.8582265956999997,5.2079783889,-7.9369925642,988
83627,186817,210294,-2.8163522002,5.276173833,-7.9633136127999995,989
83814,186854,210330,-2.8139593776000003,5.392225729100001,-7.992027484,990
83975,186782,210286,-2.823530668,5.239085082699999,-8.0183485326,991
83925,186652,210264,-2.8283163132,5.277370244299999,-7.9393853868,992
83101,186461,210184,-2.7026931267000003,5.192425042,-8.026723411699999,993
81685,186103,210005,-2.7361926431000003,5.2893343573,-8.0829547428,994
80438,185868,209799,-2.8331019584000003,5.228317381,-7.9788669596999995,995
79715,185785,209772,-2.7565316351999996,5.279763066899999,-7.9585279676,996
79092,185611,209688,-2.7003003040999998,5.1421757674,-8.0590265168,997
78712,185445,209632,-2.7014967154,5.2007999211,-7.9968131291999995,998
78638,185482,209593,-2.7337998205,5.192425042,-8.0339018795,999
78773,185433,209605,-2.7625136916999997,5.223531735800001,-8.0386875247,1000
79097,185511,209623,-2.6129622792,5.1792645177,-7.9944203065999995,1001
79344,185499,209628,-2.7852455064000003,5.2187460906,-7.970492080600001,1002
79559,185501,209689,-2.7529424013,5.288137946,-7.925028451199999,1003
79801,185580,209691,-2.8366911923,5.204389154999999,-7.953742322399999,1004
79976,185565,209738,-2.8618158296000002,5.0560341538,-8.0805619202,1005
80162,185541,209725,-2.8307091358,5.2713881878,-7.8520473619,1006
80338,185504,209703,-2.9611179675,5.2091748002,-7.9872418388,1007
80525,185519,209671,-2.835494781,5.1852465742,-7.8711899427,1008
80694,185521,209696,-2.8761727652,5.2079783889,-7.956135144999999,1009
80917,185556,209719,-2.8606194183,5.264209719999999,-7.8951181687,1010
81080,185600,209742,-2.8079773211,5.1589255256,-7.8927253461,1011
81200,185587,209711,-2.8534409504999996,5.1852465742,-7.9106715156,1012
81227,185548,209660,-2.8115665549999997,5.14456859,-7.980063371,1013
80390,185333,209573,-2.7948167968,5.194817864599999,-8.0087772422,1014
79055,185042,209407,-2.7613172804,5.3132625833,-7.9585279676,1015
77925,184812,209244,-2.8821548217,5.3084769381,-8.0135628874,1016
77138,184598,209145,-2.8079773211,5.2953164138,-7.970492080600001,1017
76589,184356,209012,-2.8043880872,5.248656373099999,-8.087740388,1018
76251,184094,208834,-2.7852455064000003,5.294120002500001,-7.8664042975,1019
76114,183897,208747,-2.8522445392,5.1649075821,-7.8424760715,1020
76299,183842,208689,-2.7326034091999998,5.2247281471,-7.8783684105,1021
76676,183806,208718,-2.75174599,5.2570312522,-7.9226356286,1022
77001,183758,208709,-2.6368905052,5.264209719999999,-7.9345997416,1023
77151,183818,208713,-2.7984060307000003,5.1254260092,-8.0111700648,1024
77444,183858,208718,-2.6967110702,5.3491549223,-8.0650085733,1025
77541,183753,208696,-2.8677978860999995,5.1601219369,-7.908278693,1026
77703,183475,208583,-2.6907290137,5.392225729100001,-8.003991596999999,1027
77768,183247,208378,-2.775674216,5.3252266963,-7.9824561936,1028
77956,183333,208385,-2.7050859493,5.3252266963,-7.8687971201,1029
78220,183502,208464,-2.8031916759,5.2259245584,-8.026723411699999,1030
78414,183689,208559,-2.703889538,5.204389154999999,-7.9609207902,1031
78558,183467,208491,-2.8211378454,5.4017970195,-7.942974620699999,1032
78651,183397,208415,-2.7984060307000003,5.3228338737000005,-7.9812597822999996,1033
78703,183218,208288,-2.7146572396999997,5.3276195189,-7.9513494998,1034
78525,183080,208215,-2.8582265956999997,5.3970113743,-8.051848049,1035
77529,182834,208039,-2.6883361911000003,5.265406131300001,-7.925028451199999,1036
76242,182606,207827,-2.8498517166,5.3108697607,-7.9992059518000005,1037
75384,182446,207686,-2.7326034091999998,5.2845487121,-8.057830105499999,1038
74906,182345,207632,-2.6847469572,5.1720860499,-8.01595571,1039
74697,182480,207769,-2.7613172804,5.228317381,-7.9489566772,1040
74696,182441,207761,-2.7816562725,5.2259245584,-7.944171031999999,1041
74926,182628,207868,-2.7828526838,5.312066172,-8.075776275,1042
75381,182822,207927,-2.7242285301,5.1625147595,-7.940581798099999,1043
75837,182900,208031,-2.7433711108999996,5.2271209697000005,-7.9190463947000005,1044
76208,182912,208121,-2.6237299809,5.2833523008,-8.005188008300001,1045
76505,183103,208171,-2.7780670386,5.2977092364,-7.956135144999999,1046
76771,183204,208212,-2.9084758702999998,5.210371211499999,-7.992027484,1047
77022,183233,208220,-2.7888347403,5.2211389132,-7.9752777258,1048
77212,183210,208196,-2.8426732488,5.2845487121,-7.911867926899999,1049
77409,183244,208189,-2.8187450228000004,5.3180482284999995,-7.9130643382,1050
77610,183217,208226,-2.75174599,5.3324051641,-7.9334033303,1051
77721,183226,208202,-2.8881368781999996,5.2713881878,-7.8807612331,1052
77950,183063,208178,-2.8630122409,5.248656373099999,-7.968099258,1053
78093,183128,208110,-2.7984060307000003,5.2821558895,-7.956135144999999,1054
78202,182989,208083,-2.8450660714,5.3324051641,-7.9657064354,1055
78309,182885,208014,-2.7672993369,5.2618168974,-8.0422767586,1056
78160,182793,207946,-2.7493531674,5.300102059,-8.0063844196,1057
77182,182689,207926,-2.8977081686,5.3431728658,-8.0327054682,1058
75972,182448,207729,-2.6847469572,5.1864429855,-7.8807612331,1059
75190,182215,207603,-2.715853651,5.3324051641,-7.9453674433,1060
74741,182114,207552,-2.835494781,5.1481578239,-7.9609207902,1061
74525,181941,207507,-2.7314069979,5.265406131300001,-7.9968131291999995,1062
74522,181962,207488,-2.7122644171,5.152943469099999,-7.9896346614,1063
74690,182009,207539,-2.7290141752999997,5.194817864599999,-7.9824561936,1064
75083,182044,207561,-2.8043880872,5.2378886713999995,-7.8987074025999995,1065
75558,182125,207605,-2.7565316351999996,5.335994398,-7.9334033303,1066
75907,182114,207590,-2.7278177639999996,5.3072805268000005,-7.9621172015,1067
76148,182251,207577,-2.8737799425999997,5.3419764545,-7.980063371,1068
76359,182160,207604,-2.9431717980000003,5.2067819775999995,-7.953742322399999,1069
76568,182165,207621,-2.6165515131,5.2331030262,-7.9381889755,1070
76777,182176,207709,-2.7637101029999998,5.2259245584,-7.9908310727,1071
76994,182213,207664,-2.6620151425,5.2319066149,-8.0015987744,1072
77206,182207,207681,-2.7385854657,5.2498527844,-7.8879397009000005,1073
77431,182213,207643,-2.8546373618,5.347958511000001,-7.9992059518000005,1074
77599,182228,207660,-2.8103701436999997,5.280959478200001,-7.9585279676,1075
77685,182209,207664,-2.6895326024,5.2725845991,-7.944171031999999,1076
77910,182224,207688,-2.7601208691,5.2378886713999995,-8.0374911134,1077
78080,182196,207655,-2.8953153460000003,5.2414779053,-8.0111700648,1078
77934,182290,207657,-2.8510481279,5.1720860499,-7.8652078862,1079
76961,182175,207640,-2.7960132080999998,5.2594240748,-7.9549387337,1080
75873,181987,207496,-2.7684957482,5.2857451234,-8.01595571,1081
75225,181896,207445,-2.7577280465,5.3395836319,-7.942974620699999,1082
74894,181754,207442,-2.7457639335,5.2689953652,-7.9776705484,1083
74700,181670,207416,-2.8486553053,5.2989056477,-8.0135628874,1084
74630,181625,207399,-2.6931218363,5.3012984703,-7.953742322399999,1085
74935,181608,207377,-2.9491538545,5.324030285,-7.986045427500001,1086
75347,181605,207375,-2.6572294973,5.315655405899999,-7.9884382501,1087
75760,181641,207363,-2.8091737324,5.265406131300001,-7.9896346614,1088
76052,181638,207339,-2.8438696600999998,5.3180482284999995,-8.01595571,1089
76274,181660,207387,-2.5579273594000003,5.2331030262,-7.9824561936,1090
76467,181646,207374,-2.6811577232999997,5.2187460906,-8.0183485326,1091
76693,181708,207406,-2.8689942974,5.3012984703,-8.0063844196,1092
76908,181766,207408,-2.8307091358,5.169693227300001,-8.0255270004,1093
76998,181772,207449,-2.7625136916999997,5.2977092364,-8.0123664761,1094
77279,181775,207446,-2.8342983697,5.2019963324,-7.9944203065999995,1095
77448,181811,207441,-2.7421746995999996,5.292923591199999,-7.9094751043,1096
77619,181824,207430,-2.7924239742,5.3324051641,-8.129614783500001,1097
77757,181863,207471,-2.7182464736,5.3144589946,-8.027919823,1098
77905,181862,207476,-2.7481567560999998,5.3168518172,-8.0183485326,1099
77833,181903,207523,-2.7661029256000003,5.102694194500001,-7.9238320399,1100
77027,181836,207490,-2.715853651,5.139782944799999,-8.0733834524,1101
76030,181980,207552,-2.8642086522,5.2259245584,-7.8915289348,1102
75530,182722,207904,-2.8091737324,5.2307102036,-7.9908310727,1103
75300,183152,208143,-2.6333012713,5.166103993399999,-8.0303126456,1104
75252,183159,208236,-2.7828526838,5.404189842099999,-7.896314579999999,1105
75259,183081,208217,-2.5878376418999998,5.334797986699999,-7.9393853868,1106
75384,182828,208138,-2.7565316351999996,5.197210687199999,-8.0183485326,1107
75619,182530,207980,-2.8007988533,5.309673349400001,-7.9824561936,1108
75967,182163,207791,-2.7385854657,5.1589255256,-7.956135144999999,1109
76244,181965,207643,-2.703889538,5.2187460906,-7.8879397009000005,1110
76467,181819,207548,-2.7230321187999995,5.1840501629,-7.8951181687,1111
76583,181795,207520,-2.8594230069999997,5.2977092364,-8.0506516377,1112
76844,181786,207451,-2.8857440556,5.3431728658,-7.972884903200001,1113
77057,181816,207470,-2.7900311516,5.155336291699999,-8.0207413552,1114
77252,181873,207400,-2.7302105866,5.2785666556,-8.0111700648,1115
77456,181911,207402,-2.8474588940000003,5.252245607000001,-7.9812597822999996,1116
77642,181938,207423,-2.6715864329,5.1900322194,-8.0410803473,1117
77840,181939,207448,-2.7972096194,5.3395836319,-7.9621172015,1118
78006,181978,207469,-2.8749763539,5.2546384296,-7.9836526049,1119
78171,182020,207468,-2.7302105866,5.3515477449,-7.944171031999999,1120
78316,181985,207470,-2.7577280465,5.3180482284999995,-7.992027484,1121
78283,181998,207505,-2.7577280465,5.3168518172,-7.932206919,1122
77447,181900,207507,-2.6931218363,5.276173833,-8.0721870411,1123
76420,181768,207406,-2.7553352239,5.1230331866,-7.9992059518000005,1124
75717,181600,207384,-2.8247270792999997,5.3778687935,-7.956135144999999,1125
75289,181472,207328,-2.7864419177,5.137390122199999,-7.9752777258,1126
75123,181456,207298,-2.7361926431000003,5.363511857900001,-7.8999038139,1127
75097,181349,207283,-2.7996024420000003,5.3383872206000005,-8.0243305891,1128
75281,181382,207225,-2.7960132080999998,5.2666025426,-7.9633136127999995,1129
75662,181359,207231,-2.8271199019,5.2378886713999995,-7.8927253461,1130
76114,181564,207294,-2.8462624827,5.3682975031,-8.0327054682,1131
76444,181554,207310,-2.7278177639999996,5.2965128251,-7.9489566772,1132
76701,181613,207326,-2.7529424013,5.331208752799999,-8.0231341778,1133
76905,181667,207329,-2.6991038927999997,5.2713881878,-7.844868894099999,1134
77115,181684,207395,-2.7852455064000003,5.2618168974,-7.9513494998,1135
77369,181753,207405,-2.7684957482,5.2450671392,-7.972884903200001,1136
77470,181728,207384,-2.7302105866,5.306084115499999,-8.0542408716,1137
77804,181787,207441,-2.7194428849,5.2366922601,-7.9776705484,1138
77977,181769,207424,-2.6967110702,5.2319066149,-7.992027484,1139
78149,181815,207471,-2.7361926431000003,5.2630133087,-8.0063844196,1140
78322,181847,207470,-2.7242285301,5.2917271799,-7.9525459111,1141
78504,181902,207512,-2.8115665549999997,5.219942501899999,-7.9058858704,1142
78677,181903,207520,-2.8654050635,5.2785666556,-7.9968131291999995,1143
78717,181928,207580,-2.6261228035000004,5.1385865335,-8.0255270004,1144
78128,181872,207575,-2.7589244578,5.223531735800001,-7.9046894591,1145
77096,181700,207465,-2.7493531674,5.0955157266999995,-7.9585279676,1146
76309,181619,207387,-2.715853651,5.1756752837999995,-8.1080793801,1147
75831,181545,207326,-2.8319055471,5.4065826647,-8.0303126456,1148
75602,181469,207346,-2.7672993369,5.292923591199999,-7.8831540556999995,1149
75530,181480,207280,-2.7481567560999998,5.3742795596,-7.9968131291999995,1150
75640,181488,207238,-2.7972096194,5.4233324229,-7.984849016199999,1151
75972,181517,207211,-2.6464617955999996,5.1876393968,-7.8496545393,1152
76394,181582,207260,-2.8211378454,5.3431728658,-7.9238320399,1153
76689,181585,207315,-2.7672993369,5.2366922601,-8.003991596999999,1154
76981,181630,207371,-2.6991038927999997,5.252245607000001,-7.9393853868,1155
77221,181700,207394,-2.787638329,5.197210687199999,-7.9513494998,1156
77443,181718,207393,-2.7302105866,5.3024948815999995,-7.9621172015,1157
77677,181745,207405,-2.8043880872,5.3144589946,-7.9034930478000005,1158
77873,181754,207417,-2.7672993369,5.3371908093,-7.9046894591,1159
78056,181774,207450,-2.7469603447999997,5.375475970899999,-7.942974620699999,1160
78269,181841,207451,-2.8223342567,5.2725845991,-7.9657064354,1161
78477,181863,207531,-2.6380869165,5.2450671392,-7.873582765299999,1162
78591,181908,207507,-2.7804598612,5.3431728658,-8.0327054682,1163
78807,181932,207545,-2.7349962318,5.1780681064,-7.8999038139,1164
79031,181892,207597,-2.7493531674,5.1637111708,-8.051848049,1165
79174,181977,207594,-2.6835505459,5.3024948815999995,-7.8975109913,1166
78969,181922,207624,-2.6715864329,5.2857451234,-8.0183485326,1167
78042,181825,207551,-2.75174599,5.2474599618,-7.953742322399999,1168
77034,181703,207505,-2.7445675222,5.194817864599999,-7.9381889755,1169
76486,181587,207382,-2.6907290137,5.2151568567,-7.970492080600001,1170
76117,181497,207388,-2.7804598612,5.210371211499999,-7.8783684105,1171
75941,181491,207299,-2.7720849821,5.1756752837999995,-8.0063844196,1172
75944,181447,207261,-2.5902304645,5.1720860499,-7.8879397009000005,1173
76154,181449,207235,-2.7804598612,5.2689953652,-8.1032937349,1174
76518,181483,207282,-2.8019952646,5.2953164138,-7.886743289599999,1175
76940,181471,207351,-2.7589244578,5.346762099699999,-7.9214392173,1176
77228,181617,207351,-2.703889538,5.2259245584,-8.0087772422,1177
77452,181655,207371,-2.8917261120999997,5.2749774217,-7.9226356286,1178
77653,181672,207379,-2.7349962318,5.2666025426,-7.9214392173,1179
77879,181671,207343,-2.6105694566,5.0560341538,-7.8209406681,1180
78063,181587,207347,-2.8019952646,5.886343596000001,-7.8939217574,1181
78274,181523,207297,-2.3820548983,5.4376893585,-7.8676007087999995,1182
78494,181615,207385,-2.7122644171,5.538187907699999,-7.824529902,1183
78680,181678,207468,-2.5447668351,5.487938633100001,-7.9489566772,1184
78772,181778,207494,-2.787638329,5.0045884679,-8.0386875247,1185
78837,181833,207569,-2.6859433685,5.540580730299999,-7.8771719992,1186
78289,181703,207543,-2.7134608283999997,5.1756752837999995,-8.0362947021,1187
77654,181653,207486,-2.7074787719,5.2115676228000005,-7.920242806,1188
77296,181558,207413,-2.6644079651,5.3431728658,-7.7946196195,1189
77263,181517,207456,-2.8019952646,5.2701917765,-7.9070822817,1190
77520,181574,207497,-2.7493531674,5.2677989539,-7.9465638546,1191
77799,181596,207513,-2.8905297008,5.3527441562,-8.0482588151,1192
78074,181629,207549,-2.7637101029999998,5.223531735800001,-7.940581798099999,1193
78243,181638,207560,-2.6691936103000002,5.0691946781,-8.0111700648,1194
78406,181713,207529,-2.7230321187999995,5.277370244299999,-7.9752777258,1195
78527,181699,207558,-2.8247270792999997,5.2917271799,-8.0063844196,1196
78668,181660,207503,-2.7840490951,5.2713881878,-7.932206919,1197
78821,181633,207503,-2.7493531674,5.2677989539,-7.980063371,1198
78987,181749,207484,-2.7577280465,5.3539405675,-7.968099258,1199
79130,181793,207493,-2.7218357075,5.2498527844,-7.9633136127999995,1200
79278,181813,207447,-2.9395825641,5.2821558895,-7.944171031999999,1201
79467,181890,207465,-2.8223342567,5.1912286306999995,-8.0135628874,1202
79558,181837,207488,-2.739781877,5.1744788725,-7.8771719992,1203
79661,181767,207472,-2.7960132080999998,5.3144589946,-7.9034930478000005,1204
79757,181791,207500,-2.8259234905999997,5.2259245584,-7.9417782094,1205
79927,181894,207492,-2.8271199019,5.3300123415,-7.911867926899999,1206
79882,181877,207490,-2.6261228035000004,5.3192446398,-7.9489566772,1207
80125,181925,207526,-2.7326034091999998,5.3503513336,-7.9896346614,1208
80220,181911,207514,-2.7565316351999996,5.2785666556,-7.9345997416,1209
80304,181954,207545,-2.7804598612,5.3072805268000005,-8.0087772422,1210
80164,181946,207544,-2.7254249414,5.4065826647,-7.9417782094,1211
79319,181890,207529,-2.7732813934,5.3180482284999995,-7.9465638546,1212
78216,181732,207415,-2.7613172804,5.2785666556,-7.9166535721,1213
77402,181554,207348,-2.6895326024,5.3228338737000005,-7.9178499834,1214
76900,181504,207295,-2.8103701436999997,5.294120002500001,-7.9262248625,1215
76624,181411,207280,-2.6165515131,5.252245607000001,-7.9968131291999995,1216
76611,181478,207270,-2.8271199019,5.2749774217,-7.956135144999999,1217
76702,181515,207278,-2.883351233,5.321637462399999,-7.9788669596999995,1218
77077,181535,207328,-2.8737799425999997,5.2989056477,-8.0195449439,1219
77370,181600,207346,-2.7206392962,5.362315446599999,-7.9992059518000005,1220
77632,181642,207383,-2.8630122409,5.2378886713999995,-7.9453674433,1221
77862,181675,207421,-2.7326034091999998,5.2713881878,-7.928617685100001,1222
78053,181716,207396,-2.7541388126,5.3730831483,-7.984849016199999,1223
78250,181766,207453,-2.8259234905999997,5.2474599618,-7.9872418388,1224
78422,181813,207477,-2.7888347403,5.1541398804,-7.9609207902,1225
78624,181842,207477,-2.7888347403,5.2977092364,-8.0207413552,1226
78755,181798,207459,-2.787638329,5.2079783889,-7.890332523500001,1227
78988,181742,207469,-2.7409782883,5.2857451234,-8.0386875247,1228
79164,181792,207511,-2.7852455064000003,5.335994398,-8.0231341778,1229
79312,181875,207525,-2.6668007876999997,5.3371908093,-7.9585279676,1230
79478,181945,207571,-2.6285156261,5.2019963324,-7.886743289599999,1231
79605,181986,207572,-2.6668007876999997,5.194817864599999,-8.003991596999999,1232
79704,181984,207589,-2.7122644171,5.2498527844,-8.087740388,1233
79337,181928,207626,-2.7852455064000003,5.276173833,-7.9968131291999995,1234
78322,181778,207517,-2.6488546182,5.3324051641,-7.9226356286,1235
77405,181633,207439,-2.8067809098,5.2031927437,-7.8783684105,1236
76794,181507,207358,-2.6644079651,5.2989056477,-8.003991596999999,1237
76410,181488,207337,-2.6632115538,5.2785666556,-7.804190909899999,1238
76293,181436,207272,-2.7792634499,5.2378886713999995,-7.9034930478000005,1239
76138,181488,207171,-2.8749763539,5.3503513336,-7.9190463947000005,1240
76491,181554,207219,-2.8342983697,5.155336291699999,-7.920242806,1241
76882,181612,207292,-2.7828526838,5.3048877041999996,-7.980063371,1242
77174,181617,207359,-2.7828526838,5.2271209697000005,-7.908278693,1243
77442,181669,207418,-2.6512474407999997,5.3228338737000005,-8.01595571,1244
77667,181712,207459,-2.8462624827,5.2666025426,-8.062615750700001,1245
77861,181767,207484,-2.7565316351999996,5.1708896386,-8.0506516377,1246
78051,181693,207491,-2.739781877,5.3563333901,-7.902296636499999,1247
78235,181818,207523,-2.7720849821,5.2067819775999995,-7.9896346614,1248
78423,181801,207538,-2.6596223199,5.2701917765,-7.9812597822999996,1249
78620,181895,207539,-2.6991038927999997,5.2689953652,-7.984849016199999,1250
78836,181917,207614,-2.6596223199,5.2965128251,-8.0530444603,1251
78952,181866,207576,-2.6333012713,5.2450671392,-7.927421273799999,1252
79098,181879,207630,-2.6835505459,5.3132625833,-7.8999038139,1253
79236,181895,207598,-2.7708885708000004,5.2905307686,-7.953742322399999,1254
79388,181921,207681,-2.7242285301,5.2438707279,-7.9908310727,1255
79292,181920,207653,-2.7098715945,5.288137946,-7.9812597822999996,1256
78482,181855,207631,-2.6428725617,5.2546384296,-8.0374911134,1257
77441,181688,207538,-2.7254249414,5.1792645177,-7.8472617167,1258
76664,181567,207469,-2.7589244578,5.3802616161,-8.0327054682,1259
76178,181456,207392,-2.8019952646,5.3288159302,-7.9896346614,1260
75935,181393,207322,-2.6835505459,5.3168518172,-7.9190463947000005,1261
75877,181368,207278,-2.7302105866,5.331208752799999,-7.9992059518000005,1262
76017,181405,207255,-2.7218357075,5.2977092364,-7.9872418388,1263
76348,181424,207340,-2.7062823606,5.279763066899999,-7.920242806,1264
76735,181456,207388,-2.8474588940000003,5.2618168974,-7.9776705484,1265
77109,181571,207437,-2.6931218363,5.344369277099999,-8.062615750700001,1266
77274,181584,207483,-2.7302105866,5.2534420183,-7.9465638546,1267
77487,181594,207501,-2.7637101029999998,5.3874400839,-7.970492080600001,1268
77627,181632,207486,-2.7314069979,5.2905307686,-7.9896346614,1269
77887,181672,207530,-2.7924239742,5.335994398,-7.9417782094,1270
78072,181635,207535,-2.6428725617,5.2378886713999995,-7.992027484,1271
78255,181730,207561,-2.6763720781,5.2319066149,-7.890332523500001,1272
78448,181693,207601,-2.6452653843,5.294120002500001,-7.9465638546,1273
78627,181743,207609,-2.8498517166,5.3491549223,-8.0781690976,1274
78785,181780,207615,-2.8247270792999997,5.3419764545,-7.9824561936,1275
78930,181783,207635,-2.8606194183,5.3575298014,-7.9369925642,1276
79114,181811,207713,-2.7684957482,5.288137946,-7.8305119585,1277
79185,181841,207729,-2.8821548217,5.404189842099999,-7.9298140964,1278
78633,181778,207700,-2.7254249414,5.346762099699999,-7.9489566772,1279
77548,181650,207604,-2.6500510295,5.213960445400001,-8.0099736535,1280
76643,181462,207495,-2.7804598612,5.2498527844,-7.9740813145,1281
76118,181289,207413,-2.7493531674,5.1864429855,-7.9489566772,1282
75870,181348,207350,-2.7469603447999997,5.2450671392,-7.9142607494999995,1283
75710,181301,207281,-2.7445675222,5.1673004047,-7.9310105077,1284
75786,181302,207269,-2.7278177639999996,5.248656373099999,-8.0422767586,1285
76089,181346,207329,-2.8319055471,5.1720860499,-7.9465638546,1286
76471,181363,207375,-2.7218357075,5.2307102036,-7.986045427500001,1287
76764,181429,207413,-2.7373890544,5.2223353244999995,-7.9381889755,1288
76926,181435,207485,-2.8067809098,5.3802616161,-7.9393853868,1289
77249,181513,207466,-2.6141586905,5.3671010918,-7.8891361122,1290
77442,181491,207483,-2.7565316351999996,5.2342994375,-7.9058858704,1291
77624,181505,207485,-2.7888347403,5.3048877041999996,-8.0327054682,1292
77836,181517,207546,-2.7852455064000003,5.315655405899999,-8.0063844196,1293
78008,181552,207559,-2.9180471607,5.1936214533,-8.0015987744,1294
78193,181593,207593,-2.6524438520999998,5.334797986699999,-7.956135144999999,1295
78367,181610,207630,-2.7170500623000002,5.3012984703,-7.9872418388,1296
78499,181540,207620,-2.7840490951,5.2247281471,-7.9992059518000005,1297
78633,181663,207623,-2.6727828442,5.2307102036,-7.9872418388,1298
78758,181683,207688,-2.7218357075,5.2570312522,-7.9489566772,1299
78761,181690,207682,-2.6967110702,5.363511857900001,-7.9716884919,1300
78233,181665,207674,-2.9012974024999996,5.1613183482,-7.9130643382,1301
77117,181478,207581,-2.7637101029999998,5.168496815999999,-7.9633136127999995,1302
76282,181314,207492,-2.7900311516,5.3012984703,-7.9034930478000005,1303
75788,181249,207396,-2.6739792555000004,5.1708896386,-7.9070822817,1304
75525,181274,207310,-2.6476582069,5.2785666556,-8.0662049846,1305
75440,181214,207278,-2.8558337731,5.315655405899999,-7.9130643382,1306
75529,181187,207287,-2.7122644171,5.1840501629,-7.9908310727,1307
75851,181196,207337,-2.7278177639999996,5.2845487121,-8.0075808309,1308
76242,181227,207409,-2.7996024420000003,5.264209719999999,-7.9070822817,1309
76598,181306,207459,-2.6213371583000002,5.4664032297,-8.0554372829,1310
76848,181367,207488,-2.7194428849,5.3252266963,-7.8783684105,1311
77083,181418,207486,-2.6775684894,5.4233324229,-7.9896346614,1312
77291,181509,207553,-2.7493531674,5.2618168974,-7.920242806,1313
77506,181483,207594,-2.7637101029999998,5.2833523008,-7.9489566772,1314
77636,181502,207599,-2.6763720781,5.3048877041999996,-7.9740813145,1315
77883,181552,207617,-2.7948167968,5.204389154999999,-7.8664042975,1316
78087,181553,207663,-2.7972096194,5.3371908093,-7.8987074025999995,1317
78294,181574,207688,-2.7529424013,5.3826544387,-7.9369925642,1318
78451,181634,207694,-2.8307091358,5.335994398,-7.9070822817,1319
78596,181671,207709,-2.7924239742,5.2091748002,-7.9070822817,1320
78742,181673,207744,-2.6608187311999996,5.1996035098,-7.956135144999999,1321
78851,181720,207799,-2.5710878837,5.3144589946,-7.8855468783,1322
78628,181696,207771,-2.7349962318,5.334797986699999,-8.01595571,1323
77705,181651,207706,-2.7912275628999996,5.3336015753999995,-7.9824561936,1324
76733,181479,207565,-2.8223342567,5.156532702999999,-7.8879397009000005,1325
75994,181306,207484,-2.7828526838,5.2546384296,-7.956135144999999,1326
75698,181224,207338,-2.7589244578,5.1744788725,-8.0207413552,1327
75537,181183,207278,-2.9012974024999996,5.4161539550999995,-7.9669028467,1328
75544,181172,207292,-2.6907290137,5.2546384296,-7.9106715156,1329
75740,181192,207370,-2.7373890544,5.3730831483,-7.911867926899999,1330
76131,181223,207422,-2.6524438520999998,5.192425042,-7.9752777258,1331
76502,181270,207458,-2.7314069979,5.3024948815999995,-7.942974620699999,1332
76838,181385,207483,-2.6261228035000004,5.276173833,-7.9381889755,1333
77067,181399,207502,-2.7445675222,5.265406131300001,-7.940581798099999,1334
77287,181409,207526,-2.8067809098,5.2019963324,-8.0327054682,1335
77491,181445,207590,-2.6907290137,5.1888358081,-8.0063844196,1336
77685,181481,207635,-2.7302105866,5.2091748002,-7.9011002251999995,1337
77893,181523,207622,-2.6189443356999997,5.2618168974,-7.873582765299999,1338
78103,181563,207654,-2.7996024420000003,5.2426743166000005,-7.9190463947000005,1339
78304,181609,207697,-2.8510481279,5.2307102036,-7.984849016199999,1340
78487,181594,207741,-2.7804598612,5.2857451234,-7.9896346614,1341
78654,181632,207799,-2.9324040963,5.300102059,-7.9585279676,1342
78790,181638,207768,-2.7613172804,5.3706903257,-7.944171031999999,1343
78952,181667,207772,-2.7026931267000003,5.2546384296,-7.984849016199999,1344
79016,181716,207813,-2.8199414341,5.3288159302,-7.9489566772,1345
78435,181685,207759,-2.8402804262,5.2091748002,-7.9166535721,1346
77361,181476,207677,-2.7780670386,5.2953164138,-7.9310105077,1347
76541,181294,207554,-2.7589244578,5.3084769381,-7.972884903200001,1348
76047,181235,207404,-2.7230321187999995,5.213960445400001,-7.9872418388,1349
75808,181179,207342,-2.7720849821,5.292923591199999,-8.0231341778,1350
75708,181128,207264,-2.6488546182,5.4089754873,-7.9190463947000005,1351
75814,181191,207390,-2.6165515131,5.2450671392,-7.9992059518000005,1352
76085,181107,207426,-2.8450660714,5.3264231076,-7.9657064354,1353
76406,181257,207460,-2.7828526838,5.2019963324,-7.968099258,1354
76899,181346,207531,-2.8223342567,5.3587262127,-7.8759755879,1355
77171,181425,207565,-2.6727828442,5.2869415346999995,-7.8652078862,1356
77382,181429,207589,-2.7026931267000003,5.265406131300001,-7.848458128,1357
77610,181458,207579,-2.7972096194,5.1613183482,-7.9752777258,1358
77776,181480,207608,-2.5854448193,5.2989056477,-7.9298140964,1359
77884,181533,207635,-2.6189443356999997,5.3395836319,-7.8496545393,1360
77575,181342,207598,-2.7864419177,5.3144589946,-7.9489566772,1361
77105,181380,207572,-2.7266213527,5.3539405675,-7.8831540556999995,1362
76935,181316,207589,-2.8474588940000003,5.2701917765,-7.925028451199999,1363
77100,181325,207609,-2.8043880872,5.3252266963,-7.9740813145,1364
77418,181392,207671,-2.8019952646,5.292923591199999,-7.992027484,1365
77762,181424,207703,-2.7900311516,5.321637462399999,-7.9764741371,1366
77991,181469,207740,-2.8055844984999996,5.2295137923,-7.902296636499999,1367
78148,181519,207732,-2.6464617955999996,5.2965128251,-8.0135628874,1368
78288,181528,207762,-2.6979074815,5.3395836319,-7.9944203065999995,1369
78433,181572,207759,-2.7900311516,5.3407800432,-7.927421273799999,1370
78593,181587,207745,-2.7924239742,5.210371211499999,-7.9752777258,1371
78774,181615,207736,-2.7469603447999997,5.362315446599999,-7.9872418388,1372
78981,181654,207726,-2.6991038927999997,5.1744788725,-7.9034930478000005,1373
79146,181670,207716,-2.6931218363,5.4137611324999995,-7.9776705484,1374
79318,181681,207706,-2.7194428849,5.2965128251,-7.9657064354,1375
79423,181700,207655,-2.7780670386,5.2785666556,-7.9776705484,1376
79582,181772,207662,-2.6787649007,5.1936214533,-7.920242806,1377
79715,181717,207656,-2.6739792555000004,5.3515477449,-7.9477602659,1378
79858,181728,207657,-2.7577280465,5.288137946,-8.0015987744,1379
79991,181753,207707,-2.6632115538,5.223531735800001,-8.0925260332,1380
80123,181775,207729,-2.5950161097,5.2331030262,-8.0015987744,1381
80256,181782,207706,-2.7170500623000002,5.1996035098,-7.953742322399999,1382
80369,181771,207721,-2.8307091358,5.2749774217,-8.0470624038,1383
80475,181811,207741,-2.7481567560999998,5.2331030262,-8.0183485326,1384
80574,181777,207724,-2.7804598612,5.3371908093,-7.8819576444,1385
80681,181833,207770,-2.6703900216,5.4065826647,-7.9417782094,1386
80767,181826,207774,-2.6153551018,5.152943469099999,-7.9501530885,1387
80833,181783,207772,-2.7541388126,5.2474599618,-7.9932238953,1388
80935,181829,207805,-2.8019952646,5.3850472612999996,-8.0350982908,1389
80956,181873,207825,-2.775674216,5.335994398,-7.9393853868,1390
80469,181827,207797,-2.6404797391000003,5.4065826647,-8.0255270004,1391
79365,181679,207744,-2.7445675222,5.2953164138,-7.928617685100001,1392
78299,181568,207566,-2.6715864329,5.279763066899999,-7.932206919,1393
77592,181399,207460,-2.7206392962,5.2498527844,-7.9669028467,1394
77219,181352,207412,-2.6883361911000003,5.2785666556,-8.0291162343,1395
77098,181368,207420,-2.7373890544,5.2701917765,-7.9944203065999995,1396
77187,181356,207477,-2.6117658679000004,5.228317381,-7.9740813145,1397
77490,181421,207530,-2.656033086,5.1876393968,-7.9609207902,1398
77787,181424,207580,-2.8821548217,5.2127640341,-7.9752777258,1399
78013,181394,207591,-2.7493531674,5.3383872206000005,-7.980063371,1400
78220,181491,207542,-2.7661029256000003,5.2450671392,-7.9896346614,1401
78400,181533,207545,-2.6524438520999998,5.2677989539,-7.970492080600001,1402
78569,181542,207552,-2.6775684894,5.2223353244999995,-8.0135628874,1403
78754,181590,207593,-2.7924239742,5.324030285,-7.9633136127999995,1404
78934,181603,207566,-2.6739792555000004,5.347958511000001,-7.9369925642,1405
79082,181602,207582,-2.703889538,5.288137946,-7.9381889755,1406
79270,181620,207619,-2.7110680058,5.197210687199999,-7.908278693,1407
79448,181734,207688,-2.7493531674,5.2606204861,-8.051848049,1408
79603,181670,207689,-2.7828526838,5.2606204861,-7.9657064354,1409
79744,181634,207709,-2.7637101029999998,5.2259245584,-7.858029418399999,1410
79890,181711,207751,-2.5758735289,5.4089754873,-7.8819576444,1411
80018,181709,207726,-2.739781877,5.3336015753999995,-7.8879397009000005,1412
79838,181674,207764,-2.8175486115,5.3994041969,-7.9585279676,1413
79067,181606,207746,-2.7433711108999996,5.3371908093,-7.8544401845,1414
78122,181445,207612,-2.7218357075,5.3491549223,-7.886743289599999,1415
77390,181331,207555,-2.7804598612,5.292923591199999,-7.992027484,1416
76943,181239,207437,-2.7828526838,5.3874400839,-7.9968131291999995,1417
76786,181247,207304,-2.6021945774999997,5.347958511000001,-7.8831540556999995,1418
76773,181303,207298,-2.6931218363,5.4017970195,-7.9752777258,1419
76880,181273,207433,-2.7134608283999997,5.309673349400001,-7.9764741371,1420
77191,181310,207486,-2.7589244578,5.3084769381,-7.9310105077,1421
77558,181359,207508,-2.7708885708000004,5.3276195189,-7.896314579999999,1422
77851,181393,207597,-2.7684957482,5.2366922601,-8.0087772422,1423
78072,181421,207650,-2.8378876036,5.2342994375,-7.9453674433,1424
78280,181495,207644,-2.6285156261,5.300102059,-7.9824561936,1425
78477,181396,207635,-2.7613172804,5.3527441562,-7.9896346614,1426
78679,181552,207676,-2.6907290137,5.264209719999999,-7.920242806,1427
78867,181558,207696,-2.6548366747000003,5.347958511000001,-7.8951181687,1428
79065,181591,207736,-2.7912275628999996,5.3694939144,-7.9645100241,1429
79215,181612,207755,-2.7457639335,5.3048877041999996,-7.8807612331,1430
79355,181611,207778,-2.835494781,5.1302116544,-7.9609207902,1431
79068,181643,207813,-2.8402804262,5.2211389132,-7.8987074025999995,1432
78390,181563,207781,-2.8546373618,5.300102059,-7.9357961529,1433
77791,181464,207683,-2.8378876036,5.252245607000001,-7.9345997416,1434
77474,181374,207673,-2.823530668,5.2438707279,-7.980063371,1435
77544,181378,207674,-2.7170500623000002,5.2857451234,-8.0327054682,1436
77762,181414,207732,-2.8091737324,5.3587262127,-7.9788669596999995,1437
78006,181432,207726,-2.7110680058,5.388636495199999,-8.0015987744,1438
78278,181481,207711,-2.8163522002,5.363511857900001,-7.9357961529,1439
78465,181492,207694,-2.9012974024999996,5.2366922601,-7.9992059518000005,1440
78603,181542,207697,-2.7194428849,5.4017970195,-8.01595571,1441
78746,181534,207711,-2.7684957482,5.331208752799999,-7.927421273799999,1442
78896,181592,207720,-2.7661029256000003,5.2450671392,-7.8771719992,1443
79050,181579,207725,-2.8558337731,5.3659046805,-7.984849016199999,1444
79214,181606,207716,-2.6225335696,5.4065826647,-7.9334033303,1445
79371,181618,207765,-2.6416761504,5.3012984703,-7.9992059518000005,1446
79534,181633,207767,-2.8378876036,5.2211389132,-8.0422767586,1447
79700,181720,207797,-2.703889538,5.3048877041999996,-7.8951181687,1448
79884,181714,207774,-2.7326034091999998,5.3694939144,-8.003991596999999,1449
79979,181758,207759,-2.8582265956999997,5.331208752799999,-7.9094751043,1450
80099,181730,207809,-2.75174599,5.2570312522,-7.9872418388,1451
80234,181761,207813,-2.7254249414,5.2187460906,-7.9465638546,1452
80342,181752,207844,-2.6297120374,5.169693227300001,-8.01595571,1453
80458,181746,207866,-2.8115665549999997,5.2498527844,-7.9369925642,1454
80569,181727,207853,-2.6811577232999997,5.2378886713999995,-7.9932238953,1455
80648,181780,207896,-2.6404797391000003,5.228317381,-7.9345997416,1456
80099,181745,207853,-2.835494781,5.288137946,-7.9585279676,1457
78992,181565,207782,-2.7589244578,5.2869415346999995,-7.9896346614,1458
77927,181422,207678,-2.787638329,5.388636495199999,-7.9369925642,1459
77253,181286,207599,-2.8642086522,5.2905307686,-7.9992059518000005,1460
76869,181218,207533,-2.6907290137,5.2977092364,-7.942974620699999,1461
76714,181266,207473,-2.6727828442,5.223531735800001,-8.01595571,1462
76785,181288,207523,-2.7625136916999997,5.389832906500001,-7.9226356286,1463
77061,181264,207614,-2.75174599,5.2725845991,-8.0015987744,1464
77397,181320,207633,-2.75174599,5.292923591199999,-7.9585279676,1465
77661,181368,207646,-2.620140747,5.2737810104,-8.0231341778,1466
77857,181408,207685,-2.7302105866,5.292923591199999,-7.9752777258,1467
78025,181423,207696,-2.7972096194,5.3144589946,-8.0231341778,1468
78253,181434,207688,-2.7601208691,5.1852465742,-7.9513494998,1469
78392,181485,207706,-2.7732813934,5.1601219369,-7.896314579999999,1470
78586,181485,207705,-2.6967110702,5.2474599618,-8.0087772422,1471
78739,181483,207734,-2.7493531674,5.315655405899999,-7.980063371,1472
78882,181492,207798,-2.7337998205,5.2977092364,-7.911867926899999,1473
79115,181557,207797,-2.7840490951,5.3419764545,-8.0135628874,1474
79220,181532,207832,-2.7792634499,5.2342994375,-7.9872418388,1475
79380,181540,207825,-2.7218357075,5.213960445400001,-7.9752777258,1476
79452,181580,207848,-2.7948167968,5.2007999211,-7.9262248625,1477
78995,181543,207842,-2.7050859493,5.3048877041999996,-7.9058858704,1478
77941,181365,207757,-2.75174599,5.248656373099999,-7.9824561936,1479
77076,181249,207640,-2.6871397798,5.417350366399999,-7.9609207902,1480
76535,181155,207603,-2.7373890544,5.1577291143,-7.957331556300001,1481
76152,181098,207486,-2.6356940939,5.3036912929,-7.9752777258,1482
76098,181105,207441,-2.8307091358,5.2546384296,-8.063812162,1483
76162,181102,207452,-2.7505495787000003,5.2905307686,-7.890332523500001,1484
76465,181161,207527,-2.7505495787000003,5.204389154999999,-7.9310105077,1485
76812,181226,207580,-2.7768706272999997,5.347958511000001,-7.927421273799999,1486
77105,181259,207652,-2.8043880872,5.251049195699999,-8.0374911134,1487
77333,181268,207656,-2.6835505459,5.2498527844,-7.9178499834,1488
77524,181315,207701,-2.6871397798,5.3407800432,-8.0063844196,1489
77698,181375,207721,-2.7565316351999996,5.2570312522,-8.0255270004,1490
77894,181389,207700,-2.7194428849,5.2725845991,-7.9393853868,1491
78091,181393,207784,-2.6847469572,5.389832906500001,-7.9872418388,1492
78304,181435,207807,-2.7565316351999996,5.300102059,-7.9046894591,1493
78477,181476,207818,-2.6715864329,5.251049195699999,-7.9896346614,1494
78665,181520,207880,-2.7218357075,5.3491549223,-7.968099258,1495
78781,181538,207879,-2.6285156261,5.2127640341,-7.9633136127999995,1496
78542,181521,207908,-2.7732813934,5.362315446599999,-7.9130643382,1497
77762,181460,207840,-2.8055844984999996,5.3048877041999996,-7.9669028467,1498
77043,181257,207762,-2.5136601413,5.1314080657000005,-8.003991596999999,1499
76637,181186,207706,-2.6763720781,5.2725845991,-7.980063371,1500
76532,181162,207641,-2.8175486115,5.371886737,-7.844868894099999,1501
76674,181189,207628,-2.6775684894,5.0811587911,-7.9489566772,1502
77027,181242,207646,-2.8486553053,5.324030285,-7.9657064354,1503
77307,181338,207633,-2.7469603447999997,5.2474599618,-7.9824561936,1504
77515,181334,207682,-2.7254249414,5.3192446398,-7.8532437732,1505
77694,181254,207689,-2.7732813934,5.306084115499999,-7.972884903200001,1506
77836,181394,207740,-2.7924239742,5.324030285,-7.9369925642,1507
77994,181424,207732,-2.7086751831999996,5.3204410510999995,-8.0889367993,1508
78163,181464,207734,-2.8606194183,5.1792645177,-7.8879397009000005,1509
78330,181489,207773,-2.6548366747000003,5.3180482284999995,-7.8544401845,1510
78486,181513,207771,-2.7661029256000003,5.288137946,-8.0015987744,1511
78657,181501,207800,-2.6727828442,5.2606204861,-7.992027484,1512
78800,181490,207822,-2.7182464736,5.2606204861,-7.968099258,1513
78938,181541,207817,-2.6691936103000002,5.2689953652,-7.9609207902,1514
79074,181553,207817,-2.9216363945999997,5.2953164138,-7.9190463947000005,1515
79217,181586,207861,-2.7337998205,5.280959478200001,-8.0063844196,1516
79348,181617,207887,-2.6943182475999996,5.2953164138,-7.9465638546,1517
79467,181622,207892,-2.6596223199,5.3168518172,-7.9776705484,1518
