green,red,IR,acc_x,acc_y,acc_z,sample_index
97048,193080,246797,7.9298140964,-1.7036896912000001,5.662614682899999,1
96999,193025,246716,7.896314579999999,-1.5936198516,5.633900811699999,2
96994,192931,246639,7.9345997416,-1.5984054967999999,5.761916820800001,3
97020,192911,246637,7.848458128,-1.5134602944999997,5.7272208931,4
97089,192948,246660,7.944171031999999,-1.6510475939999998,5.747559885199999,5
97241,192947,246607,7.8879397009000005,-1.5936198516,5.7990055710999995,6
97329,192917,246626,8.0482588151,-1.5326028753,5.624329521299999,7
97443,192839,246579,7.8831540556999995,-1.6366906583999998,5.8229337971,8
97587,192774,246540,8.0662049846,-1.5373885205000002,5.7272208931,9
97610,192668,246496,7.942974620699999,-1.5900306177,5.7702916999,10
97399,192483,246372,8.0195449439,-1.6139588437,5.776273756399999,11
97169,192325,246270,7.819744256799999,-1.5601203352,5.6614182716,12
97039,192266,246244,7.8915289348,-1.5086746492999998,5.6578290377,13
96959,192242,246240,7.925028451199999,-1.6857435217,5.6757752072,14
96915,192221,246198,7.902296636499999,-1.7276179172000001,5.7044890784,15
96924,192217,246168,7.9011002251999995,-1.6606188843999998,5.776273756399999,16
96998,192210,246130,7.9046894591,-1.5517454561000001,5.7140603688,17
97117,192211,246180,7.925028451199999,-1.7407784414999998,5.7798629903,18
97234,192193,246185,7.9956167179,-1.7599210223,5.6566326264,19
97284,192230,246201,7.9525459111,-1.6091731985,5.6614182716,20
97409,192213,246174,7.8436724828,-1.5421741657,5.790630692000001,21
97538,192183,246168,7.9621172015,-1.6079767872,5.7511491191,22
97697,192205,246162,7.848458128,-1.6797614652,5.7415778287,23
97831,192198,246131,7.9381889755,-1.5086746492999998,5.7714881112,24
97987,192192,246138,7.8388868376,-1.6510475939999998,5.7080783123000005,25
98176,192206,246200,7.8855468783,-1.6737794087,5.766702466,26
98294,192227,246151,8.0243305891,-1.6749758199999998,5.637490045600001,27
98230,192196,246151,7.9776705484,-1.5421741657,5.670989562,28
98078,192187,246169,7.9393853868,-1.5696916256,5.7092747236,29
97948,192190,246043,8.0817583315,-1.6223337227999999,5.6602218603,30
97874,192137,246105,7.9633136127999995,-1.4751751328999998,5.6422756908,31
97835,192146,246110,7.9262248625,-1.5278172301,5.694917788000001,32
97823,192103,246097,8.0817583315,-1.603191142,5.7571311756,33
97852,192103,246084,7.896314579999999,-1.5972090855,5.670989562,34
97892,192114,246086,7.896314579999999,-1.5122638832,5.670989562,35
97956,192090,246049,7.9298140964,-1.6558332392,5.694917788000001,36
98005,192107,246068,8.051848049,-1.5936198516,5.761916820800001,37
98070,192102,246065,7.848458128,-1.5708880369,5.651846981199999,38
98152,192081,246075,7.8532437732,-1.6797614652,5.747559885199999,39
98270,192113,246013,7.9776705484,-1.4991033588999998,5.7140603688,40
98363,192135,246029,7.9381889755,-1.698904046,5.6434721021,41
98470,192125,246046,7.8029944985999995,-1.4751751328999998,5.7559347643,42
98606,192091,245995,7.8113693777,-1.5361921092,5.7284173044,43
98726,192100,245982,8.005188008300001,-1.6701901747999999,5.5812587145,44
98772,192112,245961,7.9489566772,-1.5984054967999999,5.7332029496,45
98600,192062,245954,7.8149586116,-1.5182459396999999,5.8133625067,46
98390,192053,245990,8.057830105499999,-1.55533469,5.7044890784,47
98229,192024,245940,8.0386875247,-1.5517454561000001,5.6997034332,48
98114,191972,245922,7.8819576444,-1.6606188843999998,5.6614182716,49
97988,191987,245867,7.9669028467,-1.5517454561000001,5.7188460139999995,50
97962,191948,245867,7.824529902,-1.4715858990000001,5.6889357315,51
97919,191955,245870,7.8496545393,-1.5888342063999998,5.7655060547,52
97953,191920,245879,7.915457160799999,-1.6749758199999998,5.7655060547,53
97914,191952,245828,7.9381889755,-1.5984054967999999,5.666203916800001,54
97871,191936,245826,7.920242806,-1.5625131578,5.6805608524,55
97976,191899,245834,7.8053873212000005,-1.6498511827,5.7188460139999995,56
98071,191888,245816,7.8855468783,-1.6797614652,5.761916820800001,57
98059,191891,245787,7.872386354,-1.5086746492999998,5.7750773451,58
98081,191882,245810,7.8879397009000005,-1.5266208188,5.6614182716,59
98218,191872,245756,7.920242806,-1.5038890041,5.7284173044,60
98331,191870,245776,7.9298140964,-1.5649059803999998,5.7140603688,61
98367,191865,245803,7.8975109913,-1.5936198516,5.7954163372,62
98459,191856,245763,7.9908310727,-1.5852449725,5.7188460139999995,63
98473,191844,245710,7.953742322399999,-1.5744772707999999,5.595615650099999,64
98266,191821,245683,7.8388868376,-1.6259229567,5.7571311756,65
98019,191754,245712,7.953742322399999,-1.5086746492999998,5.6985070219,66
97801,191736,245628,7.9453674433,-1.5649059803999998,5.7379885948,67
97619,191723,245672,7.9058858704,-1.6235301341000001,5.5812587145,68
97471,191697,245623,7.8592258297,-1.5936198516,5.670989562,69
97391,191637,245584,7.8999038139,-1.5218351736,5.789434280699999,70
97255,191674,245582,7.9489566772,-1.4763715442,5.7463634739,71
97239,191616,245536,7.915457160799999,-1.6414763036,5.6769716185,72
97225,191640,245519,7.8053873212000005,-1.5888342063999998,5.789434280699999,73
97186,191609,245517,7.9764741371,-1.6929219895,5.766702466,74
97172,191605,245511,7.8436724828,-1.531406464,5.7858450468,75
97168,191586,245492,7.8807612331,-1.6462619487999999,5.7332029496,76
97200,191565,245410,7.8855468783,-1.6223337227999999,5.7236316592000005,77
97251,191543,245485,7.9011002251999995,-1.5230315848999998,5.761916820800001,78
97297,191542,245444,7.9046894591,-1.7072789251,5.694917788000001,79
97389,191557,245422,7.9716884919,-1.579262916,5.7188460139999995,80
97435,191484,245406,7.9393853868,-1.579262916,5.7140603688,81
97506,191533,245391,7.9106715156,-1.6498511827,5.7810594016,82
97569,191504,245413,8.0195449439,-1.6271193679999998,5.7415778287,83
97677,191486,245401,7.8687971201,-1.5361921092,5.8193445632000005,84
97706,191484,245389,7.8628150636,-1.5134602944999997,5.670989562,85
97700,191459,245357,7.8999038139,-1.5696916256,5.6231331099999995,86
97449,191434,245322,7.7970124421,-1.603191142,5.7750773451,87
97176,191420,245252,7.896314579999999,-1.5852449725,5.7523455304,88
96915,191350,245264,7.746763167499999,-1.5182459396999999,5.637490045600001,89
96645,191346,245238,7.7970124421,-1.6271193679999998,5.6997034332,90
96508,191276,245250,7.9968131291999995,-1.5996019081000001,5.653043392499999,91
96409,191259,245210,7.8771719992,-1.4656038425,5.694917788000001,92
96294,191240,245187,7.9956167179,-1.5230315848999998,5.761916820800001,93
96196,191196,245197,7.819744256799999,-1.6223337227999999,5.7511491191,94
96181,191205,245111,7.915457160799999,-1.4129617452999998,5.7523455304,95
96129,191130,245072,7.9525459111,-1.5266208188,5.7379885948,96
96113,191153,245061,7.915457160799999,-1.7312071511,5.7140603688,97
96107,191153,245083,7.816155022899999,-1.6510475939999998,5.7942199259,98
96137,191109,245060,7.896314579999999,-1.6115660211,5.7140603688,99
96161,191117,245028,7.9908310727,-1.5948162629,5.7379885948,100
96227,191119,245042,8.0949188558,-1.6510475939999998,5.7284173044,101
96283,191086,245038,7.8759755879,-1.6127624323999998,5.747559885199999,102
96339,191068,245011,7.927421273799999,-1.5649059803999998,5.7523455304,103
96422,191068,245019,7.896314579999999,-1.5601203352,5.6757752072,104
96522,191026,244996,7.9776705484,-1.4895320685,5.7332029496,105
96582,191013,245001,7.819744256799999,-1.6271193679999998,5.6901321428,106
96626,191016,244977,7.957331556300001,-1.7024932798999999,5.7463634739,107
96691,191000,244937,7.8352976037,-1.6319050132,5.7379885948,108
96875,190995,244988,7.9334033303,-1.7120645703,5.7810594016,109
96965,190955,244958,7.791030385599999,-1.5996019081000001,5.7559347643,110
96964,190953,244903,7.9106715156,-1.6319050132,5.7044890784,111
96733,190896,244923,7.692924659,-1.4560325521,5.7846486355,112
96401,190858,244866,7.942974620699999,-1.4943177136999999,5.7044890784,113
96166,190842,244820,7.8771719992,-1.55533469,5.6901321428,114
95939,190760,244792,7.886743289599999,-1.6223337227999999,5.7942199259,115
95741,190737,244770,7.8532437732,-1.3986048097,5.7140603688,116
95587,190702,244686,7.8879397009000005,-1.5972090855,5.6231331099999995,117
95501,190676,244712,7.8676007087999995,-1.5421741657,5.7750773451,118
95459,190626,244667,8.0087772422,-1.4033904549,5.7858450468,119
95381,190587,244669,7.9011002251999995,-1.6785650538999999,5.874379483,120
95285,190546,244577,7.925028451199999,-1.5852449725,5.7152567801,121
95320,190512,244523,7.8388868376,-1.4943177136999999,5.761916820800001,122
95308,190430,244483,7.9908310727,-1.6749758199999998,5.732006538299999,123
95298,190380,244439,8.0243305891,-1.55533469,5.7559347643,124
95338,190348,244406,7.8568330071,-1.5984054967999999,5.7008998445,125
95382,190315,244377,7.925028451199999,-1.6845471104,5.8372907327,126
95401,190225,244346,7.8436724828,-1.6115660211,5.7236316592000005,127
95457,190152,244308,7.9776705484,-1.6223337227999999,5.7224352479,128
95532,190096,244271,7.886743289599999,-1.6654045296,5.647061336,129
95599,190031,244213,7.848458128,-1.5565311013,5.74277424,130
95679,190002,244134,8.1200434931,-1.5457633996,5.637490045600001,131
95759,189936,244164,8.1583286547,-1.5457633996,5.694917788000001,132
95823,189864,244081,7.8544401845,-1.5469598109,5.790630692000001,133
95906,189817,244073,8.0530444603,-1.5373885205000002,5.7188460139999995,134
95984,189751,244088,7.920242806,-1.6366906583999998,5.670989562,135
95835,189703,243958,7.8771719992,-1.5373885205000002,5.790630692000001,136
95493,189595,243912,7.9393853868,-1.4943177136999999,5.818148151899999,137
95178,189453,243832,7.8400832489,-1.5134602944999997,5.7140603688,138
94945,189337,243812,7.8209406681,-1.7036896912000001,5.789434280699999,139
94704,189217,243674,7.8628150636,-1.6319050132,5.7367921835,140
94397,189078,243582,8.0291162343,-1.6546368279,5.7714881112,141
94381,188953,243522,7.819744256799999,-1.5744772707999999,5.6757752072,142
94290,188799,243465,7.8388868376,-1.4739787216,5.747559885199999,143
94189,188591,243363,7.9238320399,-1.5696916256,5.8037912163000005,144
94100,188393,243136,7.920242806,-1.5888342063999998,5.6566326264,145
94026,188206,243041,8.0470624038,-1.6414763036,5.6901321428,146
94025,187933,242924,7.9633136127999995,-1.4991033588999998,5.7332029496,147
93970,187654,242762,7.8771719992,-1.4847464232999998,5.7056854897,148
93908,187419,242582,7.886743289599999,-1.6127624323999998,5.7236316592000005,149
93894,187152,242441,7.886743289599999,-1.579262916,5.7140603688,150
93825,186799,242225,7.9956167179,-1.6701901747999999,5.732006538299999,151
93938,186484,242017,7.9908310727,-1.6402798923,5.710471134900001,152
93942,186098,241854,7.9070822817,-1.5266208188,5.827719442299999,153
93957,185712,241631,8.051848049,-1.5852449725,5.8420763779,154
93982,185354,241402,7.8233334907000005,-1.5936198516,5.7798629903,155
93968,184932,241158,7.9585279676,-1.5421741657,5.760720409499999,156
93982,184493,240867,7.9812597822999996,-1.5613167465000002,5.7523455304,157
94013,184018,240593,8.027919823,-1.5840485612,5.7272208931,158
93982,183560,240291,7.9106715156,-1.5182459396999999,5.7750773451,159
93968,183096,239947,7.944171031999999,-1.5373885205000002,5.74277424,160
93986,182595,239630,7.8436724828,-1.4895320685,5.8133625067,161
93973,182132,239249,7.9812597822999996,-1.603191142,5.8097732728,162
93977,181674,238961,8.057830105499999,-1.531406464,5.6865429089,163
93829,181197,238619,7.925028451199999,-1.7024932798999999,5.6099725857,164
93347,180663,238266,7.9393853868,-1.5517454561000001,5.8085768615,165
92874,180082,237839,7.763512925700001,-1.5637095691,5.694917788000001,166
92453,179401,237535,7.8209406681,-1.6307086019,5.6805608524,167
92073,178757,237254,7.9513494998,-1.4751751328999998,5.693721376699999,168
91698,178219,236843,8.0913296219,-1.6175480776,5.7224352479,169
91373,177748,236545,8.005188008300001,-1.6414763036,5.8468620231,170
91166,177430,236305,7.9716884919,-1.5170495284,5.6578290377,171
91027,177166,236149,7.8532437732,-1.6019947307,5.6327044004,172
90922,176922,236026,7.9489566772,-1.5517454561000001,5.670989562,173
90732,176678,235833,8.057830105499999,-1.5601203352,5.7284173044,174
90635,176452,235720,7.8951181687,-1.5649059803999998,5.7846486355,175
90562,176280,235570,7.8915289348,-1.4847464232999998,5.7367921835,176
90516,176097,235460,7.944171031999999,-1.7312071511,5.666203916800001,177
90485,175908,235365,7.9764741371,-1.3710873497999998,5.766702466,178
90475,175738,235214,7.8915289348,-1.6462619487999999,5.6674003281,179
90478,175611,235110,7.8149586116,-1.4943177136999999,5.6853464976,180
90491,175438,235000,7.9501530885,-1.5122638832,5.7750773451,181
90492,175286,234903,7.8676007087999995,-1.5649059803999998,5.651846981199999,182
90516,175139,234823,7.848458128,-1.6558332392,5.74277424,183
90574,174999,234707,7.9345997416,-1.5744772707999999,5.7092747236,184
90618,174886,234630,7.8436724828,-1.6558332392,5.7056854897,185
90618,174714,234534,7.9106715156,-1.4416756165,5.7236316592000005,186
90674,174618,234403,7.8640114749,-1.7599210223,5.651846981199999,187
90710,174478,234331,7.8999038139,-1.5170495284,5.7332029496,188
90745,174368,234281,7.9585279676,-1.5218351736,5.6853464976,189
90807,174250,234143,7.858029418399999,-1.6929219895,5.8085768615,190
90870,174136,234083,8.0004023631,-1.5984054967999999,5.7284173044,191
90944,173962,234034,7.8149586116,-1.5744772707999999,5.7044890784,192
90918,173909,233912,7.829315547199999,-1.4979069476,5.7942199259,193
90677,173778,233840,8.0865439767,-1.5696916256,5.6805608524,194
90234,173620,233779,7.944171031999999,-1.5601203352,5.732006538299999,195
89962,173551,233627,8.0291162343,-1.6223337227999999,5.6901321428,196
89730,173429,233574,7.9621172015,-1.5756736821000001,5.6757752072,197
89518,173287,233439,7.9872418388,-1.7036896912000001,5.8516476683,198
89277,172973,233215,7.749155990099999,-1.4751751328999998,5.7128639575,199
89062,172474,232847,8.0913296219,-1.5266208188,5.681757263700001,200
88935,171968,232417,7.9190463947000005,-1.6163516663,5.7284173044,201
88774,171574,231992,7.844868894099999,-1.6845471104,5.827719442299999,202
88557,171279,231781,7.925028451199999,-1.5373885205000002,5.761916820800001,203
88424,171156,231698,7.9824561936,-1.4895320685,5.7367921835,204
88357,171115,231715,7.9381889755,-1.5744772707999999,5.789434280699999,205
88382,171173,231729,7.9238320399,-1.7036896912000001,5.7379885948,206
88407,171209,231767,7.8209406681,-1.6701901747999999,5.599204884000001,207
88442,171226,231816,7.9489566772,-1.4715858990000001,5.761916820800001,208
88513,171247,231812,8.0422767586,-1.7551353771,5.7140603688,209
88602,171262,231805,7.7814590952,-1.4560325521,5.6757752072,210
88667,171229,231836,7.920242806,-1.5170495284,5.7140603688,211
88739,171222,231800,7.8915289348,-1.5134602944999997,5.7332029496,212
88827,171120,231769,8.0195449439,-1.5230315848999998,5.760720409499999,213
88889,171092,231737,7.9824561936,-1.6067803759000001,5.7332029496,214
88949,170995,231717,7.8855468783,-1.5517454561000001,5.760720409499999,215
89005,170942,231675,7.8771719992,-1.4847464232999998,5.5764730692999995,216
89082,170930,231599,8.0147592987,-1.6558332392,5.7128639575,217
89148,170929,231565,7.8101729664,-1.6067803759000001,5.7044890784,218
89222,170880,231568,8.061419339399999,-1.55533469,5.7798629903,219
89226,170825,231533,7.9011002251999995,-1.5326028753,5.666203916800001,220
88936,170739,231479,7.8341011924,-1.5601203352,5.7511491191,221
88545,170664,231361,7.7682985709,-1.4368899712999998,5.7942199259,222
88294,170598,231332,7.8771719992,-1.5457633996,5.6195438761,223
88080,170513,231310,7.9238320399,-1.6235301341000001,5.8193445632000005,224
87872,170405,231188,7.8771719992,-1.5182459396999999,5.6482577473,225
87694,170346,231138,7.9489566772,-1.6211373115,5.651846981199999,226
87608,170249,231044,7.8676007087999995,-1.6498511827,5.7236316592000005,227
87582,170172,230990,7.920242806,-1.495514125,5.6901321428,228
87540,170093,230934,7.915457160799999,-1.5804593273,5.6841500863,229
87500,170043,230876,7.9393853868,-1.6654045296,5.7942199259,230
87483,169963,230829,7.9058858704,-1.5266208188,5.7846486355,231
87486,169862,230738,7.8412796602,-1.6079767872,5.7702916999,232
87522,169816,230719,7.7718878047999995,-1.5278172301,5.6841500863,233
87570,169723,230618,7.9011002251999995,-1.5505490447999999,5.6578290377,234
87627,169656,230591,7.9190463947000005,-1.5086746492999998,5.6901321428,235
87671,169574,230491,7.9046894591,-1.6606188843999998,5.761916820800001,236
87745,169519,230452,7.858029418399999,-1.5984054967999999,5.7523455304,237
87832,169473,230392,7.915457160799999,-1.5038890041,5.7092747236,238
87875,169406,230347,7.844868894099999,-1.6450655375,5.7188460139999995,239
87941,169338,230280,7.953742322399999,-1.6546368279,5.6327044004,240
88017,169282,230250,7.8436724828,-1.5218351736,5.6614182716,241
88099,169197,230178,7.844868894099999,-1.531406464,5.6853464976,242
88185,169157,230116,7.944171031999999,-1.5984054967999999,5.7140603688,243
88243,169069,230086,7.8305119585,-1.6259229567,5.6901321428,244
88321,169032,230027,7.890332523500001,-1.6354942471,5.7846486355,245
88403,168995,230028,7.9345997416,-1.5888342063999998,5.8049876276,246
88479,168932,229924,8.005188008300001,-1.6606188843999998,5.6805608524,247
88543,168874,229913,7.844868894099999,-1.6307086019,5.666203916800001,248
88626,168874,229898,7.9381889755,-1.5601203352,5.7236316592000005,249
88707,168818,229837,8.0530444603,-1.6558332392,5.74277424,250
88663,168752,229813,7.9489566772,-1.6127624323999998,5.7140603688,251
88360,168652,229779,7.8388868376,-1.5469598109,5.747559885199999,252
87978,168564,229684,7.886743289599999,-1.5517454561000001,5.694917788000001,253
87648,168501,229626,7.896314579999999,-1.4285150922,5.7559347643,254
87423,168449,229570,7.886743289599999,-1.5038890041,5.7655060547,255
87164,168334,229526,7.824529902,-1.5936198516,5.7655060547,256
86930,168193,229366,7.848458128,-1.579262916,5.6566326264,257
86802,168122,229354,7.848458128,-1.5661023917,5.6566326264,258
86748,168062,229280,7.9142607494999995,-1.5852449725,5.8002019824,259
86686,167954,229228,7.9621172015,-1.5421741657,5.6901321428,260
86625,167874,229211,7.8257263133,-1.5038890041,5.74277424,261
86539,167808,229144,7.9489566772,-1.6319050132,5.566901778899999,262
86555,167744,229146,8.0063844196,-1.4069796888000001,5.8372907327,263
86625,167645,229070,7.9106715156,-1.5218351736,5.7236316592000005,264
86656,167559,229029,7.8915289348,-1.4560325521,5.6901321428,265
86685,167512,229019,7.8592258297,-1.6462619487999999,5.624329521299999,266
86694,167422,228968,8.0530444603,-1.6654045296,5.7092747236,267
86778,167353,228932,7.858029418399999,-1.6462619487999999,5.6853464976,268
86843,167305,228824,7.957331556300001,-1.5744772707999999,5.7272208931,269
86885,167232,228846,8.0817583315,-1.5326028753,5.7511491191,270
86929,167197,228781,8.0015987744,-1.4237294470000001,5.7044890784,271
86996,167122,228844,7.8388868376,-1.6127624323999998,5.7044890784,272
87054,167088,228731,8.0434731699,-1.5708880369,5.6183474648,273
87070,167010,228690,7.986045427500001,-1.5086746492999998,5.7332029496,274
87189,166993,228631,7.9393853868,-1.6271193679999998,5.6614182716,275
87259,166884,228638,7.8783684105,-1.5804593273,5.7942199259,276
87319,166830,228600,7.9011002251999995,-1.603191142,5.7655060547,277
87389,166799,228590,7.8472617167,-1.7168502155,5.7284173044,278
87405,166717,228504,7.9381889755,-1.4883356572,5.7332029496,279
87200,166654,228500,7.9525459111,-1.6271193679999998,5.7044890784,280
86812,166576,228437,7.829315547199999,-1.4811571894,5.8372907327,281
86527,166494,228431,7.957331556300001,-1.6079767872,5.8002019824,282
86320,166475,228332,7.968099258,-1.4799607781,5.761916820800001,283
86098,166385,228318,8.005188008300001,-1.5505490447999999,5.6566326264,284
85833,166249,228304,7.7862447404,-1.5852449725,5.7092747236,285
85691,166172,228253,8.005188008300001,-1.5744772707999999,5.7092747236,286
85658,166118,228228,8.0961152671,-1.4512469069,5.7032926670999995,287
85648,166084,228206,7.8783684105,-1.4656038425,5.7188460139999995,288
85634,166055,228198,7.9298140964,-1.55533469,5.7571311756,289
85629,166046,228126,7.8783684105,-1.4608181972999998,5.7092747236,290
85640,166025,228110,7.8388868376,-1.5182459396999999,5.7284173044,291
85688,165983,228107,7.9094751043,-1.5924234403000002,5.7523455304,292
85743,165942,228088,7.8113693777,-1.6558332392,5.6841500863,293
85825,165919,228072,7.925028451199999,-1.5038890041,5.8037912163000005,294
85863,165866,228045,7.8915289348,-1.3986048097,5.7655060547,295
85923,165830,228045,7.886743289599999,-1.4847464232999998,5.7044890784,296
85994,165812,227997,8.062615750700001,-1.4057832774999999,5.74277424,297
86085,165796,228013,7.9968131291999995,-1.5457633996,5.6386864569,298
86149,165756,228013,8.0099736535,-1.6319050132,5.7571311756,299
86233,165719,228009,7.920242806,-1.4931213024,5.6805608524,300
86314,165667,227989,7.8592258297,-1.5218351736,5.6434721021,301
86399,165630,228015,7.890332523500001,-1.5744772707999999,5.766702466,302
86476,165640,227952,7.886743289599999,-1.6737794087,5.6757752072,303
86578,165606,227971,7.8771719992,-1.4225330357,5.662614682899999,304
86659,165573,227903,7.9764741371,-1.5230315848999998,5.8085768615,305
86774,165548,227937,7.953742322399999,-1.5086746492999998,5.6997034332,306
86809,165555,227931,7.9345997416,-1.4979069476,5.7044890784,307
86903,165556,227929,7.9298140964,-1.6977076347,5.766702466,308
86997,165573,227950,8.0374911134,-1.5840485612,5.7236316592000005,309
87074,165509,228010,7.8113693777,-1.5505490447999999,5.7655060547,310
87061,165486,227950,8.0339018795,-1.4691930764,5.666203916800001,311
86791,165398,227947,7.8149586116,-1.4847464232999998,5.7798629903,312
86454,165336,227922,7.986045427500001,-1.6642081183,5.7702916999,313
86220,165319,227900,7.886743289599999,-1.6606188843999998,5.8133625067,314
86063,165306,227907,8.0350982908,-1.5996019081000001,5.662614682899999,315
85924,165286,227920,7.9142607494999995,-1.483550012,5.7379885948,316
85807,165279,227959,7.8065837325,-1.4225330357,5.776273756399999,317
85782,165239,227963,7.928617685100001,-1.6366906583999998,5.7367921835,318
85801,165222,227945,7.9621172015,-1.5230315848999998,5.7236316592000005,319
85758,165068,227901,7.9011002251999995,-1.5409777544,5.7655060547,320
85731,165055,227912,7.9142607494999995,-1.6689937635,5.7284173044,321
85758,165103,227948,8.0949188558,-1.579262916,5.7332029496,322
85824,165123,227983,7.8496545393,-1.6498511827,5.7559347643,323
85916,165153,228084,7.800601675999999,-1.6307086019,5.647061336,324
86009,165170,228080,7.800601675999999,-1.4368899712999998,5.7571311756,325
86108,165208,228076,7.9334033303,-1.6175480776,5.7379885948,326
86209,165189,228132,8.003991596999999,-1.5086746492999998,5.7236316592000005,327
86291,165155,228131,7.9238320399,-1.6139588437,5.790630692000001,328
86376,165163,228141,7.8687971201,-1.5134602944999997,5.670989562,329
86462,165146,228181,7.968099258,-1.6127624323999998,5.6422756908,330
86558,165150,228192,7.915457160799999,-1.55533469,5.7188460139999995,331
86655,165137,228248,7.9238320399,-1.4081761001,5.7750773451,332
86740,165148,228221,7.9142607494999995,-1.6175480776,5.6853464976,333
86851,165134,228277,7.928617685100001,-1.4189438018,5.6674003281,334
86947,165108,228308,7.7994052647,-1.6079767872,5.7284173044,335
87047,165119,228274,7.9585279676,-1.5708880369,5.7702916999,336
87166,165147,228330,7.8915289348,-1.6127624323999998,5.6757752072,337
87182,165154,228330,7.8436724828,-1.6127624323999998,5.7332029496,338
86983,165089,228373,7.972884903200001,-1.507478238,5.7140603688,339
86658,165012,228319,7.9238320399,-1.6127624323999998,5.9078789994,340
86406,165005,228316,7.872386354,-1.5349956979000001,5.6997034332,341
86233,164999,228291,7.9776705484,-1.6163516663,5.6757752072,342
86018,164992,228333,7.848458128,-1.4931213024,5.7332029496,343
85880,164971,228329,7.9142607494999995,-1.6462619487999999,5.6901321428,344
85743,164945,228375,7.8436724828,-1.6522440053,5.827719442299999,345
85754,164969,228411,7.896314579999999,-1.6546368279,5.7954163372,346
85770,164957,228445,7.8532437732,-1.5505490447999999,5.7379885948,347
85822,164960,228439,7.8149586116,-1.579262916,5.790630692000001,348
85845,164955,228489,8.0243305891,-1.6354942471,5.6757752072,349
85891,164934,228479,8.0015987744,-1.6845471104,5.8133625067,350
85970,164915,228559,7.972884903200001,-1.5266208188,5.7798629903,351
86038,164935,228539,7.920242806,-1.3902299306,5.7332029496,352
86131,164941,228629,7.7682985709,-1.6319050132,5.7140603688,353
86231,164909,228589,7.953742322399999,-1.5613167465000002,5.8660046039,354
86309,164908,228628,7.944171031999999,-1.6414763036,5.7140603688,355
86398,164923,228639,8.0087772422,-1.531406464,5.5908300049,356
86498,164901,228672,7.925028451199999,-1.507478238,5.6614182716,357
86599,164909,228653,7.7730842161,-1.5517454561000001,5.776273756399999,358
86715,164884,228710,7.872386354,-1.5900306177,5.732006538299999,359
86790,164905,228718,7.8257263133,-1.6546368279,5.74277424,360
86910,164905,228705,7.8400832489,-1.55533469,5.7846486355,361
87025,164919,228772,7.886743289599999,-1.5326028753,5.7798629903,362
87163,164934,228723,7.8341011924,-1.6319050132,5.760720409499999,363
87230,164929,228802,8.057830105499999,-1.4895320685,5.6901321428,364
87314,164933,228782,7.8759755879,-1.5182459396999999,5.6805608524,365
87400,164888,228844,8.062615750700001,-1.6091731985,5.7236316592000005,366
87502,164923,228883,7.8628150636,-1.6606188843999998,5.7559347643,367
87594,164897,228882,7.9956167179,-1.5984054967999999,5.7810594016,368
87708,164876,228886,7.920242806,-1.603191142,5.7236316592000005,369
87836,164936,228867,8.01595571,-1.5840485612,5.7523455304,370
87893,164933,228900,7.8628150636,-1.6223337227999999,5.666203916800001,371
87867,164920,228907,7.9058858704,-1.6163516663,5.7571311756,372
87595,164850,228885,7.7479595788,-1.6498511827,5.8145589179999995,373
87325,164799,228867,7.915457160799999,-1.5565311013,5.6578290377,374
87134,164844,228843,7.9393853868,-1.4560325521,5.7236316592000005,375
86975,164821,228824,7.8999038139,-1.6175480776,5.74277424,376
86844,164853,228875,7.8879397009000005,-1.5122638832,5.6853464976,377
86706,164830,228863,7.9334033303,-1.5936198516,5.7954163372,378
86685,164823,228832,7.9238320399,-1.55533469,5.6422756908,379
86673,164846,228871,7.735995465799999,-1.6462619487999999,5.637490045600001,380
86691,164822,228818,7.8496545393,-1.5936198516,5.7702916999,381
86682,164828,228901,7.920242806,-1.4656038425,5.5908300049,382
86692,164798,228897,8.062615750700001,-1.6462619487999999,5.7128639575,383
86740,164819,228909,7.7802626839,-1.5421741657,5.6422756908,384
86816,164822,228894,7.8101729664,-1.5134602944999997,5.7032926670999995,385
86865,164819,228974,7.7970124421,-1.5780665047,5.7188460139999995,386
86958,164825,228931,7.77667345,-1.4560325521,5.7248280705,387
87033,164834,228994,7.721638530200001,-1.603191142,5.6291151665,388
87114,164810,228970,7.9669028467,-1.5744772707999999,5.761916820800001,389
87175,164825,228974,7.8305119585,-1.5409777544,5.7846486355,390
87279,164825,228983,7.928617685100001,-1.5230315848999998,5.8037912163000005,391
87318,164807,229032,7.972884903200001,-1.7359927963,5.7044890784,392
87343,164799,229028,7.844868894099999,-1.6319050132,5.7092747236,393
87479,164778,229034,7.9381889755,-1.5457633996,5.6566326264,394
87577,164846,229081,7.9142607494999995,-1.6259229567,5.8002019824,395
87668,164903,229078,7.9956167179,-1.4416756165,5.7714881112,396
87700,164838,229060,7.9621172015,-1.6079767872,5.651846981199999,397
87566,164819,229070,7.9585279676,-1.5649059803999998,5.7702916999,398
87325,164737,229056,7.763512925700001,-1.6654045296,5.732006538299999,399
87022,164702,229016,7.7682985709,-1.4799607781,5.7092747236,400
86858,164738,228998,7.816155022899999,-1.5565311013,5.6614182716,401
86708,164733,228991,7.8687971201,-1.5840485612,5.827719442299999,402
86528,164690,228946,7.942974620699999,-1.6271193679999998,5.6099725857,403
86348,164723,228961,7.9633136127999995,-1.5134602944999997,5.670989562,404
86432,164719,228963,7.8209406681,-1.531406464,5.6757752072,405
86503,164735,229035,7.7826555065,-1.507478238,5.5860443597,406
86535,164725,229038,7.915457160799999,-1.5936198516,5.7810594016,407
86529,164689,229054,7.7874411516999995,-1.5182459396999999,5.7714881112,408
86570,164695,229023,8.057830105499999,-1.4225330357,5.7523455304,409
86616,164680,229084,7.9908310727,-1.5601203352,5.7702916999,410
86715,164697,229057,7.957331556300001,-1.5421741657,5.760720409499999,411
86821,164727,229120,7.8472617167,-1.4751751328999998,5.7176496027,412
86863,164705,229149,7.896314579999999,-1.6354942471,5.6195438761,413
86954,164763,229111,7.749155990099999,-1.5517454561000001,5.7224352479,414
87023,164766,229177,7.8065837325,-1.663011707,5.8097732728,415
87189,164763,229187,7.749155990099999,-1.5936198516,5.7463634739,416
87262,164752,229217,7.9011002251999995,-1.5936198516,5.7188460139999995,417
87319,164752,229165,7.9011002251999995,-1.4799607781,5.789434280699999,418
87445,164800,229240,7.7814590952,-1.4979069476,5.7188460139999995,419
87542,164773,229239,7.8065837325,-1.6067803759000001,5.694917788000001,420
87631,164779,229255,7.844868894099999,-1.5278172301,5.694917788000001,421
87742,164802,229291,7.9908310727,-1.6558332392,5.6997034332,422
87813,164732,229272,7.953742322399999,-1.5601203352,5.6231331099999995,423
87929,164764,229257,7.9345997416,-1.6546368279,5.8085768615,424
88045,164780,229324,7.9130643382,-1.6079767872,5.7379885948,425
88078,164763,229349,8.0339018795,-1.5565311013,5.694917788000001,426
88136,164780,229313,7.8436724828,-1.5601203352,5.7236316592000005,427
88307,164783,229329,7.9776705484,-1.6319050132,5.7284173044,428
88413,164823,229364,7.9298140964,-1.5218351736,5.6853464976,429
88383,164795,229331,7.998009540499999,-1.4656038425,5.7188460139999995,430
88169,164739,229322,7.9345997416,-1.5361921092,5.7140603688,431
87891,164688,229254,7.8400832489,-1.6642081183,5.7140603688,432
87684,164690,229233,7.953742322399999,-1.579262916,5.6997034332,433
87520,164661,229192,7.8819576444,-1.4512469069,5.7523455304,434
87337,164638,229161,7.9489566772,-1.5756736821000001,5.7224352479,435
87158,164650,229185,7.925028451199999,-1.6223337227999999,5.7236316592000005,436
87103,164634,229144,7.953742322399999,-1.5984054967999999,5.776273756399999,437
87067,164631,229220,7.957331556300001,-1.5708880369,5.651846981199999,438
87088,164627,229219,7.8532437732,-1.5086746492999998,5.6997034332,439
87088,164635,229243,7.928617685100001,-1.5134602944999997,5.7236316592000005,440
87090,164635,229211,7.9525459111,-1.5038890041,5.8037912163000005,441
87107,164608,229231,7.8436724828,-1.5732808595,5.7511491191,442
87173,164624,229263,7.925028451199999,-1.6223337227999999,5.6865429089,443
87235,164623,229272,7.8532437732,-1.5134602944999997,5.6757752072,444
87301,164654,229275,7.911867926899999,-1.5326028753,5.647061336,445
87381,164675,229321,7.9058858704,-1.5230315848999998,5.7858450468,446
87473,164677,229356,7.9094751043,-1.5050854154,5.653043392499999,447
87484,164658,229310,7.8113693777,-1.603191142,5.7272208931,448
87555,164667,229396,7.9011002251999995,-1.5326028753,5.7284173044,449
87638,164674,229329,7.8807612331,-1.4321043261,5.6614182716,450
87730,164698,229350,8.0865439767,-1.5086746492999998,5.7954163372,451
87762,164676,229349,7.992027484,-1.4512469069,5.7655060547,452
87852,164719,229388,7.9238320399,-1.5409777544,5.670989562,453
87945,164709,229439,7.9058858704,-1.5086746492999998,5.6805608524,454
87991,164725,229424,7.824529902,-1.483550012,5.7571311756,455
87844,164659,229355,7.9477602659,-1.6594224731,5.666203916800001,456
87591,164616,229269,7.9764741371,-1.5134602944999997,5.7571311756,457
87395,164575,229261,7.8759755879,-1.55533469,5.6805608524,458
87244,164588,229237,7.9058858704,-1.5613167465000002,5.8085768615,459
87116,164534,229266,7.800601675999999,-1.5457633996,5.7463634739,460
86957,164543,229193,7.858029418399999,-1.5744772707999999,5.7044890784,461
86900,164520,229195,7.8209406681,-1.5601203352,5.7379885948,462
86925,164542,229209,7.942974620699999,-1.6558332392,5.7463634739,463
86945,164541,229253,7.8628150636,-1.5326028753,5.7571311756,464
86969,164508,229269,7.8053873212000005,-1.5230315848999998,5.6757752072,465
86976,164504,229237,7.9393853868,-1.5421741657,5.7092747236,466
87056,164528,229292,7.7443703449,-1.4799607781,5.7367921835,467
87122,164542,229284,7.9621172015,-1.579262916,5.732006538299999,468
87228,164564,229309,7.886743289599999,-1.3555340029,5.7655060547,469
87326,164558,229367,7.8771719992,-1.7647066674999998,5.670989562,470
87346,164564,229325,7.8951181687,-1.5649059803999998,5.666203916800001,471
87450,164595,229380,7.861618652300001,-1.6414763036,5.6327044004,472
87557,164574,229402,7.9298140964,-1.4464612617,5.666203916800001,473
87627,164566,229393,7.9345997416,-1.5218351736,5.7798629903,474
87728,164592,229392,7.8771719992,-1.4991033588999998,5.776273756399999,475
87780,164573,229393,7.9345997416,-1.6259229567,5.7140603688,476
87809,164583,229437,7.9525459111,-1.55533469,5.7140603688,477
87979,164573,229417,7.9214392173,-1.5086746492999998,5.789434280699999,478
88128,164606,229439,7.9824561936,-1.3842478741,5.732006538299999,479
88194,164597,229469,7.844868894099999,-1.5134602944999997,5.7332029496,480
88176,164607,229470,7.886743289599999,-1.5589239239000001,5.651846981199999,481
88380,164581,229490,7.861618652300001,-1.5661023917,5.670989562,482
88471,164593,229493,7.9908310727,-1.3710873497999998,5.7044890784,483
88579,164626,229496,7.8341011924,-1.5601203352,5.6901321428,484
88643,164637,229500,7.777869861299999,-1.5278172301,5.7080783123000005,485
88708,164665,229485,7.7922267969000005,-1.5541382787000002,5.7559347643,486
88878,164680,229544,8.0099736535,-1.5840485612,5.647061336,487
88876,164661,229533,7.915457160799999,-1.5972090855,5.6901321428,488
88723,164610,229441,7.9393853868,-1.6115660211,5.7655060547,489
88479,164548,229398,7.8676007087999995,-1.4045868662,5.776273756399999,490
88289,164516,229410,7.7970124421,-1.5026925928000001,5.7044890784,491
88135,164528,229395,7.972884903200001,-1.5924234403000002,5.6997034332,492
88010,164510,229375,7.8771719992,-1.6319050132,5.7284173044,493
87809,164501,229347,7.8436724828,-1.4703894876999999,5.8648081926,494
87621,164470,229378,7.8532437732,-1.4787643668000001,5.7798629903,495
87669,164453,229383,8.0147592987,-1.4739787216,5.7092747236,496
87694,164498,229383,7.8819576444,-1.6307086019,5.7714881112,497
87705,164495,229408,7.8915289348,-1.531406464,5.7272208931,498
87730,164479,229428,8.0674013959,-1.6079767872,5.6865429089,499
87752,164485,229418,7.8951181687,-1.6127624323999998,5.7092747236,500
87800,164504,229426,7.9872418388,-1.5936198516,5.7044890784,501
87863,164551,229423,7.9334033303,-1.5888342063999998,5.6482577473,502
87948,164522,229461,8.0530444603,-1.5708880369,5.760720409499999,503
88046,164510,229500,7.9393853868,-1.4895320685,5.6997034332,504
88069,164533,229447,7.915457160799999,-1.5565311013,5.666203916800001,505
88151,164502,229503,7.791030385599999,-1.55533469,5.790630692000001,506
88190,164525,229534,7.9106715156,-1.5457633996,5.8133625067,507
88269,164515,229444,7.848458128,-1.5840485612,5.856433313499999,508
88343,164511,229525,8.0291162343,-1.603191142,5.7463634739,509
88459,164517,229506,7.7874411516999995,-1.5505490447999999,5.7092747236,510
88526,164518,229512,8.0195449439,-1.6414763036,5.7571311756,511
88586,164500,229510,7.819744256799999,-1.6594224731,5.633900811699999,512
88576,164533,229472,7.8915289348,-1.4225330357,5.8660046039,513
88737,164503,229505,7.9011002251999995,-1.6977076347,5.6805608524,514
88841,164516,229528,7.920242806,-1.6462619487999999,5.789434280699999,515
88872,164542,229534,7.8568330071,-1.6594224731,5.6554362151,516
88968,164549,229550,7.8305119585,-1.5170495284,5.5908300049,517
88964,164554,229474,7.8771719992,-1.5086746492999998,5.74277424,518
88782,164474,229478,7.957331556300001,-1.4608181972999998,5.7284173044,519
88617,164398,229391,7.890332523500001,-1.4368899712999998,5.7236316592000005,520
88422,164407,229393,7.896314579999999,-1.6558332392,5.818148151899999,521
88274,164420,229418,7.8149586116,-1.507478238,5.679364441100001,522
88144,164387,229414,7.824529902,-1.5086746492999998,5.6578290377,523
88045,164380,229340,7.8400832489,-1.7024932798999999,5.651846981199999,524
87978,164359,229361,8.0327054682,-1.5326028753,5.732006538299999,525
87994,164356,229390,7.9585279676,-1.3998012210000002,5.5908300049,526
87978,164353,229396,7.920242806,-1.4703894876999999,5.7798629903,527
87987,164395,229421,8.051848049,-1.579262916,5.6853464976,528
88020,164377,229393,7.925028451199999,-1.5050854154,5.6901321428,529
88071,164399,229415,7.8819576444,-1.7072789251,5.6853464976,530
88124,164398,229458,7.925028451199999,-1.5661023917,5.6997034332,531
88185,164416,229393,7.9058858704,-1.4416756165,5.5860443597,532
88237,164426,229454,8.0721870411,-1.5744772707999999,5.6566326264,533
88298,164420,229437,7.858029418399999,-1.6223337227999999,5.7224352479,534
88378,164430,229453,7.8305119585,-1.4368899712999998,5.670989562,535
88431,164419,229476,7.920242806,-1.603191142,5.6889357315,536
88506,164455,229471,7.9238320399,-1.5122638832,5.694917788000001,537
88568,164422,229501,7.8592258297,-1.5756736821000001,5.7284173044,538
88652,164432,229447,7.928617685100001,-1.5421741657,5.633900811699999,539
88726,164407,229504,7.928617685100001,-1.5230315848999998,5.7798629903,540
88812,164430,229499,7.8209406681,-1.6414763036,5.7702916999,541
88904,164471,229461,7.9238320399,-1.6546368279,5.694917788000001,542
88976,164451,229549,7.9381889755,-1.4931213024,5.7332029496,543
89043,164454,229518,7.8017980873,-1.4799607781,5.7846486355,544
89134,164481,229516,7.7826555065,-1.4847464232999998,5.761916820800001,545
89196,164469,229533,7.886743289599999,-1.5708880369,5.7655060547,546
89214,164485,229520,7.8388868376,-1.698904046,5.732006538299999,547
89359,164515,229595,7.8436724828,-1.4703894876999999,5.8325050875,548
89456,164518,229572,7.915457160799999,-1.6067803759000001,5.6805608524,549
89570,164543,229611,7.872386354,-1.6414763036,5.6386864569,550
89613,164552,229656,7.9011002251999995,-1.6797614652,5.7188460139999995,551
89564,164543,229604,7.872386354,-1.4991033588999998,5.8145589179999995,552
89374,164451,229498,7.896314579999999,-1.6737794087,5.7798629903,553
89178,164427,229465,7.915457160799999,-1.6091731985,5.6327044004,554
88924,164389,229491,8.0386875247,-1.6546368279,5.8516476683,555
88714,164410,229420,7.902296636499999,-1.5972090855,5.637490045600001,556
88520,164383,229361,7.872386354,-1.5756736821000001,5.6805608524,557
88397,164340,229390,7.8544401845,-1.5840485612,5.7523455304,558
88324,164343,229421,7.9238320399,-1.6546368279,5.6422756908,559
88309,164371,229380,7.8687971201,-1.6689937635,5.6997034332,560
88285,164354,229428,7.8915289348,-1.531406464,5.7284173044,561
88272,164345,229426,7.9669028467,-1.603191142,5.7236316592000005,562
88265,164362,229466,7.9345997416,-1.5708880369,5.6757752072,563
88327,164363,229417,7.8436724828,-1.4883356572,5.8097732728,564
88298,164405,229452,8.0099736535,-1.579262916,5.8002019824,565
88320,164397,229511,7.8281191359,-1.4943177136999999,5.827719442299999,566
88418,164413,229497,7.9585279676,-1.4847464232999998,5.7714881112,567
88505,164418,229489,7.872386354,-1.5684952143000002,5.7750773451,568
88582,164403,229469,7.8352976037,-1.6749758199999998,5.7714881112,569
88622,164380,229473,7.8352976037,-1.3615160593999998,5.6674003281,570
88655,164403,229497,7.9477602659,-1.4895320685,5.760720409499999,571
88716,164409,229477,7.861618652300001,-1.5218351736,5.74277424,572
88794,164396,229530,7.9094751043,-1.5601203352,5.7750773451,573
88862,164409,229507,7.9908310727,-1.4799607781,5.732006538299999,574
88936,164398,229509,8.0530444603,-1.5134602944999997,5.6614182716,575
89012,164454,229538,8.0063844196,-1.3986048097,5.670989562,576
89069,164449,229590,7.9142607494999995,-1.5876377951,5.6853464976,577
89152,164453,229497,7.8628150636,-1.7132609816000002,5.7092747236,578
89210,164479,229552,7.8436724828,-1.6223337227999999,5.7702916999,579
89301,164444,229552,7.9669028467,-1.6271193679999998,5.7272208931,580
89354,164500,229571,7.8975109913,-1.5637095691,5.760720409499999,581
89482,164473,229608,7.800601675999999,-1.5840485612,5.575276658,582
89465,164473,229525,7.920242806,-1.5649059803999998,5.7140603688,583
89230,164409,229528,8.0135628874,-1.5828521499000001,5.637490045600001,584
89020,164372,229447,7.9872418388,-1.5122638832,5.670989562,585
88832,164347,229499,7.9621172015,-1.5984054967999999,5.6566326264,586
88646,164354,229434,7.7874411516999995,-1.3567304141999998,5.7714881112,587
88463,164306,229429,8.0530444603,-1.6175480776,5.7140603688,588
88310,164265,229390,7.928617685100001,-1.6115660211,5.7272208931,589
88215,164274,229373,7.968099258,-1.5218351736,5.6422756908,590
88225,164315,229494,7.8771719992,-1.5505490447999999,5.6386864569,591
88244,164314,229424,7.9477602659,-1.6079767872,5.7236316592000005,592
88192,164294,229450,7.8424760715,-1.5038890041,5.7559347643,593
88172,164288,229450,7.9477602659,-1.6319050132,5.7140603688,594
88230,164305,229459,7.968099258,-1.531406464,5.7798629903,595
88261,164337,229493,7.9525459111,-1.5409777544,5.6422756908,596
88310,164336,229478,7.8496545393,-1.7168502155,5.6997034332,597
88370,164353,229476,7.944171031999999,-1.6079767872,5.7990055710999995,598
88420,164310,229523,7.9142607494999995,-1.6175480776,5.7415778287,599
88439,164299,229510,7.970492080600001,-1.5649059803999998,5.6614182716,600
88551,164323,229522,7.957331556300001,-1.5278172301,5.6901321428,601
88632,164341,229506,8.0865439767,-1.4895320685,5.7044890784,602
88675,164327,229553,7.9944203065999995,-1.4141581566,5.7128639575,603
88700,164356,229496,8.0805619202,-1.5661023917,5.633900811699999,604
88808,164346,229516,7.957331556300001,-1.5230315848999998,5.7140603688,605
88901,164352,229511,7.9764741371,-1.5122638832,5.6985070219,606
88976,164358,229566,8.005188008300001,-1.5649059803999998,5.6099725857,607
89032,164367,229545,7.8771719992,-1.6642081183,5.7092747236,608
89097,164384,229554,7.920242806,-1.5218351736,5.7714881112,609
89162,164370,229542,8.0135628874,-1.5469598109,5.760720409499999,610
89254,164384,229559,8.005188008300001,-1.4512469069,5.7415778287,611
89326,164392,229601,7.8687971201,-1.5278172301,5.7714881112,612
89453,164410,229573,7.8771719992,-1.5170495284,5.776273756399999,613
89482,164415,229614,7.858029418399999,-1.4177473905,5.666203916800001,614
89523,164413,229618,7.7443703449,-1.5744772707999999,5.636293634299999,615
89407,164366,229581,7.915457160799999,-1.7312071511,5.6853464976,616
89169,164279,229553,7.957331556300001,-1.5326028753,5.8085768615,617
88974,164283,229432,7.9824561936,-1.4428720278,5.7798629903,618
88813,164316,229479,7.8113693777,-1.5469598109,5.7092747236,619
88678,164291,229445,7.9776705484,-1.5122638832,5.7846486355,620
88550,164301,229416,7.925028451199999,-1.5122638832,5.670989562,621
88438,164288,229445,7.816155022899999,-1.4309079148000001,5.766702466,622
88413,164294,229461,7.8341011924,-1.5218351736,5.7750773451,623
88421,164304,229502,7.8640114749,-1.6091731985,5.6674003281,624
88439,164309,229484,7.9776705484,-1.5613167465000002,5.7284173044,625
88419,164300,229495,8.0805619202,-1.5122638832,5.747559885199999,626
88452,164341,229509,7.9011002251999995,-1.4799607781,5.6997034332,627
88514,164357,229568,7.848458128,-1.5517454561000001,5.637490045600001,628
88576,164354,229566,7.8017980873,-1.6091731985,5.647061336,629
88612,164381,229599,7.942974620699999,-1.5505490447999999,5.6757752072,630
88667,164372,229561,7.920242806,-1.5505490447999999,5.694917788000001,631
88734,164363,229614,7.9669028467,-1.4141581566,5.7332029496,632
88808,164352,229571,7.953742322399999,-1.5936198516,5.6135618196,633
88875,164379,229599,7.8400832489,-1.6785650538999999,5.8037912163000005,634
88933,164437,229597,8.0566336942,-1.4691930764,5.6985070219,635
88986,164401,229633,7.8532437732,-1.5756736821000001,5.7284173044,636
89084,164422,229629,7.9058858704,-1.4847464232999998,5.6422756908,637
89158,164385,229615,7.920242806,-1.6223337227999999,5.732006538299999,638
89235,164371,229601,7.9142607494999995,-1.7551353771,5.8217373858000006,639
89295,164397,229614,7.932206919,-1.5182459396999999,5.6279187552000005,640
89396,164409,229619,7.957331556300001,-1.4656038425,5.8372907327,641
89469,164414,229700,7.9058858704,-1.3794622289,5.6757752072,642
89372,164391,229650,7.9956167179,-1.5134602944999997,5.7379885948,643
89091,164335,229542,7.9393853868,-1.7216358607,5.8085768615,644
88831,164309,229542,7.8376904263,-1.531406464,5.7188460139999995,645
88724,164301,229498,7.9058858704,-1.5469598109,5.666203916800001,646
88552,164285,229494,7.8149586116,-1.5421741657,5.7702916999,647
88344,164266,229456,7.7479595788,-1.6642081183,5.6913285541,648
88196,164224,229436,7.7671021596,-1.5278172301,5.5812587145,649
88146,164224,229408,8.1092757914,-1.4931213024,5.7415778287,650
88146,164237,229488,7.848458128,-1.6043875533,5.7846486355,651
88157,164228,229509,8.0374911134,-1.6510475939999998,5.637490045600001,652
88151,164237,229473,7.9381889755,-1.4883356572,5.7511491191,653
88169,164261,229522,7.9298140964,-1.5122638832,5.7236316592000005,654
88194,164241,229548,7.824529902,-1.5230315848999998,5.6901321428,655
88236,164257,229565,7.9142607494999995,-1.4213366244,5.8037912163000005,656
88286,164262,229569,7.944171031999999,-1.5134602944999997,5.7798629903,657
88353,164266,229576,7.872386354,-1.5589239239000001,5.6805608524,658
88416,164278,229589,7.9046894591,-1.5170495284,5.7284173044,659
88460,164278,229572,7.8101729664,-1.531406464,5.7176496027,660
88532,164251,229584,7.9393853868,-1.5936198516,5.637490045600001,661
88583,164275,229611,7.829315547199999,-1.5122638832,5.666203916800001,662
88686,164286,229620,7.928617685100001,-1.4991033588999998,5.651846981199999,663
88785,164277,229613,7.8783684105,-1.4285150922,5.7846486355,664
88789,164249,229597,7.8436724828,-1.5421741657,5.6614182716,665
88797,164302,229622,7.9621172015,-1.5457633996,5.7571311756,666
88924,164268,229612,7.9393853868,-1.6115660211,5.7092747236,667
89006,164318,229656,7.9764741371,-1.5649059803999998,5.7559347643,668
89059,164324,229631,7.8065837325,-1.5840485612,5.6614182716,669
89133,164292,229647,8.0482588151,-1.5026925928000001,5.7092747236,670
89208,164316,229650,7.8305119585,-1.6223337227999999,5.637490045600001,671
89258,164320,229665,7.873582765299999,-1.4991033588999998,5.6805608524,672
89323,164294,229739,8.0099736535,-1.4883356572,5.6997034332,673
89362,164326,229724,7.9633136127999995,-1.5218351736,5.6757752072,674
89491,164333,229718,7.8855468783,-1.4656038425,5.7655060547,675
89536,164335,229756,7.8628150636,-1.6498511827,5.789434280699999,676
89418,164298,229699,7.9058858704,-1.5744772707999999,5.7188460139999995,677
89216,164261,229613,7.824529902,-1.6642081183,5.666203916800001,678
88971,164235,229580,7.858029418399999,-1.5840485612,5.694917788000001,679
88811,164225,229545,7.957331556300001,-1.531406464,5.7140603688,680
88670,164230,229564,7.9357961529,-1.5373885205000002,5.7176496027,681
88515,164225,229540,7.928617685100001,-1.6259229567,5.7224352479,682
88432,164244,229553,7.9716884919,-1.6175480776,5.6757752072,683
88359,164210,229555,7.957331556300001,-1.5565311013,5.7284173044,684
88386,164222,229547,7.872386354,-1.4895320685,5.7092747236,685
88367,164201,229571,7.8951181687,-1.4739787216,5.7332029496,686
88345,164221,229568,8.051848049,-1.6354942471,5.6757752072,687
88388,164269,229577,7.8496545393,-1.5601203352,5.6578290377,688
88405,164235,229643,7.9752777258,-1.579262916,5.7834522241999995,689
88440,164283,229652,7.9334033303,-1.6558332392,5.5334022625,690
88480,164273,229635,7.925028451199999,-1.55533469,5.7044890784,691
88541,164278,229636,7.8209406681,-1.4943177136999999,5.7415778287,692
88625,164262,229670,7.848458128,-1.6223337227999999,5.6901321428,693
88631,164258,229665,7.972884903200001,-1.6079767872,5.694917788000001,694
88711,164321,229660,7.8017980873,-1.6414763036,5.790630692000001,695
88756,164316,229649,7.8759755879,-1.4991033588999998,5.6901321428,696
88822,164294,229707,8.0482588151,-1.4895320685,5.651846981199999,697
88889,164292,229655,7.944171031999999,-1.531406464,5.747559885199999,698
88954,164290,229700,7.9489566772,-1.5888342063999998,5.766702466,699
89027,164292,229670,7.890332523500001,-1.4883356572,5.7080783123000005,700
89112,164300,229666,7.819744256799999,-1.5469598109,5.6386864569,701
89225,164335,229722,7.9525459111,-1.6701901747999999,5.7702916999,702
89243,164365,229737,7.9489566772,-1.5984054967999999,5.7571311756,703
89252,164331,229770,7.9633136127999995,-1.579262916,5.7236316592000005,704
89073,164284,229670,7.8101729664,-1.5948162629,5.6004012953,705
88784,164237,229629,7.915457160799999,-1.615155255,5.7092747236,706
88582,164222,229582,7.9393853868,-1.579262916,5.6674003281,707
88424,164212,229582,7.872386354,-1.5170495284,5.670989562,708
88178,164168,229522,7.896314579999999,-1.4608181972999998,5.6805608524,709
87998,164144,229488,7.942974620699999,-1.4799607781,5.7367921835,710
87855,164141,229521,7.920242806,-1.5649059803999998,5.5334022625,711
87853,164156,229535,8.075776275,-1.5278172301,5.7140603688,712
87872,164175,229546,7.980063371,-1.6737794087,5.7176496027,713
87832,164175,229614,7.829315547199999,-1.6223337227999999,5.7846486355,714
87813,164166,229578,7.9046894591,-1.5278172301,5.7655060547,715
87825,164165,229588,7.928617685100001,-1.5505490447999999,5.7511491191,716
87848,164191,229588,7.824529902,-1.6127624323999998,5.6279187552000005,717
87907,164198,229629,8.137989662599999,-1.5457633996,5.747559885199999,718
87951,164180,229633,7.8687971201,-1.4608181972999998,5.776273756399999,719
88009,164167,229615,7.8568330071,-1.6606188843999998,5.7044890784,720
88064,164189,229644,7.915457160799999,-1.5326028753,5.6901321428,721
88152,164188,229608,7.8855468783,-1.5266208188,5.7272208931,722
88204,164195,229620,7.9106715156,-1.6223337227999999,5.6901321428,723
88257,164182,229690,7.9094751043,-1.5361921092,5.6147582309,724
88334,164203,229667,7.77667345,-1.5852449725,5.6183474648,725
88376,164216,229726,7.920242806,-1.5696916256,5.6614182716,726
88461,164218,229728,7.8771719992,-1.4799607781,5.6853464976,727
88523,164222,229710,7.7958160308,-1.4560325521,5.7559347643,728
88601,164212,229711,7.9381889755,-1.531406464,5.7236316592000005,729
88664,164239,229690,7.9011002251999995,-1.5984054967999999,5.694917788000001,730
88777,164242,229751,8.0004023631,-1.4416756165,5.7559347643,731
88853,164278,229754,7.890332523500001,-1.5744772707999999,5.7284173044,732
88918,164244,229754,7.9381889755,-1.4751751328999998,5.694917788000001,733
88979,164274,229811,7.9058858704,-1.5086746492999998,5.732006538299999,734
89056,164248,229773,7.942974620699999,-1.5888342063999998,5.6291151665,735
89119,164256,229837,7.8209406681,-1.5170495284,5.6997034332,736
89214,164277,229785,7.8915289348,-1.5732808595,5.7188460139999995,737
89290,164306,229828,7.8771719992,-1.6271193679999998,5.7379885948,738
89336,164279,229852,7.8759755879,-1.4703894876999999,5.7236316592000005,739
89199,164219,229812,7.915457160799999,-1.5840485612,5.7332029496,740
88930,164155,229724,7.886743289599999,-1.5361921092,5.694917788000001,741
88690,164155,229693,7.9142607494999995,-1.7204394494000002,5.766702466,742
88497,164178,229642,7.953742322399999,-1.531406464,5.6614182716,743
88324,164183,229674,7.8065837325,-1.6187444889,5.6327044004,744
88160,164144,229584,7.9812597822999996,-1.6163516663,5.8815579507999995,745
88007,164120,229646,8.0566336942,-1.5696916256,5.7284173044,746
87945,164126,229608,7.953742322399999,-1.5505490447999999,5.7140603688,747
87921,164160,229630,7.920242806,-1.6642081183,5.637490045600001,748
87922,164106,229650,7.953742322399999,-1.4943177136999999,5.7284173044,749
87875,164112,229671,7.890332523500001,-1.603191142,5.651846981199999,750
87910,164158,229658,7.9872418388,-1.7132609816000002,5.766702466,751
87932,164124,229641,7.9106715156,-1.5649059803999998,5.7188460139999995,752
87926,164167,229687,7.890332523500001,-1.5218351736,5.6997034332,753
87961,164175,229670,7.848458128,-1.507478238,5.789434280699999,754
88022,164167,229674,7.9956167179,-1.4512469069,5.7942199259,755
88074,164158,229693,7.8640114749,-1.603191142,5.7140603688,756
88112,164144,229703,7.9345997416,-1.5744772707999999,5.5716874241,757
88155,164145,229711,7.9298140964,-1.4943177136999999,5.7367921835,758
88196,164152,229691,8.0662049846,-1.5804593273,5.8085768615,759
88266,164156,229726,8.0111700648,-1.4285150922,5.7559347643,760
88315,164152,229694,7.873582765299999,-1.6127624323999998,5.6147582309,761
88362,164143,229685,7.9345997416,-1.6127624323999998,5.6805608524,762
88425,164154,229724,7.873582765299999,-1.5361921092,5.7284173044,763
88497,164173,229678,7.8424760715,-1.4428720278,5.74277424,764
88587,164200,229769,7.9106715156,-1.5661023917,5.7236316592000005,765
88641,164190,229703,7.9956167179,-1.5038890041,5.7415778287,766
88588,164124,229706,7.928617685100001,-1.4751751328999998,5.7379885948,767
88316,164095,229633,8.0183485326,-1.6498511827,5.7188460139999995,768
88049,164047,229557,7.896314579999999,-1.6091731985,5.7044890784,769
87896,164053,229581,7.858029418399999,-1.5421741657,5.651846981199999,770
87727,164035,229581,7.896314579999999,-1.55533469,5.7571311756,771
87580,164008,229527,7.8999038139,-1.5409777544,5.8325050875,772
87463,164021,229567,7.9381889755,-1.6271193679999998,5.6566326264,773
87431,164023,229570,7.858029418399999,-1.55533469,5.7750773451,774
87424,164027,229570,7.816155022899999,-1.6079767872,5.7044890784,775
87407,164034,229581,7.7252277641000004,-1.5613167465000002,5.670989562,776
87467,164039,229580,7.9956167179,-1.4751751328999998,5.7044890784,777
87445,164027,229620,8.129614783500001,-1.6498511827,5.7044890784,778
87465,164056,229614,8.0362947021,-1.5457633996,5.7750773451,779
87460,164022,229638,7.8676007087999995,-1.507478238,5.7272208931,780
87601,164031,229656,7.8628150636,-1.5134602944999997,5.6327044004,781
87665,164061,229663,7.9621172015,-1.5038890041,5.7080783123000005,782
87729,164039,229717,8.0255270004,-1.5780665047,5.7092747236,783
87790,164010,229708,8.0099736535,-1.5840485612,5.7511491191,784
87866,164053,229677,7.896314579999999,-1.579262916,5.8085768615,785
87939,164079,229711,7.8771719992,-1.579262916,5.7236316592000005,786
88016,164079,229746,8.087740388,-1.5696916256,5.776273756399999,787
88091,164090,229796,7.8065837325,-1.5601203352,5.7188460139999995,788
88164,164068,229781,7.8915289348,-1.6893327556000002,5.6614182716,789
88237,164089,229719,8.0386875247,-1.6845471104,5.7655060547,790
88314,164105,229764,7.7922267969000005,-1.7264215058999999,5.6805608524,791
88391,164077,229790,7.8400832489,-1.4943177136999999,5.7942199259,792
88481,164119,229765,8.01595571,-1.5601203352,5.6853464976,793
88563,164108,229802,7.9872418388,-1.7024932798999999,5.662614682899999,794
88642,164169,229839,7.9908310727,-1.6498511827,5.7236316592000005,795
88746,164149,229861,7.953742322399999,-1.5122638832,5.7092747236,796
88816,164149,229875,7.9334033303,-1.6689937635,5.6901321428,797
88893,164174,229930,7.8915289348,-1.5457633996,5.7272208931,798
88932,164187,229869,7.824529902,-1.6510475939999998,5.7188460139999995,799
88789,164128,229832,7.928617685100001,-1.6546368279,5.7655060547,800
88515,164049,229789,7.9956167179,-1.6175480776,5.6901321428,801
88282,164030,229694,7.942974620699999,-1.3423734786,5.7511491191,802
88116,164050,229716,7.915457160799999,-1.5708880369,5.6087761744,803
87928,164038,229683,7.9908310727,-1.5182459396999999,5.7188460139999995,804
87757,163994,229670,7.829315547199999,-1.6127624323999998,5.6901321428,805
87600,163971,229656,7.8891361122,-1.4979069476,5.7332029496,806
87540,163986,229666,7.9393853868,-1.5804593273,5.7571311756,807
87553,163995,229655,8.1918281711,-1.6414763036,5.666203916800001,808
87539,164031,229714,7.9298140964,-1.4177473905,5.827719442299999,809
87554,164003,229651,8.0530444603,-1.7694923127,5.6901321428,810
87556,164016,229710,7.920242806,-1.5361921092,5.789434280699999,811
87616,164055,229700,8.005188008300001,-1.4464612617,5.6853464976,812
87636,164057,229691,8.0255270004,-1.4608181972999998,5.6566326264,813
87605,164048,229739,7.9669028467,-1.4608181972999998,5.7846486355,814
87758,164061,229745,7.9776705484,-1.483550012,5.7559347643,815
87861,164035,229724,7.9142607494999995,-1.6043875533,5.7511491191,816
87902,164058,229769,7.8532437732,-1.6223337227999999,5.747559885199999,817
87923,164064,229799,7.872386354,-1.5361921092,5.665007505499999,818
88078,164044,229749,7.928617685100001,-1.5649059803999998,5.5800623032,819
88116,164062,229800,7.8400832489,-1.4668002538,5.6386864569,820
88173,164063,229781,7.8915289348,-1.5218351736,5.7523455304,821
88209,164068,229803,7.8257263133,-1.6450655375,5.732006538299999,822
88328,164055,229796,7.872386354,-1.5349956979000001,5.7044890784,823
88422,164087,229763,7.9094751043,-1.6701901747999999,5.7092747236,824
88480,164097,229772,8.0004023631,-1.4787643668000001,5.6183474648,825
88554,164120,229834,7.8759755879,-1.4991033588999998,5.7571311756,826
88661,164124,229803,7.9238320399,-1.5026925928000001,5.7044890784,827
88665,164124,229848,7.8676007087999995,-1.4847464232999998,5.6997034332,828
88470,164052,229828,7.9070822817,-1.6175480776,5.5465627868,829
88196,163976,229728,7.9046894591,-1.5840485612,5.7092747236,830
87996,163984,229712,7.9345997416,-1.5840485612,5.7176496027,831
87812,163947,229659,7.824529902,-1.6175480776,5.679364441100001,832
87645,163947,229595,8.0530444603,-1.6079767872,5.7798629903,833
87528,163934,229681,7.9345997416,-1.5086746492999998,5.7188460139999995,834
87375,163924,229645,7.8915289348,-1.6594224731,5.651846981199999,835
87304,163934,229668,7.9298140964,-1.4895320685,5.7978091598,836
87407,163930,229671,8.0949188558,-1.6462619487999999,5.6231331099999995,837
87389,163932,229646,7.8257263133,-1.6510475939999998,5.7379885948,838
87410,163947,229678,7.920242806,-1.6223337227999999,5.6853464976,839
87443,163940,229702,7.9166535721,-1.3890335193,5.6769716185,840
87488,163959,229740,7.8113693777,-1.5421741657,5.6805608524,841
87499,163965,229700,7.9058858704,-1.507478238,5.7092747236,842
87595,163956,229754,7.9345997416,-1.4943177136999999,5.6566326264,843
87684,163952,229745,7.8831540556999995,-1.5984054967999999,5.7714881112,844
87744,163961,229739,7.7874411516999995,-1.4895320685,5.789434280699999,845
87786,163943,229774,7.925028451199999,-1.5050854154,5.7750773451,846
87870,163963,229782,7.972884903200001,-1.5361921092,5.8037912163000005,847
87930,163969,229729,7.8400832489,-1.5122638832,5.7655060547,848
87987,163971,229789,7.8544401845,-1.5170495284,5.7379885948,849
88065,163995,229759,7.8113693777,-1.5242279962,5.670989562,850
88144,163991,229778,7.9058858704,-1.6510475939999998,5.732006538299999,851
88227,163980,229812,7.9298140964,-1.6175480776,5.7284173044,852
88360,163980,229823,7.7156564737,-1.507478238,5.7990055710999995,853
88358,164008,229767,7.800601675999999,-1.6271193679999998,5.694917788000001,854
88454,163981,229821,7.9669028467,-1.6319050132,5.6901321428,855
88558,164001,229809,8.0339018795,-1.4703894876999999,5.7559347643,856
88555,164029,229827,7.8065837325,-1.5505490447999999,5.7236316592000005,857
88712,164055,229898,7.920242806,-1.5230315848999998,5.6805608524,858
88786,164084,229956,7.968099258,-1.6223337227999999,5.7463634739,859
88793,164062,229863,8.0015987744,-1.4416756165,5.6997034332,860
88636,164018,229851,8.0434731699,-1.6594224731,5.8229337971,861
88355,163953,229794,7.9956167179,-1.55533469,5.7379885948,862
88113,163953,229740,7.9621172015,-1.7072789251,5.670989562,863
88012,163954,229723,8.0099736535,-1.3220344865,5.7858450468,864
87878,163933,229675,7.9908310727,-1.5517454561000001,5.6997034332,865
87740,163915,229668,7.9908310727,-1.6845471104,5.7415778287,866
87695,163926,229653,7.858029418399999,-1.7072789251,5.7284173044,867
87695,163946,229741,7.800601675999999,-1.6642081183,5.7272208931,868
87692,163954,229731,8.0769726863,-1.5840485612,5.7332029496,869
87690,163952,229749,7.9298140964,-1.4895320685,5.7511491191,870
87707,163965,229706,7.8017980873,-1.5122638832,5.7367921835,871
87708,163964,229764,7.8209406681,-1.5361921092,5.7140603688,872
87765,163988,229768,8.0099736535,-1.6307086019,5.5764730692999995,873
87809,163974,229794,7.8017980873,-1.5170495284,5.7846486355,874
87878,164008,229778,7.872386354,-1.6833506991,5.7080783123000005,875
87949,163974,229797,7.8819576444,-1.6127624323999998,5.7559347643,876
88011,163975,229780,7.8101729664,-1.6307086019,5.7332029496,877
88122,163985,229787,7.9549387337,-1.5936198516,5.6566326264,878
88126,164029,229739,7.8257263133,-1.4524433182,5.74277424,879
88099,163997,229824,7.8436724828,-1.5505490447999999,5.7523455304,880
88258,163980,229797,7.9190463947000005,-1.4644074312,5.74277424,881
88352,163997,229821,7.7862447404,-1.5457633996,5.7415778287,882
88428,163998,229833,7.8879397009000005,-1.5828521499000001,5.6997034332,883
88489,164055,229858,7.9956167179,-1.5326028753,5.6566326264,884
88547,164053,229879,7.9908310727,-1.5696916256,5.6422756908,885
88601,164046,229800,7.9393853868,-1.4608181972999998,5.7702916999,886
88453,164001,229768,7.9764741371,-1.55533469,5.760720409499999,887
88145,163918,229689,7.8388868376,-1.6366906583999998,5.818148151899999,888
87939,163898,229720,7.872386354,-1.6797614652,5.7379885948,889
87736,163926,229678,7.9585279676,-1.5134602944999997,5.6805608524,890
87576,163876,229686,7.824529902,-1.4943177136999999,5.7655060547,891
87386,163866,229638,7.749155990099999,-1.5744772707999999,5.6602218603,892
87262,163879,229635,7.8400832489,-1.4931213024,5.7176496027,893
87245,163877,229646,8.0099736535,-1.5565311013,5.7942199259,894
87251,163873,229701,7.8915289348,-1.579262916,5.651846981199999,895
87285,163892,229701,7.925028451199999,-1.5888342063999998,5.7128639575,896
87285,163894,229704,7.9011002251999995,-1.483550012,5.8002019824,897
87330,163871,229750,7.9669028467,-1.6558332392,5.693721376699999,898
87390,163905,229721,7.972884903200001,-1.5361921092,5.7080783123000005,899
87464,163880,229697,7.804190909899999,-1.4608181972999998,5.761916820800001,900
87540,163906,229774,7.8819576444,-1.579262916,5.7379885948,901
87642,163874,229715,7.872386354,-1.6701901747999999,5.6757752072,902
87675,163901,229757,8.099704501,-1.531406464,5.7224352479,903
87754,163899,229724,7.9621172015,-1.5278172301,5.6841500863,904
87838,163928,229750,7.8915289348,-1.5589239239000001,5.6506505699,905
87938,163924,229747,7.972884903200001,-1.6067803759000001,5.7188460139999995,906
88013,163945,229802,7.915457160799999,-1.531406464,5.7379885948,907
88085,163925,229799,7.8592258297,-1.4799607781,5.7750773451,908
88215,163972,229823,7.942974620699999,-1.5326028753,5.7750773451,909
88284,163989,229812,7.886743289599999,-1.5996019081000001,5.7655060547,910
88357,163965,229859,7.816155022899999,-1.4464612617,5.776273756399999,911
88444,163955,229884,7.8209406681,-1.4847464232999998,5.7990055710999995,912
88538,163978,229831,7.9011002251999995,-1.5026925928000001,5.7188460139999995,913
88620,163992,229894,7.7826555065,-1.4656038425,5.6279187552000005,914
88723,163996,229930,7.9968131291999995,-1.5326028753,5.6291151665,915
88816,164031,229910,7.9381889755,-1.7395820302,5.6757752072,916
88894,164022,229921,8.0099736535,-1.6271193679999998,5.7092747236,917
88972,164034,229920,7.9621172015,-1.6223337227999999,5.5716874241,918
89064,164019,229922,7.992027484,-1.4787643668000001,5.7379885948,919
89168,164028,229960,7.8496545393,-1.507478238,5.747559885199999,920
89242,164045,229983,7.740781111,-1.483550012,5.6327044004,921
89197,164000,229955,7.8532437732,-1.5517454561000001,5.7284173044,922
88987,163931,229810,7.9489566772,-1.4273186809,5.7379885948,923
88790,163913,229772,7.777869861299999,-1.5936198516,5.6099725857,924
88595,163922,229792,7.8676007087999995,-1.5278172301,5.7236316592000005,925
88451,163925,229746,7.944171031999999,-1.6259229567,5.694917788000001,926
88314,163899,229725,7.9011002251999995,-1.5505490447999999,5.7655060547,927
88170,163884,229746,8.1044901462,-1.5086746492999998,5.6434721021,928
88126,163909,229730,7.9477602659,-1.5696916256,5.7044890784,929
88173,163919,229732,7.968099258,-1.4644074312,5.7236316592000005,930
88151,163935,229767,7.9106715156,-1.5457633996,5.679364441100001,931
88065,163918,229734,7.8341011924,-1.6079767872,5.599204884000001,932
88172,163939,229756,7.942974620699999,-1.5122638832,5.7284173044,933
88221,163936,229759,7.8053873212000005,-1.4715858990000001,5.6578290377,934
88267,163965,229790,8.0183485326,-1.5948162629,5.761916820800001,935
88315,163949,229770,7.925028451199999,-1.6510475939999998,5.6039905292,936
88368,163953,229796,7.8771719992,-1.6498511827,5.7140603688,937
88433,163952,229823,7.8341011924,-1.4979069476,5.7379885948,938
88509,163938,229802,7.9106715156,-1.6606188843999998,5.6901321428,939
88570,163933,229769,7.7922267969000005,-1.6331014245,5.7092747236,940
88648,163929,229824,7.858029418399999,-1.7312071511,5.6997034332,941
88736,163960,229820,7.9310105077,-1.6223337227999999,5.6195438761,942
88768,163967,229825,7.8951181687,-1.5505490447999999,5.7272208931,943
88748,163980,229825,7.872386354,-1.6211373115,5.6039905292,944
88909,163984,229792,7.8149586116,-1.5038890041,5.6901321428,945
89018,163983,229835,7.9058858704,-1.5086746492999998,5.766702466,946
89087,164010,229856,7.9824561936,-1.4979069476,5.8372907327,947
89125,163989,229864,7.984849016199999,-1.4452648504,5.7702916999,948
89171,164020,229856,7.8628150636,-1.5696916256,5.7188460139999995,949
89197,163984,229884,7.8496545393,-1.6079767872,5.651846981199999,950
89063,163954,229811,7.8341011924,-1.6881363443,5.7332029496,951
88839,163926,229767,7.7718878047999995,-1.579262916,5.8193445632000005,952
88700,163898,229729,8.0183485326,-1.5696916256,5.6566326264,953
88577,163862,229729,7.915457160799999,-1.5278172301,5.761916820800001,954
88456,163897,229728,7.872386354,-1.483550012,5.5896335936,955
88365,163857,229693,7.9106715156,-1.5182459396999999,5.6757752072,956
88339,163877,229726,8.0386875247,-1.55533469,5.7798629903,957
88368,163867,229731,7.896314579999999,-1.55533469,5.624329521299999,958
88396,163883,229730,7.8400832489,-1.531406464,5.747559885199999,959
88367,163893,229761,7.9944203065999995,-1.5601203352,5.605186940499999,960
88337,163915,229732,7.8999038139,-1.6319050132,5.6566326264,961
88452,163897,229798,7.829315547199999,-1.6354942471,5.6614182716,962
88510,163903,229789,7.872386354,-1.4799607781,5.7379885948,963
88556,163906,229820,7.9669028467,-1.6175480776,5.6901321428,964
88602,163911,229805,7.8999038139,-1.5457633996,5.5848479484,965
88680,163945,229796,8.0099736535,-1.6127624323999998,5.7463634739,966
88737,163915,229833,7.9525459111,-1.4548361408000001,5.666203916800001,967
88815,163915,229815,7.920242806,-1.5960126741999998,5.6566326264,968
88877,163923,229825,7.9633136127999995,-1.5601203352,5.7140603688,969
88956,163955,229834,7.7383882884,-1.5517454561000001,5.7092747236,970
89027,163941,229860,7.925028451199999,-1.6079767872,5.7092747236,971
89103,163961,229847,7.957331556300001,-1.5326028753,5.7655060547,972
89167,163953,229857,7.928617685100001,-1.5613167465000002,5.7140603688,973
89266,163979,229838,7.8783684105,-1.5182459396999999,5.6614182716,974
89333,163984,229856,7.8532437732,-1.4979069476,5.776273756399999,975
89448,164012,229930,7.9345997416,-1.603191142,5.6841500863,976
89506,164002,229897,7.8209406681,-1.4464612617,5.7188460139999995,977
89557,164033,229901,8.0147592987,-1.6881363443,5.7044890784,978
89668,164027,229958,7.858029418399999,-1.5218351736,5.6805608524,979
89739,164013,229948,8.0147592987,-1.5900306177,5.5860443597,980
89822,164054,229978,7.8592258297,-1.5936198516,5.6757752072,981
89915,164067,229964,7.8472617167,-1.6115660211,5.6805608524,982
89977,164065,229997,7.7874411516999995,-1.5278172301,5.6566326264,983
89918,164026,229923,7.8149586116,-1.483550012,5.7044890784,984
89748,163948,229866,7.8879397009000005,-1.5756736821000001,5.6805608524,985
89488,163935,229807,7.944171031999999,-1.5086746492999998,5.6004012953,986
89280,163933,229775,7.8532437732,-1.4787643668000001,5.6757752072,987
89222,163922,229773,7.9764741371,-1.5804593273,5.7463634739,988
89052,163926,229720,7.8113693777,-1.5361921092,5.7188460139999995,989
88908,163881,229681,7.8915289348,-1.4572289634,5.6422756908,990
88851,163916,229705,7.896314579999999,-1.4644074312,5.694917788000001,991
88780,163928,229748,7.8388868376,-1.4368899712999998,5.647061336,992
88840,163929,229764,7.791030385599999,-1.5948162629,5.6135618196,993
88840,163938,229742,7.9214392173,-1.531406464,5.5848479484,994
88834,163960,229754,7.915457160799999,-1.5266208188,5.637490045600001,995
88847,163972,229747,7.7395846997,-1.531406464,5.7714881112,996
88912,163951,229797,7.829315547199999,-1.5696916256,5.6757752072,997
88947,163968,229771,7.720442118899999,-1.5445669883000002,5.747559885199999,998
89015,163986,229797,7.8819576444,-1.5649059803999998,5.647061336,999
89061,163992,229797,7.957331556300001,-1.6558332392,5.7236316592000005,1000
89109,163985,229770,7.9070822817,-1.5026925928000001,5.6841500863,1001
89184,163994,229749,7.8759755879,-1.5361921092,5.6901321428,1002
89226,164003,229769,7.8687971201,-1.4703894876999999,5.6231331099999995,1003
89288,163979,229777,7.896314579999999,-1.5708880369,5.7810594016,1004
89352,164014,229814,7.8257263133,-1.5278172301,5.7272208931,1005
89421,163999,229819,7.915457160799999,-1.6019947307,5.8169517405999995,1006
89502,164060,229809,8.0422767586,-1.4500504956,5.6327044004,1007
89569,164008,229883,7.886743289599999,-1.6402798923,5.7559347643,1008
89635,164051,229867,7.9621172015,-1.5122638832,5.74277424,1009
89710,164051,229902,7.9992059518000005,-1.5840485612,5.74277424,1010
89792,164053,229864,7.9011002251999995,-1.5744772707999999,5.694917788000001,1011
89853,164070,229874,7.7395846997,-1.4045868662,5.6566326264,1012
89893,164038,229869,7.8771719992,-1.4476576730000001,5.7236316592000005,1013
89787,163984,229850,7.944171031999999,-1.5278172301,5.7332029496,1014
89563,163953,229756,7.9872418388,-1.5505490447999999,5.6231331099999995,1015
89360,163942,229740,7.890332523500001,-1.6414763036,5.6865429089,1016
89201,163939,229748,7.8879397009000005,-1.5804593273,5.6901321428,1017
89045,163920,229743,7.8819576444,-1.5266208188,5.605186940499999,1018
88872,163907,229683,7.953742322399999,-1.5708880369,5.6291151665,1019
88754,163890,229694,7.8341011924,-1.6749758199999998,5.6901321428,1020
88685,163920,229674,7.8592258297,-1.5936198516,5.6482577473,1021
88689,163929,229704,7.9381889755,-1.5361921092,5.5860443597,1022
88700,163943,229728,7.7874411516999995,-1.579262916,5.7655060547,1023
88693,163931,229772,8.0434731699,-1.5026925928000001,5.6231331099999995,1024
88710,163962,229767,7.915457160799999,-1.5936198516,5.6745787959,1025
88740,163967,229732,7.8209406681,-1.4751751328999998,5.7702916999,1026
88797,163940,229742,7.9238320399,-1.6402798923,5.7523455304,1027
88842,163952,229734,7.9381889755,-1.531406464,5.7571311756,1028
88941,164006,229770,7.7347990545,-1.5409777544,5.651846981199999,1029
88956,163961,229761,7.9525459111,-1.5696916256,5.7846486355,1030
89046,163997,229780,7.9669028467,-1.603191142,5.747559885199999,1031
89126,163989,229785,7.8819576444,-1.6319050132,5.662614682899999,1032
89130,163955,229721,7.915457160799999,-1.5182459396999999,5.6901321428,1033
89179,163992,229758,7.9011002251999995,-1.5505490447999999,5.637490045600001,1034
89256,163994,229757,7.8628150636,-1.6079767872,5.7858450468,1035
89315,164008,229783,7.9477602659,-1.5661023917,5.624329521299999,1036
89398,163990,229817,7.8496545393,-1.5840485612,5.6327044004,1037
89462,164009,229784,7.9334033303,-1.4787643668000001,5.6901321428,1038
89532,164027,229858,7.8101729664,-1.579262916,5.7655060547,1039
89616,164039,229845,7.9621172015,-1.5409777544,5.6614182716,1040
89682,164030,229861,7.9381889755,-1.5134602944999997,5.8037912163000005,1041
89739,164024,229867,7.9094751043,-1.6175480776,5.666203916800001,1042
89802,164055,229863,7.8436724828,-1.5984054967999999,5.6853464976,1043
89865,164076,229837,7.9669028467,-1.5182459396999999,5.7559347643,1044
89947,164072,229892,7.8759755879,-1.6295121905999999,5.7236316592000005,1045
90000,164103,229856,7.915457160799999,-1.5505490447999999,5.6578290377,1046
89987,164045,229874,7.9477602659,-1.4548361408000001,5.670989562,1047
89766,164003,229782,7.872386354,-1.531406464,5.7511491191,1048
89606,163956,229713,7.9489566772,-1.55533469,5.7140603688,1049
89374,163981,229727,7.920242806,-1.5649059803999998,5.6566326264,1050
89230,163966,229720,7.915457160799999,-1.4452648504,5.827719442299999,1051
89070,164002,229743,7.7300134093,-1.5122638832,5.6099725857,1052
88926,163958,229689,7.9046894591,-1.6498511827,5.7140603688,1053
88886,163988,229649,7.915457160799999,-1.5038890041,5.6566326264,1054
88876,164030,229714,7.8065837325,-1.6893327556000002,5.7655060547,1055
88850,164005,229722,8.0542408716,-1.5517454561000001,5.7367921835,1056
88826,163995,229674,7.896314579999999,-1.5888342063999998,5.7798629903,1057
88800,163979,229697,7.8544401845,-1.6319050132,5.6841500863,1058
88824,163995,229742,7.9956167179,-1.6606188843999998,5.5896335936,1059
88862,163998,229764,7.872386354,-1.4560325521,5.6997034332,1060
88897,164053,229789,7.816155022899999,-1.5601203352,5.7128639575,1061
88972,164040,229769,7.872386354,-1.4129617452999998,5.7044890784,1062
88984,164048,229754,7.8149586116,-1.579262916,5.827719442299999,1063
89033,164052,229757,7.8532437732,-1.6175480776,5.7523455304,1064
89022,164047,229731,7.9621172015,-1.5852449725,5.789434280699999,1065
89058,164063,229751,7.9011002251999995,-1.5517454561000001,5.637490045600001,1066
89182,164060,229764,8.115257847899999,-1.4464612617,5.6422756908,1067
89228,164086,229759,7.7539416353,-1.5266208188,5.7750773451,1068
89309,164069,229817,7.9345997416,-1.6773686425999998,5.7463634739,1069
89385,164094,229774,7.9812597822999996,-1.6079767872,5.651846981199999,1070
89481,164089,229785,7.8807612331,-1.4751751328999998,5.6853464976,1071
89491,164101,229842,7.920242806,-1.603191142,5.6075797630999995,1072
89521,164123,229857,7.944171031999999,-1.5900306177,5.74277424,1073
89559,164121,229834,7.896314579999999,-1.5469598109,5.666203916800001,1074
89350,164006,229751,7.9764741371,-1.4691930764,5.5860443597,1075
89127,164027,229656,8.0339018795,-1.5457633996,5.670989562,1076
88865,163988,229683,7.9094751043,-1.5026925928000001,5.74277424,1077
88700,163976,229672,7.8352976037,-1.507478238,5.7714881112,1078
88494,163985,229663,7.972884903200001,-1.4751751328999998,5.7092747236,1079
88359,163914,229629,7.925028451199999,-1.579262916,5.6327044004,1080
88200,163943,229607,7.9345997416,-1.5409777544,5.6757752072,1081
88172,163962,229634,7.8999038139,-1.6498511827,5.8229337971,1082
88191,163958,229645,7.8628150636,-1.5218351736,5.760720409499999,1083
88161,163972,229651,7.9106715156,-1.7168502155,5.6853464976,1084
88148,163968,229694,7.7958160308,-1.5326028753,5.6422756908,1085
88171,164004,229687,7.940581798099999,-1.4715858990000001,5.7140603688,1086
88181,163987,229659,7.824529902,-1.6414763036,5.6997034332,1087
88224,163958,229708,7.8771719992,-1.55533469,5.6997034332,1088
88269,163994,229705,7.9046894591,-1.6223337227999999,5.6757752072,1089
88325,163973,229729,7.944171031999999,-1.4512469069,5.732006538299999,1090
88374,164018,229699,7.9716884919,-1.5840485612,5.647061336,1091
88447,164002,229721,7.9238320399,-1.4799607781,5.7332029496,1092
88494,164001,229747,7.920242806,-1.5661023917,5.5716874241,1093
88563,164035,229760,7.8676007087999995,-1.6833506991,5.6422756908,1094
88618,164032,229739,7.9956167179,-1.7312071511,5.7044890784,1095
88691,164027,229727,7.9669028467,-1.43569356,5.6901321428,1096
88743,164038,229737,8.005188008300001,-1.531406464,5.662614682899999,1097
88834,164061,229785,7.8771719992,-1.5888342063999998,5.7714881112,1098
88902,164062,229818,7.8855468783,-1.6546368279,5.7080783123000005,1099
88969,164071,229802,7.9968131291999995,-1.5230315848999998,5.6997034332,1100
89057,164094,229819,7.942974620699999,-1.4189438018,5.6901321428,1101
89129,164094,229820,7.858029418399999,-1.6354942471,5.7523455304,1102
89213,164083,229836,7.8759755879,-1.5888342063999998,5.694917788000001,1103
89271,164109,229863,7.8915289348,-1.5888342063999998,5.7332029496,1104
89373,164103,229872,8.0291162343,-1.55533469,5.7236316592000005,1105
89432,164077,229892,7.8676007087999995,-1.6797614652,5.7140603688,1106
89486,164128,229868,7.9190463947000005,-1.6223337227999999,5.7188460139999995,1107
89538,164088,229889,7.9238320399,-1.5266208188,5.6805608524,1108
89420,164050,229829,7.890332523500001,-1.4979069476,5.74277424,1109
89089,164001,229735,7.9190463947000005,-1.6319050132,5.6566326264,1110
88842,163982,229711,7.858029418399999,-1.55533469,5.637490045600001,1111
88705,164004,229721,7.872386354,-1.531406464,5.5908300049,1112
88542,164008,229645,8.0004023631,-1.6127624323999998,5.6147582309,1113
88383,163995,229656,7.9011002251999995,-1.5936198516,5.6434721021,1114
88257,163975,229581,7.925028451199999,-1.5026925928000001,5.6997034332,1115
88176,163976,229648,7.920242806,-1.5505490447999999,5.5920264161999995,1116
88192,163974,229703,8.0147592987,-1.5601203352,5.776273756399999,1117
88190,164006,229696,8.0291162343,-1.55533469,5.7415778287,1118
88192,164019,229663,7.9381889755,-1.6223337227999999,5.790630692000001,1119
88205,164015,229727,8.0147592987,-1.4560325521,5.6291151665,1120
88215,164029,229736,7.872386354,-1.5840485612,5.6757752072,1121
88257,164039,229763,7.8472617167,-1.5888342063999998,5.7702916999,1122
88304,164058,229709,7.942974620699999,-1.5840485612,5.647061336,1123
88358,164048,229771,7.7730842161,-1.5457633996,5.7559347643,1124
88417,164049,229754,7.9011002251999995,-1.603191142,5.679364441100001,1125
88478,164041,229780,7.9908310727,-1.6462619487999999,5.694917788000001,1126
88535,164061,229742,7.645068207,-1.6546368279,5.670989562,1127
88602,164105,229769,7.9190463947000005,-1.4560325521,5.7044890784,1128
88661,164065,229816,7.9956167179,-1.6833506991,5.647061336,1129
88731,164101,229787,7.925028451199999,-1.55533469,5.666203916800001,1130
88795,164088,229769,7.8915289348,-1.4380863826,5.760720409499999,1131
88858,164101,229749,7.920242806,-1.6366906583999998,5.5860443597,1132
88914,164077,229853,7.8819576444,-1.5266208188,5.7188460139999995,1133
88977,164097,229789,7.9058858704,-1.5649059803999998,5.6004012953,1134
89068,164113,229845,7.8592258297,-1.5170495284,5.6327044004,1135
89100,164106,229811,7.9345997416,-1.5230315848999998,5.637490045600001,1136
89036,164096,229777,7.968099258,-1.6893327556000002,5.651846981199999,1137
88775,163967,229716,7.816155022899999,-1.6414763036,5.7044890784,1138
88538,163972,229665,7.7156564737,-1.5218351736,5.7044890784,1139
88364,163974,229658,7.9669028467,-1.579262916,5.7272208931,1140
88213,163977,229642,7.886743289599999,-1.5888342063999998,5.6841500863,1141
88066,163943,229655,7.968099258,-1.6127624323999998,5.6327044004,1142
87931,163944,229671,7.8664042975,-1.5349956979000001,5.6279187552000005,1143
87896,163982,229682,7.953742322399999,-1.3710873497999998,5.7750773451,1144
87905,164011,229702,7.8771719992,-1.5469598109,5.7702916999,1145
87912,164004,229620,7.9956167179,-1.5756736821000001,5.6219366987,1146
87893,163957,229677,7.848458128,-1.4943177136999999,5.8133625067,1147
87898,163982,229703,8.005188008300001,-1.5601203352,5.6039905292,1148
87927,164000,229704,7.9058858704,-1.5661023917,5.7044890784,1149
87972,164007,229747,7.848458128,-1.3459627125,5.8408799666,1150
88020,163988,229724,7.928617685100001,-1.5278172301,5.6099725857,1151
88072,164002,229756,8.005188008300001,-1.4799607781,5.7750773451,1152
88129,163993,229744,7.8927253461,-1.5230315848999998,5.74277424,1153
88186,164002,229769,7.800601675999999,-1.6175480776,5.6985070219,1154
88272,164021,229731,7.7012995381,-1.4177473905,5.6279187552000005,1155
88321,164032,229762,7.8999038139,-1.5170495284,5.7188460139999995,1156
88383,164034,229793,8.0099736535,-1.531406464,5.7750773451,1157
88435,164042,229754,7.8532437732,-1.5804593273,5.6757752072,1158
88510,164042,229774,7.858029418399999,-1.5828521499000001,5.6422756908,1159
88592,164070,229823,7.8305119585,-1.4991033588999998,5.666203916800001,1160
88665,164073,229808,7.844868894099999,-1.5218351736,5.74277424,1161
88741,164074,229857,7.848458128,-1.7036896912000001,5.7571311756,1162
88814,164087,229846,8.1260255496,-1.531406464,5.6853464976,1163
88886,164132,229824,8.0291162343,-1.3375878334,5.666203916800001,1164
88971,164112,229879,7.9106715156,-1.5457633996,5.7188460139999995,1165
89049,164144,229932,7.8975109913,-1.6761722313,5.5621161337,1166
89146,164151,229929,7.944171031999999,-1.6618152957,5.6757752072,1167
89121,164153,229885,7.9058858704,-1.5888342063999998,5.7092747236,1168
88891,164029,229834,7.9142607494999995,-1.6211373115,5.7092747236,1169
88602,163969,229740,7.8544401845,-1.4847464232999998,5.7511491191,1170
88360,163972,229679,8.005188008300001,-1.5732808595,5.7511491191,1171
88194,164009,229688,7.8532437732,-1.603191142,5.7092747236,1172
88028,163964,229641,7.8532437732,-1.5266208188,5.7128639575,1173
87809,163981,229636,7.9393853868,-1.3986048097,5.7750773451,1174
87668,163974,229682,7.8388868376,-1.6378870697,5.7798629903,1175
87640,163996,229668,7.9525459111,-1.5278172301,5.7655060547,1176
87702,164016,229679,7.8388868376,-1.6175480776,5.6985070219,1177
87699,164022,229730,7.9956167179,-1.5373885205000002,5.6614182716,1178
87694,164055,229767,7.925028451199999,-1.5230315848999998,5.6614182716,1179
87702,164010,229731,7.9334033303,-1.7120645703,5.651846981199999,1180
87761,164040,229792,7.8676007087999995,-1.5601203352,5.7332029496,1181
87809,164067,229780,7.9345997416,-1.6785650538999999,5.6291151665,1182
87862,164047,229761,7.7958160308,-1.5696916256,5.7128639575,1183
87901,164046,229785,7.8388868376,-1.5361921092,5.6183474648,1184
87982,164042,229760,7.8999038139,-1.4464612617,5.8085768615,1185
88043,164069,229804,7.858029418399999,-1.6283157793,5.637490045600001,1186
88091,164069,229794,7.8771719992,-1.4656038425,5.6901321428,1187
88175,164058,229821,7.968099258,-1.4177473905,5.7655060547,1188
88245,164059,229814,7.8759755879,-1.4081761001,5.6614182716,1189
88319,164106,229854,8.057830105499999,-1.6642081183,5.7176496027,1190
88398,164076,229881,7.8400832489,-1.5182459396999999,5.7092747236,1191
88472,164110,229868,7.8544401845,-1.6079767872,5.6279187552000005,1192
88527,164095,229870,8.0386875247,-1.4668002538,5.8037912163000005,1193
88605,164121,229881,7.915457160799999,-1.4189438018,5.670989562,1194
88702,164121,229906,7.890332523500001,-1.6079767872,5.761916820800001,1195
88777,164128,229953,7.7730842161,-1.4991033588999998,5.7655060547,1196
88775,164144,229949,7.9106715156,-1.4273186809,5.7523455304,1197
88559,164077,229834,8.005188008300001,-1.5888342063999998,5.7188460139999995,1198
88312,164001,229763,7.8544401845,-1.4703894876999999,5.7092747236,1199
88076,163976,229764,7.928617685100001,-1.5840485612,5.7523455304,1200
87906,163972,229742,7.915457160799999,-1.6223337227999999,5.7140603688,1201
87714,163983,229703,8.0063844196,-1.4512469069,5.633900811699999,1202
87558,163934,229682,7.8819576444,-1.5326028753,5.647061336,1203
87476,163976,229710,7.8436724828,-1.4895320685,5.6805608524,1204
87472,163984,229776,7.9525459111,-1.5266208188,5.7128639575,1205
87473,163969,229784,7.8341011924,-1.5457633996,5.694917788000001,1206
87482,163960,229744,7.9669028467,-1.531406464,5.7714881112,1207
87529,163998,229752,7.8915289348,-1.4751751328999998,5.7332029496,1208
87500,164001,229771,7.957331556300001,-1.5086746492999998,5.6578290377,1209
87577,164008,229777,8.0530444603,-1.5565311013,5.7523455304,1210
87603,163990,229815,8.0099736535,-1.4715858990000001,5.7511491191,1211
87656,164017,229788,7.9585279676,-1.5744772707999999,5.7044890784,1212
87728,164011,229817,8.0291162343,-1.4931213024,5.647061336,1213
87803,164024,229783,7.9716884919,-1.7264215058999999,5.5094740364999994,1214
87861,164013,229851,7.8676007087999995,-1.5984054967999999,5.747559885199999,1215
87928,164020,229830,7.8771719992,-1.5134602944999997,5.6279187552000005,1216
87994,164035,229827,7.925028451199999,-1.507478238,5.651846981199999,1217
88083,164075,229846,7.7682985709,-1.5840485612,5.7188460139999995,1218
88140,164046,229863,7.9812597822999996,-1.507478238,5.694917788000001,1219
88207,164043,229887,7.9824561936,-1.531406464,5.5944192388,1220
88276,164057,229851,7.8999038139,-1.5888342063999998,5.6865429089,1221
88359,164071,229873,7.9058858704,-1.531406464,5.666203916800001,1222
88481,164050,229892,7.8664042975,-1.6606188843999998,5.7128639575,1223
88507,164086,229966,7.953742322399999,-1.5744772707999999,5.7990055710999995,1224
88499,164053,229914,7.986045427500001,-1.4751751328999998,5.6135618196,1225
88691,164077,229938,7.9669028467,-1.5266208188,5.732006538299999,1226
88745,164097,229963,7.915457160799999,-1.3986048097,5.7272208931,1227
88784,164106,229940,7.920242806,-1.5601203352,5.74277424,1228
88572,164156,229976,7.6725856669,-1.5002997702,5.747559885199999,1229
88415,164345,230052,7.8053873212000005,-1.6546368279,5.7798629903,1230
88379,164494,230137,7.829315547199999,-1.579262916,5.647061336,1231
88305,164576,230223,7.942974620699999,-1.5517454561000001,5.789434280699999,1232
88138,164544,230177,7.8664042975,-1.6079767872,5.7092747236,1233
88038,164446,230127,7.9298140964,-1.579262916,5.827719442299999,1234
87897,164389,230111,7.953742322399999,-1.6378870697,5.6853464976,1235
87959,164387,230095,7.8053873212000005,-1.4799607781,5.7128639575,1236
87960,164300,230049,7.9058858704,-1.5170495284,5.818148151899999,1237
87872,164235,229985,7.9477602659,-1.5684952143000002,5.747559885199999,1238
87822,164141,229899,7.9824561936,-1.6019947307,5.7140603688,1239
87800,164071,229889,7.9142607494999995,-1.5421741657,5.7750773451,1240
87797,164017,229842,7.8771719992,-1.5409777544,5.789434280699999,1241
87802,164010,229792,7.8053873212000005,-1.4225330357,5.776273756399999,1242
87843,164069,229846,7.8113693777,-1.5744772707999999,5.6853464976,1243
87870,164048,229872,7.8640114749,-1.5218351736,5.7858450468,1244
87868,164030,229872,7.8819576444,-1.7551353771,5.7272208931,1245
88000,164066,229861,7.8676007087999995,-1.4416756165,5.7332029496,1246
88044,164064,229878,7.9393853868,-1.5409777544,5.6135618196,1247
88068,164070,229885,7.942974620699999,-1.5026925928000001,5.6853464976,1248
88181,164077,229919,8.0530444603,-1.6462619487999999,5.7044890784,1249
88255,164073,229890,7.8915289348,-1.579262916,5.760720409499999,1250
88372,164087,229898,7.8676007087999995,-1.6223337227999999,5.6578290377,1251
88390,164089,229886,7.8209406681,-1.4033904549,5.651846981199999,1252
88496,164102,229922,7.8628150636,-1.5373885205000002,5.7750773451,1253
88587,164127,229923,7.8628150636,-1.5601203352,5.7044890784,1254
88507,164114,229947,8.0004023631,-1.6127624323999998,5.6805608524,1255
88280,164058,229877,7.9334033303,-1.6414763036,5.7188460139999995,1256
88018,163993,229780,7.9238320399,-1.4512469069,5.5621161337,1257
87827,163958,229763,7.9944203065999995,-1.6307086019,5.7224352479,1258
87670,163969,229776,7.925028451199999,-1.5505490447999999,5.6901321428,1259
87547,164010,229816,7.957331556300001,-1.6067803759000001,5.6769716185,1260
87425,163979,229759,7.9106715156,-1.5852449725,5.760720409499999,1261
87310,163960,229754,7.9238320399,-1.5637095691,5.7044890784,1262
87270,163969,229801,7.896314579999999,-1.4560325521,5.6913285541,1263
87366,163962,229803,7.972884903200001,-1.5601203352,5.7248280705,1264
87389,163978,229893,7.9812597822999996,-1.7120645703,5.6386864569,1265
87384,163968,229794,7.8436724828,-1.603191142,5.7284173044,1266
87425,163970,229837,8.0853475654,-1.5888342063999998,5.693721376699999,1267
87490,163952,229819,7.915457160799999,-1.5026925928000001,5.637490045600001,1268
87543,163973,229853,7.8388868376,-1.4847464232999998,5.7044890784,1269
87595,163971,229850,7.9058858704,-1.5601203352,5.732006538299999,1270
87613,163989,229853,7.872386354,-1.579262916,5.7810594016,1271
87790,164000,229864,7.8388868376,-1.507478238,5.8085768615,1272
87868,164014,229875,7.896314579999999,-1.5170495284,5.679364441100001,1273
87936,164021,229923,7.9238320399,-1.5361921092,5.6913285541,1274
88040,164024,229935,7.9417782094,-1.5888342063999998,5.7188460139999995,1275
88117,164031,229859,7.9633136127999995,-1.5696916256,5.747559885199999,1276
88198,164012,229885,7.8759755879,-1.6139588437,5.662614682899999,1277
88292,164043,229952,7.9058858704,-1.6354942471,5.670989562,1278
88383,164049,229976,7.8771719992,-1.722832272,5.6901321428,1279
88486,164085,229942,7.7922267969000005,-1.5984054967999999,5.6805608524,1280
88592,164070,229999,7.816155022899999,-1.5302100526999998,5.694917788000001,1281
88590,164059,229950,8.0147592987,-1.6749758199999998,5.6674003281,1282
88402,163992,229922,7.9058858704,-1.6307086019,5.7415778287,1283
88213,163911,229827,7.9094751043,-1.5517454561000001,5.6745787959,1284
88025,163927,229785,7.9011002251999995,-1.6163516663,5.6757752072,1285
87927,163926,229778,7.8915289348,-1.6319050132,5.747559885199999,1286
87744,163915,229755,7.8400832489,-1.4847464232999998,5.7367921835,1287
87633,163904,229707,8.005188008300001,-1.5421741657,5.7044890784,1288
87562,163888,229727,7.9393853868,-1.5266208188,5.6853464976,1289
87603,163920,229744,8.0063844196,-1.5182459396999999,5.7846486355,1290
87619,163923,229841,7.8915289348,-1.7216358607,5.7092747236,1291
87644,163928,229849,7.953742322399999,-1.6175480776,5.7858450468,1292
87705,163967,229782,8.0147592987,-1.6127624323999998,5.6721859733,1293
87716,163947,229799,7.9669028467,-1.4656038425,5.6566326264,1294
87750,163968,229784,7.7814590952,-1.4703894876999999,5.7846486355,1295
87844,163964,229791,7.8975109913,-1.5649059803999998,5.7236316592000005,1296
87926,163978,229819,7.9298140964,-1.5409777544,5.6697931507,1297
87990,163986,229860,8.005188008300001,-1.5744772707999999,5.7379885948,1298
88077,164002,229813,7.920242806,-1.6737794087,5.7332029496,1299
88151,163965,229815,7.8771719992,-1.6271193679999998,5.8372907327,1300
88227,163964,229835,7.896314579999999,-1.5266208188,5.6279187552000005,1301
88309,163982,229886,7.8053873212000005,-1.5326028753,5.7571311756,1302
88402,164021,229867,7.942974620699999,-1.4883356572,5.7523455304,1303
88498,164034,229907,7.7826555065,-1.5361921092,5.6997034332,1304
88594,164043,229903,8.0291162343,-1.5505490447999999,5.6422756908,1305
88676,164021,229850,7.819744256799999,-1.5326028753,5.7188460139999995,1306
88773,164041,229889,7.9142607494999995,-1.6271193679999998,5.666203916800001,1307
88858,164033,229867,7.8149586116,-1.5361921092,5.7236316592000005,1308
88955,164043,229919,7.848458128,-1.5218351736,5.665007505499999,1309
89051,164051,229959,7.9238320399,-1.5278172301,5.7236316592000005,1310
89130,164072,229952,7.8771719992,-1.5780665047,5.7655060547,1311
89234,164087,229956,7.8388868376,-1.6307086019,5.7188460139999995,1312
89319,164092,230028,7.9190463947000005,-1.531406464,5.6805608524,1313
89376,164097,230008,8.0004023631,-1.55533469,5.605186940499999,1314
89295,164053,229987,7.9489566772,-1.5744772707999999,5.6853464976,1315
89110,163989,229846,8.0087772422,-1.5469598109,5.651846981199999,1316
88975,164010,229823,7.9764741371,-1.7084753364,5.747559885199999,1317
88896,164026,229821,8.070990629799999,-1.4991033588999998,5.647061336,1318
88779,164000,229854,7.7862447404,-1.5026925928000001,5.6997034332,1319
88689,164000,229796,7.8915289348,-1.4847464232999998,5.7188460139999995,1320
88647,164061,229806,7.9011002251999995,-1.5361921092,5.5848479484,1321
88660,164046,229803,7.896314579999999,-1.5469598109,5.6291151665,1322
88683,164058,229858,7.858029418399999,-1.6606188843999998,5.666203916800001,1323
88739,164036,229808,8.005188008300001,-1.4500504956,5.6769716185,1324
88743,164018,229807,8.0422767586,-1.5038890041,5.670989562,1325
88776,164068,229838,8.0291162343,-1.5936198516,5.694917788000001,1326
88831,164109,229841,7.7682985709,-1.6271193679999998,5.7044890784,1327
88871,164095,229870,7.8915289348,-1.5780665047,5.7224352479,1328
88950,164081,229854,7.9525459111,-1.5361921092,5.651846981199999,1329
89030,164093,229903,7.8388868376,-1.5888342063999998,5.666203916800001,1330
89135,164085,229863,7.8185478454999995,-1.6737794087,5.7379885948,1331
89166,164097,229891,7.928617685100001,-1.6019947307,5.7463634739,1332
89253,164120,229833,8.0901332106,-1.5708880369,5.7092747236,1333
89309,164089,229889,7.9190463947000005,-1.6259229567,5.7571311756,1334
89349,164113,229923,7.8771719992,-1.5936198516,5.6291151665,1335
89475,164146,229920,7.8149586116,-1.6654045296,5.6805608524,1336
89515,164115,229970,7.8436724828,-1.5649059803999998,5.710471134900001,1337
89592,164157,229930,8.057830105499999,-1.4656038425,5.694917788000001,1338
89674,164158,229924,7.9896346614,-1.5696916256,5.7236316592000005,1339
89775,164120,229975,7.8149586116,-1.5696916256,5.7954163372,1340
89867,164139,229961,7.8400832489,-1.5218351736,5.7272208931,1341
89948,164200,229989,7.9011002251999995,-1.6079767872,5.7332029496,1342
90001,164185,229966,7.7922267969000005,-1.4703894876999999,5.7044890784,1343
89960,164134,229954,7.7922267969000005,-1.5266208188,5.7176496027,1344
89793,164073,229879,7.9908310727,-1.579262916,5.6853464976,1345
89628,164069,229798,8.0422767586,-1.5409777544,5.6327044004,1346
89518,164098,229828,7.925028451199999,-1.3794622289,5.789434280699999,1347
89354,164099,229815,7.9011002251999995,-1.4787643668000001,5.7511491191,1348
89269,164081,229749,8.0961152671,-1.5361921092,5.732006538299999,1349
89182,164058,229728,7.9298140964,-1.4321043261,5.7272208931,1350
89132,164068,229794,7.9238320399,-1.4309079148000001,5.761916820800001,1351
89173,164071,229802,7.8065837325,-1.6366906583999998,5.6614182716,1352
89167,164079,229794,7.816155022899999,-1.507478238,5.6853464976,1353
89180,164089,229824,8.0901332106,-1.3794622289,5.760720409499999,1354
89201,164082,229794,7.925028451199999,-1.5409777544,5.7188460139999995,1355
89234,164090,229797,7.890332523500001,-1.5278172301,5.7140603688,1356
89277,164095,229777,7.9393853868,-1.579262916,5.6853464976,1357
89333,164133,229876,7.8771719992,-1.5696916256,5.74277424,1358
89392,164149,229852,7.8341011924,-1.5361921092,5.7655060547,1359
89466,164165,229829,7.8341011924,-1.5134602944999997,5.666203916800001,1360
89533,164143,229911,7.7814590952,-1.5469598109,5.666203916800001,1361
89599,164138,229902,7.911867926899999,-1.6642081183,5.6578290377,1362
89661,164130,229879,7.8341011924,-1.4608181972999998,5.666203916800001,1363
89735,164135,229855,7.9011002251999995,-1.5649059803999998,5.8085768615,1364
89811,164170,229852,7.800601675999999,-1.6079767872,5.8420763779,1365
89870,164113,229851,7.8855468783,-1.6079767872,5.6841500863,1366
89936,164115,229878,7.9669028467,-1.4225330357,5.74277424,1367
90005,164133,229826,8.0147592987,-1.603191142,5.6757752072,1368
90075,164124,229844,7.848458128,-1.5840485612,5.6422756908,1369
90155,164167,229862,7.925028451199999,-1.6175480776,5.694917788000001,1370
90231,164168,229892,7.9633136127999995,-1.5589239239000001,5.7092747236,1371
90289,164175,229906,8.0243305891,-1.5230315848999998,5.651846981199999,1372
90201,164121,229878,7.8628150636,-1.304088317,5.7092747236,1373
90023,164016,229777,7.9142607494999995,-1.5708880369,5.7080783123000005,1374
89832,164032,229714,7.9106715156,-1.4608181972999998,5.637490045600001,1375
89707,164047,229661,7.8915289348,-1.5170495284,5.789434280699999,1376
89638,164061,229666,7.7575308692,-1.5266208188,5.74277424,1377
89522,164059,229676,7.9393853868,-1.579262916,5.637490045600001,1378
89433,164055,229659,7.8771719992,-1.5278172301,5.7284173044,1379
89402,164079,229685,7.9489566772,-1.5649059803999998,5.7942199259,1380
89399,164075,229697,8.0769726863,-1.5972090855,5.5716874241,1381
89403,164070,229694,7.9633136127999995,-1.5026925928000001,5.7188460139999995,1382
89395,164076,229705,7.8388868376,-1.55533469,5.637490045600001,1383
89440,164075,229762,7.925028451199999,-1.3507483577,5.7655060547,1384
89492,164057,229716,7.844868894099999,-1.5409777544,5.7092747236,1385
89470,164067,229725,8.0339018795,-1.6175480776,5.6805608524,1386
89515,164082,229754,7.9633136127999995,-1.55533469,5.7463634739,1387
89556,164074,229744,7.9334033303,-1.5457633996,5.7379885948,1388
89620,164091,229717,7.873582765299999,-1.5122638832,5.6231331099999995,1389
89659,164078,229737,7.8640114749,-1.5744772707999999,5.7032926670999995,1390
89738,164096,229749,7.953742322399999,-1.5696916256,5.732006538299999,1391
89830,164084,229774,7.972884903200001,-1.5409777544,5.7140603688,1392
89819,164112,229726,7.8341011924,-1.4464612617,5.6757752072,1393
89944,164120,229778,7.861618652300001,-1.6941184008,5.637490045600001,1394
89961,164110,229727,7.8341011924,-1.6701901747999999,5.789434280699999,1395
89973,164096,229796,8.057830105499999,-1.5852449725,5.7332029496,1396
90122,164129,229736,7.9011002251999995,-1.5601203352,5.7272208931,1397
90175,164117,229739,7.8341011924,-1.6175480776,5.6745787959,1398
90228,164093,229757,7.8676007087999995,-1.6737794087,5.693721376699999,1399
90320,164108,229771,7.915457160799999,-1.6319050132,5.74277424,1400
90379,164142,229780,7.858029418399999,-1.5218351736,5.653043392499999,1401
90436,164160,229832,7.9310105077,-1.6127624323999998,5.7798629903,1402
90524,164168,229833,7.9190463947000005,-1.5996019081000001,5.6805608524,1403
90617,164178,229790,8.0243305891,-1.5014961814999999,5.694917788000001,1404
90623,164152,229809,7.932206919,-1.5182459396999999,5.7367921835,1405
90437,164100,229710,7.848458128,-1.4895320685,5.7415778287,1406
90171,164099,229699,7.896314579999999,-1.6462619487999999,5.747559885199999,1407
90128,164096,229636,7.9058858704,-1.5696916256,5.6865429089,1408
90023,164113,229714,7.9298140964,-1.7264215058999999,5.6566326264,1409
89908,164088,229672,7.8017980873,-1.4979069476,5.7343993608999995,1410
89818,164089,229637,7.7958160308,-1.4656038425,5.74277424,1411
89801,164089,229606,7.8640114749,-1.7407784414999998,5.651846981199999,1412
89772,164122,229704,7.8281191359,-1.5661023917,5.7176496027,1413
89786,164128,229655,7.7718878047999995,-1.6307086019,5.6745787959,1414
89766,164136,229633,8.0434731699,-1.5744772707999999,5.7188460139999995,1415
89767,164117,229690,7.8915289348,-1.603191142,5.6757752072,1416
89774,164136,229715,7.9238320399,-1.4644074312,5.666203916800001,1417
89867,164140,229707,8.0099736535,-1.5266208188,5.7284173044,1418
89879,164127,229741,7.791030385599999,-1.6737794087,5.6279187552000005,1419
89917,164174,229744,7.9393853868,-1.5206387623,5.7798629903,1420
89963,164162,229740,7.8532437732,-1.5505490447999999,5.6386864569,1421
90013,164166,229738,7.9142607494999995,-1.4273186809,5.670989562,1422
90097,164151,229709,7.858029418399999,-1.6163516663,5.8420763779,1423
90153,164185,229762,7.8951181687,-1.6498511827,5.5860443597,1424
90197,164200,229773,7.8568330071,-1.6019947307,5.7655060547,1425
90292,164204,229731,7.777869861299999,-1.5457633996,5.7272208931,1426
90307,164218,229775,7.9764741371,-1.5840485612,5.666203916800001,1427
90376,164200,229764,7.861618652300001,-1.5756736821000001,5.6482577473,1428
90430,164207,229760,7.9238320399,-1.5744772707999999,5.6614182716,1429
90473,164161,229759,7.8927253461,-1.5505490447999999,5.693721376699999,1430
90545,164211,229774,7.942974620699999,-1.6319050132,5.6985070219,1431
90626,164201,229809,7.9298140964,-1.8460626359,5.7571311756,1432
90692,164255,229810,7.749155990099999,-1.5326028753,5.670989562,1433
90739,164256,229782,7.886743289599999,-1.6354942471,5.670989562,1434
90668,164205,229781,7.8676007087999995,-1.6259229567,5.6757752072,1435
90482,164136,229684,7.9393853868,-1.6091731985,5.7379885948,1436
90265,164108,229643,7.8628150636,-1.6223337227999999,5.7810594016,1437
90088,164130,229613,7.8496545393,-1.4428720278,5.6602218603,1438
89988,164138,229575,7.928617685100001,-1.5984054967999999,5.7284173044,1439
89869,164157,229589,7.896314579999999,-1.4691930764,5.6231331099999995,1440
89683,164091,229585,7.7347990545,-1.4608181972999998,5.7044890784,1441
89633,164131,229587,7.925028451199999,-1.4464612617,5.789434280699999,1442
89619,164138,229610,7.9190463947000005,-1.4991033588999998,5.6805608524,1443
89586,164135,229633,7.8436724828,-1.5649059803999998,5.7236316592000005,1444
89584,164147,229606,8.005188008300001,-1.5134602944999997,5.6602218603,1445
89567,164116,229612,8.0530444603,-1.6785650538999999,5.7224352479,1446
89564,164144,229608,7.957331556300001,-1.7264215058999999,5.7044890784,1447
89578,164166,229666,7.872386354,-1.6067803759000001,5.662614682899999,1448
89630,164136,229680,7.986045427500001,-1.6642081183,5.6327044004,1449
89635,164175,229703,7.848458128,-1.483550012,5.7750773451,1450
89689,164180,229663,8.0386875247,-1.5278172301,5.7332029496,1451
89724,164171,229716,7.8305119585,-1.5900306177,5.6805608524,1452
89801,164171,229638,7.858029418399999,-1.6163516663,5.7379885948,1453
89815,164144,229646,7.8209406681,-1.531406464,5.6291151665,1454
89842,164145,229662,7.9046894591,-1.55533469,5.7523455304,1455
89899,164169,229661,7.8436724828,-1.6307086019,5.74277424,1456
89986,164188,229671,7.9812597822999996,-1.5936198516,5.732006538299999,1457
90002,164173,229700,7.9908310727,-1.4428720278,5.7332029496,1458
89991,164174,229646,7.8664042975,-1.6462619487999999,5.74277424,1459
90164,164175,229660,7.8628150636,-1.5505490447999999,5.7846486355,1460
90208,164148,229702,7.8999038139,-1.55533469,5.7284173044,1461
90273,164160,229670,8.057830105499999,-1.5505490447999999,5.6327044004,1462
90313,164175,229657,7.7874411516999995,-1.5696916256,5.7284173044,1463
90377,164180,229730,7.8676007087999995,-1.5840485612,5.7523455304,1464
90437,164175,229674,7.9058858704,-1.5457633996,5.670989562,1465
90505,164220,229694,7.9058858704,-1.6654045296,5.6757752072,1466
90600,164218,229687,7.8819576444,-1.5122638832,5.7044890784,1467
90574,164233,229735,7.8544401845,-1.4368899712999998,5.6147582309,1468
90434,164152,229635,7.9489566772,-1.5326028753,5.666203916800001,1469
90172,164110,229591,7.8819576444,-1.5182459396999999,5.6135618196,1470
89962,164118,229558,7.9968131291999995,-1.6223337227999999,5.6901321428,1471
89767,164147,229557,7.6773713121,-1.5182459396999999,5.74277424,1472
89583,164131,229516,7.9633136127999995,-1.7204394494000002,5.732006538299999,1473
89394,164126,229493,7.9956167179,-1.5577275125999999,5.6853464976,1474
89367,164138,229522,7.8975109913,-1.5278172301,5.6805608524,1475
89325,164154,229531,7.8388868376,-1.5984054967999999,5.7140603688,1476
89284,164150,229497,7.8628150636,-1.603191142,5.6805608524,1477
89251,164143,229571,7.8999038139,-1.5421741657,5.7092747236,1478
89210,164153,229525,8.051848049,-1.4751751328999998,5.760720409499999,1479
89211,164127,229584,7.9716884919,-1.5744772707999999,5.6889357315,1480
89209,164122,229539,7.9046894591,-1.5517454561000001,5.7092747236,1481
89190,164155,229539,7.8999038139,-1.6654045296,5.732006538299999,1482
89218,164151,229564,7.7862447404,-1.5924234403000002,5.7140603688,1483
89240,164140,229611,7.7539416353,-1.5601203352,5.7140603688,1484
89288,164146,229564,7.8771719992,-1.4991033588999998,5.7463634739,1485
89320,164145,229596,7.872386354,-1.6223337227999999,5.7140603688,1486
89371,164161,229573,7.9070822817,-1.4428720278,5.670989562,1487
89398,164172,229609,7.7730842161,-1.4416756165,5.7523455304,1488
89464,164180,229601,7.8915289348,-1.5744772707999999,5.7463634739,1489
89517,164174,229605,7.8544401845,-1.6366906583999998,5.679364441100001,1490
89561,164159,229597,7.762316514399999,-1.5649059803999998,5.6482577473,1491
89622,164170,229585,7.7395846997,-1.6606188843999998,5.6422756908,1492
89675,164172,229569,7.9011002251999995,-1.4991033588999998,5.6805608524,1493
89746,164179,229593,7.9393853868,-1.507478238,5.681757263700001,1494
89791,164163,229606,7.8628150636,-1.6797614652,5.7559347643,1495
89793,164171,229560,7.8400832489,-1.4321043261,5.8325050875,1496
89590,164142,229538,7.944171031999999,-1.7084753364,5.6901321428,1497
89315,164063,229451,7.8999038139,-1.5505490447999999,5.7415778287,1498
89087,164089,229451,7.8532437732,-1.5218351736,5.7798629903,1499
88921,164112,229470,7.992027484,-1.5038890041,5.7559347643,1500
88790,164125,229414,7.829315547199999,-1.5744772707999999,5.5860443597,1501
88628,164109,229398,7.953742322399999,-1.6785650538999999,5.7128639575,1502
88545,164081,229435,7.9334033303,-1.5948162629,5.6291151665,1503
88506,164109,229426,7.8532437732,-1.4129617452999998,5.6087761744,1504
88485,164125,229436,8.005188008300001,-1.3986048097,5.7379885948,1505
88474,164093,229471,7.8676007087999995,-1.5565311013,5.7236316592000005,1506
88458,164129,229471,7.7958160308,-1.6833506991,5.6327044004,1507
88469,164126,229459,7.7922267969000005,-1.6498511827,5.7188460139999995,1508
88496,164133,229460,8.005188008300001,-1.5840485612,5.7272208931,1509
88513,164110,229472,8.0817583315,-1.6366906583999998,5.6614182716,1510
88553,164113,229473,8.051848049,-1.4141581566,5.7655060547,1511
88611,164130,229522,7.890332523500001,-1.55533469,5.7044890784,1512
88652,164135,229543,8.0147592987,-1.5373885205000002,5.7176496027,1513
88711,164132,229533,7.7826555065,-1.531406464,5.6997034332,1514
88777,164132,229554,7.920242806,-1.7024932798999999,5.7080783123000005,1515
88833,164130,229522,7.8879397009000005,-1.4703894876999999,5.6805608524,1516
88890,164137,229549,7.7347990545,-1.5601203352,5.6614182716,1517
88957,164140,229560,7.9345997416,-1.7359927963,5.74277424,1518
