green,red,IR,acc_x,acc_y,acc_z,sample_index
80440,169037,210733,-0.0346959277,-9.7531449176,0.6843472636,1
80547,169024,210764,0.056231331100000004,-9.661021247499999,0.7968099258,2
80701,169031,210767,0.0167497582,-9.7196454012,0.7429714173,3
80811,169060,210813,0.0382851616,-9.745966449800001,0.7262216591,4
80642,169073,210770,-0.08374879099999999,-9.7340023368,0.7082754896000001,5
80122,169030,210753,-0.0047856452,-9.7758767323,0.7010970218,6
79592,169000,210666,-0.1734796385,-9.744770038499999,0.7561319416,7
79256,168959,210657,-0.0047856452,-9.745966449800001,0.7525427077,8
79112,168933,210607,-0.0095712904,-9.700502820399999,0.7082754896000001,9
79084,168929,210635,0.0287138712,-9.774680321,0.7501498851,10
79131,168947,210662,-0.022731814700000002,-9.852447055499999,0.6364908116,11
79390,168994,210698,0.0526420972,-9.7519485063,0.7345965382,12
79596,169000,210702,0.035892339,-9.7052884656,0.7082754896000001,13
79753,168994,210681,-0.0047856452,-9.7842516114,0.6424728680999999,14
79867,169034,210722,0.0346959277,-9.7770731436,0.6747759731999999,15
79894,169023,210679,-0.1926222193,-9.8021977809,0.8135596839999999,16
80068,168976,210720,-0.0071784678,-9.7938229018,0.7142575461,17
80201,169004,210696,-0.023928226,-9.7603233854,0.7310073043,18
80322,168992,210701,-0.071784678,-9.665806892700001,0.7082754896000001,19
80459,168997,210732,0.0753739119,-9.7519485063,0.7393821834000001,20
80595,169033,210729,-0.059820565,-9.7794659662,0.7345965382,21
80760,169056,210774,0.0095712904,-9.812965482600001,0.7573283529,22
80869,169053,210781,-0.08135596839999999,-9.9026963301,0.7082754896000001,23
80939,169017,210767,-0.0035892339,-9.7351987481,0.6843472636,24
80745,169049,210747,-0.11964113,-9.6981099978,0.7716852885,25
80262,169071,210763,0.0275174599,-9.808179837399999,0.7393821834000001,26
79749,169028,210666,-0.0574277424,-9.7435736272,0.7489534738,27
79442,168956,210674,0.1040877831,-9.8895358058,0.6843472636,28
79365,168950,210659,-0.0334995164,-9.7136633447,0.6783652070999999,29
79376,168972,210650,0.0382851616,-9.7423772159,0.7238288365000001,30
79477,169014,210699,-0.059820565,-9.7698946758,0.8219345630999999,31
79619,169005,210720,-0.021535403399999997,-9.786644434,0.7752745223999999,32
79886,169051,210714,-0.0526420972,-9.822536773,0.6580262149999999,33
80024,169018,210703,-0.0095712904,-9.7698946758,0.7609175868,34
80116,169047,210729,-0.062213387599999996,-9.661021247499999,0.6532405698,35
80173,169049,210733,-0.0669990328,-9.8560362894,0.7668996433,36
80325,169027,210728,-0.0550349198,-9.8189475391,0.6077769404,37
80450,169069,210762,0.0071784678,-9.7340023368,0.6604190376,38
80583,169019,210777,-0.040677984199999996,-9.6586284249,0.7202396026000001,39
80714,169049,210774,0.044267218100000005,-9.579665279099999,0.7429714173,40
80858,169052,210776,-0.0191425808,-9.93021379,0.6317051664,41
81015,169081,210752,0.0346959277,-9.812965482600001,0.6508477471999999,42
81137,169081,210794,0.071784678,-9.6083791503,0.7250252478,43
81175,169093,210827,-0.045463629400000004,-9.7124669334,0.6484549246,44
80730,169083,210784,-0.0071784678,-9.7076812882,0.7034898444000001,45
80252,169046,210784,-0.0574277424,-9.687342296099999,0.6532405698,46
79887,168997,210662,0.0323031051,-9.7603233854,0.6723831506,47
79726,168976,210657,-0.0023928226,-9.757930562799999,0.7118647235000001,48
79702,169019,210676,-0.0574277424,-9.732805925500001,0.7836494015,49
79765,168967,210669,-0.0693918554,-9.7591269741,0.7130611348,50
79986,169000,210702,-0.095712904,-9.7818587888,0.7166503687,51
80186,169070,210726,-0.0035892339,-9.7340023368,0.6484549246,52
80381,169078,210756,-0.0550349198,-9.8249295956,0.729810893,53
80462,169127,210740,-0.1591227029,-9.7770731436,0.6747759731999999,54
80539,169088,210816,-0.023928226,-9.750752095,0.7334001269,55
80698,169135,210757,-0.0586241537,-9.6765745944,0.622133876,56
80785,169137,210774,-0.0646062102,-9.7926264905,0.7010970218,57
80818,169094,210797,-0.023928226,-9.8309116521,0.7369893608,58
81062,169100,210791,0.0,-9.714859756,0.693918554,59
81162,169093,210801,-0.0263210486,-9.8763752815,0.7082754896000001,60
81333,169108,210798,-0.1220339526,-9.798608546999999,0.7932206919,61
81420,169097,210835,-0.0047856452,-9.7136633447,0.6771687957999999,62
81108,169120,210814,-0.023928226,-9.728020280299999,0.7322037156,63
80558,169070,210762,0.0191425808,-9.7555377402,0.7621139981,64
80322,169028,210735,-0.031106693799999998,-9.7064848769,0.7477570625,65
80183,168969,210704,0.059820565,-9.846464999,0.7597211755,66
80158,169004,210690,-0.0669990328,-9.7914300792,0.6891329087999999,67
80248,168986,210728,0.0011964113,-9.7088776995,0.7118647235000001,68
80431,169035,210700,0.0586241537,-9.7698946758,0.6987041992,69
80683,169106,210733,-0.0023928226,-9.675378183100001,0.6771687957999999,70
80765,169147,210756,0.044267218100000005,-9.8141618939,0.7142575461,71
80852,169106,210740,-0.015553346899999999,-9.7172525786,0.6520441585,72
80924,169115,210788,-0.0646062102,-9.8380901199,0.7070790783,73
81028,169157,210781,0.0945164927,-9.8033941922,0.6340979889999999,74
81163,169164,210822,0.0167497582,-9.511469835,0.7549355303,75
81251,169157,210820,-0.12442677519999999,-9.7722874984,0.6352944003,76
81373,169125,210819,0.1160518961,-9.7351987481,0.7465606512,77
81491,169128,210833,0.0143569356,-9.7399843933,0.622133876,78
81599,169142,210850,-0.1004985492,-9.7914300792,0.8291130308999999,79
81439,169116,210792,-0.0023928226,-9.750752095,0.7142575461,80
80968,169078,210766,0.0023928226,-9.6933243526,0.6795616184,81
80546,169038,210732,0.011964113,-9.767501853199999,0.6963113766000001,82
80315,169008,210707,0.0538385085,-9.7292166916,0.7680960546,83
80260,168999,210683,0.021535403399999997,-9.8668039911,0.7740781111,84
80267,169001,210647,0.0179461695,-9.7244310464,0.7238288365000001,85
80425,169012,210701,0.0263210486,-9.7052884656,0.7621139981,86
80593,168926,210713,0.0586241537,-9.7531449176,0.6891329087999999,87
80731,169077,210737,0.0466600407,-9.6622176588,0.6364908116,88
80779,169079,210729,-0.059820565,-9.7698946758,0.6879364975,89
80901,169097,210746,-0.062213387599999996,-9.7196454012,0.7668996433,90
80975,169183,210749,-0.09690931529999999,-9.7088776995,0.693918554,91
81078,169113,210751,-0.0538385085,-9.6849494735,0.6340979889999999,92
81198,169135,210758,-0.1339980656,-9.745966449800001,0.7573283529,93
81308,169132,210771,-0.04307080679999999,-9.7686982645,0.7908278692999999,94
81482,169167,210737,-0.1339980656,-9.7471628611,0.6867400861999999,95
81452,169172,210791,-0.0693918554,-9.8177511278,0.6819544409999999,96
81096,169092,210760,0.0382851616,-9.7184489899,0.6293123438,97
80529,168977,210705,-0.11964113,-9.8153583052,0.7692924659,98
80107,168978,210612,0.0346959277,-9.7292166916,0.71784678,99
79887,168989,210662,-0.0873380249,-9.7340023368,0.7202396026000001,100
79771,168953,210589,0.0729810893,-9.7256274577,0.6747759731999999,101
79810,168918,210605,0.0550349198,-9.808179837399999,0.6652046827999999,102
79965,169004,210618,0.0083748791,-9.7495556837,0.6568298037,103
80156,169037,210656,0.0,-9.754341328899999,0.7908278692999999,104
80259,169059,210661,-0.0334995164,-9.6693961266,0.6640082715,105
80392,169059,210660,-0.015553346899999999,-9.8033941922,0.6927221427000001,106
80451,169114,210675,0.056231331100000004,-9.8093762487,0.7238288365000001,107
80536,169102,210629,-0.0143569356,-9.8177511278,0.6628118601999999,108
80646,169063,210676,-0.040677984199999996,-9.774680321,0.6771687957999999,109
80749,169078,210702,0.015553346899999999,-9.732805925500001,0.6364908116,110
80858,169052,210693,-0.0346959277,-9.6646104814,0.6317051664,111
80919,169035,210707,0.1746760498,-9.774680321,0.6484549246,112
80569,169057,210710,0.1112662509,-9.688538707400001,0.6293123438,113
79984,169005,210651,-0.021535403399999997,-9.7292166916,0.6843472636,114
79497,168949,210594,-0.0047856452,-9.6849494735,0.6987041992,115
79122,168876,210542,0.0167497582,-9.812965482600001,0.705882667,116
79087,168902,210541,-0.0753739119,-9.745966449800001,0.8362914987,117
79023,168922,210549,-0.031106693799999998,-9.7256274577,0.7489534738,118
79205,168975,210564,-0.023928226,-9.634700198900001,0.7812565789,119
79457,168965,210599,-0.071784678,-9.7794659662,0.741775006,120
79649,168976,210584,-0.12323036389999999,-9.728020280299999,0.6831508522999999,121
79798,169006,210627,0.0,-9.7363951594,0.6891329087999999,122
79897,169000,210609,0.0,-9.7363951594,0.6891329087999999,123
79995,168977,210595,0.0,-9.7363951594,0.6891329087999999,124
80102,169006,210608,0.0,-9.7363951594,0.6891329087999999,125
80221,168992,210635,0.0,-9.7363951594,0.6891329087999999,126
80360,169012,210587,0.0,-9.7363951594,0.6891329087999999,127
80478,168985,210668,0.0,-9.7363951594,0.6891329087999999,128
80386,168961,210636,0.0,-9.7363951594,0.6891329087999999,129
79858,168999,210650,0.0,-9.7363951594,0.6891329087999999,130
79259,168945,210562,0.0,-9.7363951594,0.6891329087999999,131
78894,168893,210502,0.0,-9.7363951594,0.6891329087999999,132
78670,168852,210508,0.0,-9.7363951594,0.6891329087999999,133
78638,168867,210508,0.0,-9.7363951594,0.6891329087999999,134
78711,168903,210507,0.0,-9.7363951594,0.6891329087999999,135
78918,168912,210541,0.0,-9.7363951594,0.6891329087999999,136
79164,168923,210590,0.0,-9.7363951594,0.6891329087999999,137
79373,168942,210604,0.0,-9.7363951594,0.6891329087999999,138
79495,168935,210579,-0.0382851616,-9.7244310464,0.7369893608,139
79575,168953,210626,-0.0382851616,-9.7244310464,0.7369893608,140
79686,168937,210636,-0.0382851616,-9.7244310464,0.7369893608,141
79806,168930,210620,-0.0382851616,-9.7244310464,0.7369893608,142
79941,168941,210669,-0.0382851616,-9.7244310464,0.7369893608,143
80087,168946,210657,-0.0382851616,-9.7244310464,0.7369893608,144
80219,168965,210676,0.17587246110000002,-9.8153583052,0.7381857721,145
80248,168980,210691,0.17587246110000002,-9.8153583052,0.7381857721,146
79846,168943,210660,0.17587246110000002,-9.8153583052,0.7381857721,147
79231,168936,210621,0.17587246110000002,-9.8153583052,0.7381857721,148
78792,168886,210552,0.17587246110000002,-9.8153583052,0.7381857721,149
78533,168859,210460,0.17587246110000002,-9.8153583052,0.7381857721,150
78478,168864,210514,0.17587246110000002,-9.8153583052,0.7381857721,151
78520,168885,210586,-0.0502492746,-9.6825566509,0.7429714173,152
78648,168927,210538,-0.010767701699999998,-9.7399843933,0.6508477471999999,153
78901,168908,210565,-0.0502492746,-9.7651090306,0.8027919822999999,154
79121,168954,210592,-0.0323031051,-9.8680004024,0.6771687957999999,155
79279,168928,210611,-0.0323031051,-9.8680004024,0.6771687957999999,156
79391,168916,210648,-0.0323031051,-9.8680004024,0.6771687957999999,157
79498,168941,210647,-0.0323031051,-9.8680004024,0.6771687957999999,158
79623,168927,210659,-0.0323031051,-9.8680004024,0.6771687957999999,159
79769,168958,210639,-0.0323031051,-9.8680004024,0.6771687957999999,160
79915,168970,210666,-0.0323031051,-9.8680004024,0.6771687957999999,161
80061,168986,210664,-0.0323031051,-9.8680004024,0.6771687957999999,162
80202,168970,210691,-0.0323031051,-9.8680004024,0.6771687957999999,163
80317,168989,210691,-0.0323031051,-9.8680004024,0.6771687957999999,164
80109,168997,210675,-0.0323031051,-9.8680004024,0.6771687957999999,165
79527,168983,210671,-0.0323031051,-9.8680004024,0.6771687957999999,166
79031,168944,210571,-0.0323031051,-9.8680004024,0.6771687957999999,167
78750,168904,210537,-0.0323031051,-9.8680004024,0.6771687957999999,168
78642,168865,210599,-0.0323031051,-9.8680004024,0.6771687957999999,169
78670,168884,210620,-0.0323031051,-9.8680004024,0.6771687957999999,170
78824,168881,210580,-0.0323031051,-9.8680004024,0.6771687957999999,171
79085,168937,210582,-0.0323031051,-9.8680004024,0.6771687957999999,172
79313,168962,210659,-0.0323031051,-9.8680004024,0.6771687957999999,173
79477,168942,210646,-0.0323031051,-9.8680004024,0.6771687957999999,174
79632,168955,210665,-0.0323031051,-9.8680004024,0.6771687957999999,175
79725,168945,210692,-0.0323031051,-9.8680004024,0.6771687957999999,176
79857,168934,210716,-0.0323031051,-9.8680004024,0.6771687957999999,177
80002,168948,210716,-0.0323031051,-9.8680004024,0.6771687957999999,178
80148,168991,210724,-0.0323031051,-9.8680004024,0.6771687957999999,179
80285,168987,210721,-0.0323031051,-9.8680004024,0.6771687957999999,180
80428,169008,210728,-0.0323031051,-9.8680004024,0.6771687957999999,181
80572,168970,210721,-0.0323031051,-9.8680004024,0.6771687957999999,182
80678,169023,210753,-0.0323031051,-9.8680004024,0.6771687957999999,183
80427,168999,210784,-0.0323031051,-9.8680004024,0.6771687957999999,184
79889,169027,210722,-0.0323031051,-9.8680004024,0.6771687957999999,185
79449,168963,210676,-0.0323031051,-9.8680004024,0.6771687957999999,186
79222,168896,210611,-0.0323031051,-9.8680004024,0.6771687957999999,187
79191,168896,210623,-0.0323031051,-9.8680004024,0.6771687957999999,188
79251,168914,210637,-0.0323031051,-9.8680004024,0.6771687957999999,189
79433,168925,210669,-0.0323031051,-9.8680004024,0.6771687957999999,190
79669,169014,210705,-0.0323031051,-9.8680004024,0.6771687957999999,191
79885,169017,210688,-0.0323031051,-9.8680004024,0.6771687957999999,192
80029,169034,210763,-0.0323031051,-9.8680004024,0.6771687957999999,193
80184,169019,210731,-0.0323031051,-9.8680004024,0.6771687957999999,194
80280,169019,210732,-0.0323031051,-9.8680004024,0.6771687957999999,195
80420,169046,210760,-0.0323031051,-9.8680004024,0.6771687957999999,196
81407,169082,210789,0.0550349198,-9.7483592724,0.6963113766000001,197
81564,169092,210802,0.0550349198,-9.7483592724,0.6963113766000001,198
81736,169080,210851,0.0550349198,-9.7483592724,0.6963113766000001,199
81896,169095,210832,0.0550349198,-9.7483592724,0.6963113766000001,200
81940,169089,210805,0.0550349198,-9.7483592724,0.6963113766000001,201
81692,169086,210846,0.0550349198,-9.7483592724,0.6963113766000001,202
81318,169076,210826,0.0550349198,-9.7483592724,0.6963113766000001,203
81051,169020,210771,0.0550349198,-9.7483592724,0.6963113766000001,204
80969,168978,210722,0.0550349198,-9.7483592724,0.6963113766000001,205
81003,169003,210722,0.0550349198,-9.7483592724,0.6963113766000001,206
81152,169006,210756,0.0550349198,-9.7483592724,0.6963113766000001,207
81342,169059,210789,0.0550349198,-9.7483592724,0.6963113766000001,208
81560,169086,210777,0.0550349198,-9.7483592724,0.6963113766000001,209
81695,169110,210819,0.0550349198,-9.7483592724,0.6963113766000001,210
81790,169117,210838,0.0550349198,-9.7483592724,0.6963113766000001,211
81877,169131,210832,0.0550349198,-9.7483592724,0.6963113766000001,212
82001,169153,210871,0.0550349198,-9.7483592724,0.6963113766000001,213
82121,169155,210843,0.0550349198,-9.7483592724,0.6963113766000001,214
82241,169127,210821,0.0550349198,-9.7483592724,0.6963113766000001,215
82400,169133,210826,0.0550349198,-9.7483592724,0.6963113766000001,216
82543,169134,210883,0.0550349198,-9.7483592724,0.6963113766000001,217
82592,169127,210880,0.0550349198,-9.7483592724,0.6963113766000001,218
82323,169156,210868,0.0550349198,-9.7483592724,0.6963113766000001,219
81914,169065,210806,0.0550349198,-9.7483592724,0.6963113766000001,220
81606,169032,210741,0.0550349198,-9.7483592724,0.6963113766000001,221
81451,169035,210759,0.0849452023,-9.7220382238,0.705882667,222
81445,169024,210701,0.0849452023,-9.7220382238,0.705882667,223
81511,169028,210758,0.0849452023,-9.7220382238,0.705882667,224
81668,169044,210765,0.0849452023,-9.7220382238,0.705882667,225
81846,169078,210755,0.0849452023,-9.7220382238,0.705882667,226
81984,169118,210769,0.0849452023,-9.7220382238,0.705882667,227
82092,169126,210806,0.0849452023,-9.7220382238,0.705882667,228
82160,169162,210756,0.0849452023,-9.7220382238,0.705882667,229
82224,169163,210799,0.0849452023,-9.7220382238,0.705882667,230
82346,169158,210819,0.0849452023,-9.7220382238,0.705882667,231
82456,169161,210800,0.0849452023,-9.7220382238,0.705882667,232
82562,169143,210813,0.0849452023,-9.7220382238,0.705882667,233
82671,169130,210820,0.0849452023,-9.7220382238,0.705882667,234
82512,169141,210783,0.0849452023,-9.7220382238,0.705882667,235
82053,169068,210777,0.0849452023,-9.7220382238,0.705882667,236
81597,169012,210724,0.0849452023,-9.7220382238,0.705882667,237
81258,168981,210665,0.0849452023,-9.7220382238,0.705882667,238
81090,168950,210653,0.0849452023,-9.7220382238,0.705882667,239
81057,168949,210676,0.0849452023,-9.7220382238,0.705882667,240
81112,169004,210664,0.0849452023,-9.7220382238,0.705882667,241
81265,169032,210659,0.0849452023,-9.7220382238,0.705882667,242
81409,169072,210690,0.0849452023,-9.7220382238,0.705882667,243
81530,169100,210714,0.0849452023,-9.7220382238,0.705882667,244
81599,169089,210756,0.0849452023,-9.7220382238,0.705882667,245
81643,169091,210752,0.0849452023,-9.7220382238,0.705882667,246
81733,169069,210711,0.0849452023,-9.7220382238,0.705882667,247
81829,169049,210753,0.0849452023,-9.7220382238,0.705882667,248
81918,169060,210757,0.0849452023,-9.7220382238,0.705882667,249
82023,169049,210760,0.0849452023,-9.7220382238,0.705882667,250
81906,169012,210735,0.0849452023,-9.7220382238,0.705882667,251
81394,169015,210724,0.0849452023,-9.7220382238,0.705882667,252
80820,168986,210655,0.0849452023,-9.7220382238,0.705882667,253
80408,168936,210638,-0.12681959780000002,-9.6765745944,0.7082754896000001,254
80181,168915,210613,-0.12681959780000002,-9.6765745944,0.7082754896000001,255
80102,168917,210591,-0.12681959780000002,-9.6765745944,0.7082754896000001,256
80136,168937,210616,-0.12681959780000002,-9.6765745944,0.7082754896000001,257
80283,168966,210613,-0.12681959780000002,-9.6765745944,0.7082754896000001,258
80492,168983,210646,-0.12681959780000002,-9.6765745944,0.7082754896000001,259
80631,169016,210720,-0.12681959780000002,-9.6765745944,0.7082754896000001,260
80723,168993,210664,-0.12681959780000002,-9.6765745944,0.7082754896000001,261
80780,168994,210665,-0.12681959780000002,-9.6765745944,0.7082754896000001,262
80872,168979,210675,-0.12681959780000002,-9.6765745944,0.7082754896000001,263
80953,168983,210715,-0.12681959780000002,-9.6765745944,0.7082754896000001,264
81057,168979,210665,-0.12681959780000002,-9.6765745944,0.7082754896000001,265
81176,168962,210746,-0.12681959780000002,-9.6765745944,0.7082754896000001,266
81266,168962,210725,-0.12681959780000002,-9.6765745944,0.7082754896000001,267
81005,168957,210674,-0.12681959780000002,-9.6765745944,0.7082754896000001,268
80397,168960,210626,-0.12681959780000002,-9.6765745944,0.7082754896000001,269
79801,168882,210590,-0.12681959780000002,-9.6765745944,0.7082754896000001,270
79421,168851,210553,-0.12681959780000002,-9.6765745944,0.7082754896000001,271
79227,168836,210547,-0.12681959780000002,-9.6765745944,0.7082754896000001,272
79167,168844,210608,-0.12681959780000002,-9.6765745944,0.7082754896000001,273
79243,168875,210599,-0.12681959780000002,-9.6765745944,0.7082754896000001,274
79437,168906,210613,-0.12681959780000002,-9.6765745944,0.7082754896000001,275
79659,168898,210652,-0.12681959780000002,-9.6765745944,0.7082754896000001,276
79814,168919,210653,-0.12681959780000002,-9.6765745944,0.7082754896000001,277
79939,168887,210685,-0.12681959780000002,-9.6765745944,0.7082754896000001,278
80010,168912,210674,-0.12681959780000002,-9.6765745944,0.7082754896000001,279
80113,168927,210675,-0.12681959780000002,-9.6765745944,0.7082754896000001,280
80240,168908,210673,-0.12681959780000002,-9.6765745944,0.7082754896000001,281
80319,168925,210673,-0.12681959780000002,-9.6765745944,0.7082754896000001,282
80462,168924,210696,-0.12681959780000002,-9.6765745944,0.7082754896000001,283
80604,168924,210722,-0.12681959780000002,-9.6765745944,0.7082754896000001,284
80618,168936,210718,-0.12681959780000002,-9.6765745944,0.7082754896000001,285
80206,168925,210657,-0.12681959780000002,-9.6765745944,0.7082754896000001,286
79525,168895,210627,-0.12681959780000002,-9.6765745944,0.7082754896000001,287
79015,168840,210569,-0.12681959780000002,-9.6765745944,0.7082754896000001,288
78749,168820,210578,-0.12681959780000002,-9.6765745944,0.7082754896000001,289
78664,168788,210617,-0.12681959780000002,-9.6765745944,0.7082754896000001,290
78716,168814,210591,-0.12681959780000002,-9.6765745944,0.7082754896000001,291
78881,168850,210612,-0.12681959780000002,-9.6765745944,0.7082754896000001,292
79125,168865,210650,-0.12681959780000002,-9.6765745944,0.7082754896000001,293
79333,168856,210614,-0.12681959780000002,-9.6765745944,0.7082754896000001,294
79493,168878,210696,-0.12681959780000002,-9.6765745944,0.7082754896000001,295
79158,168856,210615,-0.023928226,-9.7220382238,0.6508477471999999,296
78810,168818,210636,-0.023928226,-9.7220382238,0.6508477471999999,297
78697,168813,210632,-0.023928226,-9.7220382238,0.6508477471999999,298
78724,168822,210631,-0.023928226,-9.7220382238,0.6508477471999999,299
78856,168855,210678,-0.023928226,-9.7220382238,0.6508477471999999,300
79086,168859,210670,-0.023928226,-9.7220382238,0.6508477471999999,301
79330,168876,210680,-0.023928226,-9.7220382238,0.6508477471999999,302
79524,168877,210720,-0.023928226,-9.7220382238,0.6508477471999999,303
79653,168899,210684,-0.023928226,-9.7220382238,0.6508477471999999,304
79760,168891,210742,-0.023928226,-9.7220382238,0.6508477471999999,305
79886,168896,210748,-0.023928226,-9.7220382238,0.6508477471999999,306
80012,168920,210769,-0.023928226,-9.7220382238,0.6508477471999999,307
80162,168909,210745,-0.0167497582,-9.7603233854,0.6963113766000001,308
80326,168956,210774,-0.0167497582,-9.7603233854,0.6963113766000001,309
80480,168943,210791,-0.0167497582,-9.7603233854,0.6963113766000001,310
80595,168958,210790,-0.0167497582,-9.7603233854,0.6963113766000001,311
80484,168960,210772,-0.0167497582,-9.7603233854,0.6963113766000001,312
79950,168933,210740,-0.0167497582,-9.7603233854,0.6963113766000001,313
79443,168878,210710,-0.0167497582,-9.7603233854,0.6963113766000001,314
79168,168884,210694,-0.0167497582,-9.7603233854,0.6963113766000001,315
79084,168841,210670,-0.0167497582,-9.7603233854,0.6963113766000001,316
79117,168879,210664,-0.0167497582,-9.7603233854,0.6963113766000001,317
79279,168898,210726,-0.0167497582,-9.7603233854,0.6963113766000001,318
79523,168915,210725,-0.0167497582,-9.7603233854,0.6963113766000001,319
79747,168925,210746,-0.0167497582,-9.7603233854,0.6963113766000001,320
79927,168948,210764,-0.047856452,-9.675378183100001,0.7130611348,321
80051,168924,210762,-0.047856452,-9.675378183100001,0.7130611348,322
80180,168969,210806,-0.047856452,-9.675378183100001,0.7130611348,323
80304,168950,210790,-0.047856452,-9.675378183100001,0.7130611348,324
80465,168976,210847,-0.047856452,-9.675378183100001,0.7130611348,325
80616,168974,210819,-0.047856452,-9.675378183100001,0.7130611348,326
80770,168977,210826,-0.047856452,-9.675378183100001,0.7130611348,327
80922,169003,210850,-0.047856452,-9.675378183100001,0.7130611348,328
81083,169009,210833,-0.047856452,-9.675378183100001,0.7130611348,329
81175,169023,210855,-0.047856452,-9.675378183100001,0.7130611348,330
80928,169021,210857,-0.047856452,-9.675378183100001,0.7130611348,331
80437,168992,210776,-0.047856452,-9.675378183100001,0.7130611348,332
80031,168941,210753,-0.047856452,-9.675378183100001,0.7130611348,333
79848,168932,210719,-0.047856452,-9.675378183100001,0.7130611348,334
79821,168937,210748,-0.047856452,-9.675378183100001,0.7130611348,335
79910,168914,210742,-0.047856452,-9.675378183100001,0.7130611348,336
80089,168949,210741,-0.047856452,-9.675378183100001,0.7130611348,337
80333,169002,210812,-0.047856452,-9.675378183100001,0.7130611348,338
80528,169009,210840,-0.047856452,-9.675378183100001,0.7130611348,339
80679,168998,210850,-0.1112662509,-9.7076812882,0.6891329087999999,340
80811,169020,210847,-0.1112662509,-9.7076812882,0.6891329087999999,341
80914,168982,210871,0.0574277424,-9.7483592724,0.6245266986,342
81061,169055,210857,0.0059820565,-9.762716208,0.7621139981,343
81195,169024,210854,-0.040677984199999996,-9.6514499571,0.6867400861999999,344
81364,169012,210876,-0.0610169763,-9.728020280299999,0.6867400861999999,345
81549,169013,210851,0.0011964113,-9.8249295956,0.7010970218,346
81695,168942,210883,0.022731814700000002,-9.8057870148,0.6293123438,347
81809,169029,210929,0.0095712904,-9.702895643,0.7549355303,348
81661,169074,210880,0.021535403399999997,-9.750752095,0.7345965382,349
81197,169056,210866,-0.0729810893,-9.8715896363,0.7836494015,350
80897,168987,210781,-0.0693918554,-9.6861458848,0.729810893,351
80774,168999,210754,-0.0035892339,-9.710074110799999,0.7609175868,352
80726,168991,210757,-0.0669990328,-9.811769071299999,0.7226324252,353
80865,168959,210763,-0.0765703232,-9.8033941922,0.7716852885,354
81032,169013,210805,-0.0538385085,-9.767501853199999,0.7573283529,355
81262,169076,210833,-0.045463629400000004,-9.808179837399999,0.7453642399,356
81416,169089,210852,0.0334995164,-9.7914300792,0.5970092387,357
81543,168984,210883,-0.10648060570000001,-9.6993064091,0.7166503687,358
81655,169112,210865,-0.0502492746,-9.8668039911,0.7393821834000001,359
81793,169096,210858,-0.0323031051,-9.8273224182,0.7633104094,360
81889,169126,210877,-0.071784678,-9.822536773,0.7561319416,361
81991,169099,210879,-0.0023928226,-9.750752095,0.7070790783,362
82154,169064,210903,-0.0275174599,-9.6777710057,0.6795616184,363
82316,169082,210945,-0.023928226,-9.714859756,0.71784678,364
82455,169086,210894,-0.023928226,-9.714859756,0.71784678,365
82427,169077,210887,-0.023928226,-9.714859756,0.71784678,366
82106,169077,210868,-0.023928226,-9.714859756,0.71784678,367
81705,169028,210792,-0.023928226,-9.714859756,0.71784678,368
81427,169000,210806,-0.023928226,-9.714859756,0.71784678,369
81348,169005,210793,-0.023928226,-9.714859756,0.71784678,370
81367,168990,210787,-0.023928226,-9.714859756,0.71784678,371
81481,169002,210777,-0.023928226,-9.714859756,0.71784678,372
81654,169029,210791,-0.023928226,-9.714859756,0.71784678,373
81825,169088,210817,-0.023928226,-9.714859756,0.71784678,374
81939,169092,210838,-0.023928226,-9.714859756,0.71784678,375
82023,169115,210842,-0.023928226,-9.714859756,0.71784678,376
82121,169114,210891,-0.023928226,-9.714859756,0.71784678,377
82221,169089,210817,-0.023928226,-9.714859756,0.71784678,378
82346,169094,210828,0.1399801221,-9.7160561673,0.6771687957999999,379
82439,169072,210905,0.1399801221,-9.7160561673,0.6771687957999999,380
82564,169101,210860,0.1399801221,-9.7160561673,0.6771687957999999,381
82632,169074,210890,0.1399801221,-9.7160561673,0.6771687957999999,382
82415,169064,210874,0.1399801221,-9.7160561673,0.6771687957999999,383
81941,169035,210756,0.1399801221,-9.7160561673,0.6771687957999999,384
81526,168976,210736,0.0526420972,-9.6681997153,0.7286144817,385
81248,168992,210730,0.015553346899999999,-9.7890372566,0.6604190376,386
81148,168958,210704,0.015553346899999999,-9.7890372566,0.6604190376,387
81131,168990,210716,0.015553346899999999,-9.7890372566,0.6604190376,388
81240,169023,210724,0.015553346899999999,-9.7890372566,0.6604190376,389
81411,169001,210726,0.015553346899999999,-9.7890372566,0.6604190376,390
81569,169030,210788,0.015553346899999999,-9.7890372566,0.6604190376,391
81668,169057,210749,0.015553346899999999,-9.7890372566,0.6604190376,392
81730,169080,210753,0.015553346899999999,-9.7890372566,0.6604190376,393
81830,169082,210808,0.015553346899999999,-9.7890372566,0.6604190376,394
81906,169086,210806,0.015553346899999999,-9.7890372566,0.6604190376,395
81994,169061,210802,0.015553346899999999,-9.7890372566,0.6604190376,396
82110,169054,210815,0.015553346899999999,-9.7890372566,0.6604190376,397
82146,169041,210795,-0.09930213789999999,-9.7938229018,0.7238288365000001,398
81861,169022,210782,-0.09930213789999999,-9.7938229018,0.7238288365000001,399
81280,168993,210756,-0.09930213789999999,-9.7938229018,0.7238288365000001,400
80793,168940,210666,-0.09930213789999999,-9.7938229018,0.7238288365000001,401
80471,168918,210650,-0.09930213789999999,-9.7938229018,0.7238288365000001,402
80320,168911,210661,-0.09930213789999999,-9.7938229018,0.7238288365000001,403
80248,168927,210609,-0.09930213789999999,-9.7938229018,0.7238288365000001,404
80354,168980,210670,-0.09930213789999999,-9.7938229018,0.7238288365000001,405
80540,168983,210708,-0.09930213789999999,-9.7938229018,0.7238288365000001,406
80715,168997,210703,-0.09930213789999999,-9.7938229018,0.7238288365000001,407
80826,169014,210732,-0.09930213789999999,-9.7938229018,0.7238288365000001,408
80917,169003,210703,-0.09930213789999999,-9.7938229018,0.7238288365000001,409
80992,168992,210746,-0.09930213789999999,-9.7938229018,0.7238288365000001,410
81090,168984,210753,0.044267218100000005,-9.6825566509,0.9008977089,411
81190,168989,210729,0.044267218100000005,-9.6825566509,0.9008977089,412
81322,168984,210698,0.044267218100000005,-9.6825566509,0.9008977089,413
81409,168992,210743,0.044267218100000005,-9.6825566509,0.9008977089,414
81351,169000,210754,0.044267218100000005,-9.6825566509,0.9008977089,415
80846,169020,210749,0.044267218100000005,-9.6825566509,0.9008977089,416
80226,168935,210677,-0.021535403399999997,-9.7830552001,0.705882667,417
79768,168890,210639,0.0981057266,-9.7076812882,0.7812565789,418
79483,168853,210590,-0.0287138712,-9.8177511278,0.6999006105000001,419
79383,168870,210604,-0.0287138712,-9.8177511278,0.6999006105000001,420
79402,168895,210653,-0.0287138712,-9.8177511278,0.6999006105000001,421
79557,168939,210592,-0.0287138712,-9.8177511278,0.6999006105000001,422
79779,168942,210665,-0.0287138712,-9.8177511278,0.6999006105000001,423
79957,168924,210636,-0.0287138712,-9.8177511278,0.6999006105000001,424
80071,168959,210708,-0.0287138712,-9.8177511278,0.6999006105000001,425
80190,168947,210668,-0.0287138712,-9.8177511278,0.6999006105000001,426
80259,168937,210668,-0.0287138712,-9.8177511278,0.6999006105000001,427
80373,168934,210677,-0.0287138712,-9.8177511278,0.6999006105000001,428
80501,168952,210684,-0.0287138712,-9.8177511278,0.6999006105000001,429
80626,168964,210699,-0.0287138712,-9.8177511278,0.6999006105000001,430
80757,168975,210747,-0.0287138712,-9.8177511278,0.6999006105000001,431
80873,168983,210734,-0.0287138712,-9.8177511278,0.6999006105000001,432
80946,169013,210726,-0.0287138712,-9.8177511278,0.6999006105000001,433
80623,169018,210706,-0.0287138712,-9.8177511278,0.6999006105000001,434
79981,168981,210673,-0.0287138712,-9.8177511278,0.6999006105000001,435
79418,168940,210630,-0.0789631458,-9.6825566509,0.6999006105000001,436
79083,168893,210644,-0.0789631458,-9.6825566509,0.6999006105000001,437
78950,168853,210639,-0.0789631458,-9.6825566509,0.6999006105000001,438
78953,168875,210646,-0.0789631458,-9.6825566509,0.6999006105000001,439
79056,168888,210617,-0.0789631458,-9.6825566509,0.6999006105000001,440
79302,168889,210710,-0.0789631458,-9.6825566509,0.6999006105000001,441
79529,168923,210698,-0.0789631458,-9.6825566509,0.6999006105000001,442
79653,168911,210689,-0.0789631458,-9.6825566509,0.6999006105000001,443
79764,168886,210704,-0.0789631458,-9.6825566509,0.6999006105000001,444
79852,168925,210712,-0.0789631458,-9.6825566509,0.6999006105000001,445
79961,168908,210698,-0.0789631458,-9.6825566509,0.6999006105000001,446
80077,168916,210727,-0.0789631458,-9.6825566509,0.6999006105000001,447
80202,168954,210731,-0.0789631458,-9.6825566509,0.6999006105000001,448
80343,168977,210761,-0.0789631458,-9.6825566509,0.6999006105000001,449
80498,168962,210748,-0.0789631458,-9.6825566509,0.6999006105000001,450
80603,169006,210775,-0.0789631458,-9.6825566509,0.6999006105000001,451
80383,168975,210773,-0.0789631458,-9.6825566509,0.6999006105000001,452
79794,169003,210719,-0.0789631458,-9.6825566509,0.6999006105000001,453
79266,168930,210679,-0.0789631458,-9.6825566509,0.6999006105000001,454
78948,168912,210615,-0.0789631458,-9.6825566509,0.6999006105000001,455
78840,168927,210617,-0.0741775006,-9.738787982,0.6783652070999999,456
78867,168910,210634,-0.0741775006,-9.738787982,0.6783652070999999,457
79006,168920,210669,-0.0741775006,-9.738787982,0.6783652070999999,458
79267,168927,210705,-0.0741775006,-9.738787982,0.6783652070999999,459
79489,168953,210701,-0.0741775006,-9.738787982,0.6783652070999999,460
79671,168959,210756,-0.0741775006,-9.738787982,0.6783652070999999,461
79773,168972,210740,-0.0741775006,-9.738787982,0.6783652070999999,462
79876,168922,210725,-0.0741775006,-9.738787982,0.6783652070999999,463
79974,168960,210751,-0.0741775006,-9.738787982,0.6783652070999999,464
80113,168946,210768,-0.0741775006,-9.738787982,0.6783652070999999,465
80249,168990,210785,-0.0741775006,-9.738787982,0.6783652070999999,466
80405,168983,210752,-0.0741775006,-9.738787982,0.6783652070999999,467
80561,169020,210787,-0.0741775006,-9.738787982,0.6783652070999999,468
80531,169005,210791,-0.0741775006,-9.738787982,0.6783652070999999,469
80102,168983,210789,-0.0741775006,-9.738787982,0.6783652070999999,470
79555,168971,210741,-0.0741775006,-9.738787982,0.6783652070999999,471
79199,168896,210709,-0.0741775006,-9.738787982,0.6783652070999999,472
79044,168910,210665,-0.0741775006,-9.738787982,0.6783652070999999,473
79047,168895,210632,-0.0741775006,-9.738787982,0.6783652070999999,474
79154,168933,210738,-0.0741775006,-9.738787982,0.6783652070999999,475
79378,169005,210709,-0.0741775006,-9.738787982,0.6783652070999999,476
79631,169003,210759,-0.0741775006,-9.738787982,0.6783652070999999,477
79832,168995,210748,-0.0741775006,-9.738787982,0.6783652070999999,478
79961,169010,210773,-0.0741775006,-9.738787982,0.6783652070999999,479
80045,169017,210756,-0.0741775006,-9.738787982,0.6783652070999999,480
80199,168991,210817,-0.0741775006,-9.738787982,0.6783652070999999,481
80336,169008,210804,-0.0741775006,-9.738787982,0.6783652070999999,482
80482,169032,210837,-0.0741775006,-9.738787982,0.6783652070999999,483
80647,169043,210812,-0.0741775006,-9.738787982,0.6783652070999999,484
80815,169025,210836,-0.0741775006,-9.738787982,0.6783652070999999,485
80957,169063,210811,-0.0741775006,-9.738787982,0.6783652070999999,486
81000,169053,210864,-0.0741775006,-9.738787982,0.6783652070999999,487
80657,169059,210843,-0.0741775006,-9.738787982,0.6783652070999999,488
80140,169011,210806,-0.0741775006,-9.738787982,0.6783652070999999,489
79781,168964,210704,-0.0741775006,-9.738787982,0.6783652070999999,490
79617,168964,210749,-0.0741775006,-9.738787982,0.6783652070999999,491
79598,168968,210700,-0.0741775006,-9.738787982,0.6783652070999999,492
79696,168997,210750,-0.0741775006,-9.738787982,0.6783652070999999,493
79903,169025,210760,-0.0741775006,-9.738787982,0.6783652070999999,494
80144,169050,210829,-0.0741775006,-9.738787982,0.6783652070999999,495
80347,169074,210805,-0.0741775006,-9.738787982,0.6783652070999999,496
80495,169071,210826,-0.0741775006,-9.738787982,0.6783652070999999,497
81121,169128,210845,-0.0131605243,-9.741180804599999,0.6975077879,498
81276,169140,210850,-0.0131605243,-9.741180804599999,0.6975077879,499
81391,169135,210819,-0.0131605243,-9.741180804599999,0.6975077879,500
81485,169135,210829,-0.0131605243,-9.741180804599999,0.6975077879,501
81610,169144,210852,-0.0131605243,-9.741180804599999,0.6975077879,502
81765,169137,210899,-0.0131605243,-9.741180804599999,0.6975077879,503
81912,169124,210881,-0.0131605243,-9.741180804599999,0.6975077879,504
82052,169140,210869,-0.0131605243,-9.741180804599999,0.6975077879,505
82223,169130,210936,-0.0131605243,-9.741180804599999,0.6975077879,506
82342,169152,210901,-0.0131605243,-9.741180804599999,0.6975077879,507
82197,169147,210887,-0.0131605243,-9.741180804599999,0.6975077879,508
81783,169120,210831,-0.0131605243,-9.741180804599999,0.6975077879,509
81455,169078,210779,-0.0131605243,-9.741180804599999,0.6975077879,510
81301,169079,210786,-0.0131605243,-9.741180804599999,0.6975077879,511
81265,169058,210764,-0.0131605243,-9.741180804599999,0.6975077879,512
81345,169056,210772,-0.0131605243,-9.741180804599999,0.6975077879,513
81512,169102,210745,-0.0131605243,-9.741180804599999,0.6975077879,514
81713,169136,210810,-0.0131605243,-9.741180804599999,0.6975077879,515
81911,169169,210857,-0.0131605243,-9.741180804599999,0.6975077879,516
82005,169176,210852,-0.0131605243,-9.741180804599999,0.6975077879,517
82104,169187,210860,-0.0131605243,-9.741180804599999,0.6975077879,518
82195,169187,210872,-0.0131605243,-9.741180804599999,0.6975077879,519
82319,169157,210861,-0.0131605243,-9.741180804599999,0.6975077879,520
82452,169165,210881,-0.0131605243,-9.741180804599999,0.6975077879,521
82581,169151,210838,-0.0131605243,-9.741180804599999,0.6975077879,522
82719,169174,210888,-0.0131605243,-9.741180804599999,0.6975077879,523
82795,169162,210878,-0.0131605243,-9.741180804599999,0.6975077879,524
82569,169152,210848,-0.0131605243,-9.741180804599999,0.6975077879,525
82130,169155,210815,-0.0131605243,-9.741180804599999,0.6975077879,526
81764,169092,210774,-0.0131605243,-9.741180804599999,0.6975077879,527
81549,169100,210786,-0.0131605243,-9.741180804599999,0.6975077879,528
81472,169090,210735,-0.0131605243,-9.741180804599999,0.6975077879,529
81486,169077,210754,-0.0131605243,-9.741180804599999,0.6975077879,530
81623,169092,210773,-0.0131605243,-9.741180804599999,0.6975077879,531
81775,169145,210770,-0.0131605243,-9.741180804599999,0.6975077879,532
81929,169189,210810,-0.0131605243,-9.741180804599999,0.6975077879,533
82031,169200,210805,-0.0131605243,-9.741180804599999,0.6975077879,534
82095,169151,210768,-0.0131605243,-9.741180804599999,0.6975077879,535
82200,169170,210805,-0.0131605243,-9.741180804599999,0.6975077879,536
82281,169152,210849,-0.0131605243,-9.741180804599999,0.6975077879,537
82384,169139,210817,-0.0131605243,-9.741180804599999,0.6975077879,538
82486,169129,210788,-0.0131605243,-9.741180804599999,0.6975077879,539
81976,169105,210764,0.035892339,-9.8368937086,0.6125625856,540
82069,169103,210792,0.035892339,-9.8368937086,0.6125625856,541
81958,169121,210761,0.035892339,-9.8368937086,0.6125625856,542
81438,169092,210723,0.035892339,-9.8368937086,0.6125625856,543
80864,169021,210662,0.035892339,-9.8368937086,0.6125625856,544
80437,169026,210620,0.035892339,-9.8368937086,0.6125625856,545
80189,169004,210621,0.035892339,-9.8368937086,0.6125625856,546
80084,169001,210640,0.035892339,-9.8368937086,0.6125625856,547
80087,169016,210637,0.035892339,-9.8368937086,0.6125625856,548
80214,169026,210669,0.035892339,-9.8368937086,0.6125625856,549
80419,169031,210676,0.035892339,-9.8368937086,0.6125625856,550
80564,169018,210702,0.035892339,-9.8368937086,0.6125625856,551
80667,169019,210697,0.035892339,-9.8368937086,0.6125625856,552
80756,169011,210729,0.035892339,-9.8368937086,0.6125625856,553
80841,169034,210711,0.035892339,-9.8368937086,0.6125625856,554
80927,169018,210731,0.035892339,-9.8368937086,0.6125625856,555
81028,169025,210732,0.035892339,-9.8368937086,0.6125625856,556
81135,169048,210746,0.035892339,-9.8368937086,0.6125625856,557
81271,169059,210777,0.035892339,-9.8368937086,0.6125625856,558
81386,169096,210734,0.035892339,-9.8368937086,0.6125625856,559
81320,169062,210777,0.035892339,-9.8368937086,0.6125625856,560
80836,169063,210671,0.035892339,-9.8368937086,0.6125625856,561
80191,169018,210666,0.035892339,-9.8368937086,0.6125625856,562
79725,168962,210653,0.035892339,-9.8368937086,0.6125625856,563
79470,168921,210593,0.035892339,-9.8368937086,0.6125625856,564
79378,168975,210630,0.035892339,-9.8368937086,0.6125625856,565
79407,168937,210626,0.035892339,-9.8368937086,0.6125625856,566
79553,168991,210686,0.035892339,-9.8368937086,0.6125625856,567
79788,168999,210641,0.035892339,-9.8368937086,0.6125625856,568
79960,168998,210668,0.035892339,-9.8368937086,0.6125625856,569
80091,168991,210708,0.035892339,-9.8368937086,0.6125625856,570
80167,168993,210737,0.035892339,-9.8368937086,0.6125625856,571
80245,169045,210720,0.035892339,-9.8368937086,0.6125625856,572
80369,169024,210762,0.035892339,-9.8368937086,0.6125625856,573
80486,169024,210726,0.035892339,-9.8368937086,0.6125625856,574
80631,169033,210736,0.035892339,-9.8368937086,0.6125625856,575
80769,169034,210770,0.035892339,-9.8368937086,0.6125625856,576
80906,169039,210757,0.035892339,-9.8368937086,0.6125625856,577
81014,169070,210781,0.035892339,-9.8368937086,0.6125625856,578
80808,169061,210735,0.035892339,-9.8368937086,0.6125625856,579
80201,169055,210730,0.035892339,-9.8368937086,0.6125625856,580
79664,169027,210645,0.035892339,-9.8368937086,0.6125625856,581
82023,169242,210761,-0.10169496049999999,-9.798608546999999,0.6771687957999999,582
82160,169214,210775,-0.10169496049999999,-9.798608546999999,0.6771687957999999,583
82280,169202,210765,-0.10169496049999999,-9.798608546999999,0.6771687957999999,584
82418,169200,210789,-0.10169496049999999,-9.798608546999999,0.6771687957999999,585
82503,169204,210765,-0.10169496049999999,-9.798608546999999,0.6771687957999999,586
82318,169217,210779,-0.10169496049999999,-9.798608546999999,0.6771687957999999,587
81902,169172,210757,-0.10169496049999999,-9.798608546999999,0.6771687957999999,588
81509,169109,210693,-0.10169496049999999,-9.798608546999999,0.6771687957999999,589
81250,169081,210639,-0.10169496049999999,-9.798608546999999,0.6771687957999999,590
81142,169050,210619,-0.10169496049999999,-9.798608546999999,0.6771687957999999,591
81142,169077,210671,-0.10169496049999999,-9.798608546999999,0.6771687957999999,592
81252,169108,210647,-0.10169496049999999,-9.798608546999999,0.6771687957999999,593
81432,169118,210684,-0.10169496049999999,-9.798608546999999,0.6771687957999999,594
81616,169147,210669,-0.10169496049999999,-9.798608546999999,0.6771687957999999,595
81708,169162,210688,-0.10169496049999999,-9.798608546999999,0.6771687957999999,596
81771,169186,210702,-0.10169496049999999,-9.798608546999999,0.6771687957999999,597
81849,169174,210677,-0.10169496049999999,-9.798608546999999,0.6771687957999999,598
81934,169171,210700,-0.10169496049999999,-9.798608546999999,0.6771687957999999,599
82039,169165,210723,-0.10169496049999999,-9.798608546999999,0.6771687957999999,600
82141,169147,210706,-0.10169496049999999,-9.798608546999999,0.6771687957999999,601
82186,169144,210694,-0.10169496049999999,-9.798608546999999,0.6771687957999999,602
81899,169121,210664,-0.10169496049999999,-9.798608546999999,0.6771687957999999,603
81391,169079,210637,-0.10169496049999999,-9.798608546999999,0.6771687957999999,604
80968,169044,210592,-0.10169496049999999,-9.798608546999999,0.6771687957999999,605
80679,169021,210517,-0.10169496049999999,-9.798608546999999,0.6771687957999999,606
80571,169020,210536,-0.10169496049999999,-9.798608546999999,0.6771687957999999,607
80559,169009,210535,-0.10169496049999999,-9.798608546999999,0.6771687957999999,608
80665,169089,210576,-0.10169496049999999,-9.798608546999999,0.6771687957999999,609
80862,169081,210571,-0.10169496049999999,-9.798608546999999,0.6771687957999999,610
81024,169082,210587,-0.10169496049999999,-9.798608546999999,0.6771687957999999,611
81163,169098,210653,-0.10169496049999999,-9.798608546999999,0.6771687957999999,612
81258,169112,210609,-0.10169496049999999,-9.798608546999999,0.6771687957999999,613
81323,169109,210625,-0.10169496049999999,-9.798608546999999,0.6771687957999999,614
81418,169089,210598,-0.10169496049999999,-9.798608546999999,0.6771687957999999,615
81543,169081,210635,-0.10169496049999999,-9.798608546999999,0.6771687957999999,616
81637,169074,210631,-0.10169496049999999,-9.798608546999999,0.6771687957999999,617
81744,169062,210640,-0.10169496049999999,-9.798608546999999,0.6771687957999999,618
81536,169092,210638,-0.10169496049999999,-9.798608546999999,0.6771687957999999,619
81002,169057,210614,-0.10169496049999999,-9.798608546999999,0.6771687957999999,620
80478,168986,210544,-0.10169496049999999,-9.798608546999999,0.6771687957999999,621
80156,168967,210501,-0.10169496049999999,-9.798608546999999,0.6771687957999999,622
79966,168941,210467,-0.10169496049999999,-9.798608546999999,0.6771687957999999,623
81056,169005,210654,0.0167497582,-9.7890372566,0.6987041992,624
81158,169021,210636,0.0167497582,-9.7890372566,0.6987041992,625
81274,169042,210631,0.0167497582,-9.7890372566,0.6987041992,626
81235,169029,210621,0.0167497582,-9.7890372566,0.6987041992,627
80743,169029,210619,0.0167497582,-9.7890372566,0.6987041992,628
80125,168998,210568,0.0167497582,-9.7890372566,0.6987041992,629
79655,168908,210510,0.0167497582,-9.7890372566,0.6987041992,630
79407,168928,210483,0.0167497582,-9.7890372566,0.6987041992,631
79310,168905,210516,0.0167497582,-9.7890372566,0.6987041992,632
79331,168919,210517,0.0167497582,-9.7890372566,0.6987041992,633
79475,168949,210536,0.0167497582,-9.7890372566,0.6987041992,634
79689,168985,210549,0.0167497582,-9.7890372566,0.6987041992,635
79876,168965,210571,0.0167497582,-9.7890372566,0.6987041992,636
80014,168976,210590,0.0167497582,-9.7890372566,0.6987041992,637
80098,168935,210608,0.0167497582,-9.7890372566,0.6987041992,638
80180,168943,210614,0.0167497582,-9.7890372566,0.6987041992,639
80281,168957,210591,0.0167497582,-9.7890372566,0.6987041992,640
80399,168960,210639,0.0167497582,-9.7890372566,0.6987041992,641
80529,168996,210641,0.0167497582,-9.7890372566,0.6987041992,642
80677,169015,210665,0.0945164927,-9.8093762487,0.7034898444000001,643
80773,169005,210664,0.0945164927,-9.8093762487,0.7034898444000001,644
80604,169004,210645,0.0945164927,-9.8093762487,0.7034898444000001,645
80040,168981,210590,0.0945164927,-9.8093762487,0.7034898444000001,646
79487,168950,210573,0.0945164927,-9.8093762487,0.7034898444000001,647
79119,168924,210523,0.0945164927,-9.8093762487,0.7034898444000001,648
78961,168885,210513,0.0945164927,-9.8093762487,0.7034898444000001,649
78960,168906,210544,0.0945164927,-9.8093762487,0.7034898444000001,650
79060,168923,210554,0.0945164927,-9.8093762487,0.7034898444000001,651
79282,168918,210584,0.0945164927,-9.8093762487,0.7034898444000001,652
79502,168944,210606,0.0945164927,-9.8093762487,0.7034898444000001,653
79673,168939,210629,0.0945164927,-9.8093762487,0.7034898444000001,654
79799,168946,210679,0.0945164927,-9.8093762487,0.7034898444000001,655
79893,168941,210667,0.0945164927,-9.8093762487,0.7034898444000001,656
80006,168960,210692,0.0945164927,-9.8093762487,0.7034898444000001,657
80150,168922,210668,0.0945164927,-9.8093762487,0.7034898444000001,658
80276,168965,210681,0.0945164927,-9.8093762487,0.7034898444000001,659
80407,168984,210700,0.0945164927,-9.8093762487,0.7034898444000001,660
80557,169029,210681,0.0945164927,-9.8093762487,0.7034898444000001,661
80665,168997,210699,0.0945164927,-9.8093762487,0.7034898444000001,662
80473,169008,210684,0.0945164927,-9.8093762487,0.7034898444000001,663
79877,168972,210719,0.0945164927,-9.8093762487,0.7034898444000001,664
79377,168925,210591,0.0945164927,-9.8093762487,0.7034898444000001,665
79128,168906,210597,0.0945164927,-9.8093762487,0.7034898444000001,666
79025,168908,210601,0.0945164927,-9.8093762487,0.7034898444000001,667
79086,168922,210638,0.0945164927,-9.8093762487,0.7034898444000001,668
79236,168937,210636,0.0945164927,-9.8093762487,0.7034898444000001,669
79476,168952,210662,0.0945164927,-9.8093762487,0.7034898444000001,670
79687,168982,210670,0.0945164927,-9.8093762487,0.7034898444000001,671
79853,168969,210701,0.0945164927,-9.8093762487,0.7034898444000001,672
79973,168954,210698,0.0945164927,-9.8093762487,0.7034898444000001,673
80064,168985,210658,0.0945164927,-9.8093762487,0.7034898444000001,674
80172,168997,210709,0.0299102825,-9.7375915707,0.7322037156,675
80318,168997,210720,0.0299102825,-9.7375915707,0.7322037156,676
80464,168991,210679,0.0299102825,-9.7375915707,0.7322037156,677
80604,169034,210750,0.0299102825,-9.7375915707,0.7322037156,678
80760,169023,210744,0.0299102825,-9.7375915707,0.7322037156,679
80896,169038,210779,0.0299102825,-9.7375915707,0.7322037156,680
80744,169046,210778,0.0299102825,-9.7375915707,0.7322037156,681
80226,169038,210713,0.0299102825,-9.7375915707,0.7322037156,682
79757,168974,210702,0.0299102825,-9.7375915707,0.7322037156,683
79492,168900,210646,0.0299102825,-9.7375915707,0.7322037156,684
79425,168930,210665,0.0299102825,-9.7375915707,0.7322037156,685
79493,168925,210636,0.0299102825,-9.7375915707,0.7322037156,686
79656,169004,210726,0.0299102825,-9.7375915707,0.7322037156,687
79922,169002,210745,0.0299102825,-9.7375915707,0.7322037156,688
80136,169009,210746,0.0299102825,-9.7375915707,0.7322037156,689
80299,169031,210731,0.0299102825,-9.7375915707,0.7322037156,690
80417,169033,210747,0.0299102825,-9.7375915707,0.7322037156,691
80520,169032,210732,0.0299102825,-9.7375915707,0.7322037156,692
80653,169026,210788,0.0299102825,-9.7375915707,0.7322037156,693
80803,168983,210822,0.0299102825,-9.7375915707,0.7322037156,694
80954,169045,210795,0.0299102825,-9.7375915707,0.7322037156,695
81103,169070,210782,0.0299102825,-9.7375915707,0.7322037156,696
81262,169077,210789,0.0299102825,-9.7375915707,0.7322037156,697
81424,169063,210828,0.0299102825,-9.7375915707,0.7322037156,698
81301,169064,210815,0.0299102825,-9.7375915707,0.7322037156,699
80863,169044,210734,0.0299102825,-9.7375915707,0.7322037156,700
80467,169009,210685,0.0299102825,-9.7375915707,0.7322037156,701
80256,169001,210704,0.0299102825,-9.7375915707,0.7322037156,702
80203,169014,210666,0.0299102825,-9.7375915707,0.7322037156,703
80287,168988,210686,0.0299102825,-9.7375915707,0.7322037156,704
80468,169005,210721,0.0299102825,-9.7375915707,0.7322037156,705
80690,169062,210725,0.0299102825,-9.7375915707,0.7322037156,706
80885,169077,210789,0.0299102825,-9.7375915707,0.7322037156,707
81016,169080,210774,0.0299102825,-9.7375915707,0.7322037156,708
81114,169074,210793,0.0299102825,-9.7375915707,0.7322037156,709
81231,169093,210799,0.0299102825,-9.7375915707,0.7322037156,710
81356,169108,210798,0.0299102825,-9.7375915707,0.7322037156,711
81505,169094,210823,0.0299102825,-9.7375915707,0.7322037156,712
81638,169108,210820,0.0299102825,-9.7375915707,0.7322037156,713
81784,169084,210833,0.0323031051,-9.7196454012,0.7202396026000001,714
81947,169089,210803,0.0323031051,-9.7196454012,0.7202396026000001,715
82053,169100,210842,0.0323031051,-9.7196454012,0.7202396026000001,716
81927,169102,210823,0.0323031051,-9.7196454012,0.7202396026000001,717
81521,169081,210838,0.0323031051,-9.7196454012,0.7202396026000001,718
81178,169039,210758,0.0323031051,-9.7196454012,0.7202396026000001,719
80990,169026,210690,0.0323031051,-9.7196454012,0.7202396026000001,720
80947,169013,210718,0.0323031051,-9.7196454012,0.7202396026000001,721
81002,168997,210725,0.0323031051,-9.7196454012,0.7202396026000001,722
81157,169051,210704,0.0323031051,-9.7196454012,0.7202396026000001,723
81374,169077,210724,0.0323031051,-9.7196454012,0.7202396026000001,724
81540,169110,210751,0.0323031051,-9.7196454012,0.7202396026000001,725
81635,169103,210788,0.0323031051,-9.7196454012,0.7202396026000001,726
81735,169150,210753,0.0323031051,-9.7196454012,0.7202396026000001,727
81824,169145,210829,0.0323031051,-9.7196454012,0.7202396026000001,728
81945,169111,210822,0.0323031051,-9.7196454012,0.7202396026000001,729
82071,169126,210833,0.0323031051,-9.7196454012,0.7202396026000001,730
82199,169130,210813,0.0323031051,-9.7196454012,0.7202396026000001,731
82345,169117,210802,0.0323031051,-9.7196454012,0.7202396026000001,732
82404,169105,210796,0.0323031051,-9.7196454012,0.7202396026000001,733
82207,169123,210813,0.0323031051,-9.7196454012,0.7202396026000001,734
81768,169056,210777,0.0323031051,-9.7196454012,0.7202396026000001,735
81407,169038,210715,0.0323031051,-9.7196454012,0.7202396026000001,736
81215,169026,210684,0.0323031051,-9.7196454012,0.7202396026000001,737
81128,169000,210669,0.0323031051,-9.7196454012,0.7202396026000001,738
81181,169006,210677,0.0323031051,-9.7196454012,0.7202396026000001,739
81321,169045,210709,0.0323031051,-9.7196454012,0.7202396026000001,740
81497,169072,210722,0.0323031051,-9.7196454012,0.7202396026000001,741
81671,169121,210727,0.0323031051,-9.7196454012,0.7202396026000001,742
81760,169080,210749,0.0323031051,-9.7196454012,0.7202396026000001,743
81856,169123,210756,0.0323031051,-9.7196454012,0.7202396026000001,744
81945,169108,210746,0.0323031051,-9.7196454012,0.7202396026000001,745
82032,169128,210802,0.0323031051,-9.7196454012,0.7202396026000001,746
82147,169112,210783,0.0323031051,-9.7196454012,0.7202396026000001,747
82274,169106,210781,0.0323031051,-9.7196454012,0.7202396026000001,748
82365,169091,210817,0.0323031051,-9.7196454012,0.7202396026000001,749
82234,169092,210752,0.0323031051,-9.7196454012,0.7202396026000001,750
81768,169019,210731,0.0323031051,-9.7196454012,0.7202396026000001,751
81271,168977,210660,0.0323031051,-9.7196454012,0.7202396026000001,752
80957,168975,210652,0.0323031051,-9.7196454012,0.7202396026000001,753
80770,168970,210625,0.0323031051,-9.7196454012,0.7202396026000001,754
80714,168957,210621,0.0323031051,-9.7196454012,0.7202396026000001,755
81096,169027,210671,-0.1866401628,-9.774680321,0.6867400861999999,756
81254,168996,210682,-0.1866401628,-9.774680321,0.6867400861999999,757
81336,169034,210703,-0.1866401628,-9.774680321,0.6867400861999999,758
81434,169053,210689,-0.1866401628,-9.774680321,0.6867400861999999,759
81531,169053,210730,-0.1866401628,-9.774680321,0.6867400861999999,760
81611,169028,210706,-0.1866401628,-9.774680321,0.6867400861999999,761
81741,169048,210744,-0.1866401628,-9.774680321,0.6867400861999999,762
81875,169013,210769,-0.1866401628,-9.774680321,0.6867400861999999,763
81919,169032,210758,-0.1866401628,-9.774680321,0.6867400861999999,764
81584,169035,210724,-0.1866401628,-9.774680321,0.6867400861999999,765
81035,168992,210665,-0.1866401628,-9.774680321,0.6867400861999999,766
80596,168941,210608,-0.1866401628,-9.774680321,0.6867400861999999,767
80270,168906,210583,-0.1866401628,-9.774680321,0.6867400861999999,768
80158,168920,210612,-0.1866401628,-9.774680321,0.6867400861999999,769
80124,168944,210617,-0.1866401628,-9.774680321,0.6867400861999999,770
80231,168948,210621,-0.1866401628,-9.774680321,0.6867400861999999,771
80429,168965,210629,-0.1866401628,-9.774680321,0.6867400861999999,772
80622,168981,210659,-0.1866401628,-9.774680321,0.6867400861999999,773
80762,168977,210662,-0.1866401628,-9.774680321,0.6867400861999999,774
80828,168987,210668,-0.1866401628,-9.774680321,0.6867400861999999,775
80934,168992,210653,-0.1866401628,-9.774680321,0.6867400861999999,776
81044,169015,210695,-0.1866401628,-9.774680321,0.6867400861999999,777
81172,168988,210696,-0.1866401628,-9.774680321,0.6867400861999999,778
81293,169002,210735,-0.1866401628,-9.774680321,0.6867400861999999,779
81412,169015,210713,-0.1866401628,-9.774680321,0.6867400861999999,780
81534,169035,210721,-0.1866401628,-9.774680321,0.6867400861999999,781
81433,169035,210738,0.011964113,-9.7196454012,0.6628118601999999,782
80920,169028,210724,0.011964113,-9.7196454012,0.6628118601999999,783
80316,168964,210640,0.011964113,-9.7196454012,0.6628118601999999,784
79928,168925,210624,0.011964113,-9.7196454012,0.6628118601999999,785
79722,168883,210552,0.011964113,-9.7196454012,0.6628118601999999,786
79661,168894,210588,0.011964113,-9.7196454012,0.6628118601999999,787
79704,168909,210619,0.011964113,-9.7196454012,0.6628118601999999,788
79861,168905,210608,0.011964113,-9.7196454012,0.6628118601999999,789
80076,168946,210661,0.011964113,-9.7196454012,0.6628118601999999,790
80228,168939,210650,0.011964113,-9.7196454012,0.6628118601999999,791
80326,168938,210648,0.011964113,-9.7196454012,0.6628118601999999,792
80407,168964,210685,0.011964113,-9.7196454012,0.6628118601999999,793
80507,168962,210686,0.011964113,-9.7196454012,0.6628118601999999,794
80590,168965,210659,-0.0526420972,-9.7172525786,0.7453642399,795
80727,168994,210679,-0.0526420972,-9.7172525786,0.7453642399,796
80864,168988,210719,-0.0526420972,-9.7172525786,0.7453642399,797
80983,169021,210725,-0.0526420972,-9.7172525786,0.7453642399,798
81092,169038,210733,-0.0526420972,-9.7172525786,0.7453642399,799
81128,169018,210717,-0.0526420972,-9.7172525786,0.7453642399,800
80729,169010,210711,-0.0526420972,-9.7172525786,0.7453642399,801
80099,168966,210651,-0.0526420972,-9.7172525786,0.7453642399,802
79657,168931,210632,-0.0526420972,-9.7172525786,0.7453642399,803
79410,168887,210631,-0.0526420972,-9.7172525786,0.7453642399,804
79323,168911,210599,-0.0526420972,-9.7172525786,0.7453642399,805
79329,168914,210640,-0.0526420972,-9.7172525786,0.7453642399,806
79493,168913,210646,-0.0526420972,-9.7172525786,0.7453642399,807
79680,168951,210710,0.011964113,-9.6825566509,0.7010970218,808
79903,168971,210688,-0.09092725880000001,-9.7088776995,0.7010970218,809
80007,168923,210676,0.0047856452,-9.774680321,0.7022934331,810
80089,168986,210692,-0.0287138712,-9.8416793538,0.6855436748999999,811
80177,168965,210744,0.0334995164,-9.762716208,0.6556333924,812
80300,168984,210701,-0.0023928226,-9.8010013696,0.6867400861999999,813
80432,168990,210698,-0.021535403399999997,-9.812965482600001,0.6843472636,814
80571,168994,210745,-0.031106693799999998,-9.7639126193,0.8267202082999999,815
80695,168980,210751,-0.031106693799999998,-9.7639126193,0.8267202082999999,816
80848,169010,210755,-0.031106693799999998,-9.7639126193,0.8267202082999999,817
80992,169028,210787,-0.031106693799999998,-9.7639126193,0.8267202082999999,818
80986,169032,210782,-0.031106693799999998,-9.7639126193,0.8267202082999999,819
80604,169007,210746,-0.031106693799999998,-9.7639126193,0.8267202082999999,820
80010,168996,210705,-0.031106693799999998,-9.7639126193,0.8267202082999999,821
79581,168955,210676,-0.031106693799999998,-9.7639126193,0.8267202082999999,822
79384,168926,210640,-0.031106693799999998,-9.7639126193,0.8267202082999999,823
79367,168913,210691,-0.031106693799999998,-9.7639126193,0.8267202082999999,824
79423,168953,210696,-0.031106693799999998,-9.7639126193,0.8267202082999999,825
79613,168965,210699,-0.031106693799999998,-9.7639126193,0.8267202082999999,826
79859,168957,210775,-0.031106693799999998,-9.7639126193,0.8267202082999999,827
80058,168974,210751,-0.031106693799999998,-9.7639126193,0.8267202082999999,828
80152,168980,210749,-0.031106693799999998,-9.7639126193,0.8267202082999999,829
80267,168994,210773,-0.031106693799999998,-9.7639126193,0.8267202082999999,830
80368,168988,210788,-0.031106693799999998,-9.7639126193,0.8267202082999999,831
80501,168976,210782,-0.031106693799999998,-9.7639126193,0.8267202082999999,832
80642,169018,210789,-0.047856452,-9.7794659662,0.6460621019999999,833
80778,169011,210820,-0.047856452,-9.7794659662,0.6460621019999999,834
80949,169038,210833,-0.047856452,-9.7794659662,0.6460621019999999,835
81092,169047,210837,-0.047856452,-9.7794659662,0.6460621019999999,836
81243,169087,210839,-0.047856452,-9.7794659662,0.6460621019999999,837
81295,169094,210836,-0.047856452,-9.7794659662,0.6460621019999999,838
81007,169061,210800,-0.047856452,-9.7794659662,0.6460621019999999,839
80450,169055,210779,0.0334995164,-9.9134640318,0.6508477471999999,840
80067,169017,210726,0.0334995164,-9.9134640318,0.6508477471999999,841
79905,168979,210727,0.0334995164,-9.9134640318,0.6508477471999999,842
79898,168958,210761,0.0334995164,-9.9134640318,0.6508477471999999,843
80005,168972,210774,0.0334995164,-9.9134640318,0.6508477471999999,844
80207,169025,210790,0.0334995164,-9.9134640318,0.6508477471999999,845
80434,169037,210804,-0.04307080679999999,-9.6801638283,0.7908278692999999,846
80604,169072,210836,-0.0047856452,-9.8380901199,0.7274180704000001,847
80733,169049,210799,0.0382851616,-9.7950193131,0.8267202082999999,848
80811,169079,210824,0.0382851616,-9.7950193131,0.8267202082999999,849
80919,169044,210824,0.0382851616,-9.7950193131,0.8267202082999999,850
81049,169062,210871,0.0382851616,-9.7950193131,0.8267202082999999,851
81191,169074,210884,0.0382851616,-9.7950193131,0.8267202082999999,852
81346,169059,210871,0.0382851616,-9.7950193131,0.8267202082999999,853
81495,169068,210898,0.0382851616,-9.7950193131,0.8267202082999999,854
81661,169093,210886,0.0382851616,-9.7950193131,0.8267202082999999,855
81758,169092,210925,0.0382851616,-9.7950193131,0.8267202082999999,856
81576,169106,210903,0.0382851616,-9.7950193131,0.8267202082999999,857
81136,169093,210818,0.0382851616,-9.7950193131,0.8267202082999999,858
80775,169003,210793,0.0382851616,-9.7950193131,0.8267202082999999,859
80601,169022,210780,0.0382851616,-9.7950193131,0.8267202082999999,860
80592,169003,210773,0.0382851616,-9.7950193131,0.8267202082999999,861
80677,169037,210794,0.0382851616,-9.7950193131,0.8267202082999999,862
80862,169043,210809,0.0382851616,-9.7950193131,0.8267202082999999,863
81081,169088,210821,0.0382851616,-9.7950193131,0.8267202082999999,864
81237,169097,210826,0.0646062102,-9.8237331843,0.6915257314000001,865
81335,169141,210856,0.0646062102,-9.8237331843,0.6915257314000001,866
81441,169095,210847,0.0646062102,-9.8237331843,0.6915257314000001,867
81525,169144,210842,0.0646062102,-9.8237331843,0.6915257314000001,868
81659,169128,210862,0.0646062102,-9.8237331843,0.6915257314000001,869
81784,169134,210837,0.0646062102,-9.8237331843,0.6915257314000001,870
81923,169116,210901,0.0646062102,-9.8237331843,0.6915257314000001,871
82056,169137,210933,0.0646062102,-9.8237331843,0.6915257314000001,872
82160,169124,210892,0.0646062102,-9.8237331843,0.6915257314000001,873
82025,169156,210866,0.0646062102,-9.8237331843,0.6915257314000001,874
81575,169105,210836,0.0646062102,-9.8237331843,0.6915257314000001,875
81199,169031,210770,0.0646062102,-9.8237331843,0.6915257314000001,876
80991,169018,210754,0.0646062102,-9.8237331843,0.6915257314000001,877
80915,169036,210778,0.0646062102,-9.8237331843,0.6915257314000001,878
80950,169025,210756,0.0646062102,-9.8237331843,0.6915257314000001,879
81098,169041,210768,0.0646062102,-9.8237331843,0.6915257314000001,880
81298,169088,210758,0.0646062102,-9.8237331843,0.6915257314000001,881
81469,169109,210755,0.0646062102,-9.8237331843,0.6915257314000001,882
81589,169159,210792,0.0646062102,-9.8237331843,0.6915257314000001,883
81771,169133,210803,-0.031106693799999998,-9.7698946758,0.7322037156,884
81865,169151,210815,-0.031106693799999998,-9.7698946758,0.7322037156,885
81976,169145,210847,-0.031106693799999998,-9.7698946758,0.7322037156,886
82105,169148,210839,-0.031106693799999998,-9.7698946758,0.7322037156,887
82238,169137,210825,-0.031106693799999998,-9.7698946758,0.7322037156,888
82266,169140,210821,-0.031106693799999998,-9.7698946758,0.7322037156,889
81962,169071,210802,-0.031106693799999998,-9.7698946758,0.7322037156,890
81473,169070,210780,-0.031106693799999998,-9.7698946758,0.7322037156,891
81092,169055,210721,-0.031106693799999998,-9.7698946758,0.7322037156,892
80896,169004,210695,-0.031106693799999998,-9.7698946758,0.7322037156,893
80839,168990,210660,-0.031106693799999998,-9.7698946758,0.7322037156,894
80873,169001,210683,-0.031106693799999998,-9.7698946758,0.7322037156,895
81012,169065,210729,-0.031106693799999998,-9.7698946758,0.7322037156,896
81214,169102,210734,-0.031106693799999998,-9.7698946758,0.7322037156,897
81400,169107,210728,-0.031106693799999998,-9.7698946758,0.7322037156,898
81510,169118,210750,-0.031106693799999998,-9.7698946758,0.7322037156,899
81582,169111,210773,-0.031106693799999998,-9.7698946758,0.7322037156,900
81681,169088,210780,-0.031106693799999998,-9.7698946758,0.7322037156,901
81797,169113,210762,-0.031106693799999998,-9.7698946758,0.7322037156,902
81920,169084,210769,-0.031106693799999998,-9.7698946758,0.7322037156,903
82035,169074,210768,-0.031106693799999998,-9.7698946758,0.7322037156,904
82170,169090,210773,-0.031106693799999998,-9.7698946758,0.7322037156,905
82129,169115,210826,-0.031106693799999998,-9.7698946758,0.7322037156,906
81731,169074,210778,-0.031106693799999998,-9.7698946758,0.7322037156,907
81207,169035,210695,-0.031106693799999998,-9.7698946758,0.7322037156,908
80805,169010,210645,-0.031106693799999998,-9.7698946758,0.7322037156,909
80597,168993,210642,-0.031106693799999998,-9.7698946758,0.7322037156,910
80510,169015,210628,-0.031106693799999998,-9.7698946758,0.7322037156,911
80522,169065,210634,-0.031106693799999998,-9.7698946758,0.7322037156,912
80677,169052,210693,-0.031106693799999998,-9.7698946758,0.7322037156,913
80869,169081,210706,-0.031106693799999998,-9.7698946758,0.7322037156,914
81045,169060,210699,-0.031106693799999998,-9.7698946758,0.7322037156,915
81163,169058,210704,-0.031106693799999998,-9.7698946758,0.7322037156,916
81248,169048,210762,-0.031106693799999998,-9.7698946758,0.7322037156,917
81342,169070,210707,-0.031106693799999998,-9.7698946758,0.7322037156,918
81441,169078,210757,-0.031106693799999998,-9.7698946758,0.7322037156,919
81571,169059,210715,-0.031106693799999998,-9.7698946758,0.7322037156,920
81702,169091,210779,-0.031106693799999998,-9.7698946758,0.7322037156,921
81846,169063,210763,-0.031106693799999998,-9.7698946758,0.7322037156,922
81950,169100,210784,-0.031106693799999998,-9.7698946758,0.7322037156,923
81923,169087,210730,-0.031106693799999998,-9.7698946758,0.7322037156,924
81483,169076,210769,-0.031106693799999998,-9.7698946758,0.7322037156,925
79835,168975,210640,-0.04307080679999999,-9.8620183459,0.7668996433,926
79948,168972,210646,-0.04307080679999999,-9.8620183459,0.7668996433,927
80157,169022,210673,-0.04307080679999999,-9.8620183459,0.7668996433,928
80347,169048,210713,-0.04307080679999999,-9.8620183459,0.7668996433,929
80488,169056,210688,-0.04307080679999999,-9.8620183459,0.7668996433,930
80571,169054,210696,-0.04307080679999999,-9.8620183459,0.7668996433,931
80649,169045,210744,-0.04307080679999999,-9.8620183459,0.7668996433,932
80736,169037,210675,-0.04307080679999999,-9.8620183459,0.7668996433,933
80857,169054,210734,-0.04307080679999999,-9.8620183459,0.7668996433,934
80994,169038,210745,-0.04307080679999999,-9.8620183459,0.7668996433,935
81121,169080,210754,-0.04307080679999999,-9.8620183459,0.7668996433,936
81217,169092,210751,-0.04307080679999999,-9.8620183459,0.7668996433,937
81354,169079,210804,-0.04307080679999999,-9.8620183459,0.7668996433,938
81468,169090,210756,-0.04307080679999999,-9.8620183459,0.7668996433,939
81393,169096,210765,-0.04307080679999999,-9.8620183459,0.7668996433,940
80883,169121,210767,-0.04307080679999999,-9.8620183459,0.7668996433,941
80321,169058,210709,-0.04307080679999999,-9.8620183459,0.7668996433,942
79925,169048,210680,-0.04307080679999999,-9.8620183459,0.7668996433,943
79739,168997,210667,-0.04307080679999999,-9.8620183459,0.7668996433,944
79713,169001,210628,-0.04307080679999999,-9.8620183459,0.7668996433,945
79786,168995,210698,-0.04307080679999999,-9.8620183459,0.7668996433,946
79951,169042,210674,-0.04307080679999999,-9.8620183459,0.7668996433,947
80187,169034,210696,-0.04307080679999999,-9.8620183459,0.7668996433,948
80332,169047,210755,-0.04307080679999999,-9.8620183459,0.7668996433,949
80443,169041,210754,-0.04307080679999999,-9.8620183459,0.7668996433,950
80541,169053,210760,-0.04307080679999999,-9.8620183459,0.7668996433,951
80624,169070,210749,-0.04307080679999999,-9.8620183459,0.7668996433,952
80741,169076,210774,-0.04307080679999999,-9.8620183459,0.7668996433,953
80870,169083,210836,-0.04307080679999999,-9.8620183459,0.7668996433,954
80988,169095,210764,-0.04307080679999999,-9.8620183459,0.7668996433,955
81137,169093,210804,-0.04307080679999999,-9.8620183459,0.7668996433,956
81270,169107,210782,-0.04307080679999999,-9.8620183459,0.7668996433,957
81402,169117,210848,-0.04307080679999999,-9.8620183459,0.7668996433,958
81289,169120,210822,-0.04307080679999999,-9.8620183459,0.7668996433,959
80791,169108,210813,-0.04307080679999999,-9.8620183459,0.7668996433,960
80264,169084,210786,-0.04307080679999999,-9.8620183459,0.7668996433,961
79951,169040,210697,-0.04307080679999999,-9.8620183459,0.7668996433,962
79824,169061,210738,-0.04307080679999999,-9.8620183459,0.7668996433,963
79828,169026,210760,-0.04307080679999999,-9.8620183459,0.7668996433,964
79948,169033,210721,-0.04307080679999999,-9.8620183459,0.7668996433,965
80162,169100,210778,-0.04307080679999999,-9.8620183459,0.7668996433,966
80362,169125,210794,-0.04307080679999999,-9.8620183459,0.7668996433,967
80573,169086,210709,0.107677017,-9.7184489899,0.7082754896000001,968
80128,169038,210640,0.107677017,-9.7184489899,0.7082754896000001,969
79873,168982,210626,0.107677017,-9.7184489899,0.7082754896000001,970
79776,168996,210624,0.107677017,-9.7184489899,0.7082754896000001,971
79806,169049,210638,0.107677017,-9.7184489899,0.7082754896000001,972
79924,169041,210665,0.107677017,-9.7184489899,0.7082754896000001,973
80150,169070,210658,0.107677017,-9.7184489899,0.7082754896000001,974
80347,169094,210670,0.107677017,-9.7184489899,0.7082754896000001,975
80512,169114,210681,0.107677017,-9.7184489899,0.7082754896000001,976
80608,169109,210711,0.107677017,-9.7184489899,0.7082754896000001,977
80701,169086,210709,0.107677017,-9.7184489899,0.7082754896000001,978
80815,169100,210705,0.107677017,-9.7184489899,0.7082754896000001,979
80964,169118,210696,0.107677017,-9.7184489899,0.7082754896000001,980
81086,169092,210716,0.107677017,-9.7184489899,0.7082754896000001,981
81180,169101,210725,0.107677017,-9.7184489899,0.7082754896000001,982
80961,169127,210741,0.107677017,-9.7184489899,0.7082754896000001,983
80413,169075,210682,0.107677017,-9.7184489899,0.7082754896000001,984
79937,169023,210612,0.107677017,-9.7184489899,0.7082754896000001,985
79647,168991,210618,0.107677017,-9.7184489899,0.7082754896000001,986
79551,168952,210600,0.107677017,-9.7184489899,0.7082754896000001,987
79575,168997,210551,0.107677017,-9.7184489899,0.7082754896000001,988
79703,169012,210609,0.107677017,-9.7184489899,0.7082754896000001,989
79920,169036,210644,0.107677017,-9.7184489899,0.7082754896000001,990
80160,169030,210640,0.107677017,-9.7184489899,0.7082754896000001,991
80337,169062,210692,0.107677017,-9.7184489899,0.7082754896000001,992
80443,169076,210677,0.107677017,-9.7184489899,0.7082754896000001,993
80549,169046,210702,0.107677017,-9.7184489899,0.7082754896000001,994
80652,169015,210698,0.107677017,-9.7184489899,0.7082754896000001,995
80778,169064,210694,0.107677017,-9.7184489899,0.7082754896000001,996
80911,169083,210730,0.107677017,-9.7184489899,0.7082754896000001,997
81054,169074,210715,0.107677017,-9.7184489899,0.7082754896000001,998
81176,169103,210744,0.107677017,-9.7184489899,0.7082754896000001,999
81004,169105,210748,0.107677017,-9.7184489899,0.7082754896000001,1000
80444,169105,210713,0.107677017,-9.7184489899,0.7082754896000001,1001
79910,169008,210626,0.107677017,-9.7184489899,0.7082754896000001,1002
79609,168989,210575,0.107677017,-9.7184489899,0.7082754896000001,1003
79493,168957,210613,0.107677017,-9.7184489899,0.7082754896000001,1004
79485,168975,210596,0.107677017,-9.7184489899,0.7082754896000001,1005
79576,168993,210611,0.107677017,-9.7184489899,0.7082754896000001,1006
79812,168999,210615,0.107677017,-9.7184489899,0.7082754896000001,1007
80056,168995,210687,0.107677017,-9.7184489899,0.7082754896000001,1008
80240,169002,210650,0.107677017,-9.7184489899,0.7082754896000001,1009
81330,169133,210807,-0.08374879099999999,-9.81057266,0.7549355303,1010
81470,169134,210785,-0.08374879099999999,-9.81057266,0.7549355303,1011
81615,169174,210774,-0.08374879099999999,-9.81057266,0.7549355303,1012
81758,169160,210790,-0.08374879099999999,-9.81057266,0.7549355303,1013
81898,169166,210835,-0.08374879099999999,-9.81057266,0.7549355303,1014
82036,169179,210845,-0.08374879099999999,-9.81057266,0.7549355303,1015
82032,169203,210825,-0.08374879099999999,-9.81057266,0.7549355303,1016
81709,169209,210824,-0.08374879099999999,-9.81057266,0.7549355303,1017
81230,169168,210790,-0.08374879099999999,-9.81057266,0.7549355303,1018
80843,169135,210747,-0.08374879099999999,-9.81057266,0.7549355303,1019
80693,169091,210698,-0.08374879099999999,-9.81057266,0.7549355303,1020
80655,169069,210711,-0.08374879099999999,-9.81057266,0.7549355303,1021
80722,169111,210725,-0.08374879099999999,-9.81057266,0.7549355303,1022
80907,169164,210742,-0.08374879099999999,-9.81057266,0.7549355303,1023
81128,169158,210787,-0.08374879099999999,-9.81057266,0.7549355303,1024
81309,169172,210812,-0.08374879099999999,-9.81057266,0.7549355303,1025
81430,169148,210819,-0.08374879099999999,-9.81057266,0.7549355303,1026
81528,169159,210792,-0.08374879099999999,-9.81057266,0.7549355303,1027
81653,169185,210786,-0.08374879099999999,-9.81057266,0.7549355303,1028
81777,169206,210840,-0.08374879099999999,-9.81057266,0.7549355303,1029
81915,169168,210859,-0.08374879099999999,-9.81057266,0.7549355303,1030
82067,169186,210856,-0.08374879099999999,-9.81057266,0.7549355303,1031
82200,169191,210855,-0.08374879099999999,-9.81057266,0.7549355303,1032
82332,169230,210867,-0.08374879099999999,-9.81057266,0.7549355303,1033
82480,169233,210856,-0.08374879099999999,-9.81057266,0.7549355303,1034
82573,169223,210869,-0.08374879099999999,-9.81057266,0.7549355303,1035
82421,169243,210885,-0.08374879099999999,-9.81057266,0.7549355303,1036
81981,169196,210852,-0.08374879099999999,-9.81057266,0.7549355303,1037
81613,169183,210729,-0.08374879099999999,-9.81057266,0.7549355303,1038
81389,169135,210761,-0.08374879099999999,-9.81057266,0.7549355303,1039
81298,169136,210733,-0.08374879099999999,-9.81057266,0.7549355303,1040
81348,169130,210776,-0.08374879099999999,-9.81057266,0.7549355303,1041
81518,169174,210728,-0.08374879099999999,-9.81057266,0.7549355303,1042
81693,169221,210805,-0.08374879099999999,-9.81057266,0.7549355303,1043
81844,169227,210737,-0.08374879099999999,-9.81057266,0.7549355303,1044
81988,169241,210814,-0.08374879099999999,-9.81057266,0.7549355303,1045
82093,169248,210810,-0.08374879099999999,-9.81057266,0.7549355303,1046
82169,169250,210848,-0.08374879099999999,-9.81057266,0.7549355303,1047
82253,169219,210837,-0.08374879099999999,-9.81057266,0.7549355303,1048
82390,169246,210851,-0.08374879099999999,-9.81057266,0.7549355303,1049
82514,169260,210866,-0.08374879099999999,-9.81057266,0.7549355303,1050
82647,169230,210851,-0.08374879099999999,-9.81057266,0.7549355303,1051
82183,169234,210778,-0.1328016543,-9.7196454012,0.7022934331,1052
82286,169286,210828,-0.1328016543,-9.7196454012,0.7022934331,1053
82357,169253,210786,-0.1328016543,-9.7196454012,0.7022934331,1054
82430,169297,210843,-0.1328016543,-9.7196454012,0.7022934331,1055
82522,169292,210830,-0.1328016543,-9.7196454012,0.7022934331,1056
82601,169301,210840,-0.1328016543,-9.7196454012,0.7022934331,1057
82724,169278,210825,-0.1328016543,-9.7196454012,0.7022934331,1058
82838,169257,210824,-0.1328016543,-9.7196454012,0.7022934331,1059
82960,169269,210833,-0.1328016543,-9.7196454012,0.7022934331,1060
83030,169288,210810,-0.1328016543,-9.7196454012,0.7022934331,1061
82829,169254,210837,-0.1328016543,-9.7196454012,0.7022934331,1062
82325,169203,210842,-0.1328016543,-9.7196454012,0.7022934331,1063
81833,169186,210738,-0.1328016543,-9.7196454012,0.7022934331,1064
81531,169136,210684,-0.1328016543,-9.7196454012,0.7022934331,1065
81405,169127,210715,-0.1328016543,-9.7196454012,0.7022934331,1066
81396,169093,210656,-0.1328016543,-9.7196454012,0.7022934331,1067
81483,169113,210707,-0.1328016543,-9.7196454012,0.7022934331,1068
81658,169167,210743,-0.1328016543,-9.7196454012,0.7022934331,1069
81783,169190,210743,-0.1328016543,-9.7196454012,0.7022934331,1070
81837,169233,210743,-0.1328016543,-9.7196454012,0.7022934331,1071
81870,169252,210785,-0.1328016543,-9.7196454012,0.7022934331,1072
81940,169243,210780,-0.1328016543,-9.7196454012,0.7022934331,1073
82016,169232,210783,-0.1328016543,-9.7196454012,0.7022934331,1074
82097,169208,210792,-0.1328016543,-9.7196454012,0.7022934331,1075
82198,169216,210789,-0.1328016543,-9.7196454012,0.7022934331,1076
82289,169231,210760,-0.021535403399999997,-9.8715896363,0.8027919822999999,1077
82251,169239,210775,-0.021535403399999997,-9.8715896363,0.8027919822999999,1078
81822,169154,210763,-0.021535403399999997,-9.8715896363,0.8027919822999999,1079
81188,169106,210698,-0.021535403399999997,-9.8715896363,0.8027919822999999,1080
80725,169084,210624,-0.021535403399999997,-9.8715896363,0.8027919822999999,1081
80439,169055,210618,-0.021535403399999997,-9.8715896363,0.8027919822999999,1082
80297,169013,210577,-0.021535403399999997,-9.8715896363,0.8027919822999999,1083
80258,169047,210586,-0.021535403399999997,-9.8715896363,0.8027919822999999,1084
80385,169087,210674,-0.021535403399999997,-9.8715896363,0.8027919822999999,1085
80563,169132,210680,-0.021535403399999997,-9.8715896363,0.8027919822999999,1086
80707,169156,210664,-0.021535403399999997,-9.8715896363,0.8027919822999999,1087
80787,169141,210678,-0.021535403399999997,-9.8715896363,0.8027919822999999,1088
80854,169129,210696,-0.021535403399999997,-9.8715896363,0.8027919822999999,1089
80901,169181,210703,-0.071784678,-9.8033941922,0.7226324252,1090
81008,169134,210698,-0.071784678,-9.8033941922,0.7226324252,1091
81134,169113,210728,-0.071784678,-9.8033941922,0.7226324252,1092
81245,169117,210722,-0.071784678,-9.8033941922,0.7226324252,1093
81327,169103,210712,-0.071784678,-9.8033941922,0.7226324252,1094
81048,169105,210675,-0.071784678,-9.8033941922,0.7226324252,1095
80406,169099,210646,-0.071784678,-9.8033941922,0.7226324252,1096
79827,169006,210612,-0.071784678,-9.8033941922,0.7226324252,1097
79477,169006,210539,-0.071784678,-9.8033941922,0.7226324252,1098
79319,168985,210558,-0.071784678,-9.8033941922,0.7226324252,1099
79257,169004,210566,-0.071784678,-9.8033941922,0.7226324252,1100
79338,169022,210553,-0.071784678,-9.8033941922,0.7226324252,1101
79547,169060,210615,-0.071784678,-9.8033941922,0.7226324252,1102
79767,169070,210620,-0.071784678,-9.8033941922,0.7226324252,1103
79945,169052,210670,-0.071784678,-9.8033941922,0.7226324252,1104
80050,169079,210653,-0.071784678,-9.8033941922,0.7226324252,1105
80140,169086,210683,-0.071784678,-9.8033941922,0.7226324252,1106
80258,169067,210699,-0.071784678,-9.8033941922,0.7226324252,1107
80383,169045,210669,-0.071784678,-9.8033941922,0.7226324252,1108
80516,169082,210659,-0.059820565,-9.7531449176,0.7202396026000001,1109
80658,169082,210705,-0.059820565,-9.7531449176,0.7202396026000001,1110
80767,169133,210695,-0.059820565,-9.7531449176,0.7202396026000001,1111
80658,169093,210724,-0.059820565,-9.7531449176,0.7202396026000001,1112
80078,169057,210651,-0.059820565,-9.7531449176,0.7202396026000001,1113
79447,169012,210590,-0.059820565,-9.7531449176,0.7202396026000001,1114
79032,168975,210603,-0.059820565,-9.7531449176,0.7202396026000001,1115
78852,168949,210546,-0.059820565,-9.7531449176,0.7202396026000001,1116
78804,168970,210532,-0.059820565,-9.7531449176,0.7202396026000001,1117
78887,168982,210630,-0.059820565,-9.7531449176,0.7202396026000001,1118
79100,168991,210602,-0.059820565,-9.7531449176,0.7202396026000001,1119
79354,169016,210616,-0.059820565,-9.7531449176,0.7202396026000001,1120
79544,169058,210635,-0.059820565,-9.7531449176,0.7202396026000001,1121
79704,169029,210693,0.1495514125,-9.6825566509,0.7609175868,1122
79807,169037,210706,0.1495514125,-9.6825566509,0.7609175868,1123
79924,169025,210668,0.1495514125,-9.6825566509,0.7609175868,1124
80051,169039,210698,0.1495514125,-9.6825566509,0.7609175868,1125
80190,169035,210691,0.1495514125,-9.6825566509,0.7609175868,1126
80345,169050,210747,0.1495514125,-9.6825566509,0.7609175868,1127
80483,169063,210697,0.1495514125,-9.6825566509,0.7609175868,1128
80645,169075,210739,0.1495514125,-9.6825566509,0.7609175868,1129
80810,169114,210728,0.1495514125,-9.6825566509,0.7609175868,1130
80786,169103,210726,0.1495514125,-9.6825566509,0.7609175868,1131
80331,169115,210770,0.1495514125,-9.6825566509,0.7609175868,1132
79700,169058,210681,0.1495514125,-9.6825566509,0.7609175868,1133
79247,169010,210648,0.1495514125,-9.6825566509,0.7609175868,1134
79041,168996,210625,0.1495514125,-9.6825566509,0.7609175868,1135
78976,168946,210598,0.1495514125,-9.6825566509,0.7609175868,1136
79072,169002,210633,0.1495514125,-9.6825566509,0.7609175868,1137
79245,169032,210651,0.1495514125,-9.6825566509,0.7609175868,1138
79517,169035,210719,0.1495514125,-9.6825566509,0.7609175868,1139
79730,169045,210714,0.1495514125,-9.6825566509,0.7609175868,1140
79877,169068,210705,0.1495514125,-9.6825566509,0.7609175868,1141
80011,169057,210738,0.1495514125,-9.6825566509,0.7609175868,1142
80099,169069,210742,0.1495514125,-9.6825566509,0.7609175868,1143
80239,169045,210764,0.1495514125,-9.6825566509,0.7609175868,1144
80383,169068,210780,0.1495514125,-9.6825566509,0.7609175868,1145
80534,169086,210784,0.1495514125,-9.6825566509,0.7609175868,1146
80695,169084,210771,0.1495514125,-9.6825566509,0.7609175868,1147
80857,169108,210774,0.1495514125,-9.6825566509,0.7609175868,1148
80997,169141,210795,0.1495514125,-9.6825566509,0.7609175868,1149
80966,169130,210767,0.1495514125,-9.6825566509,0.7609175868,1150
80493,169110,210787,0.1495514125,-9.6825566509,0.7609175868,1151
79941,169079,210716,0.1495514125,-9.6825566509,0.7609175868,1152
79603,169041,210658,0.1495514125,-9.6825566509,0.7609175868,1153
79457,169026,210628,0.0,-9.7938229018,0.7034898444000001,1154
79470,169013,210655,0.0,-9.7938229018,0.7034898444000001,1155
79577,169055,210677,0.0,-9.7938229018,0.7034898444000001,1156
79809,169067,210759,0.0,-9.7938229018,0.7034898444000001,1157
80056,169083,210780,0.0,-9.7938229018,0.7034898444000001,1158
80258,169072,210783,0.0,-9.7938229018,0.7034898444000001,1159
80387,169085,210775,0.0,-9.7938229018,0.7034898444000001,1160
80503,169059,210794,-0.031106693799999998,-9.661021247499999,0.6628118601999999,1161
80646,169098,210803,-0.031106693799999998,-9.661021247499999,0.6628118601999999,1162
80783,169113,210840,-0.031106693799999998,-9.661021247499999,0.6628118601999999,1163
80947,169115,210822,-0.031106693799999998,-9.661021247499999,0.6628118601999999,1164
81131,169103,210819,-0.031106693799999998,-9.661021247499999,0.6628118601999999,1165
81289,169138,210846,-0.031106693799999998,-9.661021247499999,0.6628118601999999,1166
81464,169144,210854,-0.031106693799999998,-9.661021247499999,0.6628118601999999,1167
81642,169164,210900,-0.031106693799999998,-9.661021247499999,0.6628118601999999,1168
81746,169230,210855,-0.031106693799999998,-9.661021247499999,0.6628118601999999,1169
81558,169220,210875,-0.031106693799999998,-9.661021247499999,0.6628118601999999,1170
81093,169170,210829,-0.031106693799999998,-9.661021247499999,0.6628118601999999,1171
80701,169124,210792,-0.031106693799999998,-9.661021247499999,0.6628118601999999,1172
80507,169116,210735,-0.031106693799999998,-9.661021247499999,0.6628118601999999,1173
80455,169070,210790,-0.031106693799999998,-9.661021247499999,0.6628118601999999,1174
80515,169085,210761,-0.031106693799999998,-9.661021247499999,0.6628118601999999,1175
80690,169104,210794,-0.031106693799999998,-9.661021247499999,0.6628118601999999,1176
80926,169171,210853,-0.031106693799999998,-9.661021247499999,0.6628118601999999,1177
81133,169173,210818,-0.031106693799999998,-9.661021247499999,0.6628118601999999,1178
81285,169169,210828,-0.031106693799999998,-9.661021247499999,0.6628118601999999,1179
81411,169159,210832,-0.031106693799999998,-9.661021247499999,0.6628118601999999,1180
81536,169160,210862,-0.031106693799999998,-9.661021247499999,0.6628118601999999,1181
81671,169166,210880,-0.031106693799999998,-9.661021247499999,0.6628118601999999,1182
81813,169167,210861,-0.031106693799999998,-9.661021247499999,0.6628118601999999,1183
81982,169179,210868,-0.031106693799999998,-9.661021247499999,0.6628118601999999,1184
82135,169188,210915,-0.031106693799999998,-9.661021247499999,0.6628118601999999,1185
82292,169185,210900,-0.031106693799999998,-9.661021247499999,0.6628118601999999,1186
82462,169197,210899,-0.031106693799999998,-9.661021247499999,0.6628118601999999,1187
82436,169207,210900,-0.031106693799999998,-9.661021247499999,0.6628118601999999,1188
82118,169212,210906,-0.031106693799999998,-9.661021247499999,0.6628118601999999,1189
81756,169149,210845,-0.031106693799999998,-9.661021247499999,0.6628118601999999,1190
81533,169094,210803,-0.031106693799999998,-9.661021247499999,0.6628118601999999,1191
81480,169106,210762,-0.031106693799999998,-9.661021247499999,0.6628118601999999,1192
81529,169116,210762,-0.031106693799999998,-9.661021247499999,0.6628118601999999,1193
81672,169142,210824,-0.031106693799999998,-9.661021247499999,0.6628118601999999,1194
81867,169186,210832,-0.031106693799999998,-9.661021247499999,0.6628118601999999,1195
82053,169200,210878,-0.031106693799999998,-9.661021247499999,0.6628118601999999,1196
82179,169217,210853,-0.031106693799999998,-9.661021247499999,0.6628118601999999,1197
82283,169206,210869,-0.031106693799999998,-9.661021247499999,0.6628118601999999,1198
82386,169200,210887,-0.031106693799999998,-9.661021247499999,0.6628118601999999,1199
82516,169233,210887,-0.031106693799999998,-9.661021247499999,0.6628118601999999,1200
82649,169198,210906,-0.031106693799999998,-9.661021247499999,0.6628118601999999,1201
82767,169202,210904,-0.031106693799999998,-9.661021247499999,0.6628118601999999,1202
82213,169111,210738,0.155533469,-9.6993064091,0.6424728680999999,1203
81931,169096,210679,0.155533469,-9.6993064091,0.6424728680999999,1204
81785,169068,210679,0.155533469,-9.6993064091,0.6424728680999999,1205
81766,169079,210657,0.155533469,-9.6993064091,0.6424728680999999,1206
81834,169102,210672,0.155533469,-9.6993064091,0.6424728680999999,1207
81989,169149,210730,0.155533469,-9.6993064091,0.6424728680999999,1208
82155,169148,210751,0.155533469,-9.6993064091,0.6424728680999999,1209
82248,169192,210707,0.155533469,-9.6993064091,0.6424728680999999,1210
82330,169187,210731,0.155533469,-9.6993064091,0.6424728680999999,1211
82383,169153,210779,0.155533469,-9.6993064091,0.6424728680999999,1212
82482,169175,210732,0.155533469,-9.6993064091,0.6424728680999999,1213
82575,169144,210767,0.155533469,-9.6993064091,0.6424728680999999,1214
82678,169137,210759,0.155533469,-9.6993064091,0.6424728680999999,1215
82792,169131,210757,0.155533469,-9.6993064091,0.6424728680999999,1216
82715,169164,210752,0.155533469,-9.6993064091,0.6424728680999999,1217
82288,169131,210719,0.155533469,-9.6993064091,0.6424728680999999,1218
81713,169080,210647,0.155533469,-9.6993064091,0.6424728680999999,1219
81264,169025,210587,0.155533469,-9.6993064091,0.6424728680999999,1220
81001,168992,210580,0.155533469,-9.6993064091,0.6424728680999999,1221
80873,169043,210577,0.155533469,-9.6993064091,0.6424728680999999,1222
80872,169062,210606,0.155533469,-9.6993064091,0.6424728680999999,1223
81009,169088,210602,0.155533469,-9.6993064091,0.6424728680999999,1224
81221,169097,210652,0.155533469,-9.6993064091,0.6424728680999999,1225
81373,169077,210643,0.155533469,-9.6993064091,0.6424728680999999,1226
81482,169094,210659,0.155533469,-9.6993064091,0.6424728680999999,1227
81556,169096,210669,0.155533469,-9.6993064091,0.6424728680999999,1228
81651,169074,210696,0.155533469,-9.6993064091,0.6424728680999999,1229
81772,169069,210676,0.155533469,-9.6993064091,0.6424728680999999,1230
81896,169072,210678,0.155533469,-9.6993064091,0.6424728680999999,1231
81998,169094,210672,0.155533469,-9.6993064091,0.6424728680999999,1232
82141,169108,210684,0.155533469,-9.6993064091,0.6424728680999999,1233
82108,169097,210691,0.155533469,-9.6993064091,0.6424728680999999,1234
81645,169103,210675,0.155533469,-9.6993064091,0.6424728680999999,1235
81036,169049,210605,0.155533469,-9.6993064091,0.6424728680999999,1236
80550,168968,210529,0.155533469,-9.6993064091,0.6424728680999999,1237
80257,168943,210588,0.155533469,-9.6993064091,0.6424728680999999,1238
80107,168997,210519,0.155533469,-9.6993064091,0.6424728680999999,1239
80130,168967,210557,0.155533469,-9.6993064091,0.6424728680999999,1240
80261,169003,210598,0.155533469,-9.6993064091,0.6424728680999999,1241
80488,169048,210589,0.155533469,-9.6993064091,0.6424728680999999,1242
80653,169013,210641,0.155533469,-9.6993064091,0.6424728680999999,1243
80787,169007,210589,0.155533469,-9.6993064091,0.6424728680999999,1244
81076,169022,210701,0.022731814700000002,-9.6012006825,0.6795616184,1245
81208,169070,210683,0.022731814700000002,-9.6012006825,0.6795616184,1246
81186,169077,210737,0.022731814700000002,-9.6012006825,0.6795616184,1247
80697,169075,210717,0.022731814700000002,-9.6012006825,0.6795616184,1248
80060,169038,210631,0.022731814700000002,-9.6012006825,0.6795616184,1249
79613,168973,210642,0.022731814700000002,-9.6012006825,0.6795616184,1250
79402,168927,210551,0.022731814700000002,-9.6012006825,0.6795616184,1251
79348,168931,210609,0.022731814700000002,-9.6012006825,0.6795616184,1252
79417,168968,210532,0.022731814700000002,-9.6012006825,0.6795616184,1253
79613,168990,210596,0.022731814700000002,-9.6012006825,0.6795616184,1254
79882,168999,210622,0.022731814700000002,-9.6012006825,0.6795616184,1255
80061,169025,210658,0.022731814700000002,-9.6012006825,0.6795616184,1256
80195,169017,210630,0.022731814700000002,-9.6012006825,0.6795616184,1257
80308,169040,210653,0.022731814700000002,-9.6012006825,0.6795616184,1258
80402,169012,210710,0.022731814700000002,-9.6012006825,0.6795616184,1259
80539,169010,210665,0.022731814700000002,-9.6012006825,0.6795616184,1260
80681,169018,210703,0.022731814700000002,-9.6012006825,0.6795616184,1261
80806,169024,210682,0.022731814700000002,-9.6012006825,0.6795616184,1262
80960,169026,210692,0.022731814700000002,-9.6012006825,0.6795616184,1263
81098,169081,210727,0.022731814700000002,-9.6012006825,0.6795616184,1264
81207,169067,210732,0.022731814700000002,-9.6012006825,0.6795616184,1265
80993,169073,210746,0.022731814700000002,-9.6012006825,0.6795616184,1266
80397,169076,210683,0.022731814700000002,-9.6012006825,0.6795616184,1267
79883,169021,210643,0.022731814700000002,-9.6012006825,0.6795616184,1268
79609,168983,210609,0.022731814700000002,-9.6012006825,0.6795616184,1269
79521,168990,210580,0.022731814700000002,-9.6012006825,0.6795616184,1270
79571,168960,210608,0.022731814700000002,-9.6012006825,0.6795616184,1271
79738,169016,210647,0.022731814700000002,-9.6012006825,0.6795616184,1272
79988,169029,210650,0.022731814700000002,-9.6012006825,0.6795616184,1273
80233,169082,210696,0.022731814700000002,-9.6012006825,0.6795616184,1274
80398,169077,210696,0.022731814700000002,-9.6012006825,0.6795616184,1275
80529,169105,210774,0.022731814700000002,-9.6012006825,0.6795616184,1276
80620,169074,210733,0.022731814700000002,-9.6012006825,0.6795616184,1277
80768,169074,210717,0.022731814700000002,-9.6012006825,0.6795616184,1278
80907,169130,210733,0.022731814700000002,-9.6012006825,0.6795616184,1279
81070,169073,210754,0.022731814700000002,-9.6012006825,0.6795616184,1280
81210,169094,210805,0.022731814700000002,-9.6012006825,0.6795616184,1281
81388,169103,210826,0.022731814700000002,-9.6012006825,0.6795616184,1282
81546,169107,210807,-0.09092725880000001,-9.6454679006,0.7489534738,1283
81597,169114,210810,-0.09092725880000001,-9.6454679006,0.7489534738,1284
81274,169161,210823,-0.09092725880000001,-9.6454679006,0.7489534738,1285
80723,169123,210725,-0.09092725880000001,-9.6454679006,0.7489534738,1286
80332,169065,210688,-0.09092725880000001,-9.6454679006,0.7489534738,1287
80165,169026,210675,-0.09092725880000001,-9.6454679006,0.7489534738,1288
80156,169010,210645,0.0346959277,-9.7639126193,0.6963113766000001,1289
80284,169042,210687,0.0346959277,-9.7639126193,0.6963113766000001,1290
80486,169062,210706,0.0346959277,-9.7639126193,0.6963113766000001,1291
80728,169125,210788,0.0346959277,-9.7639126193,0.6963113766000001,1292
80920,169133,210752,0.0346959277,-9.7639126193,0.6963113766000001,1293
81053,169133,210790,0.0346959277,-9.7639126193,0.6963113766000001,1294
81149,169172,210834,0.0346959277,-9.7639126193,0.6963113766000001,1295
81278,169154,210784,-0.0035892339,-9.7471628611,0.71784678,1296
81400,169155,210808,-0.08374879099999999,-9.8010013696,0.7190431913,1297
81521,169155,210852,0.0394815729,-9.7710910871,0.7561319416,1298
81694,169126,210835,0.047856452,-9.7304131029,0.7465606512,1299
81852,169159,210874,0.047856452,-9.7304131029,0.7465606512,1300
82000,169169,210832,0.047856452,-9.7304131029,0.7465606512,1301
81990,169155,210830,-0.0574277424,-9.767501853199999,0.6723831506,1302
81561,169138,210821,-0.062213387599999996,-9.6406822554,0.6843472636,1303
81133,169107,210783,0.010767701699999998,-9.8033941922,0.6771687957999999,1304
80875,169047,210716,-0.062213387599999996,-9.8057870148,0.7836494015,1305
80817,169010,210712,-0.0765703232,-9.774680321,0.6508477471999999,1306
80888,169048,210745,-0.0693918554,-9.728020280299999,0.7405785947,1307
81036,169104,210757,-0.035892339,-9.7232346351,0.6723831506,1308
81282,169173,210764,0.021535403399999997,-9.7878408453,0.729810893,1309
81497,169178,210812,0.010767701699999998,-9.7722874984,0.6819544409999999,1310
81638,169204,210806,0.010767701699999998,-9.7722874984,0.6819544409999999,1311
81729,169210,210807,0.010767701699999998,-9.7722874984,0.6819544409999999,1312
81838,169205,210776,0.010767701699999998,-9.7722874984,0.6819544409999999,1313
81969,169208,210823,0.010767701699999998,-9.7722874984,0.6819544409999999,1314
82105,169196,210830,0.010767701699999998,-9.7722874984,0.6819544409999999,1315
82251,169195,210835,0.010767701699999998,-9.7722874984,0.6819544409999999,1316
82407,169219,210799,0.010767701699999998,-9.7722874984,0.6819544409999999,1317
82519,169198,210859,0.010767701699999998,-9.7722874984,0.6819544409999999,1318
82431,169207,210857,0.010767701699999998,-9.7722874984,0.6819544409999999,1319
82012,169185,210820,0.010767701699999998,-9.7722874984,0.6819544409999999,1320
81600,169124,210764,0.0167497582,-9.7651090306,0.7692924659,1321
81351,169077,210722,0.0167497582,-9.7651090306,0.7692924659,1322
81262,169069,210677,0.0167497582,-9.7651090306,0.7692924659,1323
81290,169085,210708,0.0167497582,-9.7651090306,0.7692924659,1324
81426,169100,210723,0.0167497582,-9.7651090306,0.7692924659,1325
81598,169134,210732,0.0167497582,-9.7651090306,0.7692924659,1326
81803,169207,210771,0.0167497582,-9.7651090306,0.7692924659,1327
81933,169183,210761,-0.045463629400000004,-9.8033941922,0.7154539574000001,1328
82016,169211,210776,-0.0753739119,-9.857232700700001,0.6580262149999999,1329
82103,169223,210817,0.0370887503,-9.7794659662,0.7357929495000001,1330
82224,169233,210842,-0.0334995164,-9.7471628611,0.7716852885,1331
82341,169174,210799,-0.0658026215,-9.678967417,0.6628118601999999,1332
82475,169196,210816,-0.0658026215,-9.678967417,0.6628118601999999,1333
82598,169200,210795,-0.059820565,-9.7555377402,0.6747759731999999,1334
82503,169160,210815,-0.0095712904,-9.7615197967,0.6891329087999999,1335
82191,169147,210816,0.045463629400000004,-9.7938229018,0.6699903279999999,1336
81731,169116,210702,0.0023928226,-9.741180804599999,0.6963113766000001,1337
81368,169060,210718,0.056231331100000004,-9.8273224182,0.7286144817,1338
81223,169013,210648,0.1148554848,-9.7770731436,0.7238288365000001,1339
81177,169062,210671,0.0023928226,-9.6179504407,0.6604190376,1340
81240,169121,210658,-0.12083754129999999,-9.6323073763,0.7573283529,1341
81412,169138,210708,-0.1387837108,-9.678967417,0.7082754896000001,1342
81593,169177,210709,-0.040677984199999996,-9.81057266,0.7118647235000001,1343
81754,169155,210704,-0.040677984199999996,-9.81057266,0.7118647235000001,1344
81881,169157,210720,-0.040677984199999996,-9.81057266,0.7118647235000001,1345
81958,169181,210746,-0.040677984199999996,-9.81057266,0.7118647235000001,1346
82054,169164,210751,-0.040677984199999996,-9.81057266,0.7118647235000001,1347
82172,169160,210754,-0.040677984199999996,-9.81057266,0.7118647235000001,1348
82308,169137,210767,-0.040677984199999996,-9.81057266,0.7118647235000001,1349
82424,169162,210794,-0.040677984199999996,-9.81057266,0.7118647235000001,1350
82462,169175,210760,-0.040677984199999996,-9.81057266,0.7118647235000001,1351
82112,169152,210797,-0.040677984199999996,-9.81057266,0.7118647235000001,1352
81592,169060,210702,-0.040677984199999996,-9.81057266,0.7118647235000001,1353
81152,169079,210661,-0.040677984199999996,-9.81057266,0.7118647235000001,1354
80867,169052,210623,-0.040677984199999996,-9.81057266,0.7118647235000001,1355
80724,169049,210662,-0.040677984199999996,-9.81057266,0.7118647235000001,1356
80742,169062,210652,-0.040677984199999996,-9.81057266,0.7118647235000001,1357
80830,169082,210622,-0.040677984199999996,-9.81057266,0.7118647235000001,1358
81049,169118,210633,-0.040677984199999996,-9.81057266,0.7118647235000001,1359
81233,169105,210652,-0.040677984199999996,-9.81057266,0.7118647235000001,1360
81378,169101,210672,-0.040677984199999996,-9.81057266,0.7118647235000001,1361
81458,169088,210676,-0.040677984199999996,-9.81057266,0.7118647235000001,1362
81547,169100,210715,-0.040677984199999996,-9.81057266,0.7118647235000001,1363
81665,169082,210681,-0.040677984199999996,-9.81057266,0.7118647235000001,1364
81782,169123,210711,-0.040677984199999996,-9.81057266,0.7118647235000001,1365
81904,169117,210731,-0.040677984199999996,-9.81057266,0.7118647235000001,1366
82022,169134,210750,-0.040677984199999996,-9.81057266,0.7118647235000001,1367
82052,169142,210707,-0.040677984199999996,-9.81057266,0.7118647235000001,1368
81673,169104,210734,-0.040677984199999996,-9.81057266,0.7118647235000001,1369
81102,169088,210671,-0.040677984199999996,-9.81057266,0.7118647235000001,1370
80632,169027,210603,-0.040677984199999996,-9.81057266,0.7118647235000001,1371
80337,169030,210580,-0.040677984199999996,-9.81057266,0.7118647235000001,1372
80219,169025,210619,-0.040677984199999996,-9.81057266,0.7118647235000001,1373
80229,169024,210616,-0.040677984199999996,-9.81057266,0.7118647235000001,1374
80341,169057,210653,-0.040677984199999996,-9.81057266,0.7118647235000001,1375
80568,169033,210653,-0.040677984199999996,-9.81057266,0.7118647235000001,1376
80763,169056,210684,-0.040677984199999996,-9.81057266,0.7118647235000001,1377
80899,169076,210634,-0.040677984199999996,-9.81057266,0.7118647235000001,1378
80989,169056,210643,-0.040677984199999996,-9.81057266,0.7118647235000001,1379
81080,169068,210695,-0.040677984199999996,-9.81057266,0.7118647235000001,1380
81189,169043,210736,-0.040677984199999996,-9.81057266,0.7118647235000001,1381
81313,169082,210724,-0.040677984199999996,-9.81057266,0.7118647235000001,1382
81424,169071,210700,-0.040677984199999996,-9.81057266,0.7118647235000001,1383
81577,169100,210718,-0.040677984199999996,-9.81057266,0.7118647235000001,1384
80771,169081,210771,-0.1136590735,-9.6897351187,0.6867400861999999,1385
80913,169082,210777,-0.1136590735,-9.6897351187,0.6867400861999999,1386
81038,169105,210768,-0.1136590735,-9.6897351187,0.6867400861999999,1387
81188,169094,210790,-0.1136590735,-9.6897351187,0.6867400861999999,1388
81320,169120,210831,-0.1136590735,-9.6897351187,0.6867400861999999,1389
81463,169134,210780,-0.1136590735,-9.6897351187,0.6867400861999999,1390
81465,169150,210846,-0.1136590735,-9.6897351187,0.6867400861999999,1391
81043,169129,210818,-0.1136590735,-9.6897351187,0.6867400861999999,1392
80469,169120,210750,-0.1136590735,-9.6897351187,0.6867400861999999,1393
80057,169078,210668,-0.1136590735,-9.6897351187,0.6867400861999999,1394
79873,169049,210716,-0.1136590735,-9.6897351187,0.6867400861999999,1395
79855,169028,210682,-0.1136590735,-9.6897351187,0.6867400861999999,1396
79960,169070,210731,-0.1136590735,-9.6897351187,0.6867400861999999,1397
80184,169084,210749,-0.1136590735,-9.6897351187,0.6867400861999999,1398
80408,169124,210766,-0.1136590735,-9.6897351187,0.6867400861999999,1399
80607,169121,210762,-0.1136590735,-9.6897351187,0.6867400861999999,1400
80736,169145,210805,-0.1136590735,-9.6897351187,0.6867400861999999,1401
80839,169136,210781,-0.1136590735,-9.6897351187,0.6867400861999999,1402
80938,169178,210819,-0.1136590735,-9.6897351187,0.6867400861999999,1403
81054,169165,210797,-0.1136590735,-9.6897351187,0.6867400861999999,1404
81181,169153,210840,-0.1136590735,-9.6897351187,0.6867400861999999,1405
81315,169174,210868,-0.1136590735,-9.6897351187,0.6867400861999999,1406
81482,169161,210869,-0.1136590735,-9.6897351187,0.6867400861999999,1407
81593,169182,210836,-0.1136590735,-9.6897351187,0.6867400861999999,1408
81440,169185,210887,-0.1136590735,-9.6897351187,0.6867400861999999,1409
80954,169154,210808,-0.1136590735,-9.6897351187,0.6867400861999999,1410
80477,169112,210743,-0.1136590735,-9.6897351187,0.6867400861999999,1411
80250,169095,210752,-0.1136590735,-9.6897351187,0.6867400861999999,1412
80194,169086,210747,-0.1136590735,-9.6897351187,0.6867400861999999,1413
80280,169104,210740,-0.1136590735,-9.6897351187,0.6867400861999999,1414
80478,169115,210754,-0.1136590735,-9.6897351187,0.6867400861999999,1415
80710,169165,210782,-0.1136590735,-9.6897351187,0.6867400861999999,1416
80912,169170,210798,-0.1136590735,-9.6897351187,0.6867400861999999,1417
81020,169154,210802,-0.1136590735,-9.6897351187,0.6867400861999999,1418
81105,169188,210827,-0.1136590735,-9.6897351187,0.6867400861999999,1419
81205,169187,210822,-0.1136590735,-9.6897351187,0.6867400861999999,1420
81331,169173,210808,-0.1136590735,-9.6897351187,0.6867400861999999,1421
81450,169210,210836,-0.1136590735,-9.6897351187,0.6867400861999999,1422
81607,169189,210848,-0.1136590735,-9.6897351187,0.6867400861999999,1423
81726,169174,210879,0.0071784678,-9.757930562799999,0.8027919822999999,1424
81858,169180,210845,0.0071784678,-9.757930562799999,0.8027919822999999,1425
81724,169190,210844,0.0071784678,-9.757930562799999,0.8027919822999999,1426
81225,169172,210866,0.0071784678,-9.757930562799999,0.8027919822999999,1427
80753,169101,210761,0.0071784678,-9.757930562799999,0.8027919822999999,1428
80501,169062,210721,0.0071784678,-9.757930562799999,0.8027919822999999,1429
80411,169052,210707,0.0071784678,-9.757930562799999,0.8027919822999999,1430
80442,169088,210711,0.0071784678,-9.757930562799999,0.8027919822999999,1431
80616,169073,210743,0.0071784678,-9.757930562799999,0.8027919822999999,1432
80822,169146,210795,0.0071784678,-9.757930562799999,0.8027919822999999,1433
81034,169188,210793,0.0071784678,-9.757930562799999,0.8027919822999999,1434
81150,169172,210778,0.0071784678,-9.757930562799999,0.8027919822999999,1435
81254,169174,210797,0.0071784678,-9.757930562799999,0.8027919822999999,1436
81330,169194,210785,0.0071784678,-9.757930562799999,0.8027919822999999,1437
81462,169175,210843,0.0071784678,-9.757930562799999,0.8027919822999999,1438
81575,169187,210838,0.0071784678,-9.757930562799999,0.8027919822999999,1439
81707,169178,210839,0.0071784678,-9.757930562799999,0.8027919822999999,1440
81841,169190,210795,0.0071784678,-9.757930562799999,0.8027919822999999,1441
81887,169172,210847,0.0071784678,-9.757930562799999,0.8027919822999999,1442
81560,169169,210804,0.0071784678,-9.757930562799999,0.8027919822999999,1443
81051,169124,210724,0.0071784678,-9.757930562799999,0.8027919822999999,1444
80622,169074,210685,0.0071784678,-9.757930562799999,0.8027919822999999,1445
80418,169049,210654,0.0071784678,-9.757930562799999,0.8027919822999999,1446
80336,169052,210650,0.0071784678,-9.757930562799999,0.8027919822999999,1447
80395,169069,210701,0.0071784678,-9.757930562799999,0.8027919822999999,1448
80532,169139,210704,0.0071784678,-9.757930562799999,0.8027919822999999,1449
80774,169141,210736,0.0071784678,-9.757930562799999,0.8027919822999999,1450
80974,169192,210720,0.0071784678,-9.757930562799999,0.8027919822999999,1451
81090,169158,210781,0.0071784678,-9.757930562799999,0.8027919822999999,1452
81174,169141,210781,0.0071784678,-9.757930562799999,0.8027919822999999,1453
81276,169159,210776,0.0071784678,-9.757930562799999,0.8027919822999999,1454
81401,169152,210760,0.0071784678,-9.757930562799999,0.8027919822999999,1455
81533,169133,210770,0.0071784678,-9.757930562799999,0.8027919822999999,1456
81674,169118,210747,0.0071784678,-9.757930562799999,0.8027919822999999,1457
81779,169131,210816,0.0071784678,-9.757930562799999,0.8027919822999999,1458
81708,169131,210803,0.0071784678,-9.757930562799999,0.8027919822999999,1459
81224,169121,210748,0.0071784678,-9.757930562799999,0.8027919822999999,1460
80682,169080,210705,0.0071784678,-9.757930562799999,0.8027919822999999,1461
80326,169040,210619,0.0071784678,-9.757930562799999,0.8027919822999999,1462
80152,169014,210629,0.0071784678,-9.757930562799999,0.8027919822999999,1463
80136,169064,210626,0.0071784678,-9.757930562799999,0.8027919822999999,1464
80188,169062,210664,0.0071784678,-9.757930562799999,0.8027919822999999,1465
80897,169096,210688,-0.12323036389999999,-9.8249295956,0.7668996433,1466
81004,169084,210686,-0.12323036389999999,-9.8249295956,0.7668996433,1467
81156,169080,210695,-0.12323036389999999,-9.8249295956,0.7668996433,1468
81301,169116,210701,-0.12323036389999999,-9.8249295956,0.7668996433,1469
81465,169133,210729,-0.12323036389999999,-9.8249295956,0.7668996433,1470
81593,169146,210736,-0.12323036389999999,-9.8249295956,0.7668996433,1471
81732,169173,210730,-0.12323036389999999,-9.8249295956,0.7668996433,1472
81794,169146,210728,-0.12323036389999999,-9.8249295956,0.7668996433,1473
81528,169185,210728,-0.12323036389999999,-9.8249295956,0.7668996433,1474
80912,169149,210695,-0.12323036389999999,-9.8249295956,0.7668996433,1475
80381,169069,210618,-0.12323036389999999,-9.8249295956,0.7668996433,1476
80041,169041,210632,-0.12323036389999999,-9.8249295956,0.7668996433,1477
79938,169021,210640,-0.12323036389999999,-9.8249295956,0.7668996433,1478
79936,169033,210626,-0.12323036389999999,-9.8249295956,0.7668996433,1479
80070,169063,210551,-0.12323036389999999,-9.8249295956,0.7668996433,1480
80299,169074,210652,-0.12323036389999999,-9.8249295956,0.7668996433,1481
80502,169092,210633,-0.12323036389999999,-9.8249295956,0.7668996433,1482
80677,169089,210653,-0.12323036389999999,-9.8249295956,0.7668996433,1483
80800,169071,210714,-0.12323036389999999,-9.8249295956,0.7668996433,1484
80886,169060,210689,-0.12323036389999999,-9.8249295956,0.7668996433,1485
80992,169076,210672,-0.12323036389999999,-9.8249295956,0.7668996433,1486
81128,169107,210669,-0.12323036389999999,-9.8249295956,0.7668996433,1487
81261,169107,210712,-0.12323036389999999,-9.8249295956,0.7668996433,1488
81399,169132,210702,-0.12323036389999999,-9.8249295956,0.7668996433,1489
81544,169154,210707,-0.12323036389999999,-9.8249295956,0.7668996433,1490
81687,169155,210691,-0.12323036389999999,-9.8249295956,0.7668996433,1491
81763,169209,210730,-0.12323036389999999,-9.8249295956,0.7668996433,1492
81662,169183,210740,-0.12323036389999999,-9.8249295956,0.7668996433,1493
81140,169186,210764,-0.12323036389999999,-9.8249295956,0.7668996433,1494
80537,169117,210686,-0.12323036389999999,-9.8249295956,0.7668996433,1495
80145,169085,210592,-0.12323036389999999,-9.8249295956,0.7668996433,1496
79992,169047,210568,-0.12323036389999999,-9.8249295956,0.7668996433,1497
79980,169057,210614,-0.12323036389999999,-9.8249295956,0.7668996433,1498
80112,169084,210631,-0.12323036389999999,-9.8249295956,0.7668996433,1499
80311,169081,210706,-0.12323036389999999,-9.8249295956,0.7668996433,1500
80547,169108,210667,-0.12323036389999999,-9.8249295956,0.7668996433,1501
80725,169097,210688,-0.12323036389999999,-9.8249295956,0.7668996433,1502
80854,169163,210703,-0.12323036389999999,-9.8249295956,0.7668996433,1503
80930,169134,210700,-0.12323036389999999,-9.8249295956,0.7668996433,1504
81042,169098,210722,-0.12323036389999999,-9.8249295956,0.7668996433,1505
81180,169154,210730,-0.12323036389999999,-9.8249295956,0.7668996433,1506
81292,169131,210774,-0.12323036389999999,-9.8249295956,0.7668996433,1507
81896,169272,210764,0.0095712904,-9.8368937086,0.7884350467,1508
82020,169291,210801,0.0095712904,-9.8368937086,0.7884350467,1509
82146,169269,210796,0.0095712904,-9.8368937086,0.7884350467,1510
82283,169267,210831,0.0095712904,-9.8368937086,0.7884350467,1511
82293,169267,210827,0.0095712904,-9.8368937086,0.7884350467,1512
81921,169260,210775,0.0095712904,-9.8368937086,0.7884350467,1513
81368,169233,210776,0.0095712904,-9.8368937086,0.7884350467,1514
80931,169154,210698,0.0095712904,-9.8368937086,0.7884350467,1515
80717,169143,210652,0.0095712904,-9.8368937086,0.7884350467,1516
80641,169121,210597,0.0095712904,-9.8368937086,0.7884350467,1517
80701,169147,210612,0.0095712904,-9.8368937086,0.7884350467,1518
80866,169165,210678,0.0095712904,-9.8368937086,0.7884350467,1519
81059,169225,210722,0.0095712904,-9.8368937086,0.7884350467,1520
81243,169225,210736,0.0095712904,-9.8368937086,0.7884350467,1521
81323,169278,210691,0.0095712904,-9.8368937086,0.7884350467,1522
81412,169265,210745,0.0095712904,-9.8368937086,0.7884350467,1523
81478,169259,210757,0.0095712904,-9.8368937086,0.7884350467,1524
81588,169243,210709,0.0095712904,-9.8368937086,0.7884350467,1525
81703,169277,210759,0.0095712904,-9.8368937086,0.7884350467,1526
81816,169252,210723,0.0095712904,-9.8368937086,0.7884350467,1527
81931,169251,210786,0.0095712904,-9.8368937086,0.7884350467,1528
81701,169225,210721,0.0095712904,-9.8368937086,0.7884350467,1529
81121,169182,210695,0.0095712904,-9.8368937086,0.7884350467,1530
80576,169133,210621,0.0095712904,-9.8368937086,0.7884350467,1531
80240,169070,210559,0.0095712904,-9.8368937086,0.7884350467,1532
80068,169070,210575,0.0095712904,-9.8368937086,0.7884350467,1533
80061,169120,210614,0.0095712904,-9.8368937086,0.7884350467,1534
80155,169132,210595,0.0095712904,-9.8368937086,0.7884350467,1535
80381,169192,210644,0.0095712904,-9.8368937086,0.7884350467,1536
80616,169194,210639,0.0095712904,-9.8368937086,0.7884350467,1537
80748,169205,210634,0.0095712904,-9.8368937086,0.7884350467,1538
80885,169196,210624,0.0095712904,-9.8368937086,0.7884350467,1539
80971,169187,210672,0.0095712904,-9.8368937086,0.7884350467,1540
