green,red,IR,acc_x,acc_y,acc_z,sample_index
118831,209520,249055,-5.2725845991,-7.5948189324,3.2386853891,1
117501,209230,248864,-5.072783911999999,-7.6402825618,3.1716863562999995,2
116313,209083,248743,-5.2019963324,-7.5756763516,3.2015966388,3
115279,209006,248662,-5.3395836319,-7.6235328036,3.2733813167999997,4
114951,208971,248613,-5.112265484900001,-7.6091758679999995,3.1441688964,5
114807,209003,248649,-5.182853751600001,-7.5960153436999995,3.1058837348,6
114998,209095,248735,-5.169693227300001,-7.543373246500001,3.1525437755,7
115595,209221,248814,-5.0632126216,-7.6438717957,3.1920253483999996,8
116030,209330,248863,-5.0213382261,-7.6187471584,3.2769705507,9
116399,209419,248872,-5.073980323300001,-7.651050263499999,3.1298119607999997,10
116839,209444,248912,-5.1960142759,-7.4907311493,3.1393832512,11
117095,209479,248926,-5.102694194500001,-7.6319076827,3.1298119607999997,12
117291,209488,248973,-5.112265484900001,-7.485945504099999,3.1477581302999997,13
117696,209562,248980,-5.248656373099999,-7.6283184488,3.1968109935999998,14
117986,209608,249111,-5.1493542352,-7.543373246500001,3.1728827676,15
118365,209719,249108,-5.1541398804,-7.505088084900001,3.0975088557,16
118674,209776,249169,-5.2115676228000005,-7.5242306657,3.2386853891,17
119010,209852,249201,-5.2462635505,-7.585247642000001,3.1537401868,18
119436,209920,249302,-5.2833523008,-7.708478005899999,3.1489545415999998,19
119918,209963,249315,-5.2833523008,-7.65703232,3.1238299043,20
120209,209983,249380,-5.1314080657000005,-7.6319076827,3.0735806297,21
120234,209956,249284,-5.1266224204999995,-7.514659375300001,3.1633114771999997,22
119361,209581,249055,-5.2917271799,-7.5996045776,3.1680971224,23
117947,209272,248875,-5.1074798397,-7.572087117700001,3.1728827676,24
116677,209094,248731,-5.0931229041,-7.447660342499999,3.1728827676,25
115672,209016,248666,-5.2737810104,-7.6474610296,3.1764720014999996,26
115206,208991,248625,-5.1218367753,-7.542176835199999,3.1214370817,27
115089,209020,248638,-5.2211389132,-7.6761749007999995,3.1812576466999998,28
115360,209136,248711,-5.182853751600001,-7.6366933279,3.1441688964,29
115777,209256,248801,-5.2259245584,-7.6151579245,3.1621150658999997,30
116365,209371,248921,-5.219942501899999,-7.4715885685,3.206382284,31
116623,209376,248895,-5.120640364,-7.5804619967999995,3.1154550251999997,32
117046,209464,248913,-5.2342994375,-7.6905318364,3.1381868399,33
117218,209486,248967,-5.315655405899999,-7.5756763516,3.1968109935999998,34
117571,209524,248998,-5.235495848799999,-7.6522466748,3.11066938,35
117841,209582,249019,-5.120640364,-7.5996045776,3.1728827676,36
118225,209610,249065,-5.1601219369,-7.556533770800001,3.0580272828,37
118607,209714,249157,-5.1541398804,-7.495516794499999,3.1429724850999996,38
118887,209764,249169,-5.1876393968,-7.5385876013,3.2015966388,39
119130,209840,249180,-5.2247281471,-7.5349983674,3.086741154,40
119654,209886,249292,-5.1589255256,-7.561319416,3.182454058,41
119915,209945,249274,-5.2211389132,-7.637889739199999,3.1728827676,42
120242,210029,249318,-5.1589255256,-7.5098737301,3.0915267992,43
120507,210077,249368,-5.1074798397,-7.666603610399999,3.1920253483999996,44
120328,209855,249267,-5.1110690735999995,-7.7096744172000005,3.1920253483999996,45
119198,209472,248979,-5.2067819775999995,-7.4763742137,3.1010980895999998,46
117715,209236,248810,-5.2259245584,-7.561319416,3.1764720014999996,47
116604,209105,248704,-5.197210687199999,-7.6426753844,3.1621150658999997,48
115854,209035,248684,-4.9974100001,-7.637889739199999,3.1022945009000003,49
115394,209013,248640,-5.1637111708,-7.4380890521,3.0975088557,50
115496,209087,248713,-5.1302116544,-7.5469624804,3.1381868399,51
115917,209200,248768,-5.197210687199999,-7.514659375300001,3.2004002275,52
116294,209352,248807,-5.288137946,-7.5864440533,3.1058837348,53
116701,209394,248901,-5.264209719999999,-7.5134629639999995,3.0197421212,54
117080,209433,248906,-5.2019963324,-7.495516794499999,3.1202406704,55
117393,209515,248963,-5.1110690735999995,-7.570890706399999,3.062812928,56
117665,209542,248990,-5.1170511301,-7.585247642000001,3.086741154,57
117971,209582,249040,-5.0919264928,-7.6055866341,3.158525832,58
118208,209645,249053,-5.2031927437,-7.585247642000001,3.1393832512,59
118567,209686,249116,-5.0596233877,-7.633104094,3.0484559924,60
118940,209793,249136,-5.102694194500001,-7.679764134699999,3.2482566795000003,61
119248,209845,249153,-5.1505506465,-7.5948189324,3.1298119607999997,62
119703,209913,249195,-5.3072805268000005,-7.5768727629,3.1202406704,63
119999,209951,249271,-5.2594240748,-7.6701928443,3.1154550251999997,64
120284,210029,249283,-5.1254260092,-7.5661050612,3.0675985732,65
120606,210117,249370,-5.2965128251,-7.6175507471,3.0723842184,66
120744,210017,249328,-5.2725845991,-7.5338019561000005,3.1142586138999997,67
120030,209695,249111,-5.182853751600001,-7.5984081663000005,3.1202406704,68
118737,209389,248899,-5.032105927799999,-7.5625158273,3.0496524037,69
117273,209181,248766,-5.102694194500001,-7.6091758679999995,3.1298119607999997,70
116379,209087,248666,-5.1266224204999995,-7.5290163108999995,3.0723842184,71
115900,209058,248663,-5.192425042,-7.5098737301,3.1716863562999995,72
115622,209100,248666,-5.1493542352,-7.6055866341,3.0245277664,73
115859,209151,248710,-5.2019963324,-7.505088084900001,3.1489545415999998,74
116179,209306,248778,-5.0931229041,-7.6426753844,3.1010980895999998,75
116624,209396,248844,-5.2965128251,-7.543373246500001,3.1154550251999997,76
116959,209436,248878,-5.0883372589,-7.65703232,3.1573294206999996,77
117332,209471,248911,-5.1780681064,-7.5948189324,3.1202406704,78
117493,209488,248908,-5.1780681064,-7.6043902228,3.1537401868,79
117841,209523,248937,-5.1732824612,-7.6630143765,3.1968109935999998,80
118061,209573,248950,-5.032105927799999,-7.6749784895,3.1022945009000003,81
118342,209589,249048,-5.1780681064,-7.4811598589,3.0017959517,82
118787,209691,249084,-5.0691946781,-7.6893354250999995,3.0975088557,83
118945,209733,249096,-5.1876393968,-7.8089765551,3.1118657913,84
119303,209794,249189,-5.169693227300001,-7.561319416,3.2195428083000004,85
119493,209806,249206,-5.2223353244999995,-7.5098737301,3.0771698636,86
119770,209874,249191,-5.2630133087,-7.6235328036,3.1680971224,87
120031,209906,249268,-5.102694194500001,-7.5003024396999995,3.1728827676,88
120080,209848,249231,-5.198407098500001,-7.561319416,3.2111679291999997,89
119352,209499,248982,-5.2438707279,-7.5996045776,3.1058837348,90
117835,209206,248807,-5.1780681064,-7.585247642000001,3.0831519201,91
116418,209013,248650,-5.1361937109,-7.6091758679999995,3.1250263156,92
115539,208923,248555,-5.1457650013,-7.7001031268,3.0927232105,93
114968,208924,248565,-5.2342994375,-7.6713892556,3.158525832,94
114872,208943,248523,-5.120640364,-7.6235328036,3.134597606,95
115075,209021,248589,-5.1936214533,-7.457231632899999,3.2004002275,96
115536,209173,248681,-5.182853751600001,-7.5948189324,3.2386853891,97
115977,209226,248723,-5.2737810104,-7.633104094,3.134597606,98
116281,209302,248789,-5.2630133087,-7.542176835199999,3.1393832512,99
116458,209316,248796,-5.045266452099999,-7.666603610399999,3.1094729686999996,100
116851,209381,248868,-5.197210687199999,-7.6055866341,3.1932217597,101
117063,209438,248890,-5.072783911999999,-7.7144600624,3.2482566795000003,102
117377,209451,248910,-5.3407800432,-7.5804619967999995,3.1776684127999997,103
117719,209562,248981,-5.2019963324,-7.6366933279,3.0819555088,104
118125,209601,249018,-5.140979356100001,-7.489534738000001,3.1010980895999998,105
118503,209664,249065,-5.1780681064,-7.5912296985,3.0915267992,106
118994,209738,249103,-5.2677989539,-7.6187471584,3.23031051,107
119139,209809,249171,-5.1637111708,-7.6474610296,3.1393832512,108
119551,209859,249218,-5.140979356100001,-7.5900332872,3.1621150658999997,109
119920,209973,249232,-5.0835516137,-7.6235328036,3.0675985732,110
120073,209930,249266,-5.2546384296,-7.570890706399999,3.1286155494999996,111
119546,209619,249060,-5.2785666556,-7.6761749007999995,3.1537401868,112
118239,209302,248874,-5.2115676228000005,-7.5385876013,3.1908289370999996,113
116814,209055,248653,-5.2067819775999995,-7.695317481599999,3.1441688964,114
115856,208959,248597,-5.2115676228000005,-7.6235328036,3.1860432919,115
115111,208922,248513,-5.1864429855,-7.6139615132000005,3.1633114771999997,116
114914,208935,248531,-5.087140847600001,-7.5864440533,3.1680971224,117
115041,208984,248606,-5.0213382261,-7.4907311493,3.086741154,118
115363,209126,248676,-4.9734817741,-7.6606215538999995,3.2195428083000004,119
115879,209217,248760,-5.3491549223,-7.5194450205,3.1238299043,120
116271,209276,248762,-5.216353268,-7.6283184488,3.1764720014999996,121
116596,209347,248792,-5.168496815999999,-7.542176835199999,3.2051858726999995,122
116886,209373,248826,-5.0787659685,-7.5134629639999995,3.1058837348,123
117129,209423,248880,-5.306084115499999,-7.7324062319,3.1621150658999997,124
117417,209484,248919,-5.2259245584,-7.6474610296,3.0687949845,125
117813,209528,248976,-5.2737810104,-7.6426753844,3.1633114771999997,126
118175,209605,249026,-5.2725845991,-7.4524459877,3.1286155494999996,127
118504,209651,249073,-5.192425042,-7.5948189324,3.1489545415999998,128
118876,209740,249102,-5.2319066149,-7.5673014725,3.1573294206999996,129
119252,209820,249187,-5.1541398804,-7.637889739199999,3.1920253483999996,130
119550,209877,249206,-5.2965128251,-7.637889739199999,3.1334011947,131
119927,209934,249251,-5.1732824612,-7.6462646183,3.0723842184,132
120227,209988,249301,-5.2438707279,-7.561319416,3.1716863562999995,133
120662,209994,249303,-5.0356951617,-7.570890706399999,3.1872397032,134
120172,209691,249125,-5.0644090329,-7.6845497799,3.0915267992,135
118780,209376,248859,-5.2019963324,-7.399803890499999,3.1633114771999997,136
117334,209134,248685,-5.363511857900001,-7.5625158273,3.0963124444,137
116192,209024,248640,-5.1637111708,-7.65703232,3.1393832512,138
115499,208949,248567,-5.240281494,-7.4763742137,3.1776684127999997,139
115318,208964,248532,-5.1457650013,-7.6091758679999995,3.134597606,140
115394,209065,248598,-5.1457650013,-7.5290163108999995,3.0340990568,141
115799,209182,248679,-5.168496815999999,-7.556533770800001,3.0915267992,142
116287,209300,248750,-5.112265484900001,-7.5385876013,3.1441688964,143
116603,209337,248787,-5.264209719999999,-7.633104094,3.1669007111,144
116958,209397,248841,-5.1218367753,-7.4811598589,3.0245277664,145
117221,209445,248886,-5.168496815999999,-7.7659057483,3.0675985732,146
117560,209476,248883,-5.1637111708,-7.6271220375,3.1537401868,147
117841,209496,248929,-5.2498527844,-7.572087117700001,3.0675985732,148
118116,209560,248965,-5.2438707279,-7.5278198996,3.134597606,149
118475,209618,248996,-5.251049195699999,-7.505088084900001,3.2243284535,150
118811,209697,249042,-5.168496815999999,-7.572087117700001,3.1537401868,151
119162,209768,249114,-5.1074798397,-7.5134629639999995,3.2398818003999996,152
119552,209832,249124,-5.0679982668,-7.5338019561000005,3.134597606,153
119818,209887,249164,-5.306084115499999,-7.5517481256,3.1202406704,154
120224,209946,249184,-5.192425042,-7.5673014725,3.1812576466999998,155
120613,210009,249265,-5.1637111708,-7.4201428826,3.1537401868,156
120404,209889,249176,-5.2450671392,-7.6103722793,3.158525832,157
119614,209481,248932,-5.0679982668,-7.637889739199999,3.1094729686999996,158
118212,209228,248756,-5.2965128251,-7.5900332872,2.9874390161,159
116988,209099,248640,-5.2498527844,-7.542176835199999,3.0963124444,160
116088,209007,248592,-5.1792645177,-7.5996045776,3.2338997439000003,161
115699,208988,248555,-5.1302116544,-7.5948189324,3.1956145822999997,162
115684,209052,248547,-5.1780681064,-7.6139615132000005,3.158525832,163
115936,209146,248595,-5.0787659685,-7.7276205867,3.1250263156,164
116363,209291,248727,-5.139782944799999,-7.6235328036,3.2338997439000003,165
116797,209349,248731,-5.1361937109,-7.5194450205,3.1058837348,166
117091,209382,248775,-5.210371211499999,-7.495516794499999,3.1956145822999997,167
117449,209431,248806,-5.2259245584,-7.5804619967999995,3.0053851856000002,168
117784,209467,248823,-5.182853751600001,-7.5517481256,3.038884702,169
117951,209490,248816,-5.2019963324,-7.6522466748,3.0161528873,170
118241,209548,248929,-5.197210687199999,-7.6295148601000005,3.0544380489000003,171
118449,209594,248964,-5.0883372589,-7.5804619967999995,3.1429724850999996,172
118901,209645,248991,-5.1792645177,-7.5900332872,3.1154550251999997,173
119088,209706,249048,-5.0691946781,-7.6079794567,3.0903303879,174
119436,209767,249044,-5.0931229041,-7.6295148601000005,3.0963124444,175
119703,209836,249112,-5.219942501899999,-7.5194450205,3.0580272828,176
120037,209884,249146,-5.312066172,-7.65703232,3.1728827676,177
120325,209915,249184,-5.312066172,-7.65703232,3.1728827676,178
120630,209949,249230,-5.312066172,-7.65703232,3.1728827676,179
120384,209734,249090,-5.312066172,-7.65703232,3.1728827676,180
119326,209387,248859,-5.312066172,-7.65703232,3.1728827676,181
117946,209137,248657,-5.312066172,-7.65703232,3.1728827676,182
116825,208994,248595,-5.312066172,-7.65703232,3.1728827676,183
116098,208974,248531,-5.312066172,-7.65703232,3.1728827676,184
115779,208928,248534,-5.312066172,-7.65703232,3.1728827676,185
115830,209041,248519,-5.312066172,-7.65703232,3.1728827676,186
116130,209150,248676,-5.312066172,-7.65703232,3.1728827676,187
116494,209238,248688,-5.312066172,-7.65703232,3.1728827676,188
116841,209288,248709,-5.312066172,-7.65703232,3.1728827676,189
117111,209338,248771,-5.312066172,-7.65703232,3.1728827676,190
117361,209345,248795,-5.312066172,-7.65703232,3.1728827676,191
117579,209389,248810,-5.312066172,-7.65703232,3.1728827676,192
117892,209402,248846,-5.312066172,-7.65703232,3.1728827676,193
118026,209448,248888,-5.312066172,-7.65703232,3.1728827676,194
118296,209502,248873,-5.312066172,-7.65703232,3.1728827676,195
118553,209562,248938,-5.312066172,-7.65703232,3.1728827676,196
118903,209593,248957,-5.312066172,-7.65703232,3.1728827676,197
119204,209683,249015,-5.312066172,-7.65703232,3.1728827676,198
119521,209710,249085,-5.312066172,-7.65703232,3.1728827676,199
119833,209771,249115,-5.312066172,-7.65703232,3.1728827676,200
120125,209826,249159,-5.312066172,-7.65703232,3.1728827676,201
120233,209768,249122,-5.312066172,-7.65703232,3.1728827676,202
119519,209462,248931,-5.312066172,-7.65703232,3.1728827676,203
118278,209155,248689,-5.312066172,-7.65703232,3.1728827676,204
117069,209019,248574,-5.312066172,-7.65703232,3.1728827676,205
116277,208884,248499,-5.312066172,-7.65703232,3.1728827676,206
115763,208860,248470,-5.312066172,-7.65703232,3.1728827676,207
115655,208930,248473,-5.312066172,-7.65703232,3.1728827676,208
115871,208988,248543,-5.312066172,-7.65703232,3.1728827676,209
116244,209129,248677,-5.045266452099999,-7.5134629639999995,3.1058837348,210
116679,209220,248669,-5.045266452099999,-7.5134629639999995,3.1058837348,211
117103,209272,248756,-5.045266452099999,-7.5134629639999995,3.1058837348,212
117367,209321,248749,-5.045266452099999,-7.5134629639999995,3.1058837348,213
117698,209356,248812,-5.045266452099999,-7.5134629639999995,3.1058837348,214
117906,209410,248834,-5.045266452099999,-7.5134629639999995,3.1058837348,215
118321,209453,248857,-5.045266452099999,-7.5134629639999995,3.1058837348,216
118644,209523,248905,-5.045266452099999,-7.5134629639999995,3.1058837348,217
118976,209593,248952,-5.045266452099999,-7.5134629639999995,3.1058837348,218
119375,209664,249044,-5.045266452099999,-7.5134629639999995,3.1058837348,219
119721,209749,249074,-5.045266452099999,-7.5134629639999995,3.1058837348,220
120081,209826,249126,-5.045266452099999,-7.5134629639999995,3.1058837348,221
120404,209880,249163,-5.045266452099999,-7.5134629639999995,3.1058837348,222
120723,209914,249220,-5.045266452099999,-7.5134629639999995,3.1058837348,223
121032,210003,249240,-5.045266452099999,-7.5134629639999995,3.1058837348,224
121310,210028,249259,-5.045266452099999,-7.5134629639999995,3.1058837348,225
121036,209782,249102,-5.045266452099999,-7.5134629639999995,3.1058837348,226
120044,209427,248912,-5.045266452099999,-7.5134629639999995,3.1058837348,227
118830,209219,248728,-5.045266452099999,-7.5134629639999995,3.1058837348,228
117921,209094,248677,-5.045266452099999,-7.5134629639999995,3.1058837348,229
117341,209054,248615,-5.045266452099999,-7.5134629639999995,3.1058837348,230
117064,209051,248614,-5.045266452099999,-7.5134629639999995,3.1058837348,231
117105,209134,248678,-5.045266452099999,-7.5134629639999995,3.1058837348,232
117418,209241,248701,-5.045266452099999,-7.5134629639999995,3.1058837348,233
117820,209346,248795,-5.045266452099999,-7.5134629639999995,3.1058837348,234
118198,209402,248831,-5.045266452099999,-7.5134629639999995,3.1058837348,235
118428,209437,248786,-5.2307102036,-7.7419775223,3.1525437755,236
118840,209475,248890,-5.2307102036,-7.7419775223,3.1525437755,237
119023,209536,248907,-5.2307102036,-7.7419775223,3.1525437755,238
119332,209572,248933,-5.2307102036,-7.7419775223,3.1525437755,239
119548,209594,248950,-5.2307102036,-7.7419775223,3.1525437755,240
119847,209666,249027,-5.2307102036,-7.7419775223,3.1525437755,241
120165,209735,249033,-5.2307102036,-7.7419775223,3.1525437755,242
120484,209822,249133,-5.2307102036,-7.7419775223,3.1525437755,243
120824,209899,249182,-5.2307102036,-7.7419775223,3.1525437755,244
121151,209965,249230,-5.2307102036,-7.7419775223,3.1525437755,245
121448,210004,249270,-5.2307102036,-7.7419775223,3.1525437755,246
121691,210060,249294,-5.2307102036,-7.7419775223,3.1525437755,247
122025,210122,249350,-5.2307102036,-7.7419775223,3.1525437755,248
122319,210163,249388,-5.2677989539,-7.6319076827,3.0544380489000003,249
122402,210025,249263,-5.2677989539,-7.6319076827,3.0544380489000003,250
121455,209647,249023,-5.2677989539,-7.6319076827,3.0544380489000003,251
120445,209389,248886,-5.2677989539,-7.6319076827,3.0544380489000003,252
119360,209282,248731,-5.2677989539,-7.6319076827,3.0544380489000003,253
118695,209212,248711,-5.2677989539,-7.6319076827,3.0544380489000003,254
118331,209178,248659,-5.2677989539,-7.6319076827,3.0544380489000003,255
118244,209205,248731,-5.2677989539,-7.6319076827,3.0544380489000003,256
118503,209327,248800,-5.2677989539,-7.6319076827,3.0544380489000003,257
118845,209410,248852,-5.2677989539,-7.6319076827,3.0544380489000003,258
119178,209517,248896,-5.2677989539,-7.6319076827,3.0544380489000003,259
119473,209538,248934,-5.2677989539,-7.6319076827,3.0544380489000003,260
119707,209561,248982,-5.2677989539,-7.6319076827,3.0544380489000003,261
119954,209594,248996,-5.2677989539,-7.6319076827,3.0544380489000003,262
120158,209664,249004,-5.2677989539,-7.6319076827,3.0544380489000003,263
120407,209729,249031,-5.2677989539,-7.6319076827,3.0544380489000003,264
120676,209751,249104,-5.2677989539,-7.6319076827,3.0544380489000003,265
120965,209807,249154,-5.2677989539,-7.6319076827,3.0544380489000003,266
121273,209888,249200,-5.2677989539,-7.6319076827,3.0544380489000003,267
121567,209983,249212,-5.2677989539,-7.6319076827,3.0544380489000003,268
121858,210022,249274,-5.2677989539,-7.6319076827,3.0544380489000003,269
122143,210063,249292,-5.2677989539,-7.6319076827,3.0544380489000003,270
122425,210135,249339,-5.2677989539,-7.6319076827,3.0544380489000003,271
122680,210151,249383,-5.2677989539,-7.6319076827,3.0544380489000003,272
122828,210169,249377,-5.2677989539,-7.6319076827,3.0544380489000003,273
122345,209852,249198,-5.2677989539,-7.6319076827,3.0544380489000003,274
121291,209512,248951,-5.2677989539,-7.6319076827,3.0544380489000003,275
120303,209341,248849,-5.2677989539,-7.6319076827,3.0544380489000003,276
119562,209236,248766,-5.2677989539,-7.6319076827,3.0544380489000003,277
119100,209245,248739,-5.2677989539,-7.6319076827,3.0544380489000003,278
118934,209260,248768,-5.2677989539,-7.6319076827,3.0544380489000003,279
119037,209356,248835,-5.2677989539,-7.6319076827,3.0544380489000003,280
119331,209464,248851,-5.2677989539,-7.6319076827,3.0544380489000003,281
119650,209566,248948,-5.2677989539,-7.6319076827,3.0544380489000003,282
119966,209589,248954,-5.2677989539,-7.6319076827,3.0544380489000003,283
120189,209631,249012,-5.2677989539,-7.6319076827,3.0544380489000003,284
120390,209654,248982,-5.2677989539,-7.6319076827,3.0544380489000003,285
120583,209682,249034,-5.2677989539,-7.6319076827,3.0544380489000003,286
120796,209726,249030,-5.2677989539,-7.6319076827,3.0544380489000003,287
121033,209778,249074,-5.2677989539,-7.6319076827,3.0544380489000003,288
121274,209818,249102,-5.2677989539,-7.6319076827,3.0544380489000003,289
121525,209889,249145,-5.2677989539,-7.6319076827,3.0544380489000003,290
116963,209292,248635,-5.2594240748,-7.5481588917,3.1489545415999998,291
117513,209380,248729,-5.2594240748,-7.5481588917,3.1489545415999998,292
117726,209414,248753,-5.2594240748,-7.5481588917,3.1489545415999998,293
118132,209420,248757,-5.2594240748,-7.5481588917,3.1489545415999998,294
118207,209438,248766,-5.2594240748,-7.5481588917,3.1489545415999998,295
118421,209493,248811,-5.2594240748,-7.5481588917,3.1489545415999998,296
118775,209564,248873,-5.2594240748,-7.5481588917,3.1489545415999998,297
118959,209602,248908,-5.2594240748,-7.5481588917,3.1489545415999998,298
119372,209699,248960,-5.2594240748,-7.5481588917,3.1489545415999998,299
119670,209746,248979,-5.2594240748,-7.5481588917,3.1489545415999998,300
120052,209808,249046,-5.2594240748,-7.5481588917,3.1489545415999998,301
120308,209902,249084,-5.2594240748,-7.5481588917,3.1489545415999998,302
120602,209957,249144,-5.2594240748,-7.5481588917,3.1489545415999998,303
120917,210002,249169,-5.2594240748,-7.5481588917,3.1489545415999998,304
121265,210071,249183,-5.2594240748,-7.5481588917,3.1489545415999998,305
121301,209978,249158,-5.2594240748,-7.5481588917,3.1489545415999998,306
120685,209663,248941,-5.2594240748,-7.5481588917,3.1489545415999998,307
119234,209320,248719,-5.2594240748,-7.5481588917,3.1489545415999998,308
117962,209152,248577,-5.2594240748,-7.5481588917,3.1489545415999998,309
117037,209044,248509,-5.2594240748,-7.5481588917,3.1489545415999998,310
116620,209046,248469,-5.2594240748,-7.5481588917,3.1489545415999998,311
116387,209059,248501,-5.2594240748,-7.5481588917,3.1489545415999998,312
116558,209156,248528,-5.2594240748,-7.5481588917,3.1489545415999998,313
116920,209283,248583,-5.2594240748,-7.5481588917,3.1489545415999998,314
117321,209359,248688,-5.2594240748,-7.5481588917,3.1489545415999998,315
117651,209415,248705,-5.2594240748,-7.5481588917,3.1489545415999998,316
117913,209436,248706,-5.2594240748,-7.5481588917,3.1489545415999998,317
118134,209456,248745,-5.2594240748,-7.5481588917,3.1489545415999998,318
118364,209490,248751,-5.2594240748,-7.5481588917,3.1489545415999998,319
118624,209539,248791,-5.2594240748,-7.5481588917,3.1489545415999998,320
118867,209591,248824,-5.2594240748,-7.5481588917,3.1489545415999998,321
119147,209646,248888,-5.2594240748,-7.5481588917,3.1489545415999998,322
119457,209673,248930,-5.2594240748,-7.5481588917,3.1489545415999998,323
119779,209781,248939,-5.2594240748,-7.5481588917,3.1489545415999998,324
120069,209827,248979,-5.2594240748,-7.5481588917,3.1489545415999998,325
120312,209842,249029,-5.2594240748,-7.5481588917,3.1489545415999998,326
120595,209912,249087,-5.2594240748,-7.5481588917,3.1489545415999998,327
120858,209967,249106,-5.2594240748,-7.5481588917,3.1489545415999998,328
120992,209938,249085,-5.2594240748,-7.5481588917,3.1489545415999998,329
120500,209600,248908,-5.2594240748,-7.5481588917,3.1489545415999998,330
119241,209302,248681,-5.2594240748,-7.5481588917,3.1489545415999998,331
117867,209063,248540,-5.2594240748,-7.5481588917,3.1489545415999998,332
118148,209471,248794,-5.344369277099999,-7.585247642000001,3.062812928,333
118375,209475,248796,-5.344369277099999,-7.585247642000001,3.062812928,334
118668,209527,248831,-5.344369277099999,-7.585247642000001,3.062812928,335
118935,209592,248842,-5.344369277099999,-7.585247642000001,3.062812928,336
119316,209646,248957,-5.344369277099999,-7.585247642000001,3.062812928,337
119509,209707,248939,-5.344369277099999,-7.585247642000001,3.062812928,338
119745,209744,248953,-5.344369277099999,-7.585247642000001,3.062812928,339
119988,209769,249012,-5.344369277099999,-7.585247642000001,3.062812928,340
120052,209639,248918,-5.344369277099999,-7.585247642000001,3.062812928,341
118952,209327,248687,-5.344369277099999,-7.585247642000001,3.062812928,342
117474,209046,248474,-5.344369277099999,-7.585247642000001,3.062812928,343
116165,208862,248365,-5.344369277099999,-7.585247642000001,3.062812928,344
115325,208830,248335,-5.344369277099999,-7.585247642000001,3.062812928,345
114854,208816,248274,-5.344369277099999,-7.585247642000001,3.062812928,346
114787,208838,248300,-5.344369277099999,-7.585247642000001,3.062812928,347
115054,208912,248419,-5.344369277099999,-7.585247642000001,3.062812928,348
115490,209061,248460,-5.344369277099999,-7.585247642000001,3.062812928,349
115921,209114,248502,-5.344369277099999,-7.585247642000001,3.062812928,350
116300,209202,248560,-5.344369277099999,-7.585247642000001,3.062812928,351
116590,209222,248594,-5.344369277099999,-7.585247642000001,3.062812928,352
116891,209288,248589,-5.344369277099999,-7.585247642000001,3.062812928,353
117120,209336,248639,-5.344369277099999,-7.585247642000001,3.062812928,354
117459,209356,248665,-5.344369277099999,-7.585247642000001,3.062812928,355
117807,209414,248761,-5.344369277099999,-7.585247642000001,3.062812928,356
118169,209544,248832,-5.344369277099999,-7.585247642000001,3.062812928,357
118517,209558,248889,-5.344369277099999,-7.585247642000001,3.062812928,358
118881,209686,248894,-5.344369277099999,-7.585247642000001,3.062812928,359
119256,209711,248968,-5.344369277099999,-7.585247642000001,3.062812928,360
119637,209813,249037,-5.344369277099999,-7.585247642000001,3.062812928,361
119949,209844,249100,-5.344369277099999,-7.585247642000001,3.062812928,362
120293,209914,249140,-5.344369277099999,-7.585247642000001,3.062812928,363
120564,209962,249158,-5.344369277099999,-7.585247642000001,3.062812928,364
120241,209719,249009,-5.344369277099999,-7.585247642000001,3.062812928,365
119052,209339,248777,-5.2115676228000005,-7.5529445369,3.1250263156,366
117584,209097,248569,-5.2115676228000005,-7.5529445369,3.1250263156,367
116357,208940,248477,-5.2115676228000005,-7.5529445369,3.1250263156,368
115650,208880,248430,-5.2115676228000005,-7.5529445369,3.1250263156,369
115258,208893,248372,-5.2115676228000005,-7.5529445369,3.1250263156,370
115309,208957,248436,-5.2115676228000005,-7.5529445369,3.1250263156,371
115906,209081,248490,-5.2893343573,-7.637889739199999,3.1489545415999998,372
116069,209188,248564,-5.1218367753,-7.5768727629,3.1154550251999997,373
116472,209218,248628,-5.140979356100001,-7.6043902228,3.1393832512,374
116780,209267,248653,-5.1732824612,-7.585247642000001,3.1298119607999997,375
117197,209319,248649,-5.1266224204999995,-7.6905318364,3.0915267992,376
117403,209352,248703,-5.192425042,-7.6989067155,3.1441688964,377
117681,209390,248723,-5.2211389132,-7.505088084900001,3.1393832512,378
117937,209439,248757,-5.0835516137,-7.6295148601000005,3.2291140987,379
118344,209517,248769,-5.240281494,-7.6043902228,3.1764720014999996,380
118567,209584,248846,-5.1314080657000005,-7.5696942951,3.0963124444,381
118975,209644,248914,-5.1936214533,-7.561319416,3.1860432919,382
119262,209724,248948,-5.292923591199999,-7.5996045776,3.1860432919,383
119720,209786,248956,-5.2259245584,-7.6749784895,3.11066938,384
119921,209816,249021,-5.240281494,-7.6175507471,3.038884702,385
120272,209885,249082,-5.321637462399999,-7.633104094,3.1489545415999998,386
120590,209940,249107,-5.321637462399999,-7.633104094,3.1489545415999998,387
120578,209774,249048,-5.321637462399999,-7.633104094,3.1489545415999998,388
119668,209448,248775,-5.321637462399999,-7.633104094,3.1489545415999998,389
118354,209136,248556,-5.321637462399999,-7.633104094,3.1489545415999998,390
116983,208971,248435,-5.321637462399999,-7.633104094,3.1489545415999998,391
116090,208920,248357,-5.0548377425,-7.5194450205,3.0257241777000004,392
115618,208887,248326,-5.1349972996,-7.570890706399999,3.1046873235,393
115563,208915,248346,-5.3252266963,-7.5673014725,3.1058837348,394
115849,209012,248415,-5.1936214533,-7.6618179652,3.182454058,395
116185,209130,248451,-5.0644090329,-7.6055866341,3.1968109935999998,396
116655,209218,248559,-5.1888358081,-7.5936225210999995,3.1669007111,397
117086,209276,248580,-5.1457650013,-7.4237321165,3.1058837348,398
117427,209299,248624,-5.0632126216,-7.5326055448,3.2530423247,399
117618,209309,248634,-5.032105927799999,-7.429714173,3.1908289370999996,400
117861,209353,248672,-5.4209396003000005,-7.7036923607,3.0161528873,401
118161,209408,248676,-5.169693227300001,-7.570890706399999,3.0544380489000003,402
118448,209452,248754,-5.248656373099999,-7.5912296985,3.086741154,403
118850,209525,248788,-5.0404808069,-7.6438717957,3.0963124444,404
119066,209591,248831,-5.112265484900001,-7.5134629639999995,3.0436703472,405
119384,209654,248874,-5.2785666556,-7.6235328036,3.0197421212,406
119759,209700,248898,-5.192425042,-7.5816584081,3.1393832512,407
120061,209790,248953,-5.2127640341,-7.6043902228,3.2051858726999995,408
120403,209827,249000,-5.2127640341,-7.6043902228,3.2051858726999995,409
120708,209898,249000,-5.2127640341,-7.6043902228,3.2051858726999995,410
120867,209828,249023,-5.2127640341,-7.6043902228,3.2051858726999995,411
120167,209512,248767,-5.3204410510999995,-7.6151579245,3.1537401868,412
118850,209185,248581,-5.182853751600001,-7.6187471584,3.0532416376,413
117693,208993,248449,-5.3024948815999995,-7.6749784895,3.1190442591,414
116904,208930,248331,-5.2151568567,-7.718049296299999,3.1537401868,415
116149,208875,248321,-5.235495848799999,-7.5003024396999995,3.11066938,416
115944,208920,248326,-5.155336291699999,-7.542176835199999,3.0340990568,417
116125,208986,248398,-5.334797986699999,-7.570890706399999,3.1154550251999997,418
116548,209118,248474,-5.0979085493,-7.5338019561000005,3.1202406704,419
116993,209230,248513,-5.0979085493,-7.5338019561000005,3.1202406704,420
117356,209258,248562,-5.0979085493,-7.5338019561000005,3.1202406704,421
117653,209294,248572,-5.0979085493,-7.5338019561000005,3.1202406704,422
117908,209350,248606,-5.0979085493,-7.5338019561000005,3.1202406704,423
118122,209358,248606,-5.0979085493,-7.5338019561000005,3.1202406704,424
118389,209424,248654,-5.0979085493,-7.5338019561000005,3.1202406704,425
118678,209462,248682,-5.0979085493,-7.5338019561000005,3.1202406704,426
118976,209521,248696,-5.0979085493,-7.5338019561000005,3.1202406704,427
119287,209605,248736,-5.0979085493,-7.5338019561000005,3.1202406704,428
119603,209666,248844,-5.0979085493,-7.5338019561000005,3.1202406704,429
120030,209697,248874,-5.0979085493,-7.5338019561000005,3.1202406704,430
120179,209737,248873,-5.0979085493,-7.5338019561000005,3.1202406704,431
120447,209789,248931,-5.0979085493,-7.5338019561000005,3.1202406704,432
120762,209839,248968,-5.0979085493,-7.5338019561000005,3.1202406704,433
120870,209797,248918,-5.0979085493,-7.5338019561000005,3.1202406704,434
120179,209446,248688,-5.0979085493,-7.5338019561000005,3.1202406704,435
118893,209150,248465,-5.0979085493,-7.5338019561000005,3.1202406704,436
117630,208964,248357,-5.0979085493,-7.5338019561000005,3.1202406704,437
116744,208863,248295,-5.197210687199999,-7.4668029232999995,3.2195428083000004,438
116402,208858,248268,-5.197210687199999,-7.4668029232999995,3.2195428083000004,439
116149,208907,248304,-5.197210687199999,-7.4668029232999995,3.2195428083000004,440
116292,209008,248357,-5.197210687199999,-7.4668029232999995,3.2195428083000004,441
116665,209100,248387,-5.197210687199999,-7.4668029232999995,3.2195428083000004,442
117029,209172,248492,-5.197210687199999,-7.4668029232999995,3.2195428083000004,443
117335,209212,248492,-5.197210687199999,-7.4668029232999995,3.2195428083000004,444
117539,209223,248493,-5.1230331866,-7.4991060284,3.0915267992,445
117756,209246,248526,-5.1230331866,-7.4991060284,3.0915267992,446
117944,209274,248579,-5.1230331866,-7.4991060284,3.0915267992,447
118125,209289,248640,-5.1230331866,-7.4991060284,3.0915267992,448
118337,209330,248642,-5.1230331866,-7.4991060284,3.0915267992,449
118552,209361,248619,-5.1230331866,-7.4991060284,3.0915267992,450
118774,209404,248670,-5.1230331866,-7.4991060284,3.0915267992,451
119017,209431,248721,-5.1230331866,-7.4991060284,3.0915267992,452
119257,209488,248750,-5.1230331866,-7.4991060284,3.0915267992,453
119493,209528,248796,-5.1230331866,-7.4991060284,3.0915267992,454
119754,209573,248805,-5.1230331866,-7.4991060284,3.0915267992,455
119958,209600,248834,-5.1230331866,-7.4991060284,3.0915267992,456
119662,209389,248727,-5.1230331866,-7.4991060284,3.0915267992,457
118518,209059,248485,-5.1230331866,-7.4991060284,3.0915267992,458
117057,208804,248331,-5.1230331866,-7.4991060284,3.0915267992,459
115864,208707,248213,-5.1230331866,-7.4991060284,3.0915267992,460
115123,208665,248183,-5.1230331866,-7.4991060284,3.0915267992,461
114792,208657,248138,-5.1230331866,-7.4991060284,3.0915267992,462
114825,208718,248192,-5.1230331866,-7.4991060284,3.0915267992,463
115141,208832,248233,-5.1230331866,-7.4991060284,3.0915267992,464
115617,208907,248342,-5.1230331866,-7.4991060284,3.0915267992,465
116024,209035,248367,-5.1230331866,-7.4991060284,3.0915267992,466
116397,209086,248394,-5.1230331866,-7.4991060284,3.0915267992,467
116656,209074,248418,-5.1230331866,-7.4991060284,3.0915267992,468
116953,209152,248481,-5.1230331866,-7.4991060284,3.0915267992,469
117254,209183,248512,-5.1230331866,-7.4991060284,3.0915267992,470
117589,209230,248528,-5.1230331866,-7.4991060284,3.0915267992,471
117919,209319,248578,-5.1230331866,-7.4991060284,3.0915267992,472
118279,209410,248676,-5.1230331866,-7.4991060284,3.0915267992,473
118653,209460,248708,-5.1230331866,-7.4991060284,3.0915267992,474
118990,209536,248737,-5.1230331866,-7.4991060284,3.0915267992,475
119341,209587,248774,-5.1230331866,-7.4991060284,3.0915267992,476
119667,209641,248824,-5.1230331866,-7.4991060284,3.0915267992,477
119997,209674,248863,-5.1230331866,-7.4991060284,3.0915267992,478
119992,209619,248845,-5.1230331866,-7.4991060284,3.0915267992,479
119216,209265,248594,-5.1230331866,-7.4991060284,3.0915267992,480
117813,208981,248385,-5.1230331866,-7.4991060284,3.0915267992,481
116539,208811,248278,-5.1230331866,-7.4991060284,3.0915267992,482
115660,208717,248211,-5.1230331866,-7.4991060284,3.0915267992,483
115203,208701,248160,-5.264209719999999,-7.4811598589,3.1154550251999997,484
115151,208742,248175,-5.264209719999999,-7.4811598589,3.1154550251999997,485
115322,208837,248200,-5.264209719999999,-7.4811598589,3.1154550251999997,486
115701,208938,248315,-5.264209719999999,-7.4811598589,3.1154550251999997,487
116208,209022,248369,-5.264209719999999,-7.4811598589,3.1154550251999997,488
116595,209086,248368,-5.264209719999999,-7.4811598589,3.1154550251999997,489
116953,209108,248400,-5.264209719999999,-7.4811598589,3.1154550251999997,490
117120,209160,248413,-5.264209719999999,-7.4811598589,3.1154550251999997,491
117435,209193,248476,-5.084748025,-7.6139615132000005,3.2769705507,492
117737,209243,248536,-5.155336291699999,-7.5900332872,3.0532416376,493
117990,209292,248564,-5.2271209697000005,-7.5278198996,3.1334011947,494
118407,209375,248584,-5.1876393968,-7.6175507471,3.1190442591,495
118730,209444,248618,-5.1589255256,-7.65703232,3.1477581302999997,496
119102,209509,248679,-5.1589255256,-7.65703232,3.1477581302999997,497
119436,209559,248754,-5.1589255256,-7.65703232,3.1477581302999997,498
119748,209616,248803,-5.1589255256,-7.65703232,3.1477581302999997,499
120079,209692,248843,-5.1589255256,-7.65703232,3.1477581302999997,500
120264,209649,248791,-5.1589255256,-7.65703232,3.1477581302999997,501
119765,209346,248623,-5.1589255256,-7.65703232,3.1477581302999997,502
118526,209026,248391,-5.1589255256,-7.65703232,3.1477581302999997,503
117276,208833,248205,-5.1589255256,-7.65703232,3.1477581302999997,504
116377,208732,248171,-5.1589255256,-7.65703232,3.1477581302999997,505
115857,208698,248131,-5.1589255256,-7.65703232,3.1477581302999997,506
115637,208734,248111,-5.1589255256,-7.65703232,3.1477581302999997,507
115819,208833,248156,-5.1589255256,-7.65703232,3.1477581302999997,508
116193,208978,248274,-5.1589255256,-7.65703232,3.1477581302999997,509
116721,209039,248337,-5.1589255256,-7.65703232,3.1477581302999997,510
117031,209096,248350,-5.1589255256,-7.65703232,3.1477581302999997,511
117323,209136,248419,-5.1589255256,-7.65703232,3.1477581302999997,512
117615,209130,248382,-5.1589255256,-7.65703232,3.1477581302999997,513
117883,209191,248458,-5.1589255256,-7.65703232,3.1477581302999997,514
118166,209259,248483,-5.1589255256,-7.65703232,3.1477581302999997,515
118495,209289,248491,-5.1589255256,-7.65703232,3.1477581302999997,516
118815,209319,248556,-5.192425042,-7.505088084900001,3.2291140987,517
119385,209392,248609,-5.192425042,-7.505088084900001,3.2291140987,518
119652,209499,248647,-5.192425042,-7.505088084900001,3.2291140987,519
119790,209540,248691,-5.192425042,-7.505088084900001,3.2291140987,520
120154,209573,248731,-5.192425042,-7.505088084900001,3.2291140987,521
120521,209667,248767,-5.2546384296,-7.6582287313,3.1010980895999998,522
120732,209685,248806,-5.168496815999999,-7.5529445369,3.1776684127999997,523
120600,209522,248668,-5.1254260092,-7.5469624804,3.1669007111,524
119743,209161,248476,-5.1170511301,-7.6091758679999995,3.0161528873,525
118684,208949,248282,-5.219942501899999,-7.570890706399999,3.0532416376,526
117764,208847,248216,-5.2127640341,-7.6474610296,3.086741154,527
117210,208790,248170,-5.139782944799999,-7.4524459877,3.2195428083000004,528
116901,208801,248150,-5.248656373099999,-7.5625158273,3.0915267992,529
116919,208838,248188,-5.182853751600001,-7.53739119,3.1369904286000003,530
117156,208957,248235,-5.216353268,-7.6462646183,3.0065815969000003,531
117651,209072,248331,-5.240281494,-7.7144600624,3.1202406704,532
118068,209135,248396,-5.1349972996,-7.5290163108999995,3.1238299043,533
118359,209173,248436,-5.140979356100001,-7.6187471584,3.0915267992,534
118675,209201,248380,-5.0835516137,-7.5182486092000005,3.1190442591,535
118956,209203,248508,-5.1637111708,-7.5768727629,3.0819555088,536
119197,209289,248479,-5.026123871299999,-7.6043902228,3.2195428083000004,537
119472,209297,248490,-5.1182475414,-7.5230342544,3.1058837348,538
119737,209358,248544,-5.251049195699999,-7.5242306657,3.1058837348,539
120109,209422,248602,-5.2546384296,-7.585247642000001,3.1381868399,540
120363,209515,248624,-5.2546384296,-7.485945504099999,3.1525437755,541
120589,209539,248672,-5.1254260092,-7.6522466748,3.134597606,542
120893,209584,248742,-5.112265484900001,-7.5098737301,3.1058837348,543
121236,209633,248769,-5.1888358081,-7.6175507471,3.0352954681,544
121510,209704,248781,-5.216353268,-7.6438717957,3.1334011947,545
121669,209712,248801,-5.1649075821,-7.637889739199999,3.1477581302999997,546
121319,209513,248632,-5.264209719999999,-7.6343005053,3.0819555088,547
120543,209123,248412,-5.264209719999999,-7.6091758679999995,3.1441688964,548
119365,208930,248271,-5.3395836319,-7.5804619967999995,3.0580272828,549
118548,208842,248241,-5.169693227300001,-7.637889739199999,3.1058837348,550
118060,208799,248212,-5.2689953652,-7.556533770800001,3.1154550251999997,551
117885,208830,248173,-5.2689953652,-7.556533770800001,3.1154550251999997,552
117980,208898,248247,-5.2689953652,-7.556533770800001,3.1154550251999997,553
118277,209006,248325,-5.2689953652,-7.556533770800001,3.1154550251999997,554
118630,209111,248340,-5.2689953652,-7.556533770800001,3.1154550251999997,555
118949,209178,248420,-5.2689953652,-7.556533770800001,3.1154550251999997,556
119181,209159,248443,-5.2689953652,-7.556533770800001,3.1154550251999997,557
119414,209213,248446,-5.2689953652,-7.556533770800001,3.1154550251999997,558
119614,209279,248504,-5.2689953652,-7.556533770800001,3.1154550251999997,559
119840,209308,248477,-5.2689953652,-7.556533770800001,3.1154550251999997,560
120099,209341,248542,-5.2689953652,-7.556533770800001,3.1154550251999997,561
120301,209388,248557,-5.2689953652,-7.556533770800001,3.1154550251999997,562
120606,209450,248643,-5.2689953652,-7.556533770800001,3.1154550251999997,563
120880,209522,248630,-5.2689953652,-7.556533770800001,3.1154550251999997,564
121137,209552,248691,-5.2689953652,-7.556533770800001,3.1154550251999997,565
121382,209600,248745,-5.2689953652,-7.556533770800001,3.1154550251999997,566
121614,209607,248759,-5.2689953652,-7.556533770800001,3.1154550251999997,567
121859,209662,248791,-5.2689953652,-7.556533770800001,3.1154550251999997,568
121941,209626,248775,-5.2689953652,-7.556533770800001,3.1154550251999997,569
121325,209305,248588,-5.2689953652,-7.556533770800001,3.1154550251999997,570
120206,208995,248374,-5.2689953652,-7.556533770800001,3.1154550251999997,571
119122,208837,248249,-5.2689953652,-7.556533770800001,3.1154550251999997,572
118349,208757,248207,-5.2689953652,-7.556533770800001,3.1154550251999997,573
117812,208717,248178,-5.2689953652,-7.556533770800001,3.1154550251999997,574
117682,208747,248170,-5.2689953652,-7.556533770800001,3.1154550251999997,575
117808,208836,248231,-5.2689953652,-7.556533770800001,3.1154550251999997,576
118091,208950,248267,-5.2689953652,-7.556533770800001,3.1154550251999997,577
118379,209014,248332,-5.2689953652,-7.556533770800001,3.1154550251999997,578
118671,209047,248360,-5.2689953652,-7.556533770800001,3.1154550251999997,579
118881,209075,248388,-5.2689953652,-7.556533770800001,3.1154550251999997,580
119087,209094,248379,-5.2689953652,-7.556533770800001,3.1154550251999997,581
119316,209154,248441,-5.2689953652,-7.556533770800001,3.1154550251999997,582
119569,209219,248475,-5.2689953652,-7.556533770800001,3.1154550251999997,583
119865,209285,248498,-5.2689953652,-7.556533770800001,3.1154550251999997,584
120159,209337,248575,-5.2689953652,-7.556533770800001,3.1154550251999997,585
120476,209401,248610,-5.2689953652,-7.556533770800001,3.1154550251999997,586
120784,209446,248671,-5.2689953652,-7.556533770800001,3.1154550251999997,587
121076,209528,248674,-5.2689953652,-7.556533770800001,3.1154550251999997,588
121444,209582,248721,-5.2689953652,-7.556533770800001,3.1154550251999997,589
121604,209645,248793,-5.2689953652,-7.556533770800001,3.1154550251999997,590
121884,209660,248806,-5.2689953652,-7.556533770800001,3.1154550251999997,591
121597,209454,248674,-5.2689953652,-7.556533770800001,3.1154550251999997,592
117477,208959,248209,-5.3108697607,-7.6522466748,3.1190442591,593
117796,209006,248245,-5.3108697607,-7.6522466748,3.1190442591,594
118112,209038,248277,-5.3108697607,-7.6522466748,3.1190442591,595
118358,209093,248276,-5.3108697607,-7.6522466748,3.1190442591,596
118525,209106,248306,-5.3108697607,-7.6522466748,3.1190442591,597
118759,209151,248340,-5.3108697607,-7.6522466748,3.1190442591,598
119021,209200,248408,-5.3108697607,-7.6522466748,3.1190442591,599
119250,209249,248465,-5.3108697607,-7.6522466748,3.1190442591,600
119534,209316,248480,-5.3108697607,-7.6522466748,3.1190442591,601
119817,209372,248492,-5.3108697607,-7.6522466748,3.1190442591,602
120131,209465,248503,-5.3108697607,-7.6522466748,3.1190442591,603
120392,209486,248572,-5.3108697607,-7.6522466748,3.1190442591,604
120696,209549,248644,-5.3108697607,-7.6522466748,3.1190442591,605
120998,209582,248649,-5.3108697607,-7.6522466748,3.1190442591,606
121229,209654,248678,-5.3108697607,-7.6522466748,3.1190442591,607
121016,209441,248541,-5.3108697607,-7.6522466748,3.1190442591,608
120014,209133,248354,-5.3108697607,-7.6522466748,3.1190442591,609
118633,208855,248177,-5.3108697607,-7.6522466748,3.1190442591,610
117468,208746,248024,-5.3108697607,-7.6522466748,3.1190442591,611
116642,208631,247984,-5.3108697607,-7.6522466748,3.1190442591,612
116194,208625,247968,-5.3108697607,-7.6522466748,3.1190442591,613
116110,208672,247981,-5.3108697607,-7.6522466748,3.1190442591,614
116332,208808,248045,-5.3108697607,-7.6522466748,3.1190442591,615
116742,208907,248184,-5.3108697607,-7.6522466748,3.1190442591,616
117112,208978,248138,-5.3108697607,-7.6522466748,3.1190442591,617
117405,209013,248199,-5.3108697607,-7.6522466748,3.1190442591,618
117626,209037,248224,-5.3108697607,-7.6522466748,3.1190442591,619
117828,209081,248221,-5.3108697607,-7.6522466748,3.1190442591,620
118052,209102,248234,-5.3108697607,-7.6522466748,3.1190442591,621
118297,209159,248304,-5.3108697607,-7.6522466748,3.1190442591,622
118554,209231,248323,-5.3108697607,-7.6522466748,3.1190442591,623
118843,209281,248376,-5.3108697607,-7.6522466748,3.1190442591,624
119176,209314,248427,-5.3108697607,-7.6522466748,3.1190442591,625
119460,209384,248452,-5.3108697607,-7.6522466748,3.1190442591,626
119848,209452,248497,-5.3108697607,-7.6522466748,3.1190442591,627
120039,209471,248526,-5.3108697607,-7.6522466748,3.1190442591,628
120301,209498,248585,-5.3108697607,-7.6522466748,3.1190442591,629
120559,209581,248559,-5.3108697607,-7.6522466748,3.1190442591,630
120668,209534,248573,-5.3108697607,-7.6522466748,3.1190442591,631
119986,209229,248339,-5.3108697607,-7.6522466748,3.1190442591,632
118660,208877,248147,-5.3108697607,-7.6522466748,3.1190442591,633
117334,208714,247998,-5.3108697607,-7.6522466748,3.1190442591,634
116755,208987,248138,-5.1649075821,-7.5338019561000005,3.0580272828,635
117097,209052,248189,-5.1649075821,-7.5338019561000005,3.0580272828,636
117482,209089,248243,-5.1649075821,-7.5338019561000005,3.0580272828,637
117869,209159,248313,-5.1649075821,-7.5338019561000005,3.0580272828,638
118179,209208,248332,-5.1649075821,-7.5338019561000005,3.0580272828,639
118403,209268,248377,-5.1649075821,-7.5338019561000005,3.0580272828,640
118781,209308,248423,-5.1649075821,-7.5338019561000005,3.0580272828,641
119196,209387,248470,-5.1649075821,-7.5338019561000005,3.0580272828,642
119477,209444,248483,-5.1649075821,-7.5338019561000005,3.0580272828,643
119670,209485,248575,-5.1649075821,-7.5338019561000005,3.0580272828,644
119526,209340,248452,-5.1649075821,-7.5338019561000005,3.0580272828,645
118641,208996,248188,-5.1649075821,-7.5338019561000005,3.0580272828,646
117370,208704,248044,-5.1649075821,-7.5338019561000005,3.0580272828,647
116130,208558,247912,-5.1649075821,-7.5338019561000005,3.0580272828,648
115231,208488,247820,-5.1649075821,-7.5338019561000005,3.0580272828,649
114800,208494,247830,-5.1649075821,-7.5338019561000005,3.0580272828,650
114842,208528,247821,-5.1649075821,-7.5338019561000005,3.0580272828,651
115115,208628,247904,-5.1649075821,-7.5338019561000005,3.0580272828,652
115515,208745,247953,-5.1649075821,-7.5338019561000005,3.0580272828,653
115947,208815,248025,-5.1649075821,-7.5338019561000005,3.0580272828,654
116249,208869,248073,-5.1649075821,-7.5338019561000005,3.0580272828,655
116528,208863,248097,-5.1649075821,-7.5338019561000005,3.0580272828,656
116756,208910,248089,-5.1649075821,-7.5338019561000005,3.0580272828,657
116917,208940,248136,-5.1649075821,-7.5338019561000005,3.0580272828,658
117220,208974,248161,-5.1649075821,-7.5338019561000005,3.0580272828,659
117485,209035,248219,-5.1649075821,-7.5338019561000005,3.0580272828,660
117754,209063,248268,-5.1649075821,-7.5338019561000005,3.0580272828,661
118044,209117,248274,-5.1649075821,-7.5338019561000005,3.0580272828,662
118350,209163,248357,-5.1649075821,-7.5338019561000005,3.0580272828,663
118600,209179,248373,-5.1649075821,-7.5338019561000005,3.0580272828,664
118849,209245,248412,-5.1649075821,-7.5338019561000005,3.0580272828,665
119134,209265,248441,-5.1649075821,-7.5338019561000005,3.0580272828,666
119352,209280,248471,-5.1649075821,-7.5338019561000005,3.0580272828,667
118776,208978,248294,-5.1649075821,-7.5338019561000005,3.0580272828,668
117508,208679,248087,-5.1649075821,-7.5338019561000005,3.0580272828,669
116122,208466,247900,-5.1649075821,-7.5338019561000005,3.0580272828,670
115127,208403,247818,-5.1649075821,-7.5338019561000005,3.0580272828,671
114575,208359,247792,-5.1649075821,-7.5338019561000005,3.0580272828,672
114384,208384,247816,-5.1649075821,-7.5338019561000005,3.0580272828,673
114619,208495,247870,-5.1649075821,-7.5338019561000005,3.0580272828,674
114941,208609,247904,-5.1649075821,-7.5338019561000005,3.0580272828,675
115358,208660,247977,-5.1649075821,-7.5338019561000005,3.0580272828,676
119230,209332,248419,-5.168496815999999,-7.4907311493,3.0915267992,677
119402,209310,248459,-5.168496815999999,-7.4907311493,3.0915267992,678
119051,209049,248274,-5.168496815999999,-7.4907311493,3.0915267992,679
117891,208713,248077,-5.168496815999999,-7.4907311493,3.0915267992,680
116466,208499,247935,-5.168496815999999,-7.4907311493,3.0915267992,681
115513,208387,247798,-5.168496815999999,-7.4907311493,3.0915267992,682
114807,208332,247768,-5.168496815999999,-7.4907311493,3.0915267992,683
114604,208358,247760,-5.168496815999999,-7.4907311493,3.0915267992,684
114682,208417,247818,-5.168496815999999,-7.4907311493,3.0915267992,685
115065,208526,247840,-5.168496815999999,-7.4907311493,3.0915267992,686
115592,208671,247931,-5.168496815999999,-7.4907311493,3.0915267992,687
116022,208709,248014,-5.168496815999999,-7.4907311493,3.0915267992,688
116377,208759,248031,-5.168496815999999,-7.4907311493,3.0915267992,689
116667,208819,248081,-5.168496815999999,-7.4907311493,3.0915267992,690
116975,208814,248087,-5.168496815999999,-7.4907311493,3.0915267992,691
117252,208881,248127,-5.168496815999999,-7.4907311493,3.0915267992,692
117603,208933,248210,-5.168496815999999,-7.4907311493,3.0915267992,693
117957,209030,248230,-5.168496815999999,-7.4907311493,3.0915267992,694
118334,209101,248289,-5.168496815999999,-7.4907311493,3.0915267992,695
118685,209181,248320,-5.168496815999999,-7.4907311493,3.0915267992,696
119008,209226,248371,-5.168496815999999,-7.4907311493,3.0915267992,697
119378,209292,248424,-5.168496815999999,-7.4907311493,3.0915267992,698
119680,209339,248442,-5.168496815999999,-7.4907311493,3.0915267992,699
119982,209419,248502,-5.168496815999999,-7.4907311493,3.0915267992,700
120286,209456,248580,-5.168496815999999,-7.4907311493,3.0915267992,701
120001,209207,248417,-5.168496815999999,-7.4907311493,3.0915267992,702
118913,208848,248182,-5.168496815999999,-7.4907311493,3.0915267992,703
117592,208582,248020,-5.168496815999999,-7.4907311493,3.0915267992,704
116574,208512,247949,-5.168496815999999,-7.4907311493,3.0915267992,705
115910,208439,247884,-5.168496815999999,-7.4907311493,3.0915267992,706
115604,208441,247885,-5.168496815999999,-7.4907311493,3.0915267992,707
115656,208513,247930,-5.168496815999999,-7.4907311493,3.0915267992,708
115995,208649,248009,-5.168496815999999,-7.4907311493,3.0915267992,709
116431,208734,248087,-5.168496815999999,-7.4907311493,3.0915267992,710
116833,208806,248136,-5.168496815999999,-7.4907311493,3.0915267992,711
117153,208854,248148,-5.168496815999999,-7.4907311493,3.0915267992,712
117451,208879,248180,-5.168496815999999,-7.4907311493,3.0915267992,713
117729,208929,248208,-5.168496815999999,-7.4907311493,3.0915267992,714
117988,208971,248204,-5.168496815999999,-7.4907311493,3.0915267992,715
118280,209007,248293,-5.168496815999999,-7.4907311493,3.0915267992,716
118614,209074,248325,-5.168496815999999,-7.4907311493,3.0915267992,717
118930,209146,248394,-5.168496815999999,-7.4907311493,3.0915267992,718
119794,208894,248154,-5.2462635505,-7.6283184488,3.0675985732,719
118442,208670,247886,-5.2462635505,-7.6283184488,3.0675985732,720
117323,208534,247769,-5.2462635505,-7.6283184488,3.0675985732,721
116477,208450,247737,-5.2462635505,-7.6283184488,3.0675985732,722
116122,208442,247715,-5.2462635505,-7.6283184488,3.0675985732,723
116090,208497,247735,-5.2462635505,-7.6283184488,3.0675985732,724
116257,208613,247828,-5.2462635505,-7.6283184488,3.0675985732,725
116682,208679,247856,-5.2462635505,-7.6283184488,3.0675985732,726
116950,208773,247897,-5.2462635505,-7.6283184488,3.0675985732,727
117295,208808,247967,-5.2462635505,-7.6283184488,3.0675985732,728
117525,208836,247960,-5.2462635505,-7.6283184488,3.0675985732,729
117703,208876,248021,-5.2462635505,-7.6283184488,3.0675985732,730
117959,208958,248045,-5.2462635505,-7.6283184488,3.0675985732,731
118229,209002,248094,-5.2462635505,-7.6283184488,3.0675985732,732
118636,209048,248133,-5.2462635505,-7.6283184488,3.0675985732,733
118910,209128,248177,-5.2462635505,-7.6283184488,3.0675985732,734
119254,209153,248185,-5.2462635505,-7.6283184488,3.0675985732,735
119550,209245,248273,-5.2462635505,-7.6283184488,3.0675985732,736
119869,209303,248285,-5.2462635505,-7.6283184488,3.0675985732,737
120179,209384,248345,-5.2462635505,-7.6283184488,3.0675985732,738
120493,209403,248370,-5.2462635505,-7.6283184488,3.0675985732,739
120776,209468,248399,-5.2462635505,-7.6283184488,3.0675985732,740
121043,209505,248441,-5.2462635505,-7.6283184488,3.0675985732,741
120882,209315,248287,-5.2462635505,-7.6283184488,3.0675985732,742
119907,208943,248101,-5.2462635505,-7.6283184488,3.0675985732,743
118559,208664,247904,-5.2462635505,-7.6283184488,3.0675985732,744
117436,208578,247797,-5.2462635505,-7.6283184488,3.0675985732,745
116656,208482,247730,-5.2462635505,-7.6283184488,3.0675985732,746
116207,208457,247691,-5.2462635505,-7.6283184488,3.0675985732,747
116158,208513,247724,-5.2462635505,-7.6283184488,3.0675985732,748
116381,208633,247800,-5.2462635505,-7.6283184488,3.0675985732,749
116765,208737,247875,-5.2462635505,-7.6283184488,3.0675985732,750
117140,208802,247911,-5.2462635505,-7.6283184488,3.0675985732,751
117433,208852,247944,-5.2462635505,-7.6283184488,3.0675985732,752
117681,208855,247971,-5.2462635505,-7.6283184488,3.0675985732,753
118049,208928,248000,-5.2462635505,-7.6283184488,3.0675985732,754
118166,208947,248043,-5.2462635505,-7.6283184488,3.0675985732,755
118436,209002,248072,-5.2462635505,-7.6283184488,3.0675985732,756
118724,209085,248058,-5.2462635505,-7.6283184488,3.0675985732,757
119042,209128,248158,-5.2462635505,-7.6283184488,3.0675985732,758
119328,209195,248199,-5.3551369788,-7.570890706399999,3.0819555088,759
119644,209248,248249,-5.3551369788,-7.570890706399999,3.0819555088,760
120010,209330,248289,-5.3551369788,-7.570890706399999,3.0819555088,761
120283,209359,248263,-5.3551369788,-7.570890706399999,3.0819555088,762
120648,209405,248336,-5.3551369788,-7.570890706399999,3.0819555088,763
120867,209440,248372,-5.3551369788,-7.570890706399999,3.0819555088,764
121137,209507,248387,-5.3551369788,-7.570890706399999,3.0819555088,765
121098,209384,248358,-5.3551369788,-7.570890706399999,3.0819555088,766
120309,209047,248154,-5.3551369788,-7.570890706399999,3.0819555088,767
118987,208739,247897,-5.3551369788,-7.570890706399999,3.0819555088,768
117763,208604,247790,-5.3551369788,-7.570890706399999,3.0819555088,769
116863,208496,247712,-5.3551369788,-7.570890706399999,3.0819555088,770
116335,208482,247675,-5.3551369788,-7.570890706399999,3.0819555088,771
116154,208478,247678,-5.3551369788,-7.570890706399999,3.0819555088,772
116334,208643,247733,-5.3551369788,-7.570890706399999,3.0819555088,773
116709,208752,247842,-5.3551369788,-7.570890706399999,3.0819555088,774
117085,208817,247850,-5.3551369788,-7.570890706399999,3.0819555088,775
117395,208859,247868,-5.3551369788,-7.570890706399999,3.0819555088,776
117642,208856,247895,-5.3551369788,-7.570890706399999,3.0819555088,777
117851,208888,247961,-5.3551369788,-7.570890706399999,3.0819555088,778
118109,208947,247990,-5.3551369788,-7.570890706399999,3.0819555088,779
118342,208984,248024,-5.3551369788,-7.570890706399999,3.0819555088,780
118606,209042,248057,-5.3551369788,-7.570890706399999,3.0819555088,781
118920,209103,248102,-5.3551369788,-7.570890706399999,3.0819555088,782
119213,209205,248201,-5.3551369788,-7.570890706399999,3.0819555088,783
119535,209218,248174,-5.3551369788,-7.570890706399999,3.0819555088,784
119829,209308,248210,-5.3551369788,-7.570890706399999,3.0819555088,785
120136,209355,248264,-5.3551369788,-7.570890706399999,3.0819555088,786
120415,209427,248336,-5.3551369788,-7.570890706399999,3.0819555088,787
120695,209453,248351,-5.3551369788,-7.570890706399999,3.0819555088,788
120975,209532,248389,-5.3551369788,-7.570890706399999,3.0819555088,789
121117,209514,248378,-5.3551369788,-7.570890706399999,3.0819555088,790
120568,209160,248165,-5.3551369788,-7.570890706399999,3.0819555088,791
119307,208830,247917,-5.3551369788,-7.570890706399999,3.0819555088,792
118020,208650,247743,-5.3551369788,-7.570890706399999,3.0819555088,793
117064,208553,247684,-5.3551369788,-7.570890706399999,3.0819555088,794
116469,208525,247649,-5.3551369788,-7.570890706399999,3.0819555088,795
116219,208525,247665,-5.3551369788,-7.570890706399999,3.0819555088,796
116290,208626,247685,-5.3551369788,-7.570890706399999,3.0819555088,797
116612,208728,247768,-5.3551369788,-7.570890706399999,3.0819555088,798
117004,208816,247859,-5.3551369788,-7.570890706399999,3.0819555088,799
117352,208864,247903,-5.3551369788,-7.570890706399999,3.0819555088,800
118695,209137,248056,-5.1349972996,-7.5517481256,3.0544380489000003,801
118960,209206,248104,-5.1349972996,-7.5517481256,3.0544380489000003,802
119350,209250,248174,-5.1349972996,-7.5517481256,3.0544380489000003,803
119585,209264,248142,-5.1349972996,-7.5517481256,3.0544380489000003,804
119215,209040,248049,-5.1349972996,-7.5517481256,3.0544380489000003,805
118051,208679,247800,-5.1349972996,-7.5517481256,3.0544380489000003,806
116669,208453,247606,-5.1349972996,-7.5517481256,3.0544380489000003,807
115523,208312,247534,-5.1349972996,-7.5517481256,3.0544380489000003,808
114808,208280,247437,-5.1349972996,-7.5517481256,3.0544380489000003,809
114458,208291,247444,-5.1349972996,-7.5517481256,3.0544380489000003,810
114532,208354,247496,-5.1349972996,-7.5517481256,3.0544380489000003,811
114995,208452,247588,-5.1349972996,-7.5517481256,3.0544380489000003,812
115439,208566,247662,-5.1349972996,-7.5517481256,3.0544380489000003,813
115785,208620,247707,-5.1349972996,-7.5517481256,3.0544380489000003,814
116135,208674,247747,-5.1349972996,-7.5517481256,3.0544380489000003,815
116369,208679,247782,-5.1349972996,-7.5517481256,3.0544380489000003,816
116616,208744,247771,-5.1349972996,-7.5517481256,3.0544380489000003,817
116983,208784,247819,-5.1349972996,-7.5517481256,3.0544380489000003,818
117192,208829,247887,-5.1349972996,-7.5517481256,3.0544380489000003,819
117601,208916,247899,-5.1349972996,-7.5517481256,3.0544380489000003,820
117907,208961,247928,-5.1349972996,-7.5517481256,3.0544380489000003,821
118336,209009,248009,-5.1349972996,-7.5517481256,3.0544380489000003,822
118557,209055,248055,-5.1349972996,-7.5517481256,3.0544380489000003,823
118909,209121,248077,-5.1349972996,-7.5517481256,3.0544380489000003,824
119208,209160,248131,-5.1349972996,-7.5517481256,3.0544380489000003,825
119559,209257,248170,-5.1349972996,-7.5517481256,3.0544380489000003,826
119826,209268,248214,-5.1349972996,-7.5517481256,3.0544380489000003,827
119724,209114,248112,-5.1349972996,-7.5517481256,3.0544380489000003,828
118763,208776,247876,-5.1349972996,-7.5517481256,3.0544380489000003,829
117417,208510,247690,-5.1349972996,-7.5517481256,3.0544380489000003,830
116289,208381,247589,-5.1349972996,-7.5517481256,3.0544380489000003,831
115567,208307,247496,-5.1349972996,-7.5517481256,3.0544380489000003,832
115229,208289,247520,-5.1349972996,-7.5517481256,3.0544380489000003,833
115254,208355,247546,-5.1349972996,-7.5517481256,3.0544380489000003,834
115547,208442,247629,-5.1349972996,-7.5517481256,3.0544380489000003,835
115984,208561,247713,-5.1349972996,-7.5517481256,3.0544380489000003,836
116374,208642,247738,-5.1349972996,-7.5517481256,3.0544380489000003,837
116741,208709,247787,-5.1349972996,-7.5517481256,3.0544380489000003,838
117013,208714,247844,-5.1349972996,-7.5517481256,3.0544380489000003,839
117231,208739,247801,-5.1349972996,-7.5517481256,3.0544380489000003,840
117524,208795,247861,-5.1349972996,-7.5517481256,3.0544380489000003,841
117796,208860,247907,-5.1349972996,-7.5517481256,3.0544380489000003,842
119951,209062,247942,-5.182853751600001,-7.5756763516,3.038884702,843
119710,208821,247845,-5.182853751600001,-7.5756763516,3.038884702,844
118524,208493,247636,-5.182853751600001,-7.5756763516,3.038884702,845
117275,208290,247458,-5.182853751600001,-7.5756763516,3.038884702,846
116238,208199,247334,-5.182853751600001,-7.5756763516,3.038884702,847
115755,208141,247337,-5.182853751600001,-7.5756763516,3.038884702,848
115657,208169,247338,-5.182853751600001,-7.5756763516,3.038884702,849
115629,208256,247400,-5.182853751600001,-7.5756763516,3.038884702,850
115956,208414,247473,-5.182853751600001,-7.5756763516,3.038884702,851
116463,208476,247537,-5.182853751600001,-7.5756763516,3.038884702,852
116748,208543,247591,-5.182853751600001,-7.5756763516,3.038884702,853
116970,208521,247597,-5.182853751600001,-7.5756763516,3.038884702,854
117254,208564,247614,-5.182853751600001,-7.5756763516,3.038884702,855
117531,208588,247673,-5.182853751600001,-7.5756763516,3.038884702,856
117774,208609,247711,-5.182853751600001,-7.5756763516,3.038884702,857
117952,208685,247712,-5.182853751600001,-7.5756763516,3.038884702,858
118212,208699,247727,-5.182853751600001,-7.5756763516,3.038884702,859
118405,208772,247813,-5.182853751600001,-7.5756763516,3.038884702,860
118612,208796,247802,-5.182853751600001,-7.5756763516,3.038884702,861
118857,208828,247826,-5.182853751600001,-7.5756763516,3.038884702,862
119132,208864,247877,-5.182853751600001,-7.5756763516,3.038884702,863
119391,208905,247881,-5.182853751600001,-7.5756763516,3.038884702,864
119382,208826,247847,-5.182853751600001,-7.5756763516,3.038884702,865
118595,208521,247660,-5.182853751600001,-7.5756763516,3.038884702,866
117215,208209,247464,-5.182853751600001,-7.5756763516,3.038884702,867
115930,208063,247344,-5.182853751600001,-7.5756763516,3.038884702,868
115033,207993,247276,-5.182853751600001,-7.5756763516,3.038884702,869
114571,207988,247252,-5.182853751600001,-7.5756763516,3.038884702,870
114483,208071,247246,-5.182853751600001,-7.5756763516,3.038884702,871
114699,208141,247276,-5.182853751600001,-7.5756763516,3.038884702,872
115066,208223,247353,-5.182853751600001,-7.5756763516,3.038884702,873
115406,208298,247424,-5.182853751600001,-7.5756763516,3.038884702,874
115717,208327,247444,-5.182853751600001,-7.5756763516,3.038884702,875
115933,208340,247480,-5.182853751600001,-7.5756763516,3.038884702,876
116159,208364,247452,-5.182853751600001,-7.5756763516,3.038884702,877
116392,208402,247483,-5.182853751600001,-7.5756763516,3.038884702,878
116667,208464,247552,-5.182853751600001,-7.5756763516,3.038884702,879
117007,208525,247546,-5.182853751600001,-7.5756763516,3.038884702,880
117340,208596,247621,-5.182853751600001,-7.5756763516,3.038884702,881
117681,208663,247650,-5.182853751600001,-7.5756763516,3.038884702,882
118027,208747,247708,-5.182853751600001,-7.5756763516,3.038884702,883
118364,208791,247756,-5.182853751600001,-7.5756763516,3.038884702,884
119168,208975,247801,-5.2031927437,-7.465606512,3.0197421212,885
119518,209070,247897,-5.2031927437,-7.465606512,3.0197421212,886
119554,208921,247807,-5.2031927437,-7.465606512,3.0197421212,887
118668,208554,247583,-5.2031927437,-7.465606512,3.0197421212,888
117193,208293,247344,-5.2031927437,-7.465606512,3.0197421212,889
116148,208168,247267,-5.2031927437,-7.465606512,3.0197421212,890
115164,208095,247191,-5.2031927437,-7.465606512,3.0197421212,891
114670,208037,247173,-5.2031927437,-7.465606512,3.0197421212,892
114692,208121,247216,-5.2031927437,-7.465606512,3.0197421212,893
115126,208207,247292,-5.2031927437,-7.465606512,3.0197421212,894
115483,208356,247378,-5.2031927437,-7.465606512,3.0197421212,895
115836,208441,247438,-5.2031927437,-7.465606512,3.0197421212,896
116255,208471,247453,-5.2031927437,-7.465606512,3.0197421212,897
116533,208518,247483,-5.2031927437,-7.465606512,3.0197421212,898
116816,208531,247468,-5.2031927437,-7.465606512,3.0197421212,899
117097,208591,247539,-5.2031927437,-7.465606512,3.0197421212,900
117377,208648,247556,-5.2031927437,-7.465606512,3.0197421212,901
117687,208701,247567,-5.2031927437,-7.465606512,3.0197421212,902
118042,208743,247653,-5.2031927437,-7.465606512,3.0197421212,903
118377,208811,247694,-5.2031927437,-7.465606512,3.0197421212,904
118706,208900,247737,-5.2031927437,-7.465606512,3.0197421212,905
119046,208941,247780,-5.2031927437,-7.465606512,3.0197421212,906
119338,209010,247835,-5.2031927437,-7.465606512,3.0197421212,907
119653,209036,247851,-5.2031927437,-7.465606512,3.0197421212,908
119941,209105,247886,-5.2031927437,-7.465606512,3.0197421212,909
119803,208962,247766,-5.2031927437,-7.465606512,3.0197421212,910
118837,208575,247547,-5.2031927437,-7.465606512,3.0197421212,911
117445,208289,247336,-5.2031927437,-7.465606512,3.0197421212,912
116280,208149,247249,-5.2031927437,-7.465606512,3.0197421212,913
115509,208112,247184,-5.2031927437,-7.465606512,3.0197421212,914
115139,208082,247162,-5.2031927437,-7.465606512,3.0197421212,915
115117,208152,247238,-5.2031927437,-7.465606512,3.0197421212,916
115408,208269,247302,-5.2031927437,-7.465606512,3.0197421212,917
115848,208363,247379,-5.2031927437,-7.465606512,3.0197421212,918
116248,208460,247424,-5.2031927437,-7.465606512,3.0197421212,919
116593,208478,247402,-5.2031927437,-7.465606512,3.0197421212,920
116848,208513,247455,-5.2031927437,-7.465606512,3.0197421212,921
117097,208570,247457,-5.2031927437,-7.465606512,3.0197421212,922
117337,208589,247512,-5.2031927437,-7.465606512,3.0197421212,923
117605,208627,247490,-5.1744788725,-7.5996045776,3.1633114771999997,924
117826,208697,247557,-5.1744788725,-7.5996045776,3.1633114771999997,925
118103,208718,247639,-5.1744788725,-7.5996045776,3.1633114771999997,926
118460,208780,247624,-5.1744788725,-7.5996045776,3.1633114771999997,927
118913,208853,247697,-5.1744788725,-7.5996045776,3.1633114771999997,928
119061,208896,247720,-5.1744788725,-7.5996045776,3.1633114771999997,929
119423,208963,247778,-5.1744788725,-7.5996045776,3.1633114771999997,930
119538,208992,247792,-5.1744788725,-7.5996045776,3.1633114771999997,931
119551,208855,247737,-5.1744788725,-7.5996045776,3.1633114771999997,932
118653,208510,247519,-5.1744788725,-7.5996045776,3.1633114771999997,933
117276,208249,247331,-5.1744788725,-7.5996045776,3.1633114771999997,934
116049,208088,247197,-5.1744788725,-7.5996045776,3.1633114771999997,935
115322,208026,247140,-5.1744788725,-7.5996045776,3.1633114771999997,936
114901,208015,247165,-5.1744788725,-7.5996045776,3.1633114771999997,937
114898,208090,247146,-5.1744788725,-7.5996045776,3.1633114771999997,938
115157,208166,247249,-5.1744788725,-7.5996045776,3.1633114771999997,939
115538,208272,247271,-5.1744788725,-7.5996045776,3.1633114771999997,940
115922,208349,247332,-5.1744788725,-7.5996045776,3.1633114771999997,941
116212,208393,247359,-5.1744788725,-7.5996045776,3.1633114771999997,942
116462,208430,247426,-5.1744788725,-7.5996045776,3.1633114771999997,943
116660,208426,247429,-5.1744788725,-7.5996045776,3.1633114771999997,944
116877,208476,247469,-5.1744788725,-7.5996045776,3.1633114771999997,945
117111,208528,247444,-5.1744788725,-7.5996045776,3.1633114771999997,946
117363,208571,247500,-5.1744788725,-7.5996045776,3.1633114771999997,947
117638,208627,247509,-5.1744788725,-7.5996045776,3.1633114771999997,948
117926,208624,247531,-5.1744788725,-7.5996045776,3.1633114771999997,949
118233,208705,247578,-5.1744788725,-7.5996045776,3.1633114771999997,950
118473,208714,247650,-5.1744788725,-7.5996045776,3.1633114771999997,951
118765,208792,247695,-5.1744788725,-7.5996045776,3.1633114771999997,952
119036,208856,247687,-5.1744788725,-7.5996045776,3.1633114771999997,953
119132,208796,247663,-5.1744788725,-7.5996045776,3.1633114771999997,954
118394,208472,247417,-5.1744788725,-7.5996045776,3.1633114771999997,955
117026,208185,247257,-5.1744788725,-7.5996045776,3.1633114771999997,956
115671,207997,247108,-5.1744788725,-7.5996045776,3.1633114771999997,957
114688,207897,247068,-5.1744788725,-7.5996045776,3.1633114771999997,958
114164,207896,247004,-5.1744788725,-7.5996045776,3.1633114771999997,959
114109,207926,247010,-5.1744788725,-7.5996045776,3.1633114771999997,960
114320,208007,247055,-5.1744788725,-7.5996045776,3.1633114771999997,961
114698,208101,247155,-5.1744788725,-7.5996045776,3.1633114771999997,962
115184,208245,247280,-5.1744788725,-7.5996045776,3.1633114771999997,963
115624,208299,247276,-5.1744788725,-7.5996045776,3.1633114771999997,964
115935,208304,247313,-5.1744788725,-7.5996045776,3.1633114771999997,965
117898,208667,247534,-5.2211389132,-7.5900332872,3.0065815969000003,966
118222,208726,247556,-5.2211389132,-7.5900332872,3.0065815969000003,967
118635,208778,247625,-5.2211389132,-7.5900332872,3.0065815969000003,968
118846,208867,247678,-5.2211389132,-7.5900332872,3.0065815969000003,969
119276,208906,247697,-5.2211389132,-7.5900332872,3.0065815969000003,970
119439,208970,247762,-5.2211389132,-7.5900332872,3.0065815969000003,971
119429,208811,247637,-5.2211389132,-7.5900332872,3.0065815969000003,972
118328,208475,247427,-5.2211389132,-7.5900332872,3.0065815969000003,973
116948,208175,247193,-5.2211389132,-7.5900332872,3.0065815969000003,974
115698,208040,247128,-5.2211389132,-7.5900332872,3.0065815969000003,975
114867,207962,247036,-5.2211389132,-7.5900332872,3.0065815969000003,976
114462,207958,247015,-5.2211389132,-7.5900332872,3.0065815969000003,977
114420,207981,247017,-5.2211389132,-7.5900332872,3.0065815969000003,978
114724,208136,247115,-5.2211389132,-7.5900332872,3.0065815969000003,979
115169,208229,247225,-5.2211389132,-7.5900332872,3.0065815969000003,980
115592,208310,247216,-5.2211389132,-7.5900332872,3.0065815969000003,981
115921,208352,247294,-5.2211389132,-7.5900332872,3.0065815969000003,982
116204,208384,247266,-5.2211389132,-7.5900332872,3.0065815969000003,983
116482,208419,247348,-5.2211389132,-7.5900332872,3.0065815969000003,984
116687,208487,247351,-5.2211389132,-7.5900332872,3.0065815969000003,985
117026,208527,247387,-5.2211389132,-7.5900332872,3.0065815969000003,986
117344,208561,247434,-5.2211389132,-7.5900332872,3.0065815969000003,987
117668,208650,247489,-5.2211389132,-7.5900332872,3.0065815969000003,988
118012,208704,247559,-5.2211389132,-7.5900332872,3.0065815969000003,989
118330,208783,247573,-5.2211389132,-7.5900332872,3.0065815969000003,990
118632,208788,247598,-5.2211389132,-7.5900332872,3.0065815969000003,991
118937,208858,247647,-5.2211389132,-7.5900332872,3.0065815969000003,992
119235,208915,247670,-5.2211389132,-7.5900332872,3.0065815969000003,993
119508,208973,247714,-5.2211389132,-7.5900332872,3.0065815969000003,994
119385,208778,247662,-5.2211389132,-7.5900332872,3.0065815969000003,995
118375,208441,247395,-5.2211389132,-7.5900332872,3.0065815969000003,996
116922,208182,247179,-5.2211389132,-7.5900332872,3.0065815969000003,997
115685,208033,247070,-5.2211389132,-7.5900332872,3.0065815969000003,998
114899,207962,247013,-5.2211389132,-7.5900332872,3.0065815969000003,999
114522,207971,247031,-5.2211389132,-7.5900332872,3.0065815969000003,1000
114458,208023,247044,-5.2211389132,-7.5900332872,3.0065815969000003,1001
114754,208120,247103,-5.2211389132,-7.5900332872,3.0065815969000003,1002
115187,208247,247217,-5.2211389132,-7.5900332872,3.0065815969000003,1003
115581,208293,247223,-5.2211389132,-7.5900332872,3.0065815969000003,1004
115912,208347,247266,-5.2211389132,-7.5900332872,3.0065815969000003,1005
116158,208373,247293,-5.2211389132,-7.5900332872,3.0065815969000003,1006
116409,208396,247290,-5.2211389132,-7.5900332872,3.0065815969000003,1007
118703,208805,247609,-5.1074798397,-7.5768727629,3.1058837348,1008
119026,208871,247620,-5.1074798397,-7.5768727629,3.1058837348,1009
119306,208919,247687,-5.1074798397,-7.5768727629,3.1058837348,1010
119397,208834,247619,-5.1074798397,-7.5768727629,3.1058837348,1011
118641,208546,247429,-5.1074798397,-7.5768727629,3.1058837348,1012
117339,208228,247171,-5.1074798397,-7.5768727629,3.1058837348,1013
115932,208055,247106,-5.1074798397,-7.5768727629,3.1058837348,1014
114999,207979,247018,-5.1074798397,-7.5768727629,3.1058837348,1015
114474,207921,246931,-5.1074798397,-7.5768727629,3.1058837348,1016
114258,207987,247006,-5.1074798397,-7.5768727629,3.1058837348,1017
114566,208067,247051,-5.1074798397,-7.5768727629,3.1058837348,1018
114991,208188,247136,-5.1074798397,-7.5768727629,3.1058837348,1019
115328,208280,247143,-5.1074798397,-7.5768727629,3.1058837348,1020
115639,208306,247221,-5.1074798397,-7.5768727629,3.1058837348,1021
115874,208349,247256,-5.1074798397,-7.5768727629,3.1058837348,1022
116092,208327,247256,-5.1074798397,-7.5768727629,3.1058837348,1023
116307,208389,247301,-5.1074798397,-7.5768727629,3.1058837348,1024
116538,208447,247329,-5.1074798397,-7.5768727629,3.1058837348,1025
116794,208472,247365,-5.1074798397,-7.5768727629,3.1058837348,1026
117033,208498,247419,-5.1074798397,-7.5768727629,3.1058837348,1027
117326,208568,247422,-5.1074798397,-7.5768727629,3.1058837348,1028
117591,208613,247407,-5.1074798397,-7.5768727629,3.1058837348,1029
117853,208685,247487,-5.1074798397,-7.5768727629,3.1058837348,1030
118116,208702,247503,-5.1074798397,-7.5768727629,3.1058837348,1031
118360,208747,247552,-5.1074798397,-7.5768727629,3.1058837348,1032
118614,208795,247573,-5.1074798397,-7.5768727629,3.1058837348,1033
118437,208616,247488,-5.1074798397,-7.5768727629,3.1058837348,1034
117336,208308,247254,-5.1074798397,-7.5768727629,3.1058837348,1035
115825,208042,247048,-5.1074798397,-7.5768727629,3.1058837348,1036
114537,207887,246935,-5.1074798397,-7.5768727629,3.1058837348,1037
113694,207822,246865,-5.1074798397,-7.5768727629,3.1058837348,1038
113293,207822,246860,-5.1074798397,-7.5768727629,3.1058837348,1039
113305,207865,246907,-5.1074798397,-7.5768727629,3.1058837348,1040
113631,208000,246963,-5.1074798397,-7.5768727629,3.1058837348,1041
114082,208086,247027,-5.1074798397,-7.5768727629,3.1058837348,1042
114544,208170,247107,-5.1074798397,-7.5768727629,3.1058837348,1043
114915,208218,247129,-5.1074798397,-7.5768727629,3.1058837348,1044
115223,208249,247159,-5.1074798397,-7.5768727629,3.1058837348,1045
115514,208309,247183,-5.1074798397,-7.5768727629,3.1058837348,1046
115809,208350,247257,-5.1074798397,-7.5768727629,3.1058837348,1047
116134,208431,247333,-5.1074798397,-7.5768727629,3.1058837348,1048
116466,208494,247330,-5.1074798397,-7.5768727629,3.1058837348,1049
114256,208113,247114,-5.2689953652,-7.6283184488,3.0580272828,1050
114740,208263,247130,-5.2689953652,-7.6283184488,3.0580272828,1051
115134,208307,247219,-5.2689953652,-7.6283184488,3.0580272828,1052
115636,208364,247245,-5.2689953652,-7.6283184488,3.0580272828,1053
115823,208354,247262,-5.2689953652,-7.6283184488,3.0580272828,1054
116076,208418,247278,-5.2689953652,-7.6283184488,3.0580272828,1055
116348,208491,247340,-5.2689953652,-7.6283184488,3.0580272828,1056
116686,208516,247327,-5.2689953652,-7.6283184488,3.0580272828,1057
116953,208587,247379,-5.2689953652,-7.6283184488,3.0580272828,1058
117402,208657,247452,-5.2689953652,-7.6283184488,3.0580272828,1059
117668,208729,247461,-5.2689953652,-7.6283184488,3.0580272828,1060
118037,208777,247532,-5.2689953652,-7.6283184488,3.0580272828,1061
118315,208838,247583,-5.2689953652,-7.6283184488,3.0580272828,1062
118723,208880,247601,-5.2689953652,-7.6283184488,3.0580272828,1063
118983,208925,247668,-5.2689953652,-7.6283184488,3.0580272828,1064
119266,209020,247702,-5.2689953652,-7.6283184488,3.0580272828,1065
119520,209043,247716,-5.2689953652,-7.6283184488,3.0580272828,1066
119232,208804,247569,-5.2689953652,-7.6283184488,3.0580272828,1067
118126,208442,247335,-5.2689953652,-7.6283184488,3.0580272828,1068
116703,208188,247117,-5.2689953652,-7.6283184488,3.0580272828,1069
115591,208055,247031,-5.2689953652,-7.6283184488,3.0580272828,1070
114885,207987,246994,-5.2689953652,-7.6283184488,3.0580272828,1071
114543,208004,246996,-5.2689953652,-7.6283184488,3.0580272828,1072
114603,208086,247033,-5.2689953652,-7.6283184488,3.0580272828,1073
114942,208181,247134,-5.2689953652,-7.6283184488,3.0580272828,1074
115342,208274,247197,-5.2689953652,-7.6283184488,3.0580272828,1075
115750,208353,247218,-5.2689953652,-7.6283184488,3.0580272828,1076
116055,208404,247246,-5.2689953652,-7.6283184488,3.0580272828,1077
116290,208408,247248,-5.2689953652,-7.6283184488,3.0580272828,1078
116527,208423,247289,-5.2689953652,-7.6283184488,3.0580272828,1079
116781,208503,247336,-5.2689953652,-7.6283184488,3.0580272828,1080
117062,208546,247406,-5.2689953652,-7.6283184488,3.0580272828,1081
117465,208581,247394,-5.197210687199999,-7.53739119,2.9958138952,1082
117608,208640,247432,-5.197210687199999,-7.53739119,2.9958138952,1083
117900,208704,247487,-5.197210687199999,-7.53739119,2.9958138952,1084
118292,208783,247541,-5.197210687199999,-7.53739119,2.9958138952,1085
118531,208833,247602,-5.197210687199999,-7.53739119,2.9958138952,1086
118858,208847,247613,-5.197210687199999,-7.53739119,2.9958138952,1087
119048,208886,247614,-5.197210687199999,-7.53739119,2.9958138952,1088
119381,208911,247676,-5.197210687199999,-7.53739119,2.9958138952,1089
119418,208905,247648,-5.197210687199999,-7.53739119,2.9958138952,1090
118746,208568,247430,-5.197210687199999,-7.53739119,2.9958138952,1091
117447,208288,247233,-5.197210687199999,-7.53739119,2.9958138952,1092
116167,208075,247089,-5.197210687199999,-7.53739119,2.9958138952,1093
115246,207974,247051,-5.197210687199999,-7.53739119,2.9958138952,1094
114721,207944,246997,-5.197210687199999,-7.53739119,2.9958138952,1095
114577,207969,247015,-5.197210687199999,-7.53739119,2.9958138952,1096
114774,208087,247099,-5.197210687199999,-7.53739119,2.9958138952,1097
115252,208183,247141,-5.197210687199999,-7.53739119,2.9958138952,1098
115511,208283,247224,-5.197210687199999,-7.53739119,2.9958138952,1099
115877,208301,247204,-5.197210687199999,-7.53739119,2.9958138952,1100
116122,208346,247245,-5.197210687199999,-7.53739119,2.9958138952,1101
116395,208386,247293,-5.197210687199999,-7.53739119,2.9958138952,1102
116660,208449,247329,-5.197210687199999,-7.53739119,2.9958138952,1103
116943,208519,247316,-5.197210687199999,-7.53739119,2.9958138952,1104
117258,208544,247385,-5.197210687199999,-7.53739119,2.9958138952,1105
117561,208591,247410,-5.197210687199999,-7.53739119,2.9958138952,1106
117926,208694,247476,-5.197210687199999,-7.53739119,2.9958138952,1107
118252,208742,247505,-5.197210687199999,-7.53739119,2.9958138952,1108
118609,208790,247571,-5.197210687199999,-7.53739119,2.9958138952,1109
118927,208851,247620,-5.197210687199999,-7.53739119,2.9958138952,1110
119217,208889,247626,-5.197210687199999,-7.53739119,2.9958138952,1111
119526,208977,247668,-5.197210687199999,-7.53739119,2.9958138952,1112
119795,209004,247733,-5.197210687199999,-7.53739119,2.9958138952,1113
119625,208818,247614,-5.197210687199999,-7.53739119,2.9958138952,1114
118687,208461,247362,-5.197210687199999,-7.53739119,2.9958138952,1115
117388,208249,247210,-5.197210687199999,-7.53739119,2.9958138952,1116
116311,208091,247072,-5.197210687199999,-7.53739119,2.9958138952,1117
115596,208021,247063,-5.197210687199999,-7.53739119,2.9958138952,1118
115236,208027,246989,-5.197210687199999,-7.53739119,2.9958138952,1119
115200,208055,247028,-5.197210687199999,-7.53739119,2.9958138952,1120
115476,208202,247143,-5.197210687199999,-7.53739119,2.9958138952,1121
115888,208300,247215,-5.197210687199999,-7.53739119,2.9958138952,1122
116291,208371,247235,-5.197210687199999,-7.53739119,2.9958138952,1123
119814,208997,247676,-5.1505506465,-7.53739119,3.1010980895999998,1124
120115,209037,247764,-5.1505506465,-7.53739119,3.1010980895999998,1125
120426,209074,247735,-5.1505506465,-7.53739119,3.1010980895999998,1126
120720,209156,247785,-5.1505506465,-7.53739119,3.1010980895999998,1127
120559,208987,247718,-5.1505506465,-7.53739119,3.1010980895999998,1128
119870,208642,247462,-5.1505506465,-7.53739119,3.1010980895999998,1129
118562,208358,247325,-5.1505506465,-7.53739119,3.1010980895999998,1130
117422,208194,247151,-5.1505506465,-7.53739119,3.1010980895999998,1131
116753,208140,247110,-5.1505506465,-7.53739119,3.1010980895999998,1132
116152,208093,247108,-5.1505506465,-7.53739119,3.1010980895999998,1133
116148,208149,247109,-5.1505506465,-7.53739119,3.1010980895999998,1134
116373,208280,247187,-5.1505506465,-7.53739119,3.1010980895999998,1135
116712,208383,247258,-5.1505506465,-7.53739119,3.1010980895999998,1136
117095,208461,247314,-5.1505506465,-7.53739119,3.1010980895999998,1137
117385,208484,247322,-5.1505506465,-7.53739119,3.1010980895999998,1138
117638,208533,247335,-5.1505506465,-7.53739119,3.1010980895999998,1139
117848,208519,247332,-5.1505506465,-7.53739119,3.1010980895999998,1140
118081,208626,247422,-5.1505506465,-7.53739119,3.1010980895999998,1141
118339,208646,247422,-5.1505506465,-7.53739119,3.1010980895999998,1142
118589,208711,247465,-5.1505506465,-7.53739119,3.1010980895999998,1143
118893,208754,247488,-5.1505506465,-7.53739119,3.1010980895999998,1144
119187,208824,247517,-5.1505506465,-7.53739119,3.1010980895999998,1145
119476,208866,247605,-5.1505506465,-7.53739119,3.1010980895999998,1146
119772,208922,247603,-5.1505506465,-7.53739119,3.1010980895999998,1147
120049,209012,247682,-5.1505506465,-7.53739119,3.1010980895999998,1148
120323,209047,247714,-5.1505506465,-7.53739119,3.1010980895999998,1149
120596,209069,247717,-5.1505506465,-7.53739119,3.1010980895999998,1150
120840,209149,247791,-5.1505506465,-7.53739119,3.1010980895999998,1151
121031,209173,247792,-5.1505506465,-7.53739119,3.1010980895999998,1152
120643,208875,247616,-5.1505506465,-7.53739119,3.1010980895999998,1153
119585,208509,247401,-5.1505506465,-7.53739119,3.1010980895999998,1154
118408,208329,247226,-5.1505506465,-7.53739119,3.1010980895999998,1155
117484,208229,247176,-5.1505506465,-7.53739119,3.1010980895999998,1156
116893,208160,247101,-5.1505506465,-7.53739119,3.1010980895999998,1157
116621,208186,247104,-5.1505506465,-7.53739119,3.1010980895999998,1158
116675,208256,247170,-5.1505506465,-7.53739119,3.1010980895999998,1159
116971,208389,247223,-5.1505506465,-7.53739119,3.1010980895999998,1160
117336,208496,247289,-5.1505506465,-7.53739119,3.1010980895999998,1161
117665,208504,247289,-5.1505506465,-7.53739119,3.1010980895999998,1162
117935,208577,247368,-5.1505506465,-7.53739119,3.1010980895999998,1163
118224,208625,247369,-5.1505506465,-7.53739119,3.1010980895999998,1164
118379,208650,247413,-5.1505506465,-7.53739119,3.1010980895999998,1165
116282,208398,247205,-5.112265484900001,-7.4045895357,3.0436703472,1166
116739,208414,247208,-5.112265484900001,-7.4045895357,3.0436703472,1167
116802,208484,247223,-5.112265484900001,-7.4045895357,3.0436703472,1168
117041,208477,247220,-5.112265484900001,-7.4045895357,3.0436703472,1169
117195,208535,247258,-5.112265484900001,-7.4045895357,3.0436703472,1170
117629,208578,247315,-5.112265484900001,-7.4045895357,3.0436703472,1171
117875,208641,247364,-5.112265484900001,-7.4045895357,3.0436703472,1172
118119,208729,247375,-5.112265484900001,-7.4045895357,3.0436703472,1173
118482,208775,247447,-5.112265484900001,-7.4045895357,3.0436703472,1174
118774,208840,247463,-5.112265484900001,-7.4045895357,3.0436703472,1175
119139,208892,247526,-5.112265484900001,-7.4045895357,3.0436703472,1176
119286,208971,247592,-5.112265484900001,-7.4045895357,3.0436703472,1177
119708,209010,247616,-5.112265484900001,-7.4045895357,3.0436703472,1178
119908,209038,247583,-5.112265484900001,-7.4045895357,3.0436703472,1179
119519,208778,247500,-5.112265484900001,-7.4045895357,3.0436703472,1180
118242,208422,247229,-5.2247281471,-7.7324062319,2.99102825,1181
116880,208183,247102,-5.2247281471,-7.7324062319,2.99102825,1182
115755,208073,246951,-5.2247281471,-7.7324062319,2.99102825,1183
115048,207992,246862,-5.2247281471,-7.7324062319,2.99102825,1184
114680,208010,246930,-5.2247281471,-7.7324062319,2.99102825,1185
114679,208083,246923,-5.2067819775999995,-7.5517481256,3.1286155494999996,1186
114935,208162,246996,-5.3300123415,-7.5948189324,3.0017959517,1187
115378,208281,247023,-5.3682975031,-7.6522466748,3.0484559924,1188
115741,208345,247140,-5.1936214533,-7.5098737301,3.11066938,1189
116122,208393,247148,-5.1936214533,-7.5098737301,3.11066938,1190
116355,208431,247163,-5.1936214533,-7.5098737301,3.11066938,1191
116590,208463,247190,-5.1936214533,-7.5098737301,3.11066938,1192
116863,208518,247227,-5.1936214533,-7.5098737301,3.11066938,1193
117149,208599,247255,-5.1936214533,-7.5098737301,3.11066938,1194
117427,208670,247305,-5.1936214533,-7.5098737301,3.11066938,1195
117793,208704,247362,-5.1936214533,-7.5098737301,3.11066938,1196
118119,208751,247388,-5.1936214533,-7.5098737301,3.11066938,1197
118411,208826,247416,-5.1936214533,-7.5098737301,3.11066938,1198
118775,208875,247477,-5.197210687199999,-7.6558359087,3.0101708308,1199
119086,208937,247504,-5.197210687199999,-7.6558359087,3.0101708308,1200
119317,208986,247572,-5.0644090329,-7.6187471584,3.0568308715,1201
119545,208903,247561,-5.2079783889,-7.561319416,3.0484559924,1202
119189,208762,247376,-5.2307102036,-7.6893354250999995,3.0520452262999997,1203
117917,208426,247175,-5.0548377425,-7.5230342544,3.1142586138999997,1204
116592,208151,247018,-5.251049195699999,-7.6283184488,2.9814569596,1205
115419,208039,246935,-5.1170511301,-7.5936225210999995,3.0963124444,1206
114714,208010,246866,-5.192425042,-7.5888368759,3.1250263156,1207
114431,208004,246850,-5.288137946,-7.6235328036,3.1286155494999996,1208
114573,208066,246901,-5.3264231076,-7.5673014725,3.0963124444,1209
114839,208216,247009,-5.2307102036,-7.5804619967999995,3.1489545415999998,1210
115325,208309,247047,-5.3024948815999995,-7.7324062319,3.0436703472,1211
115682,208380,247121,-5.1888358081,-7.5517481256,2.9922246613000003,1212
116074,208445,247098,-5.359922623999999,-7.53739119,3.0711878071,1213
116290,208449,247164,-5.1074798397,-7.6175507471,3.1238299043,1214
116605,208491,247158,-5.0787659685,-7.6343005053,3.0915267992,1215
116791,208515,247191,-5.235495848799999,-7.4907311493,3.1094729686999996,1216
117097,208585,247221,-5.2067819775999995,-7.5529445369,3.1058837348,1217
117437,208629,247273,-5.102694194500001,-7.4368926408,3.0484559924,1218
117728,208754,247326,-5.2127640341,-7.6749784895,3.0245277664,1219
118101,208743,247378,-5.2307102036,-7.6426753844,3.0819555088,1220
118266,208828,247432,-5.1601219369,-7.457231632899999,2.9922246613000003,1221
118779,208894,247442,-5.132604477,-7.5385876013,3.0197421212,1222
118963,208972,247458,-5.216353268,-7.65703232,3.062812928,1223
119281,208969,247552,-5.1601219369,-7.5948189324,3.0197421212,1224
119499,209024,247569,-5.3252266963,-7.585247642000001,3.1094729686999996,1225
119613,209024,247553,-5.331208752799999,-7.556533770800001,3.0819555088,1226
119193,208676,247367,-5.0979085493,-7.6558359087,3.0293134116,1227
117649,208369,247124,-5.3024948815999995,-7.6474610296,3.1477581302999997,1228
116271,208183,246982,-5.3730831483,-7.6175507471,3.0915267992,1229
115320,208031,246877,-5.216353268,-7.5385876013,3.0963124444,1230
114731,207993,246872,-5.2833523008,-7.4847490928,3.1286155494999996,1231
114590,208053,246858,-5.3264231076,-7.489534738000001,3.0963124444,1232
114760,208131,246911,-5.2498527844,-7.514659375300001,3.0005995404,1233
115128,208253,246985,-5.2558348409,-7.6474610296,3.0675985732,1234
115611,208387,247025,-5.1086762509999994,-7.6989067155,2.9730820805000002,1235
115951,208403,247127,-5.2271209697000005,-7.4907311493,3.11066938,1236
116367,208485,247124,-5.3024948815999995,-7.5230342544,3.014956476,1237
116580,208510,247139,-5.1936214533,-7.6642107878,3.1154550251999997,1238
116770,208534,247194,-5.321637462399999,-7.4715885685,3.1058837348,1239
117151,208597,247192,-5.3515477449,-7.5900332872,3.0245277664,1240
117476,208634,247247,-5.264209719999999,-7.6618179652,3.0017959517,1241
117693,208715,247263,-5.2498527844,-7.6558359087,3.0723842184,1242
118128,208771,247330,-5.2067819775999995,-7.6091758679999995,2.9778677257000004,1243
118434,208841,247377,-5.2319066149,-7.5816584081,3.0819555088,1244
118619,208890,247439,-5.0787659685,-7.5338019561000005,3.0245277664,1245
119093,208911,247473,-5.288137946,-7.530212722199999,3.0424739359,1246
119362,208974,247493,-5.431707302,-7.6043902228,2.9491538545,1247
119485,209042,247516,-5.2366922601,-7.633104094,3.1238299043,1248
119924,209074,247553,-5.3168518172,-7.5338019561000005,3.0340990568,1249
119815,208996,247464,-5.1457650013,-7.6235328036,3.1190442591,1250
119089,208667,247283,-5.2223353244999995,-7.5003024396999995,3.0723842184,1251
117686,208311,247046,-5.155336291699999,-7.5278198996,3.0903303879,1252
116393,208161,246901,-5.2833523008,-7.6187471584,2.99102825,1253
115504,208079,246848,-5.2414779053,-7.5541409482,3.134597606,1254
114885,208023,246859,-5.1601219369,-7.572087117700001,3.0915267992,1255
114760,208082,246853,-5.1601219369,-7.572087117700001,3.0915267992,1256
114969,208157,246912,-5.1601219369,-7.572087117700001,3.0915267992,1257
115353,208257,247020,-5.1601219369,-7.572087117700001,3.0915267992,1258
115707,208349,247047,-5.1601219369,-7.572087117700001,3.0915267992,1259
116000,208422,247030,-5.1601219369,-7.572087117700001,3.0915267992,1260
116207,208392,247053,-5.1601219369,-7.572087117700001,3.0915267992,1261
116390,208417,247105,-5.1601219369,-7.572087117700001,3.0915267992,1262
116582,208443,247106,-5.1601219369,-7.572087117700001,3.0915267992,1263
116774,208480,247097,-5.1601219369,-7.572087117700001,3.0915267992,1264
117026,208529,247141,-5.2677989539,-7.622336392299999,3.0484559924,1265
117279,208557,247237,-5.2677989539,-7.622336392299999,3.0484559924,1266
117512,208618,247271,-5.2067819775999995,-7.570890706399999,3.0963124444,1267
117799,208703,247289,-5.2067819775999995,-7.570890706399999,3.0963124444,1268
118059,208734,247323,-5.2067819775999995,-7.570890706399999,3.0963124444,1269
118296,208761,247330,-5.2067819775999995,-7.570890706399999,3.0963124444,1270
118575,208803,247371,-5.2067819775999995,-7.570890706399999,3.0963124444,1271
118726,208851,247359,-5.073980323300001,-7.5098737301,3.1537401868,1272
118256,208556,247215,-5.3970113743,-7.6043902228,3.0675985732,1273
116954,208219,246988,-5.1744788725,-7.465606512,3.1573294206999996,1274
115593,208026,246856,-5.1493542352,-7.612765101899999,3.182454058,1275
114341,207938,246759,-5.2737810104,-7.6845497799,3.1250263156,1276
113594,207866,246695,-5.248656373099999,-7.6043902228,3.0915267992,1277
113350,207795,246653,-5.240281494,-7.6713892556,3.1142586138999997,1278
113432,207899,246727,-5.155336291699999,-7.637889739199999,3.0436703472,1279
113848,208042,246814,-5.1744788725,-7.5577301821,3.1680971224,1280
114192,208123,246831,-5.2498527844,-7.7036923607,3.1633114771999997,1281
114654,208157,246900,-5.1230331866,-7.53739119,3.0915267992,1282
114920,208187,246913,-5.264209719999999,-7.5326055448,3.0771698636,1283
115148,208240,246913,-5.2462635505,-7.5996045776,3.1058837348,1284
115529,208283,246989,-5.2127640341,-7.4847490928,3.1250263156,1285
115645,208380,247013,-5.1457650013,-7.5481588917,3.1058837348,1286
116030,208432,247040,-5.1780681064,-7.6426753844,3.0053851856000002,1287
116412,208469,247096,-5.2307102036,-7.5529445369,3.0532416376,1288
116797,208566,247135,-5.363511857900001,-7.514659375300001,3.1154550251999997,1289
117036,208648,247214,-5.2259245584,-7.5864440533,3.038884702,1290
117558,208707,247231,-5.2067819775999995,-7.5230342544,3.1429724850999996,1291
117757,208755,247280,-5.2366922601,-7.447660342499999,3.038884702,1292
118212,208829,247308,-5.084748025,-7.5481588917,3.0005995404,1293
118561,208855,247382,-5.321637462399999,-7.7324062319,3.0472595810999996,1294
118329,208694,247253,-5.192425042,-7.5756763516,3.1058837348,1295
117147,208325,247023,-5.2319066149,-7.5756763516,2.9874390161,1296
115614,208063,246817,-5.2319066149,-7.542176835199999,3.1908289370999996,1297
114280,207902,246699,-5.2785666556,-7.4991060284,3.11066938,1298
113611,207877,246638,-5.2462635505,-7.514659375300001,3.1202406704,1299
113172,207839,246601,-5.265406131300001,-7.637889739199999,3.038884702,1300
113215,207903,246622,-5.2917271799,-7.5996045776,3.0580272828,1301
113553,208014,246731,-5.288137946,-7.6713892556,3.1429724850999996,1302
114093,208137,246788,-5.2175496793,-7.5864440533,3.1250263156,1303
114551,208202,246860,-5.1302116544,-7.6103722793,3.2243284535,1304
114928,208272,246890,-5.3730831483,-7.556533770800001,3.0257241777000004,1305
115115,208307,246885,-5.2737810104,-7.6474610296,3.0484559924,1306
115468,208338,246938,-5.4065826647,-7.570890706399999,3.0340990568,1307
115858,208384,246922,-5.2546384296,-7.6941210703,2.9874390161,1308
116061,208443,246984,-5.359922623999999,-7.4620172781,3.0771698636,1309
116510,208490,247020,-5.2893343573,-7.65703232,3.1202406704,1310
116747,208539,247107,-5.2319066149,-7.457231632899999,3.0005995404,1311
117095,208637,247142,-5.2366922601,-7.7898339743,3.0245277664,1312
117550,208698,247137,-5.264209719999999,-7.572087117700001,3.0436703472,1313
117750,208721,247203,-5.1876393968,-7.5086773188,3.1238299043,1314
118084,208800,247254,-5.265406131300001,-7.5996045776,2.9347969189,1315
118430,208823,247256,-5.2546384296,-7.5816584081,3.0807590974999997,1316
118771,208877,247285,-5.2450671392,-7.5661050612,3.0424739359,1317
118706,208772,247196,-5.240281494,-7.6522466748,3.1298119607999997,1318
117648,208399,246974,-5.2989056477,-7.6522466748,3.1573294206999996,1319
116149,208128,246772,-5.331208752799999,-7.5529445369,3.0113672421,1320
114847,207968,246680,-5.2079783889,-7.6474610296,3.0568308715,1321
113999,207886,246566,-5.2079783889,-7.6474610296,3.0568308715,1322
113520,207860,246551,-5.2079783889,-7.6474610296,3.0568308715,1323
113469,207905,246560,-5.2079783889,-7.6474610296,3.0568308715,1324
113776,208000,246654,-5.2127640341,-7.6606215538999995,3.1441688964,1325
114198,208134,246740,-5.2319066149,-7.6773713121,3.0819555088,1326
114640,208220,246760,-5.3874400839,-7.6582287313,3.0197421212,1327
114956,208265,246824,-5.112265484900001,-7.5864440533,3.1716863562999995,1328
115292,208300,246848,-5.0751767346,-7.495516794499999,3.1334011947,1329
115649,208338,246871,-5.1888358081,-7.637889739199999,2.9814569596,1330
115815,208348,246894,-5.288137946,-7.5960153436999995,2.99102825,1331
116126,208401,246907,-5.335994398,-7.6139615132000005,3.0759734523,1332
116464,208506,246971,-5.335994398,-7.6139615132000005,3.0759734523,1333
116785,208538,246981,-5.335994398,-7.6139615132000005,3.0759734523,1334
117130,208584,247036,-5.335994398,-7.6139615132000005,3.0759734523,1335
117480,208642,247083,-5.335994398,-7.6139615132000005,3.0759734523,1336
117833,208733,247124,-5.335994398,-7.6139615132000005,3.0759734523,1337
118133,208789,247119,-5.335994398,-7.6139615132000005,3.0759734523,1338
118455,208839,247174,-5.335994398,-7.6139615132000005,3.0759734523,1339
118745,208879,247267,-5.335994398,-7.6139615132000005,3.0759734523,1340
119070,208930,247266,-5.335994398,-7.6139615132000005,3.0759734523,1341
119283,208944,247302,-5.335994398,-7.6139615132000005,3.0759734523,1342
118731,208621,247095,-5.335994398,-7.6139615132000005,3.0759734523,1343
117423,208276,246826,-5.335994398,-7.6139615132000005,3.0759734523,1344
115997,208040,246669,-5.3024948815999995,-7.4380890521,3.0245277664,1345
114903,207935,246592,-5.3024948815999995,-7.4380890521,3.0245277664,1346
114301,207895,246568,-5.3252266963,-7.6235328036,3.0771698636,1347
114016,207925,246558,-5.140979356100001,-7.53739119,2.9611179675,1348
114169,208007,246586,-5.14456859,-7.5182486092000005,3.1334011947,1349
114614,208138,246646,-5.2319066149,-7.6618179652,3.1010980895999998,1350
115152,208239,246709,-5.198407098500001,-7.6761749007999995,3.1010980895999998,1351
115393,208315,246803,-5.3694939144,-7.5338019561000005,3.0771698636,1352
115761,208337,246815,-5.2462635505,-7.6079794567,3.0484559924,1353
115937,208365,246824,-5.2833523008,-7.6426753844,2.967100024,1354
116289,208421,246886,-5.3024948815999995,-7.6235328036,3.0209385325,1355
116511,208462,246890,-5.2067819775999995,-7.6426753844,3.0101708308,1356
116832,208491,246958,-5.3539405675,-7.6474610296,3.0771698636,1357
117201,208554,246987,-5.084748025,-7.5385876013,3.0771698636,1358
117529,208606,247024,-5.2211389132,-7.6713892556,2.9862426048,1359
117921,208672,247094,-5.2833523008,-7.633104094,3.0807590974999997,1360
118185,208757,247117,-5.2534420183,-7.5625158273,3.0281170003,1361
118474,208797,247152,-5.331208752799999,-7.6043902228,3.038884702,1362
118767,208876,247208,-5.315655405899999,-7.5517481256,2.9766713144,1363
119141,208917,247226,-5.321637462399999,-7.5481588917,3.0245277664,1364
119433,208973,247249,-5.204389154999999,-7.4847490928,3.0293134116,1365
119777,208942,247276,-5.1876393968,-7.556533770800001,3.1202406704,1366
119130,208668,247093,-5.0943193154,-7.6055866341,3.11066938,1367
117936,208351,246824,-5.363511857900001,-7.5948189324,3.0484559924,1368
116704,208104,246688,-5.2079783889,-7.585247642000001,3.038884702,1369
115758,208016,246639,-5.2594240748,-7.556533770800001,3.1525437755,1370
115159,207961,246560,-5.3455656884,-7.5290163108999995,3.1429724850999996,1371
114967,207978,246556,-5.2175496793,-7.633104094,3.0137600647,1372
115076,208068,246642,-5.306084115499999,-7.5278198996,2.99102825,1373
115535,208172,246711,-5.2737810104,-7.5481588917,3.0723842184,1374
115906,208266,246753,-5.2546384296,-7.5864440533,3.086741154,1375
116250,208348,246802,-5.2079783889,-7.651050263499999,3.0771698636,1376
116504,208378,246855,-5.1541398804,-7.6187471584,3.0113672421,1377
116830,208396,246859,-5.1649075821,-7.5242306657,3.0340990568,1378
117011,208439,246887,-5.4113683099,-7.6103722793,3.0293134116,1379
117257,208430,246925,-5.3730831483,-7.6235328036,2.9862426048,1380
117482,208488,246967,-5.279763066899999,-7.514659375300001,2.9611179675,1381
117811,208554,247009,-5.2319066149,-7.5469624804,3.062812928,1382
117994,208623,247014,-5.3647082692,-7.7515488127,3.0616165167,1383
118409,208665,247068,-5.102694194500001,-7.5864440533,3.0245277664,1384
118611,208728,247090,-5.264209719999999,-7.6079794567,3.062812928,1385
118993,208755,247174,-5.3371908093,-7.5816584081,3.0532416376,1386
119225,208836,247159,-5.3024948815999995,-7.4811598589,3.1046873235,1387
119454,208853,247219,-5.2965128251,-7.4105715922,3.0855447427,1388
119772,208899,247263,-5.1876393968,-7.572087117700001,3.0723842184,1389
119841,208847,247243,-5.2606204861,-7.6043902228,3.0436703472,1390
119301,208531,247073,-5.1589255256,-7.5385876013,3.0053851856000002,1391
117951,208240,246809,-5.264209719999999,-7.5996045776,3.1669007111,1392
116768,208033,246704,-5.3072805268000005,-7.6103722793,3.0855447427,1393
115828,207941,246643,-5.2211389132,-7.5948189324,3.1393832512,1394
115370,207929,246575,-5.1649075821,-7.6175507471,3.1250263156,1395
115128,207951,246627,-5.0979085493,-7.570890706399999,3.0161528873,1396
115323,208032,246658,-5.182853751600001,-7.6761749007999995,3.0161528873,1397
115666,208142,246744,-5.1349972996,-7.6606215538999995,3.1202406704,1398
116045,208224,246771,-5.288137946,-7.704888771999999,3.0544380489000003,1399
116203,208276,246844,-5.1888358081,-7.415357237399999,3.062812928,1400
116429,208294,246814,-5.264209719999999,-7.5625158273,3.1477581302999997,1401
116735,208292,246817,-5.292923591199999,-7.5756763516,3.0675985732,1402
116847,208314,246865,-5.3012984703,-7.5816584081,3.038884702,1403
117045,208350,246891,-5.3730831483,-7.3950182453,3.1525437755,1404
117375,208397,246920,-5.2319066149,-7.5948189324,3.0005995404,1405
117517,208410,246902,-5.2534420183,-7.5804619967999995,3.1010980895999998,1406
117872,208474,246962,-5.2307102036,-7.7611201031,2.9682964353,1407
118068,208577,246962,-5.1218367753,-7.6079794567,3.1094729686999996,1408
118440,208577,247045,-5.0895336702,-7.5517481256,3.0053851856000002,1409
118590,208614,247075,-5.3730831483,-7.7132636511,3.1202406704,1410
118977,208668,247107,-5.2546384296,-7.4333034069,3.0424739359,1411
119197,208701,247135,-5.2785666556,-7.6091758679999995,3.1298119607999997,1412
118704,208412,246953,-5.192425042,-7.65703232,3.0005995404,1413
117491,208165,246739,-5.251049195699999,-7.495516794499999,3.0675985732,1414
116187,207932,246550,-5.2223353244999995,-7.5864440533,3.0340990568,1415
115254,207825,246481,-5.2067819775999995,-7.447660342499999,2.99102825,1416
114682,207815,246484,-5.240281494,-7.6139615132000005,3.2482566795000003,1417
114512,207805,246471,-5.288137946,-7.561319416,3.0340990568,1418
114745,207879,246497,-5.182853751600001,-7.5888368759,3.0281170003,1419
114957,207989,246577,-5.216353268,-7.5577301821,3.0915267992,1420
115403,208133,246665,-5.2785666556,-7.6893354250999995,3.0963124444,1421
115838,208159,246708,-5.0596233877,-7.4907311493,3.0580272828,1422
116200,208228,246753,-5.155336291699999,-7.5326055448,2.9826533709,1423
116385,208251,246769,-5.2498527844,-7.6055866341,3.134597606,1424
116739,208304,246790,-5.2414779053,-7.6606215538999995,3.1010980895999998,1425
117119,208362,246798,-5.3503513336,-7.6091758679999995,3.0771698636,1426
117379,208434,246830,-5.3647082692,-7.679764134699999,2.9862426048,1427
117709,208489,246888,-5.334797986699999,-7.6103722793,3.062812928,1428
118021,208524,246984,-5.3790652048,-7.556533770800001,3.0580272828,1429
118433,208619,247016,-5.2450671392,-7.6187471584,3.1250263156,1430
118751,208701,247067,-5.2319066149,-7.556533770800001,3.0819555088,1431
119049,208719,247100,-5.2785666556,-7.5804619967999995,3.0664021618999997,1432
119369,208768,247126,-5.1314080657000005,-7.6139615132000005,3.1094729686999996,1433
119604,208823,247169,-5.1601219369,-7.5278198996,3.0963124444,1434
119699,208805,247163,-5.1744788725,-7.53739119,3.086741154,1435
119249,208553,246972,-5.2917271799,-7.5230342544,3.1058837348,1436
118162,208226,246747,-5.1792645177,-7.6462646183,3.0819555088,1437
116756,207978,246625,-5.2175496793,-7.6235328036,3.0197421212,1438
115810,207923,246548,-5.2833523008,-7.5529445369,3.2051858726999995,1439
115227,207871,246496,-5.240281494,-7.514659375300001,3.1010980895999998,1440
115009,207869,246475,-5.3527441562,-7.5242306657,2.9718856692,1441
115204,208010,246489,-5.265406131300001,-7.637889739199999,2.9922246613000003,1442
115382,208096,246634,-5.3168518172,-7.5768727629,3.062812928,1443
115881,208194,246706,-5.334797986699999,-7.6187471584,3.0616165167,1444
116287,208209,246699,-5.2677989539,-7.6151579245,3.0340990568,1445
116542,208261,246743,-5.2223353244999995,-7.5960153436999995,3.1142586138999997,1446
116730,208314,246781,-5.277370244299999,-7.6139615132000005,3.0616165167,1447
117062,208359,246772,-5.321637462399999,-7.6618179652,3.0723842184,1448
117277,208403,246859,-5.3300123415,-7.5996045776,3.038884702,1449
117633,208446,246853,-5.1541398804,-7.5385876013,3.0197421212,1450
117833,208514,246893,-5.2498527844,-7.6283184488,3.0759734523,1451
118287,208535,246951,-5.1840501629,-7.495516794499999,3.0675985732,1452
118557,208624,247012,-5.251049195699999,-7.561319416,3.0771698636,1453
118915,208670,247075,-5.198407098500001,-7.5864440533,3.0855447427,1454
119106,208708,247007,-5.2450671392,-7.6989067155,3.0293134116,1455
119471,208790,247117,-5.3108697607,-7.6139615132000005,3.0580272828,1456
119629,208809,247146,-5.1732824612,-7.6283184488,3.1334011947,1457
119623,208742,247096,-5.2498527844,-7.4943203832,3.0580272828,1458
118829,208400,246864,-5.2462635505,-7.5625158273,3.0197421212,1459
117482,208098,246696,-5.2450671392,-7.495516794499999,3.038884702,1460
116388,207966,246546,-5.2175496793,-7.5625158273,3.1190442591,1461
115468,207868,246500,-5.1637111708,-7.5756763516,3.0484559924,1462
115021,207865,246466,-5.2594240748,-7.5098737301,3.0675985732,1463
114913,207862,246492,-5.2450671392,-7.6199435697,3.1298119607999997,1464
115149,208007,246550,-5.2785666556,-7.572087117700001,3.1238299043,1465
115565,208129,246590,-5.3982077855999995,-7.6235328036,3.1381868399,1466
115989,208210,246677,-5.2845487121,-7.5948189324,3.0951160330999996,1467
116267,208271,246698,-5.3407800432,-7.5948189324,3.1010980895999998,1468
116537,208272,246735,-5.4161539550999995,-7.465606512,3.0424739359,1469
116740,208320,246747,-5.292923591199999,-7.5804619967999995,3.1573294206999996,1470
117020,208333,246736,-5.2259245584,-7.5948189324,3.0580272828,1471
117296,208379,246805,-5.102694194500001,-7.4907311493,2.9958138952,1472
117525,208430,246838,-5.3682975031,-7.5194450205,3.0807590974999997,1473
117855,208512,246862,-5.292923591199999,-7.5948189324,3.0580272828,1474
118118,208511,246957,-5.2211389132,-7.633104094,3.062812928,1475
118527,208630,246998,-5.335994398,-7.4763742137,2.9479574432,1476
118750,208681,247032,-5.14456859,-7.505088084900001,3.0963124444,1477
119012,208741,247055,-5.3455656884,-7.5134629639999995,2.99102825,1478
119380,208788,247060,-5.2319066149,-7.5290163108999995,3.0053851856000002,1479
119496,208818,247070,-5.2055855663,-7.4620172781,3.0616165167,1480
119551,208697,247036,-5.2450671392,-7.5948189324,3.086741154,1481
118540,208335,246772,-5.1780681064,-7.6235328036,3.086741154,1482
117200,208072,246666,-5.2737810104,-7.6271220375,3.0197421212,1483
116116,207929,246546,-5.1936214533,-7.4524459877,3.0819555088,1484
115303,207884,246482,-5.1505506465,-7.5673014725,3.1680971224,1485
114867,207874,246417,-5.2438707279,-7.5661050612,3.0580272828,1486
114891,207952,246463,-5.3072805268000005,-7.5661050612,2.9527430884,1487
115147,208027,246536,-5.2498527844,-7.5194450205,3.1956145822999997,1488
115601,208143,246614,-5.3934221404,-7.6761749007999995,3.0759734523,1489
116107,208205,246620,-5.192425042,-7.6103722793,2.9539394997,1490
116324,208233,246687,-5.292923591199999,-7.6043902228,3.0819555088,1491
116604,208295,246694,-5.2031927437,-7.6187471584,3.0484559924,1492
116847,208322,246707,-5.1888358081,-7.5625158273,3.0245277664,1493
117050,208346,246752,-5.2546384296,-7.5134629639999995,3.0472595810999996,1494
117344,208427,246827,-5.2067819775999995,-7.5768727629,3.1393832512,1495
117638,208474,246804,-5.3180482284999995,-7.5661050612,2.9814569596,1496
117815,208525,246874,-5.2737810104,-7.65703232,3.0675985732,1497
118144,208536,246888,-5.2307102036,-7.6091758679999995,3.0053851856000002,1498
118422,208641,246955,-5.2701917765,-7.556533770800001,3.1286155494999996,1499
118692,208702,246959,-5.169693227300001,-7.6426753844,2.9575287336000002,1500
118922,208724,247018,-5.279763066899999,-7.5469624804,2.9096722816000002,1501
119256,208762,247061,-5.3204410510999995,-7.4703921572,3.0616165167,1502
119539,208785,247083,-5.235495848799999,-7.6139615132000005,3.0101708308,1503
119107,208534,246937,-5.198407098500001,-7.5673014725,2.99102825,1504
118011,208196,246700,-5.1218367753,-7.447660342499999,2.9862426048,1505
116685,207982,246543,-5.1421757674,-7.6426753844,2.9706892578999997,1506
115530,207888,246453,-5.155336291699999,-7.7144600624,2.99102825,1507
114996,207878,246420,-5.197210687199999,-7.585247642000001,3.086741154,1508
114764,207849,246401,-5.334797986699999,-7.5517481256,2.9431717980000003,1509
114934,207975,246463,-5.1888358081,-7.6366933279,2.9958138952,1510
115190,208050,246553,-5.2558348409,-7.695317481599999,3.0484559924,1511
115564,208139,246619,-5.2606204861,-7.637889739199999,3.0675985732,1512
115897,208208,246638,-5.3300123415,-7.5182486092000005,3.0711878071,1513
116193,208246,246680,-5.3407800432,-7.633104094,3.1010980895999998,1514
116424,208282,246702,-5.1744788725,-7.485945504099999,2.9575287336000002,1515
116535,208338,246711,-5.3168518172,-7.7276205867,3.0903303879,1516
116691,208325,246755,-5.2414779053,-7.5673014725,3.0340990568,1517
117049,208355,246808,-5.2594240748,-7.4991060284,3.014956476,1518
