green,red,IR,acc_x,acc_y,acc_z,sample_index
106193,200610,222292,5.4819565766,7.6175507471,-3.2255248647999997,1
106115,200625,222296,5.6087761744,7.762316514399999,-3.2590243811999997,2
106016,200577,222284,5.5489556094,7.6522466748,-3.2135607518000002,3
105869,200522,222280,5.479563754,7.6965138929000005,-3.266202849,4
105870,200513,222311,5.5166525043000005,7.858029418399999,-3.1609186546,5
105808,200554,222269,5.4927242783,7.5864440533,-3.2111679291999997,6
105795,200534,222257,5.459224761900001,7.568497883799999,-3.2087751066,7
105780,200584,222254,5.491527867,7.764709337,-3.2877382523999996,8
105778,200491,222260,5.5944192388,7.668996433,-3.2279176874,9
105782,200563,222253,5.5621161337,7.6869426025,-3.2853454298,10
105818,200484,222259,5.525027383399999,7.6761749007999995,-3.1776684127999997,11
105825,200583,222257,5.4975099235,7.6773713121,-3.146561719,12
105843,200445,222250,5.5238309721,7.6402825618,-3.2470602682000003,13
105849,200552,222283,5.4508498828,7.526623488299999,-3.2494530908,14
105893,200565,222282,5.5597233111,7.6426753844,-3.2159535744,15
105943,200579,222274,5.5812587145,7.597211754999999,-3.2446674455999998,16
105976,200477,222294,5.528616617299999,7.5541409482,-3.2207392196,17
106005,200591,222283,5.5740802467,7.679764134699999,-3.206382284,18
106022,200508,222303,5.5920264161999995,7.633104094,-3.218346397,19
106069,200630,222277,5.392225729100001,7.6522466748,-3.2949167202,20
106115,200575,222261,5.5202417382,7.6761749007999995,-3.1716863562999995,21
106155,200558,222275,5.6745787959,7.7144600624,-3.1597222433,22
106181,200568,222252,5.4185467777000005,7.6522466748,-3.0496524037,23
106209,200566,222270,5.479563754,7.7802626839,-3.2518459134,24
106223,200564,222288,5.4699924636,7.621139981,-3.1381868399,25
106158,200552,222267,5.5298130286000005,7.7144600624,-3.206382284,26
106087,200539,222282,5.611168996999999,7.7001031268,-3.2590243811999997,27
105993,200532,222280,5.6434721021,7.708478005899999,-3.2733813167999997,28
105914,200552,222225,5.458028350599999,7.668996433,-3.2398818003999996,29
105878,200497,222270,5.6099725857,7.5984081663000005,-3.170489945,30
105797,200516,222236,5.4065826647,7.668996433,-3.1752755902,31
105764,200490,222240,5.605186940499999,7.6905318364,-3.2255248647999997,32
105737,200529,222245,5.5214381495,7.7563344578999995,-3.182454058,33
105724,200531,222267,5.5166525043000005,7.6426753844,-3.3212377687999997,34
105755,200479,222228,5.458028350599999,7.7072815945999995,-3.1860432919,35
105779,200462,222234,5.4699924636,7.651050263499999,-3.2039894614,36
105735,200555,222226,5.5274202059999995,7.6115686905999995,-3.1932217597,37
105818,200500,222256,5.4329037133,7.5984081663000005,-3.2374889778,38
105868,200571,222251,5.5070812139,7.5948189324,-3.2195428083000004,39
105880,200558,222261,5.5980084727,7.6307112714,-3.2925238975999997,40
105916,200534,222261,5.4484570602,7.6426753844,-3.2673992603000004,41
105947,200557,222204,5.5178489156,7.750352401400001,-3.1214370817,42
105993,200464,222251,5.3826544387,7.6055866341,-3.3164521235999995,43
105967,200537,222239,5.486742221799999,7.5804619967999995,-3.2757741394,44
105951,200550,222260,5.5561340772,7.6438717957,-3.1286155494999996,45
105890,200558,222237,5.4771709314,7.740781111,-3.2602207924999997,46
105840,200538,222234,5.50349198,7.5864440533,-3.337987527,47
105810,200484,222206,5.570491012800001,7.683353368600001,-3.2685956716,48
105827,200506,222211,5.4412785924,7.7192457076,-3.2350961552,49
105857,200558,222203,5.6410792795,7.6486574409,-3.2566315586,50
105871,200509,222242,5.6159546422,7.737191877099999,-3.3236305914,51
105807,200526,222223,5.5525448433,7.6977103042,-3.1573294206999996,52
105952,200564,222222,5.5429735529,7.639086150500001,-3.2542387359999996,53
105966,200560,222227,5.5082776252,7.5900332872,-3.3092736558,54
105981,200472,222230,5.484349399199999,7.6498538522,-3.2111679291999997,55
105984,200533,222243,5.6506505699,7.6199435697,-3.1776684127999997,56
106053,200562,222231,5.5106704478,7.667800021700001,-3.2410782117,57
106111,200511,222219,5.5597233111,7.6235328036,-3.1680971224,58
106125,200579,222247,5.541777141600001,7.7132636511,-3.3320054705,59
106182,200605,222260,5.5501520207,7.6163543358,-3.1573294206999996,60
106200,200557,222238,5.5501520207,7.7096744172000005,-3.2709884942,61
106265,200565,222244,5.4939206895999995,7.6426753844,-3.2231320422,62
106280,200577,222280,5.575276658,7.65703232,-3.2566315586,63
106306,200594,222257,5.554937665900001,7.6737820782,-3.1992038162000003,64
106336,200568,222250,5.4640104071,7.612765101899999,-3.2757741394,65
106387,200590,222256,5.479563754,7.6785677234,-3.1920253483999996,66
106425,200582,222277,5.4484570602,7.7036923607,-3.2051858726999995,67
106426,200566,222255,5.6458649247,7.5924261098,-3.1884361145,68
106358,200579,222238,5.6027941179,7.542176835199999,-3.2099715178999997,69
106437,200590,222264,5.6039905292,7.785048329099999,-3.2327033326,70
106323,200572,222247,5.551348432,7.8065837325,-3.1884361145,71
106461,200496,222275,5.554937665900001,7.5780691741999995,-3.23031051,72
106467,200572,222266,5.7128639575,7.7012995381,-3.2494530908,73
106478,200582,222250,5.4819565766,7.4715885685,-3.2590243811999997,74
106461,200586,222255,5.6171510535,7.6642107878,-3.23031051,75
106371,200583,222258,5.4987063348,7.763512925700001,-3.206382284,76
106317,200573,222248,5.4747781088,7.5960153436999995,-3.2446674455999998,77
106258,200584,222207,5.455635527999999,7.666603610399999,-3.2590243811999997,78
106223,200533,222251,5.479563754,7.635496916599999,-3.1872397032,79
106220,200575,222212,5.5429735529,7.667800021700001,-3.1836504693,80
106162,200534,222287,5.479563754,7.645068207,-3.1788648241,81
106154,200523,222247,5.5274202059999995,7.666603610399999,-3.2243284535,82
106202,200540,222239,5.392225729100001,7.720442118899999,-3.2590243811999997,83
106200,200594,222215,5.4819565766,7.5828548194,-3.1286155494999996,84
106223,200574,222234,5.5453663755000004,7.683353368600001,-3.218346397,85
106230,200565,222247,5.455635527999999,7.635496916599999,-3.1621150658999997,86
106253,200594,222241,5.3982077855999995,7.775477038699999,-3.2925238975999997,87
106260,200553,222256,5.4939206895999995,7.763512925700001,-3.2757741394,88
106302,200569,222236,5.5070812139,7.6701928443,-3.2267212761,89
106371,200576,222269,5.525027383399999,7.6713892556,-3.1872397032,90
106353,200476,222231,5.5022955687,7.804190909899999,-3.2614172038,91
106387,200510,222276,5.3742795596,7.6019974002,-3.2350961552,92
106400,200639,222251,5.4891350444,7.7347990545,-3.2039894614,93
106430,200596,222238,5.4006006081999995,7.6618179652,-3.1286155494999996,94
106454,200614,222298,5.515456093,7.6869426025,-3.1740791789,95
106468,200584,222239,5.5010991574000005,7.7144600624,-3.2614172038,96
106534,200572,222253,5.636293634299999,7.5338019561000005,-3.2231320422,97
106518,200576,222278,5.5680981902,7.8305119585,-3.266202849,98
106496,200560,222254,5.467599641,7.6558359087,-3.2231320422,99
106400,200539,222213,5.5118668590999995,7.740781111,-3.2709884942,100
106333,200545,222285,5.5429735529,7.612765101899999,-3.2590243811999997,101
106285,200548,222260,5.5657053676,7.624729214899999,-3.2626136151000003,102
106249,200489,222258,5.633900811699999,7.740781111,-3.1669007111,103
106185,200521,222204,5.587240771,7.6761749007999995,-3.2087751066,104
106142,200566,222202,5.472385286200001,7.6091758679999995,-3.206382284,105
106115,200542,222213,5.6410792795,7.6761749007999995,-3.1956145822999997,106
106127,200519,222210,5.491527867,7.7994052647,-3.1848468806000003,107
106140,200513,222210,5.525027383399999,7.570890706399999,-3.2614172038,108
106153,200514,222226,5.5238309721,7.7192457076,-3.2338997439000003,109
106189,200520,222237,5.636293634299999,7.7156564737,-3.2506495021,110
106196,200529,222228,5.583651537100001,7.6809605460000006,-3.206382284,111
106189,200547,222231,5.5465627868,7.7419775223,-3.2997023654,112
106237,200595,222226,5.459224761900001,7.6486574409,-3.2578279699,113
106275,200560,222216,5.4017970195,7.6498538522,-3.2446674455999998,114
106328,200595,222228,5.6410792795,7.6031938115,-3.1764720014999996,115
106302,200594,222233,5.563312545,7.6319076827,-3.1692935337,116
106308,200607,222236,5.5274202059999995,7.5361947787,-3.2327033326,117
106274,200599,222241,5.5369914964,7.679764134699999,-3.1214370817,118
106211,200555,222196,5.538187907699999,7.779066272600001,-3.170489945,119
106166,200550,222216,5.4939206895999995,7.6307112714,-3.1836504693,120
106146,200530,222219,5.458028350599999,7.6642107878,-3.1848468806000003,121
106040,200545,222232,5.551348432,7.7024959494,-3.2315069213,122
106159,200571,222193,5.2845487121,7.692924659,-3.2949167202,123
106051,200539,222245,5.5860443597,7.6941210703,-3.2829526072,124
106195,200562,222204,5.5788658919,7.679764134699999,-3.242274623,125
106202,200508,222202,5.4951171009,7.746763167499999,-3.2446674455999998,126
106231,200560,222222,5.4161539550999995,7.7252277641000004,-3.2709884942,127
106256,200532,222215,5.5178489156,7.683353368600001,-3.2099715178999997,128
106279,200577,222211,5.472385286200001,7.7515488127,-3.3044880106,129
106294,200542,222212,5.5968120614000005,7.7300134093,-3.2638100264,130
106329,200504,222187,5.5345986738,7.7276205867,-3.1932217597,131
106392,200551,222193,5.4137611324999995,7.7383882884,-3.1992038162000003,132
106365,200559,222251,5.513063270399999,7.683353368600001,-3.2733813167999997,133
106430,200558,222254,5.484349399199999,7.749155990099999,-3.3080772444999997,134
106464,200532,222245,5.4652068183999996,7.6881390138,-3.1848468806000003,135
106460,200544,222237,5.3778687935,7.8185478454999995,-3.3044880106,136
106522,200557,222234,5.4963135121999995,7.7300134093,-3.2733813167999997,137
106518,200555,222232,5.6255259326000004,7.6869426025,-3.2338997439000003,138
106572,200562,222257,5.472385286200001,7.7120672398000005,-3.1441688964,139
106585,200545,222232,5.5680981902,7.7551380466,-3.2410782117,140
106632,200571,222240,5.569294601499999,7.6989067155,-3.2566315586,141
106655,200583,222224,5.5657053676,7.695317481599999,-3.2733813167999997,142
106651,200548,222255,5.491527867,7.720442118899999,-3.2039894614,143
106695,200608,222241,5.4819565766,7.5804619967999995,-3.2039894614,144
106725,200617,222251,5.3802616161,7.7694949822,-3.2925238975999997,145
106753,200581,222247,5.5238309721,7.6809605460000006,-3.2171499857,146
106705,200604,222246,5.4771709314,7.6498538522,-3.2039894614,147
106592,200575,222252,5.4388857698,7.679764134699999,-3.2039894614,148
106567,200613,222200,5.5489556094,7.5924261098,-3.2733813167999997,149
106509,200480,222206,5.3455656884,7.6977103042,-3.1788648241,150
106476,200525,222208,5.4137611324999995,7.708478005899999,-3.2111679291999997,151
106418,200577,222216,5.4927242783,7.651050263499999,-3.2291140987,152
106436,200542,222214,5.4939206895999995,7.543373246500001,-3.2542387359999996,153
106418,200489,222224,5.566901778899999,7.7706913935,-3.2327033326,154
106421,200511,222196,5.4341001246000005,7.6319076827,-3.182454058,155
106335,200536,222206,5.467599641,7.6019974002,-3.2147571631,156
106465,200622,222185,5.407779076,7.7132636511,-3.1142586138999997,157
106496,200533,222230,5.4747781088,7.625925626199999,-3.2327033326,158
106504,200555,222226,5.4699924636,7.6091758679999995,-3.2853454298,159
106487,200544,222195,5.5310094399,7.746763167499999,-3.1381868399,160
106523,200512,222204,5.419743189,7.7252277641000004,-3.1776684127999997,161
106531,200603,222211,5.5022955687,7.692924659,-3.1633114771999997,162
106573,200574,222226,5.4963135121999995,7.683353368600001,-3.218346397,163
106596,200571,222186,5.4484570602,7.5589265934,-3.2997023654,164
106598,200559,222223,5.4963135121999995,7.6187471584,-3.1692935337,165
106631,200651,222244,5.5525448433,7.5828548194,-3.2386853891,166
106664,200589,222205,5.5441699642,7.6654071991,-3.2458638569,167
106690,200512,222242,5.4484570602,7.6498538522,-3.1800612354,168
106715,200560,222199,5.4604211732,7.800601675999999,-3.2004002275,169
106711,200583,222237,5.4209396003000005,7.6366933279,-3.1286155494999996,170
106512,200532,222206,5.633900811699999,7.6809605460000006,-3.3367911156999996,171
106531,200539,222225,5.486742221799999,7.683353368600001,-3.1621150658999997,172
106451,200475,222194,5.5573304885,7.7324062319,-3.2877382523999996,173
106389,200522,222215,5.442475003699999,7.5445696578,-3.2614172038,174
106316,200519,222172,5.458028350599999,7.7024959494,-3.206382284,175
106291,200537,222169,5.467599641,7.5876404646,-3.2853454298,176
106230,200395,222180,5.430510890700001,7.8221370794,-3.1680971224,177
106231,200499,222182,5.653043392499999,7.6642107878,-3.2159535744,178
106253,200520,222157,5.4819565766,7.775477038699999,-3.2374889778,179
106247,200530,222149,5.5166525043000005,7.6977103042,-3.2171499857,180
106245,200507,222190,5.5262237947,7.7192457076,-3.2135607518000002,181
106299,200509,222187,5.4891350444,7.6163543358,-3.1597222433,182
106269,200458,222157,5.376672382200001,7.5804619967999995,-3.3044880106,183
106313,200511,222180,5.3862436726,7.7312098206,-3.242274623,184
106333,200490,222167,5.392225729100001,7.7898339743,-3.2733813167999997,185
106357,200496,222187,5.6147582309,7.570890706399999,-3.1645078885,186
106379,200525,222221,5.5609197224,7.6989067155,-3.2398818003999996,187
106404,200482,222175,5.4939206895999995,7.555337359499999,-3.2949167202,188
106361,200492,222184,5.405386253400001,7.6079794567,-3.194418171,189
106299,200446,222161,5.6386864569,7.764709337,-3.1860432919,190
106232,200401,222124,5.5058848026,7.6785677234,-3.1932217597,191
106135,200461,222138,5.5082776252,7.7587272805,-3.2757741394,192
106133,200504,222150,5.5585268998,7.7694949822,-3.2207392196,193
106125,200473,222146,5.5322058512000005,7.7072815945999995,-3.2566315586,194
106127,200514,222147,5.4245288342,7.6773713121,-3.2530423247,195
106155,200525,222173,5.4771709314,7.7347990545,-3.2542387359999996,196
106161,200475,222158,5.5094740364999994,7.7120672398000005,-3.242274623,197
106150,200472,222169,5.5334022625,7.7012995381,-3.1417760738,198
106192,200472,222124,5.624329521299999,7.6163543358,-3.3332018818,199
106221,200505,222189,5.647061336,7.7419775223,-3.23031051,200
106242,200476,222161,5.50349198,7.6821569573,-3.182454058,201
106268,200471,222157,5.5274202059999995,7.6486574409,-3.1932217597,202
106340,200549,222158,5.5465627868,7.6031938115,-3.1669007111,203
106364,200539,222198,5.566901778899999,7.749155990099999,-3.170489945,204
106360,200502,222161,5.583651537100001,7.8939217574,-3.1812576466999998,205
106328,200520,222163,5.487938633100001,7.749155990099999,-3.278166962,206
106430,200394,222172,5.5190453269,7.7024959494,-3.218346397,207
106449,200477,222202,5.551348432,7.585247642000001,-3.1692935337,208
106464,200553,222177,5.6015977066,7.6283184488,-3.2733813167999997,209
106497,200540,222139,5.50349198,7.6893354250999995,-3.2590243811999997,210
106566,200541,222190,5.3659046805,7.6857461912,-3.2374889778,211
106553,200508,222181,5.4400821811,7.7563344578999995,-3.2494530908,212
106598,200516,222172,5.540580730299999,7.6869426025,-3.2350961552,213
106613,200533,222148,5.4616175845,7.668996433,-3.1764720014999996,214
106631,200547,222154,5.5345986738,7.5206414318,-3.242274623,215
106668,200591,222190,5.541777141600001,7.7838519178,-3.3750762773,216
106664,200552,222191,5.4029934308,7.612765101899999,-3.1621150658999997,217
106588,200469,222145,5.6985070219,7.718049296299999,-3.1178478478000002,218
106480,200532,222156,5.6638110942,7.6737820782,-3.1776684127999997,219
106419,200491,222152,5.4807601652999995,7.718049296299999,-3.2805597846,220
106333,200432,222141,5.528616617299999,7.7946196195,-3.290131075,221
106246,200447,222145,5.513063270399999,7.6474610296,-3.1764720014999996,222
106179,200457,222141,5.541777141600001,7.6008009889000006,-3.2291140987,223
106161,200523,222128,5.5932228275,7.6295148601000005,-3.1597222433,224
106145,200483,222096,5.5322058512000005,7.7934232082,-3.206382284,225
106146,200494,222098,5.6099725857,7.5960153436999995,-3.1489545415999998,226
106157,200474,222114,5.5429735529,7.6139615132000005,-3.2255248647999997,227
106139,200437,222146,5.5776694806,7.5673014725,-3.158525832,228
106144,200454,222115,5.5058848026,7.750352401400001,-3.206382284,229
106176,200412,222134,5.620740287399999,7.6725856669,-3.2590243811999997,230
106195,200488,222100,5.5441699642,7.6989067155,-3.2997023654,231
106218,200418,222115,5.5166525043000005,7.668996433,-3.242274623,232
106258,200480,222095,5.4113683099,7.5696942951,-3.2279176874,233
106278,200434,222138,5.5477591981,7.6438717957,-3.1860432919,234
106308,200477,222167,5.6171510535,7.6139615132000005,-3.2542387359999996,235
106333,200506,222104,5.4903314557,7.6977103042,-3.2757741394,236
106354,200479,222080,5.4987063348,7.6486574409,-3.0951160330999996,237
106382,200462,222136,5.570491012800001,7.728816998,-3.2757741394,238
106399,200504,222154,5.6147582309,7.7312098206,-3.2518459134,239
106430,200469,222156,5.4293144793999994,7.6438717957,-3.2973095428,240
106387,200473,222147,5.5968120614000005,7.6618179652,-3.1752755902,241
106278,200491,222096,5.633900811699999,7.6307112714,-3.194418171,242
106139,200448,222090,5.3934221404,7.6474610296,-3.2709884942,243
105970,200440,222079,5.467599641,7.6558359087,-3.3068808331999997,244
105934,200415,222108,5.3383872206000005,7.836494015,-3.2709884942,245
105832,200360,222082,5.446064237599999,7.749155990099999,-3.266202849,246
105737,200389,222079,5.6147582309,7.635496916599999,-3.2159535744,247
105680,200385,222066,5.486742221799999,7.6426753844,-3.2769705507,248
105676,200398,222060,5.4891350444,7.7276205867,-3.2159535744,249
105685,200391,222052,5.4939206895999995,7.6187471584,-3.2530423247,250
105672,200392,222084,5.5441699642,7.6977103042,-3.2147571631,251
105694,200419,222079,5.443671415,7.7419775223,-3.3092736558,252
105694,200393,222063,5.563312545,7.6366933279,-3.2327033326,253
105726,200431,222067,5.5501520207,7.6713892556,-3.2446674455999998,254
105755,200427,222083,5.459224761900001,7.7144600624,-3.2614172038,255
105714,200396,222061,5.479563754,7.5864440533,-3.2614172038,256
105796,200383,222067,5.525027383399999,7.621139981,-3.2733813167999997,257
105838,200451,222046,5.4939206895999995,7.7730842161,-3.1597222433,258
105839,200401,222075,5.5561340772,7.7611201031,-3.2925238975999997,259
105803,200433,222079,5.455635527999999,7.6402825618,-3.1896325258,260
105687,200412,222020,5.5944192388,7.6857461912,-3.3164521235999995,261
105609,200372,222056,5.6889357315,7.612765101899999,-3.1322047834,262
105516,200377,222033,5.4664032297,7.6187471584,-3.2793633733,263
105459,200337,222044,5.395814963,7.7072815945999995,-3.2398818003999996,264
105432,200330,222090,5.4771709314,7.763512925700001,-3.2015966388,265
105442,200346,222015,5.5645089563,7.5601230047,-3.3571301077999998,266
105450,200344,222010,5.5597233111,7.561319416,-3.2458638569,267
105474,200388,222012,5.5788658919,7.6366933279,-3.1669007111,268
105481,200365,222035,5.5310094399,7.585247642000001,-3.2374889778,269
105479,200374,222021,5.6075797630999995,7.779066272600001,-3.2458638569,270
105524,200394,222008,5.5178489156,7.749155990099999,-3.2470602682000003,271
105550,200411,222016,5.4855458105,7.526623488299999,-3.2350961552,272
105591,200369,222000,5.5274202059999995,7.7132636511,-3.2757741394,273
105639,200408,222067,5.4532427054,7.695317481599999,-3.2470602682000003,274
105665,200389,222003,5.5214381495,7.692924659,-3.2087751066,275
105584,200400,222074,5.4520462941,7.5792655855,-3.1728827676,276
105730,200302,222031,5.587240771,7.7252277641000004,-3.2638100264,277
105780,200353,222042,5.5920264161999995,7.718049296299999,-3.1896325258,278
105798,200443,222017,5.5501520207,7.721638530200001,-3.3116664784,279
105856,200449,222038,5.446064237599999,7.6474610296,-3.2482566795000003,280
105884,200408,222035,5.389832906500001,7.6307112714,-3.1968109935999998,281
105933,200387,222025,5.6027941179,7.6163543358,-3.278166962,282
105951,200423,222043,5.5238309721,7.6785677234,-3.1381868399,283
105979,200413,222040,5.3970113743,7.750352401400001,-3.2243284535,284
106037,200437,222073,5.4604211732,7.6737820782,-3.2255248647999997,285
106075,200414,222010,5.5561340772,7.5900332872,-3.1740791789,286
106079,200431,222046,5.4125647212,7.621139981,-3.3846475676999996,287
106099,200435,222058,5.5022955687,7.6438717957,-3.2925238975999997,288
105980,200441,222015,5.4819565766,7.733602643199999,-3.2135607518000002,289
105861,200414,222046,5.575276658,7.7874411516999995,-3.1633114771999997,290
105688,200356,222011,5.515456093,7.635496916599999,-3.2075786953,291
105555,200340,222028,5.486742221799999,7.733602643199999,-3.3320054705,292
105461,200399,221973,5.5776694806,7.7946196195,-3.2087751066,293
105286,200331,221976,5.5465627868,7.65703232,-3.2566315586,294
105190,200267,222012,5.6422756908,7.6235328036,-3.1166514365,295
105159,200368,221993,5.5178489156,7.804190909899999,-3.2446674455999998,296
105102,200314,221997,5.4257252455,7.763512925700001,-3.290131075,297
105111,200323,221981,5.6195438761,7.6199435697,-3.2685956716,298
105112,200307,221959,5.5010991574000005,7.6725856669,-3.1501509529,299
105103,200226,221982,5.4735816975,7.695317481599999,-3.266202849,300
105118,200299,221993,5.566901778899999,7.6019974002,-3.2458638569,301
105140,200270,221978,5.5932228275,7.6809605460000006,-3.1716863562999995,302
105164,200319,221979,5.5274202059999995,7.692924659,-3.2195428083000004,303
105205,200349,221946,5.5896335936,7.728816998,-3.2147571631,304
105249,200334,221954,5.541777141600001,7.6366933279,-3.3523444626,305
105266,200357,222028,5.472385286200001,7.5457660691,-3.2135607518000002,306
105318,200340,222005,5.6123654083000005,7.763512925700001,-3.2207392196,307
105364,200263,222013,5.5226345608,7.6498538522,-3.3104700671000002,308
105388,200370,221997,5.6219366987,7.633104094,-3.3104700671000002,309
105352,200360,221974,5.5010991574000005,7.6713892556,-3.2518459134,310
105495,200383,221998,5.4699924636,7.7383882884,-3.1716863562999995,311
105400,200335,221993,5.4065826647,7.7228349415,-3.1633114771999997,312
105240,200247,221985,5.5501520207,7.704888771999999,-3.0927232105,313
105081,200268,221946,5.5489556094,7.6917282476999995,-3.2446674455999998,314
104930,200316,221944,5.443671415,7.7515488127,-3.3272198253,315
104740,200302,221957,5.541777141600001,7.668996433,-3.2566315586,316
104538,200252,221936,5.5657053676,7.654639497399999,-3.1992038162000003,317
104392,200252,221923,5.5334022625,7.6307112714,-3.3128628897,318
104293,200175,221892,5.566901778899999,7.7431739336,-3.3212377687999997,319
104267,200225,221900,5.4687960523,7.6881390138,-3.2470602682000003,320
104239,200237,221907,5.5262237947,7.7324062319,-3.2219356309,321
104225,200210,221906,5.5322058512000005,7.746763167499999,-3.2470602682000003,322
104153,200230,221903,5.525027383399999,7.7826555065,-3.3104700671000002,323
104260,200148,221889,5.5022955687,7.637889739199999,-3.3044880106,324
104267,200216,221937,5.5082776252,7.6713892556,-3.2829526072,325
104318,200298,221953,5.6386864569,7.645068207,-3.2554351473,326
104357,200229,221875,5.6027941179,7.667800021700001,-3.1800612354,327
104406,200256,221904,5.5680981902,7.6725856669,-3.2446674455999998,328
104456,200265,221919,5.4963135121999995,7.6809605460000006,-3.2542387359999996,329
104495,200246,221953,5.5944192388,7.775477038699999,-3.2494530908,330
104474,200239,221890,5.4364929472,7.637889739199999,-3.2805597846,331
104359,200227,221876,5.515456093,7.8089765551,-3.1776684127999997,332
104206,200204,221856,5.4293144793999994,7.750352401400001,-3.146561719,333
104036,200182,221849,5.528616617299999,7.6486574409,-3.1932217597,334
103960,200206,221898,5.4604211732,7.6642107878,-3.2949167202,335
103864,200068,221867,5.5058848026,7.764709337,-3.1908289370999996,336
103897,200198,221827,5.4628139958,7.7024959494,-3.1836504693,337
103872,200209,221871,5.5010991574000005,7.5529445369,-3.1860432919,338
103871,200146,221838,5.649454158599999,7.653443086099999,-3.1872397032,339
103880,200172,221871,5.4891350444,7.7874411516999995,-3.1118657913,340
103896,200213,221860,5.4341001246000005,7.7132636511,-3.266202849,341
103946,200111,221881,5.4771709314,7.7228349415,-3.1800612354,342
104000,200202,221858,5.5022955687,7.763512925700001,-3.3116664784,343
104046,200098,221878,5.491527867,7.762316514399999,-3.2709884942,344
104098,200218,221841,5.7643096434,7.6905318364,-3.2039894614,345
104144,200232,221913,5.5334022625,7.7431739336,-3.2004002275,346
104197,200223,221845,5.5561340772,7.7575308692,-3.2207392196,347
104312,200262,221865,5.4281180681,7.7144600624,-3.242274623,348
104330,200239,221892,5.4747781088,7.7132636511,-3.3128628897,349
104388,200279,221902,5.458028350599999,7.77667345,-3.1669007111,350
104461,200272,221917,5.513063270399999,7.6594251426,-3.2171499857,351
104501,200290,221901,5.6386864569,7.7252277641000004,-3.2853454298,352
104560,200258,221872,5.4771709314,7.7120672398000005,-3.2123643404999997,353
104637,200283,221924,5.5166525043000005,7.7156564737,-3.3020951879999996,354
104692,200337,221914,5.4520462941,7.6737820782,-3.3044880106,355
104711,200289,221887,5.605186940499999,7.7276205867,-3.2039894614,356
104762,200288,221896,5.553741254599999,7.7001031268,-3.2446674455999998,357
104794,200311,221900,5.3814580274,7.6881390138,-3.2925238975999997,358
104726,200322,221887,5.539384319,7.4907311493,-3.2015966388,359
104467,200245,221891,5.5166525043000005,7.7276205867,-3.2638100264,360
104288,200169,221878,5.6267223439,7.668996433,-3.1561330094,361
104060,200163,221857,5.4329037133,7.633104094,-3.3164521235999995,362
103789,200126,221803,5.6075797630999995,7.7024959494,-3.290131075,363
103555,200128,221845,5.539384319,7.6486574409,-3.2159535744,364
103330,200151,221823,5.5226345608,7.7539416353,-3.1812576466999998,365
103197,200140,221834,5.4149575438,7.6989067155,-3.2566315586,366
103122,200109,221805,5.4352965359,7.740781111,-3.218346397,367
103097,200134,221824,5.6171510535,7.625925626199999,-3.2207392196,368
103091,200077,221813,5.4412785924,7.5756763516,-3.2518459134,369
103098,200015,221801,5.2307102036,7.728816998,-3.1692935337,370
103136,200093,221812,5.5310094399,7.6283184488,-3.1752755902,371
103155,200152,221838,5.554937665900001,7.6366933279,-3.2638100264,372
103208,200141,221825,5.6267223439,7.7958160308,-3.2709884942,373
103250,200137,221821,5.4747781088,7.746763167499999,-3.1417760738,374
103322,200149,221785,5.4484570602,7.7096744172000005,-3.1573294206999996,375
103374,200182,221822,5.5728838354,7.6905318364,-3.2542387359999996,376
103451,200141,221806,5.6482577473,7.625925626199999,-3.2159535744,377
103512,200189,221821,5.4006006081999995,7.6761749007999995,-3.2386853891,378
103592,200189,221815,5.5334022625,7.6103722793,-3.2207392196,379
103678,200196,221829,5.5920264161999995,7.621139981,-3.2207392196,380
103721,200200,221807,5.5944192388,7.621139981,-3.2685956716,381
103758,200191,221821,5.455635527999999,7.7539416353,-3.2099715178999997,382
103615,200117,221820,5.513063270399999,7.6713892556,-3.1884361145,383
103419,200100,221792,5.541777141600001,7.6630143765,-3.206382284,384
103194,200141,221773,5.5357950851,7.7192457076,-3.2685956716,385
102949,200091,221815,5.553741254599999,7.7443703449,-3.2243284535,386
102684,200006,221789,5.472385286200001,7.7108708285,-3.1633114771999997,387
102397,200059,221755,5.50349198,7.65703232,-3.2829526072,388
102242,200064,221736,5.5106704478,7.7252277641000004,-3.1633114771999997,389
102088,200036,221760,5.6410792795,7.573283529,-3.2087751066,390
102052,199954,221733,5.4412785924,7.7072815945999995,-3.2494530908,391
102082,199971,221783,5.4963135121999995,7.6498538522,-3.3008987767,392
102094,200032,221731,5.5621161337,7.819744256799999,-3.2590243811999997,393
102110,200023,221740,5.541777141600001,7.5601230047,-3.1728827676,394
102155,200055,221743,5.5776694806,7.403393124400001,-3.1453653077,395
102158,200028,221737,5.3659046805,7.7156564737,-3.278166962,396
102339,200040,221751,5.540580730299999,7.721638530200001,-3.2973095428,397
102401,200039,221763,5.5441699642,7.704888771999999,-3.2015966388,398
102511,199945,221802,5.5058848026,7.654639497399999,-3.23031051,399
102604,200040,221746,5.455635527999999,7.695317481599999,-3.2470602682000003,400
102696,200095,221799,5.5022955687,7.5936225210999995,-3.2685956716,401
102721,200018,221776,5.4735816975,7.6366933279,-3.2494530908,402
102590,200057,221751,5.5657053676,7.8376904263,-3.218346397,403
102436,200017,221744,5.4927242783,7.7312098206,-3.2757741394,404
102278,200041,221765,5.455635527999999,7.6163543358,-3.3056844219,405
102178,199999,221767,5.4532427054,7.683353368600001,-3.2614172038,406
102108,200005,221772,5.6231331099999995,7.7862447404,-3.2231320422,407
102131,199992,221718,5.426921656799999,7.65703232,-3.1932217597,408
102198,200006,221751,5.4855458105,7.7024959494,-3.2542387359999996,409
102226,200037,221751,5.4771709314,7.8017980873,-3.1680971224,410
102280,200051,221755,5.471188874899999,7.718049296299999,-3.1872397032,411
102332,200003,221758,5.7176496027,7.651050263499999,-3.2147571631,412
102330,200036,221753,5.3730831483,7.6402825618,-3.3068808331999997,413
102515,200039,221799,5.5968120614000005,7.7324062319,-3.1621150658999997,414
102581,200011,221749,5.525027383399999,7.6366933279,-3.2327033326,415
102673,200034,221799,5.5082776252,7.668996433,-3.1992038162000003,416
102776,200084,221830,5.426921656799999,7.7383882884,-3.2374889778,417
102862,200004,221791,5.5657053676,7.6139615132000005,-3.2446674455999998,418
102945,200057,221802,5.4939206895999995,7.6701928443,-3.1752755902,419
103030,200055,221810,5.4089754873,7.5589265934,-3.2398818003999996,420
103120,200092,221796,5.471188874899999,7.5924261098,-3.206382284,421
103231,200106,221812,5.6410792795,7.679764134699999,-3.2733813167999997,422
103312,200116,221808,5.651846981199999,7.7946196195,-3.2171499857,423
103385,200111,221787,5.4891350444,7.7431739336,-3.1369904286000003,424
103488,200053,221810,5.5010991574000005,7.7144600624,-3.278166962,425
103571,200105,221802,5.4412785924,7.5984081663000005,-3.2685956716,426
103631,200171,221849,5.4484570602,7.6474610296,-3.2578279699,427
103721,200165,221867,5.5178489156,7.716852885,-3.1513473642000003,428
103775,200126,221887,5.5657053676,7.6761749007999995,-3.23031051,429
103719,200175,221860,5.5178489156,7.5003024396999995,-3.2207392196,430
103502,200098,221846,5.5896335936,7.7072815945999995,-3.2518459134,431
103252,200112,221789,5.5441699642,7.6618179652,-3.206382284,432
103006,200044,221806,5.455635527999999,7.6019974002,-3.2446674455999998,433
102627,199990,221763,5.3036912929,7.7300134093,-3.1597222433,434
102364,199950,221760,5.5680981902,7.832904781100001,-3.1908289370999996,435
102078,199935,221757,5.5501520207,7.6857461912,-3.1381868399,436
101883,199954,221754,5.5190453269,7.5924261098,-3.2350961552,437
101756,199951,221813,5.3300123415,7.752745224,-3.2147571631,438
101735,200015,221720,5.582455125799999,7.6283184488,-3.2410782117,439
101765,199973,221740,5.486742221799999,7.7312098206,-3.2243284535,440
101751,199968,221735,5.551348432,7.6761749007999995,-3.1848468806000003,441
101787,199993,221705,5.5657053676,7.570890706399999,-3.218346397,442
101838,199944,221725,5.4975099235,7.7001031268,-3.2853454298,443
101908,199993,221750,5.4963135121999995,7.679764134699999,-3.2470602682000003,444
101970,200012,221746,5.595615650099999,7.597211754999999,-3.158525832,445
102070,199952,221763,5.4819565766,7.6582287313,-3.1070801461,446
102164,200022,221766,5.6291151665,7.6893354250999995,-3.2004002275,447
102251,199989,221731,5.5501520207,7.728816998,-3.2745777280999997,448
102355,199966,221741,5.4496534715000005,7.5517481256,-3.266202849,449
102457,200041,221789,5.5082776252,7.653443086099999,-3.2231320422,450
102567,200021,221797,5.5645089563,7.692924659,-3.2374889778,451
102648,200073,221789,5.5357950851,7.637889739199999,-3.2829526072,452
102738,200053,221802,5.6267223439,7.6642107878,-3.2614172038,453
102677,200027,221722,5.443671415,7.7036923607,-3.1800612354,454
102515,200010,221763,5.5334022625,7.5529445369,-3.1992038162000003,455
102163,199948,221760,5.528616617299999,7.6343005053,-3.0783662749,456
101859,199929,221730,5.4221360116,7.612765101899999,-3.2374889778,457
101506,199890,221727,5.4699924636,7.7395846997,-3.3690942208,458
101138,199880,221679,5.551348432,7.6713892556,-3.3738798660000002,459
100823,199860,221703,5.4628139958,7.6809605460000006,-3.1250263156,460
100615,199818,221719,5.5166525043000005,7.6785677234,-3.1669007111,461
100539,199872,221710,5.541777141600001,7.6977103042,-3.266202849,462
100496,199838,221717,5.605186940499999,7.6426753844,-3.1764720014999996,463
100611,199858,221672,5.5238309721,7.683353368600001,-3.1848468806000003,464
100637,199853,221686,5.4113683099,7.6199435697,-3.1561330094,465
100744,199905,221677,5.4891350444,7.667800021700001,-3.146561719,466
100807,199870,221692,5.5190453269,7.65703232,-3.2877382523999996,467
100909,199881,221715,5.5058848026,7.5996045776,-3.2135607518000002,468
101027,199884,221699,5.4628139958,7.667800021700001,-3.1645078885,469
101148,199834,221693,5.5489556094,7.737191877099999,-3.3044880106,470
101271,199867,221715,5.5106704478,7.653443086099999,-3.1872397032,471
101415,199872,221707,5.5142596817000005,7.785048329099999,-3.2542387359999996,472
101466,199840,221733,5.4568319393,7.7001031268,-3.2709884942,473
101327,199888,221705,5.4819565766,7.668996433,-3.1800612354,474
101211,199899,221688,5.6327044004,7.752745224,-3.1848468806000003,475
101025,199851,221695,5.4412785924,7.7072815945999995,-3.242274623,476
100889,199892,221729,5.4508498828,7.6019974002,-3.2733813167999997,477
100825,199822,221695,5.4221360116,7.7276205867,-3.1334011947,478
100826,199843,221733,5.5776694806,7.7970124421,-3.2829526072,479
100916,199893,221725,5.484349399199999,7.572087117700001,-3.2111679291999997,480
100992,199874,221707,5.633900811699999,7.716852885,-3.2709884942,481
101079,199884,221703,5.4364929472,7.7060851833,-3.2004002275,482
101174,199773,221756,5.5094740364999994,7.6857461912,-3.2470602682000003,483
101256,199893,221707,5.513063270399999,7.668996433,-3.2207392196,484
101434,199942,221758,5.4747781088,7.6091758679999995,-3.2087751066,485
101536,199947,221774,5.4759745201,7.7144600624,-3.1561330094,486
101635,199914,221757,5.6434721021,7.6989067155,-3.1441688964,487
101735,199947,221791,5.5190453269,7.6283184488,-3.2099715178999997,488
101874,199976,221763,5.472385286200001,7.6522466748,-3.2315069213,489
102013,199973,221806,5.4604211732,7.7563344578999995,-3.1405796625,490
102134,199987,221800,5.4699924636,7.7515488127,-3.2374889778,491
102247,199969,221794,5.5058848026,7.6857461912,-3.2135607518000002,492
102364,199992,221803,5.5453663755000004,7.624729214899999,-3.2997023654,493
102451,200002,221790,5.388636495199999,7.667800021700001,-3.194418171,494
102579,199930,221783,5.525027383399999,7.7515488127,-3.2494530908,495
102675,200024,221851,5.4149575438,7.625925626199999,-3.2590243811999997,496
102807,200053,221831,5.3659046805,7.473981391100001,-3.2470602682000003,497
102896,200078,221851,5.388636495199999,7.570890706399999,-3.2518459134,498
102999,200036,221819,5.4628139958,7.6594251426,-3.1274191382,499
103084,200090,221848,5.5776694806,7.6845497799,-3.2350961552,500
103195,200073,221838,5.4855458105,7.667800021700001,-3.2829526072,501
103247,200054,221865,5.4388857698,7.6737820782,-3.2338997439000003,502
103112,200057,221833,5.5022955687,7.6115686905999995,-3.1645078885,503
102908,199952,221821,5.6721859733,7.7300134093,-3.2566315586,504
102705,199992,221799,5.458028350599999,7.667800021700001,-3.2542387359999996,505
102516,199939,221808,5.4855458105,7.668996433,-3.2147571631,506
102280,199909,221811,5.5776694806,7.7946196195,-3.1573294206999996,507
102082,199888,221754,5.515456093,7.5158557866,-3.266202849,508
101927,199959,221789,5.5489556094,7.7539416353,-3.1537401868,509
101881,199909,221817,5.3826544387,7.7132636511,-3.2207392196,510
101877,199929,221813,5.665007505499999,7.6283184488,-3.182454058,511
101897,199869,221796,5.540580730299999,7.6307112714,-3.1669007111,512
101931,199862,221778,5.3527441562,7.737191877099999,-3.218346397,513
101982,199915,221801,5.4771709314,7.7001031268,-3.2542387359999996,514
102016,199955,221806,5.484349399199999,7.704888771999999,-3.2614172038,515
102121,199992,221789,5.5429735529,7.718049296299999,-3.3463624061,516
102156,199935,221774,5.3946185517,7.692924659,-3.2374889778,517
102246,199935,221800,5.5106704478,7.5481588917,-3.23031051,518
102322,199939,221780,5.5322058512000005,7.6642107878,-3.2207392196,519
102451,199991,221805,5.5106704478,7.668996433,-3.1573294206999996,520
102523,199976,221806,5.5357950851,7.6941210703,-3.3607193417,521
102599,200017,221824,5.4293144793999994,7.637889739199999,-3.2111679291999997,522
102701,200000,221811,5.5142596817000005,7.5816584081,-3.2757741394,523
102786,199975,221830,5.5716874241,7.6965138929000005,-3.1968109935999998,524
102870,200018,221818,5.5525448433,7.7874411516999995,-3.314059301,525
102833,199893,221840,5.5920264161999995,7.6558359087,-3.1561330094,526
102665,199912,221810,5.4807601652999995,7.777869861299999,-3.2829526072,527
102470,199879,221823,5.637490045600001,7.6474610296,-3.2231320422,528
102164,199929,221799,5.487938633100001,7.7312098206,-3.3391839383,529
102039,199916,221808,5.6147582309,7.5996045776,-3.2769705507,530
101800,199877,221775,5.458028350599999,7.6235328036,-3.1740791789,531
101587,199878,221778,5.5585268998,7.6426753844,-3.2685956716,532
101401,199838,221754,5.6315079891,7.6618179652,-3.2075786953,533
101417,199891,221758,5.515456093,7.6977103042,-3.2374889778,534
101460,199853,221726,5.5501520207,7.621139981,-3.2685956716,535
101507,199906,221746,5.4508498828,7.708478005899999,-3.2374889778,536
101527,199782,221729,5.4759745201,7.8544401845,-3.1860432919,537
101593,199885,221762,5.5058848026,7.5780691741999995,-3.2004002275,538
101683,199902,221739,5.4891350444,7.6606215538999995,-3.182454058,539
101765,199891,221801,5.479563754,7.8305119585,-3.1980074049,540
101885,199911,221748,5.5106704478,7.7108708285,-3.2147571631,541
101963,199937,221781,5.5621161337,7.6283184488,-3.278166962,542
102083,199946,221788,5.5118668590999995,7.7240313528,-3.1310083721,543
102199,199922,221776,5.479563754,7.7240313528,-3.2709884942,544
102294,199926,221775,5.5489556094,7.6474610296,-3.2123643404999997,545
102282,199961,221780,5.4939206895999995,7.7395846997,-3.2518459134,546
102146,199911,221769,5.539384319,7.5900332872,-3.1716863562999995,547
102085,199926,221779,5.5334022625,7.752745224,-3.290131075,548
101999,199880,221791,5.5477591981,7.5673014725,-3.2338997439000003,549
101913,199877,221736,5.5896335936,7.645068207,-3.1334011947,550
101898,199872,221767,5.3874400839,7.6594251426,-3.278166962,551
101902,199901,221760,5.611168996999999,7.5888368759,-3.2590243811999997,552
101980,199905,221729,5.5477591981,7.6965138929000005,-3.1118657913,553
102071,199890,221744,5.541777141600001,7.6881390138,-3.2350961552,554
102084,199809,221749,5.539384319,7.7096744172000005,-3.2853454298,555
102122,199892,221775,5.6877393201999995,7.5314091335,-3.2051858726999995,556
102236,199894,221799,5.4532427054,7.7587272805,-3.1776684127999997,557
102335,199936,221794,5.486742221799999,7.633104094,-3.2614172038,558
102414,199917,221785,5.4783673427,7.6235328036,-3.1740791789,559
102523,199956,221782,5.5058848026,7.6462646183,-3.2087751066,560
102650,199999,221760,5.5776694806,7.6235328036,-3.158525832,561
102699,199971,221813,5.5345986738,7.8017980873,-3.2135607518000002,562
102794,199951,221824,5.4604211732,7.804190909899999,-3.1872397032,563
102922,200036,221818,5.472385286200001,7.6402825618,-3.2733813167999997,564
103002,200000,221831,5.5812587145,7.7108708285,-3.2015966388,565
103106,200017,221828,5.4604211732,7.5816584081,-3.1537401868,566
103194,200032,221826,5.5214381495,7.785048329099999,-3.2614172038,567
103334,200079,221821,5.5477591981,7.7144600624,-3.3188449462,568
103372,200048,221878,5.3730831483,7.6366933279,-3.1262227269,569
103429,199975,221836,5.5980084727,7.6486574409,-3.2398818003999996,570
103521,200046,221878,5.4831529879,7.6438717957,-3.1800612354,571
103608,200044,221862,5.599204884000001,7.6283184488,-3.2853454298,572
103630,200075,221853,5.3814580274,7.7108708285,-3.2171499857,573
103471,200026,221867,5.662614682899999,7.683353368600001,-3.23031051,574
103346,199928,221879,5.5226345608,7.7001031268,-3.1956145822999997,575
103197,199986,221816,5.4628139958,7.635496916599999,-3.170489945,576
103037,199933,221793,5.5094740364999994,7.6809605460000006,-3.3128628897,577
102924,199966,221823,5.4568319393,7.785048329099999,-3.2590243811999997,578
102709,199845,221833,5.486742221799999,7.6163543358,-3.146561719,579
102584,199957,221809,5.6075797630999995,7.6139615132000005,-3.2817561959000003,580
102538,199906,221789,5.5178489156,7.8520473619,-3.2350961552,581
102527,199824,221797,5.4616175845,7.7096744172000005,-3.278166962,582
102574,199963,221808,5.4903314557,7.6701928443,-3.1932217597,583
102584,199911,221822,5.4699924636,7.5924261098,-3.1776684127999997,584
102650,199974,221779,5.4388857698,7.668996433,-3.2111679291999997,585
102715,199961,221806,5.3539405675,7.573283529,-3.0783662749,586
102748,199945,221857,5.484349399199999,7.737191877099999,-3.2075786953,587
102802,199955,221794,5.6267223439,7.735995465799999,-3.1429724850999996,588
102770,199992,221824,5.515456093,7.585247642000001,-3.2207392196,589
102947,199907,221803,5.4951171009,7.5098737301,-3.278166962,590
103038,199952,221858,5.4747781088,7.7419775223,-3.2398818003999996,591
103127,199973,221785,5.5477591981,7.6498538522,-3.1286155494999996,592
103203,199997,221811,5.4951171009,7.6558359087,-3.1453653077,593
103278,200001,221803,5.5322058512000005,7.6881390138,-3.2853454298,594
103378,200010,221858,5.4029934308,7.7994052647,-3.2398818003999996,595
103378,199993,221835,5.553741254599999,7.6043902228,-3.206382284,596
103170,199986,221828,5.570491012800001,7.6737820782,-3.1920253483999996,597
103140,199965,221848,5.513063270399999,7.6701928443,-3.3284162366,598
102899,199965,221798,5.389832906500001,7.7730842161,-3.242274623,599
102830,199828,221828,5.4891350444,7.763512925700001,-3.2614172038,600
102693,199841,221783,5.4496534715000005,7.683353368600001,-3.1357940173,601
102550,199902,221793,5.5226345608,7.683353368600001,-3.242274623,602
102463,199838,221774,5.5298130286000005,7.6008009889000006,-3.1453653077,603
102436,199899,221793,5.5645089563,7.791030385599999,-3.266202849,604
102481,199898,221799,5.4807601652999995,7.5780691741999995,-3.2350961552,605
102497,199883,221788,5.446064237599999,7.6893354250999995,-3.242274623,606
102546,199859,221782,5.417350366399999,7.6869426025,-3.1716863562999995,607
102579,199925,221774,5.5274202059999995,7.8257263133,-3.2494530908,608
102674,199925,221822,5.553741254599999,7.5864440533,-3.2171499857,609
102722,199912,221770,5.563312545,7.750352401400001,-3.1645078885,610
102815,199948,221813,5.3946185517,7.6869426025,-3.2135607518000002,611
102895,199969,221793,5.5238309721,7.7587272805,-3.2985059541,612
102966,199917,221804,5.4257252455,7.570890706399999,-3.2327033326,613
103053,199998,221814,5.540580730299999,7.7036923607,-3.2159535744,614
103127,199985,221806,5.4963135121999995,7.6965138929000005,-3.2027930501,615
103223,199936,221764,5.5298130286000005,7.6235328036,-3.2111679291999997,616
103260,199987,221801,5.5441699642,7.6654071991,-3.2925238975999997,617
103271,199964,221823,5.467599641,7.6031938115,-3.1752755902,618
103160,199946,221824,5.551348432,7.7264241754,-3.1214370817,619
103025,199982,221808,5.6279187552000005,7.5637122386,-3.1633114771999997,620
102902,199897,221820,5.4113683099,7.668996433,-3.1956145822999997,621
102818,199889,221790,5.4329037133,7.6941210703,-3.1561330094,622
102738,199922,221783,5.706881900999999,7.6977103042,-3.3200413575,623
102713,199903,221804,5.553741254599999,7.7694949822,-3.1980074049,624
102733,199908,221820,5.515456093,7.692924659,-3.2027930501,625
102765,199868,221788,5.4065826647,7.6654071991,-3.242274623,626
102821,199901,221775,5.3946185517,7.5936225210999995,-3.266202849,627
102797,199940,221804,5.486742221799999,7.6295148601000005,-3.3224341800999997,628
102917,199939,221794,5.472385286200001,7.639086150500001,-3.1752755902,629
102995,199992,221788,5.4687960523,7.7431739336,-3.2027930501,630
103045,199937,221808,5.5106704478,7.6941210703,-3.1728827676,631
103127,199964,221824,5.4628139958,7.654639497399999,-3.2374889778,632
103227,199959,221825,5.515456093,7.7264241754,-3.2578279699,633
103288,199947,221818,5.5896335936,7.7946196195,-3.218346397,634
103362,199978,221835,5.6195438761,7.7024959494,-3.2398818003999996,635
103490,199997,221854,5.5788658919,7.6761749007999995,-3.2374889778,636
103541,200021,221824,5.4125647212,7.6917282476999995,-3.1669007111,637
103619,199969,221826,5.5800623032,7.6881390138,-3.1501509529,638
103716,200013,221835,5.4652068183999996,7.6642107878,-3.2255248647999997,639
103746,200070,221858,5.5010991574000005,7.749155990099999,-3.3212377687999997,640
103721,199986,221840,5.443671415,7.7120672398000005,-3.1549365981,641
103607,199968,221830,5.5214381495,7.6426753844,-3.1692935337,642
103490,199962,221874,5.525027383399999,7.7252277641000004,-3.2135607518000002,643
103304,199950,221784,5.539384319,7.606783045399999,-3.2925238975999997,644
103131,199933,221846,5.5345986738,7.7132636511,-3.2638100264,645
102937,199885,221773,5.3659046805,7.6618179652,-3.2279176874,646
102684,199904,221779,5.554937665900001,7.5960153436999995,-3.3176485349,647
102616,199848,221777,5.5441699642,7.764709337,-3.1680971224,648
102590,199873,221794,5.5166525043000005,7.6474610296,-3.2733813167999997,649
102578,199769,221759,5.472385286200001,7.5960153436999995,-3.1920253483999996,650
102574,199865,221779,5.4747781088,7.683353368600001,-3.2530423247,651
102661,199920,221776,5.491527867,7.637889739199999,-3.2542387359999996,652
102643,199885,221793,5.455635527999999,7.6283184488,-3.1501509529,653
102745,199959,221764,5.5429735529,7.65703232,-3.2147571631,654
102794,199927,221838,5.467599641,7.721638530200001,-3.218346397,655
102834,199872,221808,5.5369914964,7.7431739336,-3.3415767608999998,656
102913,199902,221780,5.5884371823,7.6043902228,-3.1968109935999998,657
102975,199885,221801,5.5298130286000005,7.8053873212000005,-3.2925238975999997,658
103071,199930,221800,5.4939206895999995,7.6737820782,-3.1980074049,659
103150,199982,221829,5.5082776252,7.6821569573,-3.170489945,660
103234,199898,221818,5.491527867,7.7144600624,-3.1716863562999995,661
103356,199998,221786,5.5345986738,7.746763167499999,-3.2327033326,662
103345,199982,221837,5.4364929472,7.6414789731,-3.2757741394,663
103212,199926,221819,5.443671415,7.6977103042,-3.1549365981,664
102978,199907,221766,5.6482577473,7.7072815945999995,-3.2542387359999996,665
102888,199830,221784,5.5238309721,7.6462646183,-3.1920253483999996,666
102705,199819,221806,5.653043392499999,7.6019974002,-3.2506495021,667
102489,199857,221739,5.5214381495,7.6761749007999995,-3.2171499857,668
102305,199843,221764,5.3371908093,7.763512925700001,-3.1680971224,669
102128,199829,221751,5.426921656799999,7.6019974002,-3.2673992603000004,670
102074,199857,221731,5.5680981902,7.785048329099999,-3.2709884942,671
102075,199837,221718,5.3276195189,7.5792655855,-3.2111679291999997,672
102093,199793,221730,5.4699924636,7.7276205867,-3.2638100264,673
102147,199844,221746,5.5920264161999995,7.6761749007999995,-3.1800612354,674
102193,199859,221757,5.5010991574000005,7.6821569573,-3.2769705507,675
102252,199839,221732,5.5501520207,7.7515488127,-3.2027930501,676
102323,199721,221714,5.395814963,7.695317481599999,-3.2039894614,677
102392,199797,221766,5.525027383399999,7.485945504099999,-3.1968109935999998,678
102483,199902,221747,5.5178489156,7.7240313528,-3.2817561959000003,679
102593,199888,221782,5.5166525043000005,7.6522466748,-3.2470602682000003,680
102693,199935,221742,5.467599641,7.654639497399999,-3.3236305914,681
102765,199898,221791,5.426921656799999,7.721638530200001,-3.1932217597,682
102853,199902,221763,5.4257252455,7.721638530200001,-3.11066938,683
102854,199907,221763,5.459224761900001,7.6701928443,-3.158525832,684
102983,199948,221800,5.3288159302,7.7587272805,-3.2434710343,685
102935,199897,221800,5.4628139958,7.624729214899999,-3.1334011947,686
102827,199911,221787,5.6303115778,7.6426753844,-3.23031051,687
102673,199859,221757,5.5609197224,7.606783045399999,-3.2135607518000002,688
102508,199853,221764,5.635097223,7.7252277641000004,-3.2650064377,689
102322,199822,221751,5.5860443597,7.654639497399999,-3.206382284,690
102139,199803,221762,5.5788658919,7.6175507471,-3.1549365981,691
102019,199804,221749,5.4951171009,7.6761749007999995,-3.2949167202,692
101941,199707,221694,5.5334022625,7.7001031268,-3.2733813167999997,693
101918,199791,221746,5.5764730692999995,7.6761749007999995,-3.2027930501,694
101962,199825,221756,5.5597233111,7.5924261098,-3.1836504693,695
101953,199808,221709,5.443671415,7.6642107878,-3.1525437755,696
102059,199731,221704,5.583651537100001,7.749155990099999,-3.170489945,697
102068,199851,221750,5.566901778899999,7.6008009889000006,-3.1597222433,698
102182,199836,221747,5.4089754873,7.606783045399999,-3.2135607518000002,699
102255,199877,221782,5.5274202059999995,7.6845497799,-3.2566315586,700
102349,199855,221757,5.563312545,7.6091758679999995,-3.194418171,701
102409,199869,221760,5.5010991574000005,7.6821569573,-3.3020951879999996,702
102529,199791,221768,5.3934221404,7.5792655855,-3.1872397032,703
102630,199904,221782,5.5369914964,7.5673014725,-3.1561330094,704
102662,199881,221749,5.541777141600001,7.6008009889000006,-3.1872397032,705
102813,199820,221774,5.5848479484,7.6151579245,-3.2386853891,706
102843,199880,221794,5.4604211732,7.6737820782,-3.2757741394,707
102809,199934,221775,5.479563754,7.708478005899999,-3.182454058,708
102737,199858,221765,5.6159546422,7.7060851833,-3.1776684127999997,709
102576,199778,221738,5.4987063348,7.7132636511,-3.2231320422,710
102469,199861,221749,5.455635527999999,7.6905318364,-3.3044880106,711
102312,199811,221713,5.6183474648,7.6522466748,-3.1680971224,712
102143,199709,221752,5.491527867,7.7001031268,-3.2279176874,713
102043,199819,221756,5.3934221404,7.654639497399999,-3.1968109935999998,714
101978,199717,221751,5.538187907699999,7.6737820782,-3.2015966388,715
102020,199815,221726,5.4807601652999995,7.7144600624,-3.2350961552,716
102018,199793,221744,5.4388857698,7.6713892556,-3.2757741394,717
102091,199820,221745,5.525027383399999,7.7443703449,-3.2925238975999997,718
102121,199806,221754,5.5609197224,7.6725856669,-3.1393832512,719
102172,199812,221740,5.5010991574000005,7.6187471584,-3.266202849,720
102288,199840,221740,5.4508498828,7.667800021700001,-3.1836504693,721
102283,199841,221763,5.5082776252,7.6893354250999995,-3.2327033326,722
102425,199830,221744,5.4975099235,7.7551380466,-3.2542387359999996,723
102518,199871,221754,5.605186940499999,7.6749784895,-3.1621150658999997,724
102646,199904,221747,5.5010991574000005,7.7682985709,-3.2494530908,725
102689,199872,221748,5.4484570602,7.668996433,-3.1022945009000003,726
102742,199881,221797,5.4783673427,7.6091758679999995,-3.1956145822999997,727
102917,199937,221748,5.5345986738,7.597211754999999,-3.1788648241,728
102856,199911,221763,5.4963135121999995,7.791030385599999,-3.2733813167999997,729
102934,199868,221788,5.472385286200001,7.6498538522,-3.2757741394,730
102839,199918,221763,5.6482577473,7.654639497399999,-3.2039894614,731
102736,199858,221758,5.426921656799999,7.6199435697,-3.1393832512,732
102606,199837,221756,5.5621161337,7.7455667562,-3.2255248647999997,733
102459,199809,221740,5.4388857698,7.5361947787,-3.2004002275,734
102375,199827,221755,5.4652068183999996,7.5960153436999995,-3.206382284,735
102262,199821,221734,5.4544391167,7.6821569573,-3.1573294206999996,736
102219,199769,221710,5.5238309721,7.5948189324,-3.1669007111,737
102224,199837,221749,5.5848479484,7.6869426025,-3.1776684127999997,738
102265,199828,221729,5.4221360116,7.752745224,-3.2111679291999997,739
102301,199846,221742,5.4640104071,7.7826555065,-3.2398818003999996,740
102362,199859,221717,5.5369914964,7.7826555065,-3.1645078885,741
102451,199859,221755,5.4113683099,7.692924659,-3.1956145822999997,742
102505,199848,221775,5.5322058512000005,7.6187471584,-3.2829526072,743
102522,199861,221750,5.6027941179,7.6893354250999995,-3.3044880106,744
102660,199811,221767,5.4376893585,7.7862447404,-3.3032915993,745
102748,199913,221773,5.4783673427,7.7395846997,-3.1908289370999996,746
102835,199881,221784,5.4508498828,7.7946196195,-3.2470602682000003,747
102973,199908,221779,5.4400821811,7.7826555065,-3.0951160330999996,748
102991,199886,221778,5.5226345608,7.728816998,-3.2709884942,749
103071,199897,221763,5.5980084727,7.6187471584,-3.2709884942,750
103196,199939,221761,5.4640104071,7.8436724828,-3.1477581302999997,751
103204,199885,221796,5.6554362151,7.9011002251999995,-3.2255248647999997,752
103159,199884,221777,5.5525448433,7.65703232,-3.2446674455999998,753
103085,199868,221753,5.458028350599999,7.733602643199999,-3.2135607518000002,754
103006,199860,221795,5.513063270399999,7.654639497399999,-3.1776684127999997,755
102918,199802,221791,5.4759745201,7.6498538522,-3.2757741394,756
102820,199766,221787,5.5621161337,7.7324062319,-3.1549365981,757
102723,199849,221754,5.4652068183999996,7.6642107878,-3.2219356309,758
102676,199823,221754,5.525027383399999,7.6115686905999995,-3.1872397032,759
102655,199819,221790,5.5465627868,7.8257263133,-3.1980074049,760
102718,199881,221780,5.553741254599999,7.6941210703,-3.2614172038,761
102751,199833,221756,5.3706903257,7.6163543358,-3.2494530908,762
102783,199868,221769,5.540580730299999,7.7192457076,-3.2398818003999996,763
102842,199828,221801,5.4628139958,7.6905318364,-3.1896325258,764
102913,199870,221803,5.5298130286000005,7.7324062319,-3.23031051,765
102990,199861,221799,5.5597233111,7.6809605460000006,-3.2745777280999997,766
103073,199886,221781,5.4221360116,7.561319416,-3.2590243811999997,767
103116,199850,221787,5.5214381495,7.7192457076,-3.1968109935999998,768
103200,199904,221803,5.4819565766,7.791030385599999,-3.3272198253,769
103271,199942,221785,5.5561340772,7.8687971201,-3.2135607518000002,770
103369,199798,221814,5.551348432,7.597211754999999,-3.2614172038,771
103438,199817,221807,5.5178489156,7.7072815945999995,-3.1992038162000003,772
103519,199904,221850,5.5010991574000005,7.6486574409,-3.2015966388,773
103594,199850,221840,5.3730831483,7.6163543358,-3.2949167202,774
103588,199952,221841,5.50349198,7.7312098206,-3.2327033326,775
103539,199937,221851,5.389832906500001,7.7144600624,-3.278166962,776
103481,199810,221837,5.459224761900001,7.6582287313,-3.1286155494999996,777
103426,199896,221774,5.5274202059999995,7.6019974002,-3.1405796625,778
103352,199895,221800,5.4101718986,7.6091758679999995,-3.2961131315000003,779
103291,199896,221776,5.6087761744,7.7108708285,-3.2638100264,780
103235,199930,221796,5.472385286200001,7.7096744172000005,-3.194418171,781
103211,199886,221820,5.569294601499999,7.763512925700001,-3.158525832,782
103230,199891,221810,5.6195438761,7.695317481599999,-3.23031051,783
103263,199894,221818,5.4329037133,7.6019974002,-3.1525437755,784
103231,199880,221793,5.426921656799999,7.749155990099999,-3.2015966388,785
103266,199882,221822,5.5728838354,7.7228349415,-3.1752755902,786
103400,199858,221832,5.6841500863,7.791030385599999,-3.182454058,787
103468,199907,221813,5.3324051641,7.6414789731,-3.2769705507,788
103547,199932,221803,5.4975099235,7.7024959494,-3.1896325258,789
103545,199949,221821,5.472385286200001,7.7240313528,-3.2267212761,790
103716,199964,221830,5.6039905292,7.6845497799,-3.1573294206999996,791
103737,199897,221822,5.513063270399999,7.6713892556,-3.2338997439000003,792
103807,199912,221817,5.5477591981,7.6893354250999995,-3.2709884942,793
103942,200016,221856,5.554937665900001,7.6881390138,-3.1980074049,794
103968,199863,221849,5.471188874899999,7.8065837325,-3.2111679291999997,795
104027,199960,221891,5.4927242783,7.5314091335,-3.2566315586,796
104094,199979,221863,5.4149575438,7.7120672398000005,-3.3906296242,797
104126,199979,221863,5.3419764545,7.5625158273,-3.1980074049,798
104033,199944,221843,5.605186940499999,7.653443086099999,-3.242274623,799
104043,199956,221844,5.4185467777000005,7.7252277641000004,-3.1334011947,800
103969,199935,221870,5.4388857698,7.6905318364,-3.2997023654,801
103909,199895,221856,5.4293144793999994,7.6917282476999995,-3.23031051,802
103868,199914,221880,5.5573304885,7.6498538522,-3.3044880106,803
103831,199930,221830,5.5884371823,7.65703232,-3.2123643404999997,804
103813,199896,221842,5.551348432,7.633104094,-3.1190442591,805
103816,199896,221866,5.4747781088,7.7706913935,-3.2338997439000003,806
103885,199909,221854,5.426921656799999,7.7156564737,-3.266202849,807
103884,199916,221870,5.405386253400001,7.7479595788,-3.2650064377,808
103941,199955,221837,5.4783673427,7.635496916599999,-3.194418171,809
104048,199959,221847,5.6721859733,7.7120672398000005,-3.2542387359999996,810
104038,199930,221848,5.5345986738,7.7001031268,-3.2398818003999996,811
104098,199977,221845,5.5657053676,7.549355303,-3.2554351473,812
104153,199973,221876,5.458028350599999,7.637889739199999,-3.1980074049,813
104201,199978,221842,5.3659046805,7.5876404646,-3.242274623,814
104252,199991,221877,5.5238309721,7.6725856669,-3.1764720014999996,815
104308,199949,221867,5.484349399199999,7.654639497399999,-3.1968109935999998,816
104404,199955,221861,5.6195438761,7.750352401400001,-3.2087751066,817
104452,199986,221930,5.4771709314,7.6713892556,-3.2159535744,818
104485,199977,221866,5.371886737,7.7742806274,-3.4564322457,819
104517,200004,221924,5.5298130286000005,7.5864440533,-3.2207392196,820
104458,199954,221891,5.6195438761,7.775477038699999,-3.2279176874,821
104432,199971,221850,5.6482577473,7.621139981,-3.1513473642000003,822
104355,199967,221844,5.540580730299999,7.6498538522,-3.2135607518000002,823
104355,199967,221873,5.5884371823,7.7539416353,-3.3308090592,824
104306,199979,221860,5.4065826647,7.737191877099999,-3.3116664784,825
104291,199943,221882,5.539384319,7.6761749007999995,-3.242274623,826
104289,199937,221879,5.3515477449,7.606783045399999,-3.2374889778,827
104311,199910,221864,5.4532427054,7.7838519178,-3.2709884942,828
104353,200016,221878,5.4939206895999995,7.6630143765,-3.2614172038,829
104391,199989,221885,5.4520462941,7.6079794567,-3.2470602682000003,830
104414,199981,221845,5.3730831483,7.633104094,-3.2135607518000002,831
104463,200030,221881,5.5202417382,7.7563344578999995,-3.1513473642000003,832
104520,199966,221895,5.4891350444,7.6319076827,-3.2602207924999997,833
104577,199976,221918,5.5728838354,7.5996045776,-3.2458638569,834
104603,200001,221857,5.5573304885,7.568497883799999,-3.2733813167999997,835
104679,199982,221908,5.4628139958,7.6295148601000005,-3.2051858726999995,836
104732,199985,221915,5.5118668590999995,7.542176835199999,-3.2195428083000004,837
104726,200001,221896,5.5022955687,7.7264241754,-3.2255248647999997,838
104836,200033,221938,5.444867826299999,7.6522466748,-3.278166962,839
104879,200008,221889,5.467599641,7.6091758679999995,-3.2147571631,840
104911,199993,221876,5.5920264161999995,7.625925626199999,-3.2829526072,841
104959,200038,221916,5.4628139958,7.5696942951,-3.2590243811999997,842
104884,200034,221902,5.5453663755000004,7.746763167499999,-3.2566315586,843
104831,200029,221862,5.575276658,7.7120672398000005,-3.1776684127999997,844
104793,199979,221914,5.4293144793999994,7.721638530200001,-3.218346397,845
104757,199949,221906,5.538187907699999,7.740781111,-3.3212377687999997,846
104710,199934,221903,5.4101718986,7.6115686905999995,-3.2446674455999998,847
104608,199979,221882,5.4376893585,7.6343005053,-3.2685956716,848
104673,199995,221874,5.4759745201,7.6319076827,-3.1537401868,849
104683,199947,221907,5.6075797630999995,7.6821569573,-3.2338997439000003,850
104701,199852,221867,5.4819565766,7.65703232,-3.1262227269,851
104762,199986,221925,5.6482577473,7.750352401400001,-3.290131075,852
104772,199953,221864,5.5489556094,7.526623488299999,-3.1872397032,853
104803,200038,221913,5.5860443597,7.7120672398000005,-3.1525437755,854
104861,200028,221885,5.5357950851,7.65703232,-3.2195428083000004,855
104916,200032,221904,5.5046883913,7.695317481599999,-3.1214370817,856
104959,199999,221935,5.4484570602,7.6522466748,-3.2446674455999998,857
105012,200024,221901,5.479563754,7.6761749007999995,-3.1908289370999996,858
105041,200024,221939,5.50349198,7.8065837325,-3.2386853891,859
105094,200040,221954,5.4987063348,7.7240313528,-3.1669007111,860
105137,200042,221882,5.569294601499999,7.668996433,-3.2123643404999997,861
105190,200110,221931,5.443671415,7.6630143765,-3.2087751066,862
105231,200049,221907,5.620740287399999,7.763512925700001,-3.3020951879999996,863
105239,199960,221936,5.5489556094,7.5505517143,-3.2626136151000003,864
105145,200030,221908,5.487938633100001,7.6809605460000006,-3.3164521235999995,865
105136,199949,221913,5.5226345608,7.7671021596,-3.2087751066,866
105096,199990,221893,5.446064237599999,7.7144600624,-3.1692935337,867
105049,199991,221879,5.431707302,7.6295148601000005,-3.2350961552,868
104978,200005,221948,5.4137611324999995,7.573283529,-3.242274623,869
104964,199983,221935,5.6123654083000005,7.6426753844,-3.1381868399,870
104943,199997,221910,5.4771709314,7.683353368600001,-3.2087751066,871
104979,200050,221930,5.513063270399999,7.6283184488,-3.278166962,872
104985,200004,221948,5.4891350444,7.6857461912,-3.2829526072,873
104981,200000,221952,5.539384319,7.7120672398000005,-3.1764720014999996,874
105064,200022,221908,5.5058848026,7.5625158273,-3.2350961552,875
105077,200034,221955,5.539384319,7.6905318364,-3.1621150658999997,876
105144,200022,221911,5.6004012953,7.6307112714,-3.2877382523999996,877
105178,200016,221905,5.4341001246000005,7.7826555065,-3.2338997439000003,878
105225,200053,221905,5.570491012800001,7.8400832489,-3.1429724850999996,879
105259,200044,221952,5.5238309721,7.621139981,-3.206382284,880
105291,200046,221914,5.5022955687,7.6881390138,-3.1621150658999997,881
105354,200037,221937,5.525027383399999,7.6498538522,-3.2015966388,882
105392,200063,221919,5.5561340772,7.8113693777,-3.23031051,883
105442,200043,221959,5.5932228275,7.633104094,-3.2219356309,884
105449,200089,221949,5.204389154999999,7.645068207,-3.2219356309,885
105413,200031,221934,5.4771709314,7.704888771999999,-3.2350961552,886
105362,199960,221942,5.5968120614000005,7.7419775223,-3.2111679291999997,887
105321,200057,221935,5.5142596817000005,7.7551380466,-3.2386853891,888
105290,200038,221920,5.6147582309,7.6558359087,-3.1872397032,889
105223,200059,221922,5.4747781088,7.692924659,-3.3248270027,890
105170,200015,221926,5.4963135121999995,7.5948189324,-3.2362925665,891
105136,199969,221943,5.5812587145,7.6594251426,-3.1896325258,892
105122,199887,221924,5.472385286200001,7.6989067155,-3.1034909122000003,893
105156,199977,221911,5.6291151665,7.625925626199999,-3.2015966388,894
105220,200065,221941,5.540580730299999,7.6582287313,-3.2135607518000002,895
105181,200014,221920,5.5489556094,7.6809605460000006,-3.2039894614,896
105219,200037,221925,5.4233324229,7.7970124421,-3.1992038162000003,897
105301,200033,221913,5.6554362151,7.6618179652,-3.2518459134,898
105328,200057,221939,5.5058848026,7.666603610399999,-3.2374889778,899
105331,200023,221941,5.4293144793999994,7.861618652300001,-3.2877382523999996,900
105373,200070,221903,5.5441699642,7.6701928443,-3.1070801461,901
105424,200073,221936,5.539384319,7.6869426025,-3.2171499857,902
105451,200062,221959,5.5226345608,7.763512925700001,-3.2075786953,903
105507,200085,221930,5.551348432,7.6594251426,-3.2590243811999997,904
105528,199957,221937,5.4496534715000005,7.6522466748,-3.3056844219,905
105555,200029,221914,5.5118668590999995,7.7001031268,-3.1956145822999997,906
105620,200037,221977,5.395814963,7.7300134093,-3.1800612354,907
105597,200066,221951,5.430510890700001,7.5792655855,-3.1525437755,908
105541,200050,221944,5.4006006081999995,7.7096744172000005,-3.1238299043,909
105465,200065,221921,5.4963135121999995,7.721638530200001,-3.1513473642000003,910
105500,200078,221933,5.4137611324999995,7.5768727629,-3.3499516399999996,911
105416,200035,221915,5.6327044004,7.65703232,-3.3212377687999997,912
105380,200034,221945,5.426921656799999,7.7264241754,-3.2446674455999998,913
105261,200021,221935,5.4771709314,7.7539416353,-3.266202849,914
105334,199990,221937,5.4819565766,7.5900332872,-3.1657042998000002,915
105331,199989,221924,5.4352965359,7.749155990099999,-3.1525437755,916
105376,200069,221928,5.467599641,7.666603610399999,-3.2255248647999997,917
105380,200003,221965,5.5010991574000005,7.654639497399999,-3.2291140987,918
105395,200032,221956,5.6159546422,7.645068207,-3.1740791789,919
105332,200046,221972,5.484349399199999,7.7970124421,-3.2207392196,920
105475,199958,221948,5.540580730299999,7.7802626839,-3.1836504693,921
105517,200035,221983,5.5357950851,7.6594251426,-3.242274623,922
105561,200051,221940,5.5848479484,7.6163543358,-3.1441688964,923
105597,200038,221949,5.4376893585,7.6115686905999995,-3.218346397,924
105622,200101,221968,5.5609197224,7.8065837325,-3.2518459134,925
105674,200074,221959,5.5142596817000005,7.6713892556,-3.1094729686999996,926
105694,200047,221963,5.5764730692999995,7.6881390138,-3.1920253483999996,927
105737,200064,221982,5.6004012953,7.573283529,-3.2626136151000003,928
105776,200090,221967,5.4807601652999995,7.785048329099999,-3.266202849,929
105750,200119,221984,5.4209396003000005,7.568497883799999,-3.2590243811999997,930
105710,200086,221913,5.6745787959,7.7156564737,-3.1932217597,931
105686,200066,221988,5.551348432,7.6618179652,-3.2506495021,932
105659,200089,221973,5.599204884000001,7.8089765551,-3.3068808331999997,933
105612,200050,221954,5.335994398,7.716852885,-3.2518459134,934
105568,200117,221957,5.446064237599999,7.6809605460000006,-3.2566315586,935
105568,200057,221952,5.4819565766,7.645068207,-3.2135607518000002,936
105484,200004,221959,5.5106704478,7.6893354250999995,-3.2458638569,937
105556,200055,221974,5.4652068183999996,7.9130643382,-3.2207392196,938
105563,200062,221974,5.635097223,7.621139981,-3.1812576466999998,939
105615,199969,221954,5.553741254599999,7.65703232,-3.2350961552,940
105638,200072,221998,5.5657053676,7.692924659,-3.2255248647999997,941
105646,200013,221987,5.50349198,7.625925626199999,-3.1908289370999996,942
105696,200051,221978,5.5082776252,7.6235328036,-3.1884361145,943
105725,200059,221985,5.6147582309,7.721638530200001,-3.2027930501,944
105756,200041,221954,5.443671415,7.633104094,-3.2542387359999996,945
105781,200055,221965,5.3539405675,7.6713892556,-3.2673992603000004,946
105767,200074,221991,5.458028350599999,7.6438717957,-3.1752755902,947
105858,200095,221962,5.431707302,7.6869426025,-3.2027930501,948
105890,200076,221986,5.389832906500001,7.6773713121,-3.2004002275,949
105921,200089,221988,5.5501520207,7.733602643199999,-3.1381868399,950
105947,200031,221984,5.525027383399999,7.7276205867,-3.2171499857,951
105933,200103,221984,5.4759745201,7.5409804239,-3.1549365981,952
105876,200107,221978,5.5920264161999995,7.7036923607,-3.2111679291999997,953
105832,200110,222012,5.5489556094,7.8305119585,-3.1369904286000003,954
105812,200089,221971,5.5477591981,7.7479595788,-3.2961131315000003,955
105762,200060,221937,5.4951171009,7.6881390138,-3.3020951879999996,956
105665,200061,221940,5.3970113743,7.6618179652,-3.2542387359999996,957
105671,200053,221922,5.4771709314,7.735995465799999,-3.2985059541,958
105728,200096,221994,5.458028350599999,7.6594251426,-3.1884361145,959
105726,200057,221999,5.570491012800001,7.6283184488,-3.2410782117,960
105722,200101,221961,5.4891350444,7.6319076827,-3.2829526072,961
105758,200048,221965,5.4963135121999995,7.7958160308,-3.2374889778,962
105671,200089,221964,5.467599641,7.7240313528,-3.1429724850999996,963
105794,200002,221983,5.446064237599999,7.8664042975,-3.1848468806000003,964
105842,200086,221959,5.472385286200001,7.7036923607,-3.1992038162000003,965
105866,200098,221962,5.5980084727,7.6917282476999995,-3.1848468806000003,966
105899,200114,221964,5.426921656799999,7.6749784895,-3.2374889778,967
105908,200070,221970,5.4364929472,7.65703232,-3.2015966388,968
105950,200038,221944,5.4699924636,7.6713892556,-3.2590243811999997,969
105992,200116,221971,5.50349198,7.6307112714,-3.2518459134,970
106033,200139,221954,5.5429735529,7.65703232,-3.1776684127999997,971
106044,200115,221968,5.541777141600001,7.584051230699999,-3.1800612354,972
106081,200112,221976,5.455635527999999,7.728816998,-3.2961131315000003,973
105955,200108,221997,5.5525448433,7.683353368600001,-3.2231320422,974
106015,200078,221933,5.4831529879,7.7706913935,-3.2350961552,975
105919,200120,221956,5.5980084727,7.6965138929000005,-3.2087751066,976
105904,200092,221952,5.417350366399999,7.5996045776,-3.2697920829,977
105879,200096,221964,5.6075797630999995,7.6785677234,-3.3164521235999995,978
105849,200106,221956,5.3874400839,7.6163543358,-3.2398818003999996,979
105807,200101,222021,5.569294601499999,7.7455667562,-3.2015966388,980
105770,200109,221952,5.3850472612999996,7.7395846997,-3.170489945,981
105793,200023,222010,5.553741254599999,7.668996433,-3.2590243811999997,982
105801,200054,221946,5.446064237599999,7.6498538522,-3.2721849055,983
105834,200070,221967,5.5645089563,7.668996433,-3.2207392196,984
105862,200084,221975,5.4699924636,7.791030385599999,-3.158525832,985
105862,200121,222008,5.455635527999999,7.6163543358,-3.2757741394,986
105947,200158,222011,5.50349198,7.728816998,-3.1070801461,987
105927,200105,221974,5.4508498828,7.6319076827,-3.2542387359999996,988
105957,200072,221957,5.4652068183999996,7.6343005053,-3.1334011947,989
105991,200116,221949,5.5345986738,7.6283184488,-3.1525437755,990
106016,200077,222011,5.471188874899999,7.5996045776,-3.2255248647999997,991
106046,200098,222015,5.5800623032,7.6594251426,-3.1860432919,992
106092,200123,221966,5.5465627868,7.584051230699999,-3.1764720014999996,993
106112,200044,221968,5.6123654083000005,7.7862447404,-3.194418171,994
106136,200131,221976,5.6015977066,7.6749784895,-3.1764720014999996,995
106133,200168,222020,5.513063270399999,7.7659057483,-3.2147571631,996
106045,200110,221961,5.5106704478,7.654639497399999,-3.3128628897,997
106012,200112,222004,5.3934221404,7.6809605460000006,-3.2039894614,998
105979,200132,221969,5.491527867,7.7276205867,-3.0939196218,999
105921,200119,221967,5.5525448433,7.6965138929000005,-3.194418171,1000
105857,200050,221985,5.553741254599999,7.606783045399999,-3.2243284535,1001
105783,200103,221937,5.540580730299999,7.7001031268,-3.2255248647999997,1002
105725,200086,221975,5.5226345608,7.7144600624,-3.2039894614,1003
105821,200018,221979,5.633900811699999,7.6905318364,-3.2554351473,1004
105831,200070,221972,5.6578290377,7.6187471584,-3.2673992603000004,1005
105865,199996,221976,5.528616617299999,7.763512925700001,-3.1896325258,1006
105874,200028,221947,5.5657053676,7.7431739336,-3.2530423247,1007
105896,200066,221992,5.479563754,7.7156564737,-3.1441688964,1008
105928,200126,221952,5.4161539550999995,7.716852885,-3.1022945009000003,1009
105937,200143,221943,5.5202417382,7.7431739336,-3.1537401868,1010
105983,200090,221963,5.5022955687,7.7108708285,-3.1669007111,1011
106019,200098,221999,5.5070812139,7.6402825618,-3.2733813167999997,1012
106044,200104,221943,5.371886737,7.6426753844,-3.1657042998000002,1013
106068,200116,221983,5.525027383399999,7.750352401400001,-3.2614172038,1014
106087,200041,221979,5.5477591981,7.728816998,-3.2255248647999997,1015
106136,200122,221976,5.6015977066,7.6785677234,-3.1836504693,1016
106210,200189,221991,5.6315079891,7.585247642000001,-3.2015966388,1017
106180,200146,222024,5.404189842099999,7.804190909899999,-3.2973095428,1018
106112,200116,221974,5.3180482284999995,7.7276205867,-3.1788648241,1019
106097,200051,222002,5.5226345608,7.763512925700001,-3.2733813167999997,1020
105996,200107,221947,5.551348432,7.6809605460000006,-3.1573294206999996,1021
106007,200090,221951,5.5716874241,7.7108708285,-3.2159535744,1022
105955,200041,222008,5.4975099235,7.804190909899999,-3.2291140987,1023
105900,200078,221977,5.624329521299999,7.829315547199999,-3.2350961552,1024
105963,200131,221963,5.633900811699999,7.6965138929000005,-3.2685956716,1025
105902,200109,221972,5.5334022625,7.718049296299999,-3.1046873235,1026
105925,200076,221960,5.4604211732,7.7132636511,-3.2542387359999996,1027
105928,200093,221967,5.442475003699999,7.7599236918,-3.2530423247,1028
105946,200070,221948,5.6267223439,7.6103722793,-3.2087751066,1029
105951,200114,221948,5.539384319,7.668996433,-3.23031051,1030
105995,200135,221956,5.3814580274,7.6115686905999995,-3.2518459134,1031
106008,200098,221993,5.5657053676,7.728816998,-3.218346397,1032
106054,200105,221977,5.554937665900001,7.6737820782,-3.2590243811999997,1033
106089,200171,221992,5.5118668590999995,7.7479595788,-3.2398818003999996,1034
106092,200100,221993,5.4508498828,7.635496916599999,-3.2243284535,1035
106126,200119,222006,5.5334022625,7.651050263499999,-3.2135607518000002,1036
106156,200123,221923,5.563312545,7.7276205867,-3.1968109935999998,1037
106197,200181,221977,5.5178489156,7.6785677234,-3.2159535744,1038
106220,200146,221986,5.5262237947,7.6917282476999995,-3.2039894614,1039
106221,200073,221991,5.459224761900001,7.5864440533,-3.2027930501,1040
106204,200120,221982,5.6004012953,7.597211754999999,-3.2159535744,1041
106139,200157,222005,5.467599641,7.804190909899999,-3.2279176874,1042
106103,200110,221956,5.4747781088,7.740781111,-3.2518459134,1043
105990,200118,221997,5.3934221404,7.728816998,-3.2159535744,1044
106045,200091,221999,5.4568319393,7.5206414318,-3.2446674455999998,1045
105994,200103,221989,5.4963135121999995,7.6522466748,-3.1680971224,1046
106022,200125,221964,5.4029934308,7.7682985709,-3.1920253483999996,1047
106007,200104,221955,5.5106704478,7.7395846997,-3.3224341800999997,1048
106013,200099,221959,5.4520462941,7.7024959494,-3.2590243811999997,1049
106047,200148,221987,5.458028350599999,7.584051230699999,-3.1836504693,1050
106035,200106,221966,5.5310094399,7.635496916599999,-3.2350961552,1051
106088,200119,221963,5.4771709314,7.6235328036,-3.1812576466999998,1052
106108,200168,221981,5.5441699642,7.6474610296,-3.218346397,1053
106069,200130,221949,5.5238309721,7.8341011924,-3.2398818003999996,1054
106167,200073,221972,5.5621161337,7.8975109913,-3.146561719,1055
106190,200167,221975,5.595615650099999,7.7718878047999995,-3.1274191382,1056
106201,200125,222002,5.4484570602,7.785048329099999,-3.1860432919,1057
106253,200171,222001,5.4089754873,7.6594251426,-3.2494530908,1058
106278,200102,222021,5.5597233111,7.7120672398000005,-3.2279176874,1059
106315,200122,221990,5.4484570602,7.6402825618,-3.1429724850999996,1060
106349,200153,222000,5.6889357315,7.6486574409,-3.1728827676,1061
106331,200164,221989,5.4771709314,7.7419775223,-3.1537401868,1062
106289,200121,221973,5.6183474648,7.737191877099999,-3.1980074049,1063
106237,200075,221987,5.5716874241,7.651050263499999,-3.1669007111,1064
106192,200110,221970,5.4664032297,7.7312098206,-3.1310083721,1065
106141,200059,221980,5.5453663755000004,7.764709337,-3.0735806297,1066
106081,200098,221948,5.5525448433,7.585247642000001,-3.3248270027,1067
106047,200152,221976,5.4257252455,7.6713892556,-3.206382284,1068
105985,200104,221948,5.5202417382,7.6713892556,-3.2135607518000002,1069
106028,200133,221977,5.4807601652999995,7.764709337,-3.1633114771999997,1070
106056,200123,221958,5.4376893585,7.7539416353,-3.3403803495999997,1071
106064,200121,221962,5.4484570602,7.653443086099999,-3.2973095428,1072
106093,200128,221935,5.5968120614000005,7.735995465799999,-3.194418171,1073
106103,200139,221978,5.5621161337,7.7383882884,-3.2004002275,1074
106127,200127,221966,5.458028350599999,7.668996433,-3.2925238975999997,1075
106164,200070,222018,5.541777141600001,7.7156564737,-3.2195428083000004,1076
106175,200143,221943,5.5010991574000005,7.740781111,-3.2829526072,1077
106208,200158,221990,5.636293634299999,7.7192457076,-3.2410782117,1078
106233,200115,221961,5.4927242783,7.6474610296,-3.1932217597,1079
106268,200177,221990,5.4628139958,7.6905318364,-3.3092736558,1080
106302,200155,221984,5.4233324229,7.6989067155,-3.2566315586,1081
106341,200123,221981,5.4329037133,7.750352401400001,-3.2350961552,1082
106334,200089,221982,5.5561340772,7.6893354250999995,-3.2039894614,1083
106343,200166,221994,5.3694939144,7.7192457076,-3.2769705507,1084
106280,200149,221992,5.5621161337,7.7001031268,-3.2231320422,1085
106175,200141,221970,5.3994041969,7.6498538522,-3.2446674455999998,1086
106208,200101,221915,5.539384319,7.7072815945999995,-3.11066938,1087
106168,200093,222005,5.499902746099999,7.6917282476999995,-3.2530423247,1088
106056,200130,221972,5.5262237947,7.7240313528,-3.2027930501,1089
106033,200137,221974,5.484349399199999,7.514659375300001,-3.1884361145,1090
106023,200119,221944,5.472385286200001,7.763512925700001,-3.1776684127999997,1091
106002,200076,221940,5.4771709314,7.8831540556999995,-3.2075786953,1092
105990,200114,221955,5.6602218603,7.683353368600001,-3.2039894614,1093
106033,200111,221976,5.4951171009,7.7455667562,-3.1908289370999996,1094
106034,200116,221971,5.539384319,7.7156564737,-3.1728827676,1095
106053,200118,221947,5.5226345608,7.7120672398000005,-3.242274623,1096
106088,199989,221973,5.515456093,7.666603610399999,-3.1633114771999997,1097
106119,200065,221971,5.5501520207,7.7300134093,-3.2291140987,1098
106110,200080,221981,5.5860443597,7.6917282476999995,-3.2159535744,1099
106162,200128,221932,5.5920264161999995,7.6965138929000005,-3.1968109935999998,1100
106196,200145,222000,5.491527867,7.7096744172000005,-3.206382284,1101
106218,200134,221988,5.5645089563,7.625925626199999,-3.2805597846,1102
106260,200128,221926,5.486742221799999,7.5924261098,-3.2733813167999997,1103
106289,200198,221980,5.417350366399999,7.7994052647,-3.1633114771999997,1104
106308,200167,222017,5.515456093,7.6594251426,-3.1226334930000004,1105
106332,200157,221974,5.4939206895999995,7.6905318364,-3.2733813167999997,1106
106292,200156,221989,5.5022955687,7.5637122386,-3.2482566795000003,1107
106233,200053,221981,5.5621161337,7.7682985709,-3.2219356309,1108
106175,200139,221952,5.5680981902,7.6857461912,-3.1908289370999996,1109
106127,200108,221960,5.551348432,7.7060851833,-3.2805597846,1110
106046,200091,221943,5.4819565766,7.5948189324,-3.1357940173,1111
105984,200126,221949,5.479563754,7.695317481599999,-3.1908289370999996,1112
105965,200108,221963,5.539384319,7.5888368759,-3.361915753,1113
105940,200088,221981,5.5800623032,7.6773713121,-3.2805597846,1114
105942,200092,221923,5.486742221799999,7.6761749007999995,-3.2111679291999997,1115
105966,200069,221940,5.363511857900001,7.7706913935,-3.2015966388,1116
105972,200091,221963,5.4687960523,7.7312098206,-3.2027930501,1117
106017,200113,221968,5.551348432,7.6725856669,-3.1680971224,1118
106002,200109,221951,5.4257252455,7.7252277641000004,-3.2075786953,1119
106046,200072,221956,5.5968120614000005,7.6642107878,-3.2673992603000004,1120
106058,200138,221971,5.5740802467,7.7730842161,-3.2470602682000003,1121
106102,200136,221921,5.3036912929,7.6091758679999995,-3.1812576466999998,1122
106129,200143,221983,5.3982077855999995,7.7036923607,-3.2470602682000003,1123
106142,200100,221971,5.4484570602,7.7312098206,-3.2004002275,1124
106171,200094,221989,5.5106704478,7.7024959494,-3.2829526072,1125
106150,200125,221964,5.515456093,7.716852885,-3.2207392196,1126
106252,200086,221979,5.5597233111,7.7730842161,-3.3116664784,1127
106246,200187,222024,5.3706903257,7.7671021596,-3.2267212761,1128
106185,200143,221957,5.5345986738,7.6163543358,-3.2913274863,1129
106138,200131,221961,5.5429735529,7.7120672398000005,-3.194418171,1130
106131,200145,222012,5.5022955687,7.637889739199999,-3.2518459134,1131
106052,200106,221975,5.3778687935,7.7108708285,-3.1250263156,1132
105976,200123,221943,5.4532427054,7.6905318364,-3.1501509529,1133
105917,200097,221925,5.6410792795,7.6785677234,-3.218346397,1134
105878,200147,221942,5.4412785924,7.5158557866,-3.2757741394,1135
105892,200108,221954,5.4891350444,7.7706913935,-3.2231320422,1136
105894,200079,221969,5.5357950851,7.5948189324,-3.1645078885,1137
105900,200065,221924,5.4927242783,7.5924261098,-3.2350961552,1138
105900,200098,221946,5.525027383399999,7.764709337,-3.1956145822999997,1139
105944,200104,221973,5.4819565766,7.683353368600001,-3.1166514365,1140
105965,200030,221984,5.4819565766,7.5589265934,-3.2398818003999996,1141
106000,200087,221966,5.540580730299999,7.7300134093,-3.266202849,1142
106040,200108,221967,5.4951171009,7.8233334907000005,-3.2542387359999996,1143
106049,200026,221949,5.682953675,7.7431739336,-3.1453653077,1144
106077,200087,221954,5.4699924636,7.775477038699999,-3.2386853891,1145
106135,200168,221940,5.491527867,7.7276205867,-3.2135607518000002,1146
106191,200155,221990,5.4017970195,7.5828548194,-3.1932217597,1147
106173,200133,221982,5.4939206895999995,7.6761749007999995,-3.1740791789,1148
106241,200185,221976,5.3850472612999996,7.7108708285,-3.2434710343,1149
106205,200131,221973,5.5453663755000004,7.7539416353,-3.194418171,1150
106113,200139,221979,5.4137611324999995,7.6426753844,-3.1657042998000002,1151
106070,200137,221980,5.6075797630999995,7.6881390138,-3.1046873235,1152
105927,200103,221963,5.553741254599999,7.651050263499999,-3.2638100264,1153
105927,200072,221939,5.5657053676,7.7443703449,-3.1501509529,1154
105884,200079,221945,5.4364929472,7.762316514399999,-3.1896325258,1155
105802,200066,221975,5.3862436726,7.7228349415,-3.2279176874,1156
105757,200090,221935,5.4616175845,7.6283184488,-3.0831519201,1157
105760,200093,221945,5.5142596817000005,7.7395846997,-3.2004002275,1158
105784,200080,221947,5.50349198,7.7539416353,-3.2004002275,1159
105795,200111,221943,5.5501520207,7.5637122386,-3.2853454298,1160
105788,200073,221976,5.6434721021,7.654639497399999,-3.2207392196,1161
105838,200044,221966,5.5740802467,7.6977103042,-3.242274623,1162
105863,200154,221989,5.4245288342,7.7419775223,-3.3152557123,1163
105889,200125,221935,5.455635527999999,7.654639497399999,-3.2482566795000003,1164
105931,200116,221955,5.5453663755000004,7.7144600624,-3.2279176874,1165
105970,200118,221965,5.4747781088,7.735995465799999,-3.2255248647999997,1166
106007,200097,221982,5.3994041969,7.7276205867,-3.3116664784,1167
106050,200110,221982,5.4903314557,7.6977103042,-3.3188449462,1168
106070,200108,222007,5.5932228275,7.7060851833,-3.1680971224,1169
106130,200161,221996,5.3850472612999996,7.6642107878,-3.2135607518000002,1170
106161,200135,221998,5.5812587145,7.6881390138,-3.3236305914,1171
106131,200132,221977,5.5645089563,7.6283184488,-3.2195428083000004,1172
106051,200142,221947,5.6757752072,7.6474610296,-3.3068808331999997,1173
105989,200109,222011,5.6004012953,7.8149586116,-3.1728827676,1174
105917,200138,221992,5.5477591981,7.7730842161,-3.2769705507,1175
105827,200094,221972,5.5226345608,7.6965138929000005,-3.1322047834,1176
105717,200023,221956,5.4987063348,7.6271220375,-3.3104700671000002,1177
105631,200065,221946,5.4412785924,7.695317481599999,-3.1884361145,1178
105582,200113,221943,5.486742221799999,7.6977103042,-3.170489945,1179
105565,200056,221933,5.5621161337,7.633104094,-3.2566315586,1180
105568,200107,221930,5.5357950851,7.653443086099999,-3.2135607518000002,1181
105559,200088,221951,5.491527867,7.718049296299999,-3.1238299043,1182
105613,199997,221991,5.5908300049,7.5326055448,-3.23031051,1183
105641,200077,221938,5.455635527999999,7.6043902228,-3.2147571631,1184
105663,200075,221943,5.4293144793999994,7.7324062319,-3.2350961552,1185
105685,200078,221923,5.3324051641,7.683353368600001,-3.2542387359999996,1186
105720,200136,221995,5.6159546422,7.6941210703,-3.2494530908,1187
105768,200120,221963,5.5645089563,7.549355303,-3.2099715178999997,1188
105794,200110,221965,5.3742795596,7.7718878047999995,-3.2434710343,1189
105835,200066,221976,5.3850472612999996,7.6869426025,-3.2099715178999997,1190
105887,200023,221984,5.4652068183999996,7.8089765551,-3.2638100264,1191
105931,200116,222003,5.525027383399999,7.718049296299999,-3.1657042998000002,1192
105999,200157,221985,5.4532427054,7.65703232,-3.3056844219,1193
105926,200115,221993,5.3730831483,7.737191877099999,-3.1477581302999997,1194
105875,200113,221991,5.4759745201,7.654639497399999,-3.2985059541,1195
105790,200107,221997,5.5369914964,7.6977103042,-3.1322047834,1196
105658,200110,222002,5.5896335936,7.7395846997,-3.2291140987,1197
105570,200107,221937,5.371886737,7.6474610296,-3.1381868399,1198
105463,200065,221969,5.419743189,7.6989067155,-3.2111679291999997,1199
105371,200089,221954,5.491527867,7.704888771999999,-3.1956145822999997,1200
105282,200065,221963,5.6279187552000005,7.7970124421,-3.2279176874,1201
105265,200082,221914,5.570491012800001,7.7072815945999995,-3.2231320422,1202
105286,200091,221934,5.3910293178,7.8089765551,-3.2446674455999998,1203
105266,200088,221945,5.5908300049,7.6319076827,-3.218346397,1204
105178,200087,221922,5.4963135121999995,7.7276205867,-3.170489945,1205
105293,200046,221943,5.5010991574000005,7.6654071991,-3.3068808331999997,1206
105314,200041,221950,5.486742221799999,7.6163543358,-3.3116664784,1207
105343,199977,221988,5.3659046805,7.65703232,-3.3020951879999996,1208
105396,200146,221954,5.4975099235,7.704888771999999,-3.1525437755,1209
105436,200147,221982,5.4855458105,7.6713892556,-3.1561330094,1210
105504,200081,222000,5.5645089563,7.65703232,-3.2709884942,1211
105504,200121,221970,5.5322058512000005,7.570890706399999,-3.2015966388,1212
105550,200096,221992,5.5226345608,7.635496916599999,-3.1728827676,1213
105606,200102,221971,5.479563754,7.6582287313,-3.2027930501,1214
105638,200141,222006,5.442475003699999,7.6965138929000005,-3.146561719,1215
105615,200073,222024,5.3682975031,7.716852885,-3.2853454298,1216
105549,200089,221969,5.4532427054,7.8400832489,-3.2374889778,1217
105449,200082,221967,5.5932228275,7.637889739199999,-3.1968109935999998,1218
105344,200056,221951,5.515456093,7.6498538522,-3.2327033326,1219
105203,200087,221956,5.4891350444,7.633104094,-3.3355947043999996,1220
105068,200078,221939,5.5812587145,7.740781111,-3.1477581302999997,1221
104957,200048,221927,5.5226345608,7.8017980873,-3.1381868399,1222
104849,200009,221959,5.5764730692999995,7.6761749007999995,-3.1429724850999996,1223
104739,200042,221938,5.4233324229,7.7072815945999995,-3.0855447427,1224
104840,200046,221909,5.4604211732,7.695317481599999,-3.2470602682000003,1225
104799,200058,221943,5.405386253400001,7.695317481599999,-3.2434710343,1226
104816,200033,221897,5.4604211732,7.7240313528,-3.1669007111,1227
104820,200044,221946,5.5238309721,7.6283184488,-3.194418171,1228
104802,200053,221944,5.5238309721,7.6283184488,-3.194418171,1229
104897,200054,221949,5.5238309721,7.6283184488,-3.194418171,1230
104934,200012,221970,5.5238309721,7.6283184488,-3.194418171,1231
104970,200100,221938,5.5238309721,7.6283184488,-3.194418171,1232
105025,200068,221934,5.5238309721,7.6283184488,-3.194418171,1233
105072,200065,221961,5.5238309721,7.6283184488,-3.194418171,1234
105069,200066,221974,5.5238309721,7.6283184488,-3.194418171,1235
105159,200082,221945,5.446064237599999,7.6594251426,-3.2446674455999998,1236
105221,200104,221925,5.5812587145,7.7419775223,-3.2949167202,1237
105244,200083,221948,5.486742221799999,7.7814590952,-3.2973095428,1238
105178,200054,221972,5.443671415,7.7383882884,-3.2027930501,1239
105061,200037,221945,5.6614182716,7.7001031268,-3.2111679291999997,1240
104954,200043,221945,5.4352965359,7.8017980873,-3.1752755902,1241
104843,200043,221937,5.499902746099999,7.716852885,-3.2889346637,1242
104701,200014,221956,5.5980084727,7.7898339743,-3.1501509529,1243
104575,200052,221917,5.5202417382,7.6905318364,-3.2446674455999998,1244
104454,199996,221955,5.541777141600001,7.6905318364,-3.2207392196,1245
104404,200019,221926,5.5345986738,7.65703232,-3.1848468806000003,1246
104407,199995,221909,5.479563754,7.720442118899999,-3.218346397,1247
104357,200022,221922,5.3611190353,7.728816998,-3.2566315586,1248
104423,200058,221912,5.4735816975,7.645068207,-3.2027930501,1249
104445,200044,221941,5.5525448433,7.6917282476999995,-3.2949167202,1250
104472,200064,221934,5.484349399199999,7.777869861299999,-3.2410782117,1251
104504,200050,221937,5.4101718986,7.6319076827,-3.3332018818,1252
104571,200096,221924,5.5214381495,7.5349983674,-3.1956145822999997,1253
104618,200033,221922,5.5178489156,7.7060851833,-3.2757741394,1254
104657,200014,221929,5.484349399199999,7.6977103042,-3.2542387359999996,1255
104693,200067,221918,5.4891350444,7.7395846997,-3.2518459134,1256
104702,200052,221952,5.426921656799999,7.7898339743,-3.2877382523999996,1257
104828,200102,221945,5.3934221404,7.6486574409,-3.1980074049,1258
104857,199991,221959,5.5238309721,7.65703232,-3.2350961552,1259
104890,200062,221954,5.5106704478,7.8352976037,-3.3044880106,1260
104817,200034,221968,5.5489556094,7.6845497799,-3.2638100264,1261
104761,199942,221960,5.5848479484,7.6713892556,-3.1692935337,1262
104663,200028,221947,5.4687960523,7.8544401845,-3.3320054705,1263
104537,200043,221938,5.4484570602,7.6773713121,-3.2530423247,1264
104415,200030,221908,5.371886737,7.6498538522,-3.2709884942,1265
104172,200008,221897,5.4951171009,7.5900332872,-3.2099715178999997,1266
104200,200045,221925,5.3706903257,7.6941210703,-3.1992038162000003,1267
104153,200021,221941,5.4783673427,7.5876404646,-3.1190442591,1268
104112,199993,221923,5.446064237599999,7.6618179652,-3.2099715178999997,1269
104161,200020,221944,5.3934221404,7.6713892556,-3.1968109935999998,1270
104191,200016,221901,5.4927242783,7.6857461912,-3.23031051,1271
104234,200033,221930,5.4125647212,7.7252277641000004,-3.1669007111,1272
104179,200046,221915,5.4975099235,7.621139981,-3.3248270027,1273
104284,199982,221903,5.479563754,7.6989067155,-3.2697920829,1274
104344,200097,221931,5.6315079891,7.6522466748,-3.2123643404999997,1275
104391,200052,221949,5.4544391167,7.718049296299999,-3.2733813167999997,1276
104427,200003,221944,5.6410792795,7.7706913935,-3.1788648241,1277
104494,200092,221909,5.6087761744,7.7312098206,-3.2350961552,1278
104549,200068,221947,5.4855458105,7.5792655855,-3.2590243811999997,1279
104580,200092,221932,5.6004012953,7.8053873212000005,-3.1764720014999996,1280
104569,200115,221929,5.5322058512000005,7.7479595788,-3.0831519201,1281
104654,200113,221923,5.431707302,7.8281191359,-3.2937203089,1282
104451,200113,221926,5.5310094399,7.6031938115,-3.2315069213,1283
104470,200052,221951,5.431707302,7.6941210703,-3.290131075,1284
104306,200023,221905,5.6279187552000005,7.5625158273,-3.2231320422,1285
104211,200030,221904,5.4376893585,7.836494015,-3.1716863562999995,1286
104056,200051,221944,5.5645089563,7.7599236918,-3.2590243811999997,1287
103936,200012,221880,5.5728838354,7.7144600624,-3.2027930501,1288
103847,199968,221853,5.5920264161999995,7.7096744172000005,-3.2518459134,1289
103797,200013,221878,5.5010991574000005,7.6474610296,-3.2542387359999996,1290
103738,200019,221929,5.4819565766,7.718049296299999,-3.1908289370999996,1291
103810,200023,221876,5.4149575438,7.625925626199999,-3.2159535744,1292
103821,199986,221913,5.4293144793999994,7.6594251426,-3.2159535744,1293
103851,200048,221920,5.3982077855999995,7.7946196195,-3.1920253483999996,1294
103827,199994,221878,5.6327044004,7.6462646183,-3.1633114771999997,1295
103943,200065,221926,5.4520462941,7.6498538522,-3.1680971224,1296
103993,200050,221892,5.5453663755000004,7.6881390138,-3.2685956716,1297
104016,200011,221920,5.4532427054,7.6402825618,-3.0879375653000003,1298
104111,200037,221926,5.3934221404,7.6845497799,-3.2362925665,1299
104127,200018,221891,5.431707302,7.7539416353,-3.206382284,1300
104216,200052,221931,5.455635527999999,7.6175507471,-3.218346397,1301
104271,200040,221922,5.479563754,7.728816998,-3.218346397,1302
104336,200062,221917,5.538187907699999,7.721638530200001,-3.206382284,1303
104345,200078,221897,5.4939206895999995,7.8305119585,-3.2207392196,1304
104312,200051,221940,5.6291151665,7.651050263499999,-3.2374889778,1305
104231,199986,221934,5.5202417382,7.7563344578999995,-3.2949167202,1306
104108,200038,221898,5.6195438761,7.762316514399999,-3.2362925665,1307
103984,200035,221892,5.5082776252,7.8544401845,-3.3212377687999997,1308
103836,200056,221893,5.3300123415,7.7132636511,-3.1381868399,1309
103714,199955,221914,5.5800623032,7.6402825618,-3.134597606,1310
103576,199982,221909,5.491527867,7.654639497399999,-3.1968109935999998,1311
103445,199991,221891,5.472385286200001,7.746763167499999,-3.2159535744,1312
103518,200018,221884,5.5812587145,7.572087117700001,-3.2709884942,1313
103509,199997,221891,5.444867826299999,7.7395846997,-3.2099715178999997,1314
103540,200002,221869,5.595615650099999,7.7312098206,-3.2087751066,1315
103504,199990,221871,5.5010991574000005,7.728816998,-3.2159535744,1316
103594,199997,221873,5.6099725857,7.7001031268,-3.2470602682000003,1317
103645,200028,221909,5.553741254599999,7.6701928443,-3.2805597846,1318
103718,199996,221887,5.486742221799999,7.6187471584,-3.2338997439000003,1319
103771,199987,221893,5.479563754,7.819744256799999,-3.1812576466999998,1320
103834,200048,221889,5.5621161337,7.708478005899999,-3.2446674455999998,1321
103873,200031,221893,5.4532427054,7.8376904263,-3.2973095428,1322
103930,200044,221911,5.6733823846,7.6151579245,-3.2338997439000003,1323
103977,200065,221913,5.5477591981,7.6283184488,-3.1764720014999996,1324
103951,200030,221884,5.6027941179,7.6115686905999995,-3.0951160330999996,1325
103902,200011,221907,5.4616175845,7.6869426025,-3.2410782117,1326
103837,200038,221886,5.5357950851,7.5457660691,-3.314059301,1327
103825,200024,221886,5.525027383399999,7.7575308692,-3.2829526072,1328
103807,200047,221927,5.472385286200001,7.752745224,-3.2123643404999997,1329
103790,200031,221866,5.5764730692999995,7.7264241754,-3.2015966388,1330
103872,200055,221877,5.491527867,7.6522466748,-3.1968109935999998,1331
103909,200040,221909,5.5716874241,7.6881390138,-3.218346397,1332
103926,200046,221902,5.5920264161999995,7.6498538522,-3.0759734523,1333
103970,200026,221897,5.6039905292,7.683353368600001,-3.2051858726999995,1334
104030,200051,221906,5.50349198,7.6869426025,-3.2207392196,1335
104065,200039,221889,5.431707302,7.7347990545,-3.1968109935999998,1336
104154,200065,221905,5.5238309721,7.8376904263,-3.1728827676,1337
104189,200070,221888,5.6386864569,7.8077801438000005,-3.1728827676,1338
104213,200050,221906,5.6015977066,7.6319076827,-3.2159535744,1339
104286,200047,221923,5.4759745201,7.6917282476999995,-3.3990045032999996,1340
104323,200126,221899,5.583651537100001,7.5876404646,-3.1896325258,1341
104380,200094,221959,5.5585268998,7.6725856669,-3.2279176874,1342
104456,200114,221936,5.4484570602,7.6235328036,-3.1357940173,1343
104478,200058,221918,5.6075797630999995,7.606783045399999,-3.1752755902,1344
104566,200092,221943,5.4496534715000005,7.7587272805,-3.1489545415999998,1345
104592,200100,221928,5.528616617299999,7.692924659,-3.3176485349,1346
104631,200079,221948,5.4628139958,7.8137622003,-3.2997023654,1347
104690,200100,221967,5.5573304885,7.6558359087,-3.2123643404999997,1348
104730,200090,221948,5.4161539550999995,7.7108708285,-3.2087751066,1349
104725,200101,221946,5.5429735529,7.7479595788,-3.3164521235999995,1350
104673,200122,221948,5.4687960523,7.7228349415,-3.2817561959000003,1351
104633,200066,221948,5.5597233111,7.5338019561000005,-3.1884361145,1352
104521,200101,221895,5.4508498828,7.735995465799999,-3.2685956716,1353
104416,200036,221884,5.362315446599999,7.6474610296,-3.3188449462,1354
104315,200056,221940,5.5118668590999995,7.7347990545,-3.1932217597,1355
104133,200050,221899,5.3982077855999995,7.750352401400001,-3.2542387359999996,1356
104160,200059,221879,5.637490045600001,7.6761749007999995,-3.242274623,1357
104178,200082,221933,5.6422756908,7.7611201031,-3.1334011947,1358
104116,200035,221904,5.5166525043000005,7.7096744172000005,-3.2937203089,1359
104133,200053,221880,5.392225729100001,7.5864440533,-3.1214370817,1360
104076,200056,221890,5.5022955687,7.7730842161,-3.2554351473,1361
104182,200087,221880,5.554937665900001,7.716852885,-3.1166514365,1362
104109,200063,221929,5.3539405675,7.7575308692,-3.1920253483999996,1363
104254,200108,221884,5.4927242783,7.6414789731,-3.2590243811999997,1364
104271,200029,221879,5.5298130286000005,7.6618179652,-3.2147571631,1365
104298,200087,221898,5.5178489156,7.6115686905999995,-3.2805597846,1366
104345,200098,221912,5.553741254599999,7.6965138929000005,-3.2027930501,1367
104394,200082,221875,5.3970113743,7.6366933279,-3.2566315586,1368
104452,200001,221891,5.6231331099999995,7.7994052647,-3.2949167202,1369
104508,200126,221928,5.582455125799999,7.651050263499999,-3.2997023654,1370
104544,200084,221879,5.5274202059999995,7.720442118899999,-3.2291140987,1371
104545,200106,221911,5.486742221799999,7.7383882884,-3.2087751066,1372
104496,200109,221923,5.4532427054,7.764709337,-3.1070801461,1373
104478,200105,221890,5.4891350444,7.6295148601000005,-3.1680971224,1374
104398,200083,221920,5.419743189,7.7108708285,-3.1800612354,1375
104318,200042,221904,5.431707302,7.6187471584,-3.2590243811999997,1376
104237,200058,221888,5.4951171009,7.637889739199999,-3.2973095428,1377
104218,200097,221908,5.6291151665,7.6474610296,-3.2315069213,1378
104096,200058,221895,5.4831529879,7.7419775223,-3.2566315586,1379
104072,200027,221887,5.443671415,7.612765101899999,-3.23031051,1380
103985,200066,221869,5.4628139958,7.7419775223,-3.3439695835000003,1381
104076,200112,221885,5.4101718986,7.6295148601000005,-3.2219356309,1382
104096,200086,221876,5.3790652048,7.6594251426,-3.2757741394,1383
104088,200082,221903,5.4364929472,7.5996045776,-3.2159535744,1384
104167,200087,221874,5.458028350599999,7.7156564737,-3.2973095428,1385
104210,200081,221913,5.4293144793999994,7.6187471584,-3.2458638569,1386
104211,200060,221905,5.4927242783,7.621139981,-3.2207392196,1387
104330,200120,221876,5.4364929472,7.6139615132000005,-3.2757741394,1388
104354,200011,221908,5.5118668590999995,7.6773713121,-3.2685956716,1389
104383,200104,221943,5.407779076,7.7228349415,-3.242274623,1390
104422,200107,221911,5.4735816975,7.6426753844,-3.2159535744,1391
104500,200079,221893,5.6123654083000005,7.718049296299999,-3.290131075,1392
104559,200011,221912,5.637490045600001,7.6055866341,-3.2171499857,1393
104583,200116,221927,5.5728838354,7.597211754999999,-3.3583265191000002,1394
104561,200084,221919,5.4891350444,7.7036923607,-3.2099715178999997,1395
104481,200075,221903,5.455635527999999,7.721638530200001,-3.2039894614,1396
104415,200086,221881,5.5477591981,7.832904781100001,-3.1752755902,1397
104338,200119,221899,5.553741254599999,7.6893354250999995,-3.278166962,1398
104237,200028,221897,5.5010991574000005,7.6737820782,-3.2291140987,1399
104125,200039,221895,5.540580730299999,7.695317481599999,-3.2374889778,1400
104054,200067,221899,5.430510890700001,7.7001031268,-3.1645078885,1401
104039,200045,221875,5.471188874899999,7.8233334907000005,-3.1752755902,1402
104040,200108,221871,5.583651537100001,7.8221370794,-3.1680971224,1403
104004,200053,221885,5.4185467777000005,7.6989067155,-3.2614172038,1404
104048,200079,221843,5.388636495199999,7.6713892556,-3.1908289370999996,1405
103954,200069,221880,5.5429735529,7.606783045399999,-3.2231320422,1406
104077,200049,221839,5.5860443597,7.6163543358,-3.3332018818,1407
104131,200055,221912,5.5226345608,7.633104094,-3.1740791789,1408
104159,200068,221925,5.5082776252,7.7802626839,-3.2374889778,1409
104207,200061,221903,5.405386253400001,7.7001031268,-3.2135607518000002,1410
104235,200111,221885,5.4664032297,7.7072815945999995,-3.2087751066,1411
104278,200089,221895,5.486742221799999,7.695317481599999,-3.218346397,1412
104311,200098,221897,5.3934221404,7.733602643199999,-3.1764720014999996,1413
104365,200122,221932,5.5214381495,7.635496916599999,-3.2614172038,1414
104418,200077,221891,5.6506505699,7.737191877099999,-3.1908289370999996,1415
104487,200090,221885,5.4520462941,7.816155022899999,-3.1896325258,1416
104493,200100,221880,5.4532427054,7.6642107878,-3.2482566795000003,1417
104385,200071,221879,5.5238309721,7.5876404646,-3.2757741394,1418
104306,200084,221918,5.6291151665,7.651050263499999,-3.2219356309,1419
104221,200030,221899,5.4616175845,7.874779176600001,-3.1597222433,1420
104087,200049,221829,5.5429735529,7.6749784895,-3.2566315586,1421
103914,200043,221861,5.3730831483,7.8209406681,-3.2398818003999996,1422
103830,199946,221850,5.4759745201,7.716852885,-3.242274623,1423
103749,200080,221848,5.4149575438,7.692924659,-3.2805597846,1424
103679,200010,221887,5.4807601652999995,7.7587272805,-3.2362925665,1425
103693,200045,221856,5.4819565766,7.6462646183,-3.2614172038,1426
103692,200013,221846,5.3862436726,7.5517481256,-3.1956145822999997,1427
103631,200037,221831,5.5357950851,7.679764134699999,-3.1800612354,1428
103697,200090,221836,5.4628139958,7.6977103042,-3.1357940173,1429
103716,200056,221874,5.431707302,7.6115686905999995,-3.2697920829,1430
103752,200030,221861,5.6685967394,7.6402825618,-3.2997023654,1431
103808,200050,221842,5.5561340772,7.637889739199999,-3.2362925665,1432
103836,200054,221821,5.4987063348,7.6283184488,-3.1334011947,1433
103887,200026,221820,5.5010991574000005,7.6235328036,-3.2231320422,1434
103945,200047,221895,5.525027383399999,7.667800021700001,-3.1848468806000003,1435
104000,200036,221857,5.5980084727,7.6977103042,-3.2350961552,1436
104023,200056,221900,5.575276658,7.7659057483,-3.1884361145,1437
104090,200055,221843,5.587240771,7.668996433,-3.1752755902,1438
104120,200133,221840,5.4472606489,7.6618179652,-3.3439695835000003,1439
104072,200065,221859,5.458028350599999,7.7001031268,-3.2051858726999995,1440
103980,199977,221820,5.5740802467,7.606783045399999,-3.1992038162000003,1441
103882,200036,221891,5.551348432,7.7060851833,-3.2350961552,1442
103727,200013,221854,5.472385286200001,7.8089765551,-3.1908289370999996,1443
103582,199960,221852,5.4819565766,7.6749784895,-3.3032915993,1444
103445,200004,221843,5.2989056477,7.804190909899999,-3.2004002275,1445
103332,200013,221828,5.5609197224,7.7240313528,-3.3068808331999997,1446
103246,199968,221841,5.5657053676,7.625925626199999,-3.1884361145,1447
103243,199970,221824,5.3874400839,7.633104094,-3.1453653077,1448
103221,199980,221842,5.5262237947,7.6845497799,-3.182454058,1449
103238,199976,221824,5.3036912929,7.8185478454999995,-3.2973095428,1450
103263,199970,221811,5.5274202059999995,7.8077801438000005,-3.2338997439000003,1451
103291,200005,221797,5.5465627868,7.6630143765,-3.1692935337,1452
103321,199997,221845,5.5345986738,7.6115686905999995,-3.2446674455999998,1453
103325,200001,221818,5.446064237599999,7.6725856669,-3.2111679291999997,1454
103442,200012,221834,5.5525448433,7.737191877099999,-3.2279176874,1455
103441,200020,221838,5.5609197224,7.752745224,-3.2374889778,1456
103516,200014,221825,5.599204884000001,7.5385876013,-3.1381868399,1457
103506,200052,221812,5.3611190353,7.7551380466,-3.1680971224,1458
103620,200065,221825,5.4113683099,7.728816998,-3.158525832,1459
103663,199995,221849,5.4029934308,7.8065837325,-3.170489945,1460
103715,200033,221837,5.5884371823,7.6558359087,-3.1992038162000003,1461
103747,200047,221818,5.636293634299999,7.5876404646,-3.2231320422,1462
103717,200083,221860,5.4831529879,7.7252277641000004,-3.1286155494999996,1463
103512,200033,221814,5.7260244818,7.7671021596,-3.2410782117,1464
103488,200049,221824,5.5716874241,7.7455667562,-3.1740791789,1465
103301,199959,221798,5.566901778899999,7.5457660691,-3.2757741394,1466
103128,199975,221813,5.3563333901,7.7132636511,-3.1645078885,1467
102979,199929,221793,5.5214381495,7.728816998,-3.2015966388,1468
102863,199949,221757,5.4532427054,7.8185478454999995,-3.2327033326,1469
102771,199934,221820,5.4951171009,7.7671021596,-3.1669007111,1470
102785,199975,221806,5.417350366399999,7.683353368600001,-3.3296126479000003,1471
102798,199960,221812,5.4364929472,7.6139615132000005,-3.2051858726999995,1472
102772,199949,221786,5.4245288342,7.7730842161,-3.2470602682000003,1473
102805,199963,221815,5.294120002500001,7.832904781100001,-3.218346397,1474
102837,199851,221783,5.551348432,7.6989067155,-3.3044880106,1475
102909,200001,221764,5.5369914964,7.6522466748,-3.3762726886,1476
102937,199962,221803,5.575276658,7.683353368600001,-3.3008987767,1477
103001,199982,221816,5.4400821811,7.683353368600001,-3.1501509529,1478
103060,199997,221820,5.6219366987,7.6713892556,-3.1872397032,1479
103122,199986,221836,5.4472606489,7.666603610399999,-3.194418171,1480
103181,199965,221831,5.4975099235,7.737191877099999,-3.2327033326,1481
103239,200021,221793,5.6267223439,7.635496916599999,-3.2087751066,1482
103305,199984,221819,5.472385286200001,7.6594251426,-3.1764720014999996,1483
103370,200029,221839,5.583651537100001,7.6785677234,-3.2733813167999997,1484
103361,200015,221837,5.5202417382,7.585247642000001,-3.242274623,1485
103297,200023,221806,5.50349198,7.746763167499999,-3.1692935337,1486
103196,200005,221790,5.484349399199999,7.7312098206,-3.1417760738,1487
103089,199946,221798,5.3682975031,7.5864440533,-3.2578279699,1488
102935,199974,221792,5.5094740364999994,7.7108708285,-3.3236305914,1489
102690,199950,221768,5.6889357315,7.7922267969000005,-3.2410782117,1490
102681,199904,221784,5.5022955687,7.6821569573,-3.1836504693,1491
102559,199934,221730,5.467599641,7.704888771999999,-3.218346397,1492
102509,199955,221771,5.467599641,7.7682985709,-3.3774690999,1493
102509,199938,221749,5.5453663755000004,7.639086150500001,-3.3128628897,1494
102533,199926,221790,5.4412785924,7.6139615132000005,-3.2829526072,1495
102511,199945,221779,5.538187907699999,7.812565789,-3.1310083721,1496
102579,199981,221769,5.4939206895999995,7.721638530200001,-3.1274191382,1497
102668,199968,221799,5.426921656799999,7.7599236918,-3.218346397,1498
102714,199962,221753,5.4412785924,7.7192457076,-3.2757741394,1499
102776,199936,221820,5.7523455304,7.666603610399999,-3.2614172038,1500
102847,199965,221776,5.5094740364999994,7.568497883799999,-3.0975088557,1501
102902,199980,221792,5.3084769381,7.7132636511,-3.1537401868,1502
102963,199989,221749,5.515456093,7.7587272805,-3.3032915993,1503
103041,200027,221796,5.5010991574000005,7.6522466748,-3.2578279699,1504
103077,199992,221822,5.479563754,7.65703232,-3.2733813167999997,1505
103180,200008,221831,5.4987063348,7.6857461912,-3.2566315586,1506
103234,200026,221880,5.3934221404,7.7395846997,-3.3164521235999995,1507
103187,199965,221802,5.5477591981,7.762316514399999,-3.2769705507,1508
103108,199978,221810,5.7128639575,7.704888771999999,-3.2542387359999996,1509
102997,199954,221777,5.4616175845,7.6019974002,-3.2542387359999996,1510
102864,199954,221798,5.395814963,7.6438717957,-3.2925238975999997,1511
102724,199954,221782,5.4975099235,7.6163543358,-3.2542387359999996,1512
102583,199940,221811,5.3982077855999995,7.7108708285,-3.2518459134,1513
102476,199907,221797,5.426921656799999,7.6905318364,-3.1812576466999998,1514
102406,199932,221795,5.5310094399,7.704888771999999,-3.2039894614,1515
102417,199961,221815,5.3850472612999996,7.6749784895,-3.2673992603000004,1516
102439,199918,221746,5.6638110942,7.7946196195,-3.1932217597,1517
102407,199915,221789,5.404189842099999,7.639086150500001,-3.1848468806000003,1518
