green,red,IR,acc_x,acc_y,acc_z,sample_index
110926,196441,267050,-2.0554346134,-9.3032942688,0.4163511324,1
109935,196308,266977,-2.0482561456,-9.236295236,0.4139583098,2
109441,196224,266985,-1.9154544913,-9.3954179389,0.44985064880000003,3
109115,196206,266975,-2.0279171535,-9.2781696315,0.5048855686,4
108958,196194,266935,-1.9848463467,-9.233902413400001,0.5072783912000001,5
109021,196206,266920,-2.0243279196,-9.233902413400001,0.47976093129999997,6
109244,196205,266945,-1.8197415872999998,-9.265009107200001,0.4570291166,7
109343,196250,266908,-1.9525432416,-9.284151688,0.4235296002,8
109356,196222,266932,-2.0386848552,-9.1776710823,0.5288137946,9
109281,196246,266910,-1.8915262653,-9.3882394711,0.4618147618,10
109349,196242,266930,-2.0075781614,-9.299705034899999,0.4019941968,11
109479,196282,267009,-2.0793628394,-9.3044906801,0.4606183505,12
109705,196292,266986,-2.1092731219,-9.379864592,0.4163511324,13
110041,196292,267018,-1.998006871,-9.3128655592,0.4235296002,14
110317,196353,267042,-1.9932212258000002,-9.3607220112,0.5204389155,15
110639,196388,267011,-1.9465611851,-9.3152583818,0.4821537539,16
110959,196426,267091,-2.009970984,-9.2159562439,0.5180460929,17
111272,196460,267106,-1.9345970721,-9.3607220112,0.47138605219999996,18
111552,196494,267086,-2.1116659445,-9.332008140000001,0.4594219392,19
111810,196502,267136,-1.9357934834,-9.2015993083,0.5072783912000001,20
112088,196569,267175,-1.9274186043000001,-9.284151688,0.5347958510999999,21
112347,196602,267200,-1.9561324755,-9.2614198733,0.42831524540000004,22
112629,196583,267252,-2.0315063874,-9.284151688,0.5120640364,23
112884,196664,267255,-1.8987047331,-9.3128655592,0.42592242280000003,24
113143,196633,267239,-2.0087745727,-9.2877409219,0.47138605219999996,25
113391,196718,267260,-1.9764714676,-9.2769732202,0.5216353268,26
113682,196725,267301,-2.0733807828999997,-9.3020978575,0.454636294,27
113940,196747,267293,-2.0195422744,-9.2913301558,0.35413774480000004,28
114207,196787,267326,-1.9585252981,-9.3128655592,0.4402793584,29
114468,196851,267330,-1.9657037659,-9.3176512044,0.430708068,30
114731,196867,267311,-1.9082760235,-9.3906322937,0.4510470601,31
114973,196909,267400,-2.0195422744,-9.2937229784,0.4366901245,32
115224,196884,267384,-1.8329021116,-9.3056870914,0.42831524540000004,33
115469,196945,267415,-1.8747765071,-9.2925265671,0.4211367776,34
115740,196986,267423,-1.9956140484,-9.3643112451,0.47377887479999997,35
115968,197059,267461,-1.9776678789,-9.2937229784,0.5240281494,36
115855,196996,267475,-1.9465611851,-9.1896351953,0.43788653580000003,37
114977,196921,267423,-1.9345970721,-9.2255275343,0.39720855159999996,38
113501,196762,267331,-1.9202401365000001,-9.2446701151,0.4235296002,39
112140,196614,267226,-2.0554346134,-9.4085784632,0.4211367776,40
111095,196528,267142,-2.1391834043999998,-9.1513500337,0.4761716974,41
110410,196433,267112,-1.9669001771999999,-9.3702933016,0.42592242280000003,42
109965,196328,267004,-1.9812571127999998,-9.327222494799999,0.44985064880000003,43
109692,196296,266924,-2.0997018315,-9.1549392676,0.4402793584,44
109627,196342,266976,-1.9058832009,-9.274580397600001,0.5300102059,45
109691,196292,266942,-2.0386848552,-9.2925265671,0.4642075844,46
109895,196312,267023,-1.9202401365000001,-9.3583291886,0.3900300838,47
109831,196338,266942,-2.0183458631,-9.1968136631,0.5012963347,48
109766,196310,266954,-1.8652052167000002,-9.2937229784,0.4522434714,49
109770,196280,266940,-1.998006871,-9.4863451977,0.4594219392,50
109868,196298,267002,-1.9369898947,-9.2781696315,0.4402793584,51
110067,196330,266967,-2.0315063874,-9.3296153174,0.4354937132,52
110317,196338,266994,-1.8233308212,-9.2111705987,0.48335016519999996,53
110616,196326,266971,-2.0123638066000002,-9.3726861242,0.442672181,54
110907,196360,267011,-2.0422740890999997,-9.3726861242,0.41156548719999997,55
111177,196411,267003,-1.9250257817,-9.2662055185,0.5060819799,56
111471,196454,267018,-2.0195422744,-9.3056870914,0.454636294,57
111744,196489,267039,-1.8556339263000001,-9.4313102779,0.442672181,58
111989,196465,267051,-2.069791549,-9.2506521716,0.49172504429999997,59
112242,196508,267174,-2.0315063874,-9.343972252999999,0.49651068949999994,60
112485,196520,267122,-1.9860427579999997,-9.284151688,0.3924229064,61
112734,196553,267139,-1.9944176371,-9.3224368496,0.49172504429999997,62
112980,196580,267120,-1.9214365478,-9.3750789468,0.49651068949999994,63
113211,196585,267089,-2.1463618722,-9.2590270507,0.4139583098,64
113464,196593,267132,-1.9357934834,-9.2781696315,0.4642075844,65
113681,196631,267141,-2.03389921,-9.343972252999999,0.4211367776,66
113931,196655,267178,-1.8412769907000002,-9.3702933016,0.5563312545,67
114183,196665,267207,-1.9250257817,-9.3009014462,0.49651068949999994,68
114438,196678,267210,-2.0183458631,-9.3224368496,0.4043870194,69
114688,196726,267245,-1.9513468303000001,-9.284151688,0.47976093129999997,70
114897,196728,267255,-1.9154544913,-9.2051885422,0.4402793584,71
115124,196776,267219,-2.0602202586000002,-9.3224368496,0.41874395499999995,72
115343,196793,267235,-1.9908284031999999,-9.3750789468,0.502492746,73
115565,196777,267268,-1.9585252981,-9.284151688,0.346959277,74
115754,196807,267265,-1.9058832009,-9.3954179389,0.4354937132,75
115982,196849,267277,-1.9776678789,-9.206384953499999,0.5060819799,76
115774,196821,267245,-1.9836499354,-9.3750789468,0.3924229064,77
114782,196723,267169,-2.03389921,-9.2769732202,0.4558327053,78
113330,196533,267052,-2.0853448959,-9.2937229784,0.4390829471,79
112018,196413,266979,-2.0386848552,-9.3068835027,0.4618147618,80
111092,196291,266845,-1.9226329591,-9.2374916473,0.5036891573,81
110509,196215,266868,-1.9788642901999998,-9.3104727366,0.5132604477,82
110144,196177,266804,-2.0410776778,-9.2626162846,0.43788653580000003,83
109858,196163,266760,-1.9860427579999997,-9.3104727366,0.3684946804,84
109917,196149,266774,-1.8604195715,-9.2937229784,0.47377887479999997,85
110021,196186,266769,-1.9597217094,-9.3224368496,0.4606183505,86
110032,196172,266793,-2.1188444122999996,-9.3463650756,0.3852444386,87
109906,196149,266805,-1.9836499354,-9.1477607998,0.3804587934,88
109800,196156,266796,-1.9752750562999999,-9.2255275343,0.39720855159999996,89
109813,196171,266807,-2.1559331626,-9.3607220112,0.3840480273,90
109953,196191,266828,-1.9130616687,-9.2542414055,0.3780659708,91
110154,196201,266853,-1.9860427579999997,-9.3104727366,0.47377887479999997,92
110445,196226,266834,-2.0291135648000003,-9.3822574146,0.4043870194,93
110765,196287,266913,-1.8915262653,-9.391828705,0.4725824635,94
111051,196334,266907,-1.8795621523000001,-9.3020978575,0.5012963347,95
111364,196350,266932,-1.9908284031999999,-9.4193461649,0.41874395499999995,96
111660,196418,266954,-2.0877377184999997,-9.3834538259,0.43788653580000003,97
111947,196426,267015,-1.9166509025999998,-9.379864592,0.44985064880000003,98
112234,196459,267048,-1.998006871,-9.3212404383,0.44985064880000003,99
112519,196506,267003,-1.9669001771999999,-9.2817588654,0.39960137419999997,100
112805,196546,267074,-1.9357934834,-9.2674019298,0.49172504429999997,101
113043,196571,267142,-2.0602202586000002,-9.2769732202,0.4402793584,102
113356,196621,267107,-2.0171494518,-9.3475614869,0.5012963347,103
113608,196647,267139,-1.8652052167000002,-9.3774717694,0.44386859230000003,104
113908,196671,267151,-1.9489540077,-9.2769732202,0.5324030285,105
114197,196706,267210,-2.0303099761,-9.327222494799999,0.4642075844,106
114473,196729,267222,-1.9345970721,-9.4217389875,0.5826523031,107
114661,196745,267210,-2.0195422744,-9.273383986299999,0.4821537539,108
115008,196788,267239,-1.9740786449999999,-9.2973122123,0.43190447930000003,109
115247,196849,267272,-1.8795621523000001,-9.3104727366,0.49292145559999995,110
115523,196878,267329,-2.0769700168,-9.384650237199999,0.5395814963,111
115628,196906,267342,-2.0829520733,-9.3032942688,0.4689932296,112
115086,196836,267288,-1.8652052167000002,-9.2530449942,0.4725824635,113
113801,196715,267180,-1.9764714676,-9.2374916473,0.5060819799,114
112358,196525,267056,-2.03389921,-9.3032942688,0.4163511324,115
111230,196399,266957,-1.9298114269,-9.403792818,0.49651068949999994,116
110365,196324,266925,-2.0554346134,-9.1848495501,0.4558327053,117
109920,196225,266818,-2.0015961049,-9.320044027,0.4331008906,118
109515,196202,266802,-1.9932212258000002,-9.1369930981,0.49770710079999997,119
109342,196171,266813,-2.0231315083,-9.3056870914,0.4618147618,120
109409,196166,266799,-2.03389921,-9.3595255999,0.430708068,121
109530,196187,266823,-2.1020946541,-9.3415794304,0.43788653580000003,122
109531,196169,266814,-2.009970984,-9.3020978575,0.48335016519999996,123
109475,196156,266826,-2.0291135648000003,-9.284151688,0.370887503,124
109450,196199,266821,-1.9094724347999998,-9.3260260835,0.4570291166,125
109476,196161,266877,-2.0745771942,-9.3032942688,0.5012963347,126
109637,196155,266883,-1.9202401365000001,-9.274580397600001,0.466600407,127
109877,196184,266805,-2.0159530405,-9.2697947524,0.4199403663,128
110155,196197,266868,-1.9860427579999997,-9.3966143502,0.38763726119999997,129
110425,196238,266878,-1.9740786449999999,-9.3367937852,0.454636294,130
110700,196267,266911,-1.9716858223999998,-9.2853480993,0.5300102059,131
110944,196301,266908,-1.9250257817,-9.327222494799999,0.466600407,132
111231,196341,266906,-1.8819549749,-9.2638126959,0.4474578262,133
111405,196320,266952,-1.9154544913,-9.2937229784,0.41156548719999997,134
111729,196334,266977,-1.9680965885,-9.3547399547,0.49531427819999996,135
111980,196361,266980,-2.0243279196,-9.3248296722,0.4450650036,136
112214,196406,266930,-2.0051853388,-9.3415794304,0.4989035121,137
112439,196428,266979,-1.8556339263000001,-9.3152583818,0.3804587934,138
112714,196428,266948,-2.0506489682,-9.260223461999999,0.4630111731,139
112918,196470,267022,-2.0494525569,-9.2159562439,0.39720855159999996,140
113076,196486,266982,-2.0662023151,-9.3009014462,0.4079762533,141
113302,196504,267055,-1.9549360641999998,-9.4337031005,0.40677984199999995,142
113524,196530,267028,-2.0650059038,-9.0891366461,0.4163511324,143
113710,196534,267038,-1.9932212258000002,-9.2446701151,0.4677968183,144
113956,196563,267103,-1.9836499354,-9.284151688,0.5252245607,145
114157,196595,267114,-1.8951154991999999,-9.3032942688,0.5551348432,146
114046,196601,267090,-2.009970984,-9.320044027,0.40917266459999996,147
113219,196449,267001,-1.8867406201,-9.260223461999999,0.3613162126,148
111763,196289,266905,-1.9334006607999998,-9.1872423727,0.4414757697,149
110422,196124,266822,-1.9788642901999998,-9.2590270507,0.42831524540000004,150
109423,196039,266766,-1.8628123941,-9.3427758417,0.5228317381,151
108862,195942,266661,-2.0183458631,-9.284151688,0.4570291166,152
108430,195868,266565,-2.0291135648000003,-9.1609213241,0.5252245607,153
108152,195881,266542,-2.0733807828999997,-9.3224368496,0.4558327053,154
108165,195846,266563,-1.9884355805999998,-9.3344009626,0.40917266459999996,155
108283,195855,266619,-2.0362920326,-9.327222494799999,0.3864408499,156
108265,195883,266588,-2.0590238472999998,-9.2614198733,0.40917266459999996,157
108131,195826,266535,-2.0147566292,-9.3655076564,0.4510470601,158
108043,195786,266529,-2.0494525569,-9.345168664300001,0.4295116567,159
108034,195790,266504,-1.9130616687,-9.3188476157,0.4211367776,160
108095,195804,266586,-1.9465611851,-9.3140619705,0.47138605219999996,161
108285,195832,266599,-1.9345970721,-9.320044027,0.4235296002,162
108519,195818,266583,-1.9034903783000001,-9.206384953499999,0.4235296002,163
108793,195862,266659,-1.9704894111,-9.2303131795,0.382851616,164
109091,195910,266614,-2.0793628394,-9.3367937852,0.4642075844,165
109353,195911,266607,-2.0039889275,-9.3415794304,0.370887503,166
109624,195954,266683,-1.9645073545999998,-9.2099741874,0.5276173833,167
109874,195960,266717,-1.8604195715,-9.343972252999999,0.5228317381,168
110117,196049,266738,-1.8723836845000001,-9.284151688,0.47377887479999997,169
110383,196096,266807,-1.9776678789,-9.2111705987,0.4402793584,170
110628,196093,266818,-1.890329854,-9.5066841898,0.3337987527,171
110893,196143,266842,-2.0123638066000002,-9.2255275343,0.4522434714,172
111139,196191,266848,-1.9310078382,-9.272187575,0.4402793584,173
111376,196248,266893,-2.0626130812,-9.3655076564,0.44985064880000003,174
111664,196247,266923,-2.0386848552,-9.2530449942,0.5276173833,175
111910,196304,266881,-2.0506489682,-9.1357966868,0.4354937132,176
112185,196348,266951,-1.8927226765999998,-9.340383019099999,0.41874395499999995,177
112446,196376,266994,-1.9441683625,-9.1549392676,0.4989035121,178
112732,196423,267045,-1.9262221929999999,-9.3056870914,0.39720855159999996,179
112898,196452,267055,-2.0027925162,-9.206384953499999,0.42831524540000004,180
112317,196372,267034,-1.8843477975,-9.343972252999999,0.49651068949999994,181
111008,196236,266904,-1.890329854,-9.2985086236,0.4354937132,182
109554,196074,266814,-2.0985054202,-9.3056870914,0.4354937132,183
108486,195964,266721,-1.9178473139,-9.3487578982,0.47138605219999996,184
107756,195900,266690,-1.8963119105000001,-9.3224368496,0.5120640364,185
107299,195812,266592,-1.8891334427000002,-9.3104727366,0.4163511324,186
106933,195745,266530,-2.0386848552,-9.3571327773,0.442672181,187
106832,195757,266614,-1.9788642901999998,-9.2853480993,0.4366901245,188
107029,195762,266565,-1.9190437251999999,-9.345168664300001,0.442672181,189
107197,195782,266634,-1.9812571127999998,-9.2135634213,0.4331008906,190
107250,195745,266606,-2.0925233637,-9.3655076564,0.442672181,191
107237,195794,266573,-1.9322042495,-9.2662055185,0.5228317381,192
107247,195759,266566,-1.938186306,-9.206384953499999,0.4486542375,193
107361,195747,266592,-1.9884355805999998,-9.3631148338,0.4402793584,194
107594,195794,266602,-1.8915262653,-9.286544510599999,0.442672181,195
107849,195834,266667,-1.8915262653,-9.2793660428,0.4570291166,196
108174,195878,266682,-2.0291135648000003,-9.2410808812,0.3684946804,197
108495,195870,266736,-1.9094724347999998,-9.2374916473,0.382851616,198
108758,195903,266734,-1.9034903783000001,-9.3415794304,0.41156548719999997,199
109073,195988,266774,-2.0805592507,-9.3332045513,0.3900300838,200
109315,195987,266772,-1.9812571127999998,-9.2446701151,0.4941178669,201
109604,196012,266799,-2.0123638066000002,-9.3523471321,0.4749752861,202
109773,196024,266753,-2.0410776778,-9.2781696315,0.5060819799,203
110029,196050,266817,-1.9118652574,-9.379864592,0.4570291166,204
110253,196115,266825,-1.8879370314,-9.320044027,0.394815729,205
110512,196098,266842,-2.0027925162,-9.3020978575,0.47736810869999996,206
110727,196139,266875,-1.9860427579999997,-9.3822574146,0.47377887479999997,207
110986,196170,266900,-2.0626130812,-9.4612205604,0.5252245607,208
111195,196234,266880,-2.0889341298,-9.2554378168,0.39720855159999996,209
111394,196138,266881,-1.8975083218,-9.3367937852,0.502492746,210
111593,196187,266855,-1.8017954178,-9.3367937852,0.37567314820000003,211
111779,196265,266890,-1.938186306,-9.2566342281,0.4211367776,212
111991,196248,266929,-1.8975083218,-9.274580397600001,0.4486542375,213
112224,196265,266962,-2.0315063874,-9.3212404383,0.4689932296,214
112260,196255,266942,-1.9022939669999999,-9.427721044,0.49531427819999996,215
111556,196205,266894,-1.9525432416,-9.2781696315,0.5048855686,216
110129,196060,266789,-1.9429719511999999,-9.309276325299999,0.48095734259999995,217
108723,195852,266666,-2.0733807828999997,-9.4085784632,0.4019941968,218
107737,195707,266586,-1.9513468303000001,-9.407382051899999,0.4235296002,219
107042,195649,266524,-1.9872391693,-9.3463650756,0.4163511324,220
106579,195564,266475,-1.998006871,-9.272187575,0.5276173833,221
106282,195583,266481,-1.9884355805999998,-9.367900479,0.38763726119999997,222
106265,195527,266442,-1.9477575963999998,-9.385846648500001,0.47976093129999997,223
106454,195558,266451,-1.9992032822999999,-9.3954179389,0.4163511324,224
106545,195502,266397,-2.1092731219,-9.296115801,0.4019941968,225
106545,195533,266476,-1.9740786449999999,-9.2350988247,0.41874395499999995,226
106402,195505,266476,-1.9956140484,-9.3379901965,0.4642075844,227
106428,195471,266421,-1.9034903783000001,-9.2626162846,0.4642075844,228
106548,195484,266475,-2.0757736055,-9.3248296722,0.48335016519999996,229
106754,195518,266462,-2.1020946541,-9.2255275343,0.4331008906,230
107028,195538,266485,-1.9441683625,-9.3667040677,0.4606183505,231
107308,195583,266544,-2.081755662,-9.332008140000001,0.35174492220000003,232
107618,195626,266565,-1.9597217094,-9.353543543399999,0.4845465765,233
107917,195617,266553,-2.1212372348999997,-9.260223461999999,0.442672181,234
108176,195688,266599,-1.9322042495,-9.2446701151,0.4941178669,235
108453,195710,266600,-2.009970984,-9.2350988247,0.49770710079999997,236
108705,195794,266635,-1.9812571127999998,-9.3248296722,0.3924229064,237
108966,195855,266667,-1.8867406201,-9.2039921309,0.33858439789999994,238
109245,195853,266651,-1.8652052167000002,-9.3511507208,0.3804587934,239
109438,195869,266749,-2.0303099761,-9.2913301558,0.4582255279,240
109779,195924,266728,-2.0422740890999997,-9.274580397600001,0.4019941968,241
110018,195987,266815,-1.9836499354,-9.4085784632,0.44985064880000003,242
110282,196023,266827,-2.0913269524,-9.2985086236,0.370887503,243
110569,196071,266905,-1.9178473139,-9.3152583818,0.466600407,244
110842,196151,266901,-1.9728822337,-9.4049892293,0.43429730190000004,245
111096,196153,266921,-1.9334006607999998,-9.3822574146,0.3924229064,246
111343,196207,266992,-2.0745771942,-9.2350988247,0.5395814963,247
111593,196255,267040,-2.0602202586000002,-9.232706002099999,0.4677968183,248
111862,196295,267058,-2.0027925162,-9.4013999954,0.5802594805,249
111999,196329,266979,-2.0626130812,-9.3523471321,0.44386859230000003,250
111403,196244,266990,-1.8436698133,-9.2877409219,0.43788653580000003,251
109982,196112,266935,-1.8927226765999998,-9.353543543399999,0.4235296002,252
108550,195957,266777,-2.0506489682,-9.327222494799999,0.3804587934,253
107475,195799,266643,-2.0195422744,-9.4097748745,0.454636294,254
106760,195721,266639,-2.0685951377,-9.3655076564,0.5587240770999999,255
106237,195660,266572,-1.9525432416,-9.1824567275,0.466600407,256
105896,195585,266561,-1.9429719511999999,-9.1932244292,0.3780659708,257
105867,195612,266576,-1.9609181207,-9.3140619705,0.4618147618,258
106112,195618,266586,-1.9812571127999998,-9.3248296722,0.4474578262,259
106354,195648,266578,-1.8711872732,-9.3475614869,0.442672181,260
106409,195665,266624,-1.9884355805999998,-9.2446701151,0.4402793584,261
106477,195636,266579,-1.9513468303000001,-9.308079914,0.5132604477,262
106519,195654,266596,-1.9513468303000001,-9.2458665264,0.47138605219999996,263
106655,195703,266624,-1.9549360641999998,-9.3942215276,0.442672181,264
106902,195715,266659,-1.8939190879,-9.2925265671,0.4450650036,265
107228,195754,266616,-1.9609181207,-9.3176512044,0.514456859,266
107574,195786,266684,-1.9429719511999999,-9.4743810847,0.43788653580000003,267
107905,195827,266743,-2.0183458631,-9.3248296722,0.442672181,268
108214,195818,266797,-1.9453647738,-9.3511507208,0.4043870194,269
108546,195905,266842,-2.0949161863,-9.332008140000001,0.5096712138,270
108835,195941,266786,-2.0805592507,-9.2231347117,0.47377887479999997,271
109109,195973,266884,-1.9154544913,-9.3894358824,0.48095734259999995,272
109404,196024,266826,-1.9752750562999999,-9.3032942688,0.46540399569999996,273
109639,196041,266888,-1.8963119105000001,-9.242277292499999,0.4570291166,274
109898,196079,266882,-1.9944176371,-9.200402897,0.42592242280000003,275
110151,196139,266968,-1.9920248145,-9.3284189061,0.4689932296,276
110417,196129,266935,-1.8101702968999998,-9.3882394711,0.3864408499,277
110692,196153,266990,-1.9956140484,-9.3702933016,0.43788653580000003,278
110935,196219,266983,-1.9501504189999999,-9.3391866078,0.42592242280000003,279
111204,196226,267051,-2.0255243308999997,-9.353543543399999,0.3864408499,280
111505,196279,267042,-1.9597217094,-9.3224368496,0.430708068,281
111681,196315,267053,-1.9405791285999998,-9.2889373332,0.4642075844,282
111924,196339,267102,-1.890329854,-9.3224368496,0.4582255279,283
112160,196396,267127,-1.938186306,-9.345168664300001,0.4522434714,284
112382,196390,267157,-2.0506489682,-9.3344009626,0.3397808092,285
112588,196401,267146,-2.0279171535,-9.2697947524,0.4402793584,286
112800,196404,267168,-1.9465611851,-9.3296153174,0.3888336725,287
112981,196455,267145,-1.9752750562999999,-9.3116691479,0.5000999234,288
113175,196480,267216,-1.9657037659,-9.2135634213,0.4247260115,289
113434,196474,267169,-2.0243279196,-9.2542414055,0.41156548719999997,290
113591,196523,267142,-2.1188444122999996,-9.3355973739,0.4211367776,291
113314,196469,267149,-2.0087745727,-9.327222494799999,0.514456859,292
112156,196371,267108,-1.9369898947,-9.1740818484,0.4043870194,293
110576,196187,266904,-2.0051853388,-9.3140619705,0.39720855159999996,294
109198,196030,266839,-1.938186306,-9.4085784632,0.5036891573,295
108260,195978,266756,-2.0243279196,-9.176474671,0.5120640364,296
107596,195838,266757,-2.1738793321000003,-9.3870430598,0.4043870194,297
107149,195782,266625,-1.9298114269,-9.2255275343,0.4522434714,298
106901,195740,266609,-2.0362920326,-9.2518485829,0.3684946804,299
107017,195736,266628,-1.9262221929999999,-9.2985086236,0.4462614149,300
107167,195751,266634,-2.0315063874,-9.2350988247,0.4019941968,301
107242,195710,266624,-1.9968104597,-9.233902413400001,0.4450650036,302
107178,195735,266638,-1.9310078382,-9.290133744499999,0.430708068,303
107131,195720,266639,-2.0482561456,-9.3176512044,0.5060819799,304
107140,195713,266642,-1.9130616687,-9.415756931,0.4402793584,305
107273,195726,266626,-1.9585252981,-9.379864592,0.4474578262,306
107504,195715,266617,-2.0709879603,-9.2829552767,0.42831524540000004,307
107787,195765,266648,-2.0147566292,-9.3786681807,0.370887503,308
108101,195795,266710,-2.0650059038,-9.2674019298,0.42592242280000003,309
108389,195828,266695,-2.0267207422,-9.2877409219,0.5276173833,310
108669,195821,266706,-1.8293128776999998,-9.2973122123,0.42831524540000004,311
108942,195843,266739,-1.9824535241,-9.3702933016,0.48933222169999996,312
109215,195877,266753,-2.0410776778,-9.3702933016,0.42831524540000004,313
109445,195927,266793,-2.0327027987,-9.3176512044,0.3302095188,314
109662,195955,266835,-2.0362920326,-9.3020978575,0.3302095188,315
109909,195980,266793,-2.0626130812,-9.3164547931,0.42592242280000003,316
110163,196023,266833,-1.9477575963999998,-9.3284189061,0.34456645439999994,317
110411,196040,266861,-2.1008982428,-9.3822574146,0.4821537539,318
110671,196054,266875,-1.9680965885,-9.3726861242,0.442672181,319
110932,196104,266933,-1.9310078382,-9.3463650756,0.5252245607,320
111193,196133,266874,-2.0291135648000003,-9.290133744499999,0.4366901245,321
111466,196181,266953,-2.0829520733,-9.3391866078,0.4522434714,322
111726,196240,266981,-2.0793628394,-9.332008140000001,0.4594219392,323
112012,196248,266977,-1.9752750562999999,-9.4253282214,0.42592242280000003,324
112247,196304,267015,-1.9597217094,-9.2231347117,0.4235296002,325
112500,196352,267068,-1.9573288867999998,-9.320044027,0.3613162126,326
112760,196374,267087,-2.0291135648000003,-9.2303131795,0.454636294,327
113013,196421,267135,-1.9429719511999999,-9.273383986299999,0.454636294,328
113289,196473,267061,-1.9764714676,-9.2506521716,0.5491527867,329
113161,196489,267181,-2.0745771942,-9.290133744499999,0.41874395499999995,330
112195,196380,267100,-1.9740786449999999,-9.3834538259,0.4558327053,331
110756,196242,267025,-2.0087745727,-9.2769732202,0.3924229064,332
109517,196132,266893,-2.1032910654,-9.2039921309,0.4354937132,333
108725,196019,266830,-2.0362920326,-9.3511507208,0.502492746,334
108159,195936,266843,-1.8999011444,-9.247062937699999,0.48335016519999996,335
107924,195935,266784,-1.9716858223999998,-9.327222494799999,0.3780659708,336
107790,195951,266773,-1.998006871,-9.384650237199999,0.5180460929,337
107915,195953,266739,-2.0386848552,-9.233902413400001,0.502492746,338
108144,195993,266759,-1.9405791285999998,-9.3774717694,0.370887503,339
108234,195962,266762,-1.9752750562999999,-9.206384953499999,0.4450650036,340
108252,195938,266854,-1.9932212258000002,-9.2674019298,0.4845465765,341
108223,195962,266862,-1.9525432416,-9.3655076564,0.4139583098,342
108291,195962,266800,-1.9286150156,-9.355936366,0.5515456093,343
108465,195971,266821,-2.03389921,-9.3164547931,0.47138605219999996,344
108699,196022,266850,-2.0243279196,-9.2638126959,0.39960137419999997,345
109064,196048,266863,-2.009970984,-9.2638126959,0.5300102059,346
109402,196109,266935,-1.9812571127999998,-9.3020978575,0.4570291166,347
109722,196129,266964,-1.8544375149999999,-9.5389872949,0.5060819799,348
110046,196168,266972,-2.0769700168,-9.3140619705,0.5252245607,349
110368,196200,266967,-2.0003996936,-9.320044027,0.47736810869999996,350
110647,196264,267065,-1.9262221929999999,-9.284151688,0.39720855159999996,351
110926,196280,267021,-1.9597217094,-9.355936366,0.4606183505,352
111174,196281,267070,-1.9393827173,-9.3056870914,0.5204389155,353
111489,196352,267078,-1.9429719511999999,-9.4121676971,0.4402793584,354
111714,196358,267106,-2.0279171535,-9.308079914,0.48095734259999995,355
111979,196408,267105,-1.9130616687,-9.265009107200001,0.4761716974,356
112259,196445,267139,-1.9908284031999999,-9.3702933016,0.47377887479999997,357
112580,196502,267123,-1.9776678789,-9.3415794304,0.3924229064,358
112775,196535,267203,-1.9405791285999998,-9.4576313265,0.3613162126,359
113087,196546,267212,-2.0147566292,-9.3248296722,0.4019941968,360
113364,196590,267255,-1.9262221929999999,-9.4193461649,0.4642075844,361
113611,196589,267252,-1.9274186043000001,-9.3236332609,0.5048855686,362
113873,196659,267277,-1.962114532,-9.2913301558,0.49531427819999996,363
114087,196709,267306,-2.0434705004000002,-9.391828705,0.39720855159999996,364
114342,196707,267319,-2.0075781614,-9.175278259699999,0.430708068,365
114607,196771,267350,-2.03389921,-9.4121676971,0.4043870194,366
114777,196801,267348,-1.9872391693,-9.3296153174,0.442672181,367
114319,196742,267370,-1.9046867896,-9.2183490665,0.4486542375,368
113087,196600,267245,-1.9561324755,-9.3296153174,0.3924229064,369
111592,196436,267120,-1.9525432416,-9.438488745699999,0.4235296002,370
110390,196338,267080,-1.9549360641999998,-9.3571327773,0.42592242280000003,371
109575,196230,266981,-1.9573288867999998,-9.2829552767,0.5228317381,372
109046,196170,266934,-2.009970984,-9.3128655592,0.49292145559999995,373
108669,196123,266856,-1.9513468303000001,-9.332008140000001,0.37567314820000003,374
108516,196088,266823,-2.0231315083,-9.2315095908,0.3924229064,375
108648,196103,266861,-1.9860427579999997,-9.2937229784,0.5300102059,376
108825,196065,266921,-2.0195422744,-9.3810610033,0.47138605219999996,377
108888,196117,266857,-2.0650059038,-9.3152583818,0.4821537539,378
108868,196134,266856,-2.0590238472999998,-9.2937229784,0.41156548719999997,379
108844,196126,266914,-1.9429719511999999,-9.2494557603,0.4211367776,380
108944,196091,266816,-2.0243279196,-9.4217389875,0.48335016519999996,381
109162,196122,266868,-1.9740786449999999,-9.308079914,0.5036891573,382
109390,196163,266954,-1.9716858223999998,-9.353543543399999,0.4235296002,383
109695,196172,266936,-1.9812571127999998,-9.2805624541,0.4618147618,384
110038,196225,267010,-2.0243279196,-9.353543543399999,0.39720855159999996,385
110393,196265,267034,-1.9968104597,-9.3284189061,0.5467599640999999,386
110667,196256,267046,-2.0398812665,-9.340383019099999,0.4211367776,387
111003,196293,267052,-1.9788642901999998,-9.3260260835,0.4474578262,388
111286,196368,267048,-1.8604195715,-9.2877409219,0.4642075844,389
111579,196393,267097,-1.8771693297,-9.4360959231,0.5072783912000001,390
111856,196455,267130,-1.9812571127999998,-9.355936366,0.4941178669,391
112121,196456,267163,-1.9800607015,-9.2853480993,0.4989035121,392
112376,196480,267147,-1.9393827173,-9.397810761499999,0.48574298779999997,393
112664,196540,267169,-1.9860427579999997,-9.1776710823,0.47377887479999997,394
112926,196557,267237,-1.9788642901999998,-9.3595255999,0.47976093129999997,395
113219,196580,267189,-2.1272192914,-9.3367937852,0.40917266459999996,396
113471,196617,267214,-2.0171494518,-9.3176512044,0.38763726119999997,397
113741,196642,267229,-1.9441683625,-9.2638126959,0.48335016519999996,398
113985,196696,267262,-1.8771693297,-9.3355973739,0.4235296002,399
114248,196691,267233,-1.9010975557,-9.343972252999999,0.48574298779999997,400
114500,196733,267230,-1.8580267489000002,-9.1968136631,0.48095734259999995,401
114687,196724,267347,-1.9920248145,-9.2530449942,0.4618147618,402
114935,196743,267298,-1.9728822337,-9.3284189061,0.3266202849,403
115203,196799,267284,-1.9956140484,-9.3523471321,0.4474578262,404
115407,196799,267350,-1.9034903783000001,-9.2518485829,0.5802594805,405
115237,196812,267343,-1.9848463467,-9.384650237199999,0.4845465765,406
114259,196640,267261,-1.9573288867999998,-9.2374916473,0.454636294,407
112725,196516,267121,-2.0315063874,-9.3583291886,0.346959277,408
111337,196356,267041,-2.0638094925,-9.3236332609,0.49651068949999994,409
110348,196236,266959,-1.9692929998,-9.343972252999999,0.5204389155,410
109649,196180,266912,-1.8640088054,-9.420542576199999,0.42592242280000003,411
109165,196057,266786,-2.0685951377,-9.2159562439,0.490528633,412
108857,196021,266820,-1.9310078382,-9.3152583818,0.4139583098,413
108816,196028,266825,-1.8735800958,-9.355936366,0.49651068949999994,414
108933,196052,266739,-2.021935097,-9.3415794304,0.4354937132,415
108960,196025,266763,-1.9058832009,-9.320044027,0.4414757697,416
108852,196000,266739,-2.0602202586000002,-9.4265246327,0.38763726119999997,417
108762,195975,266747,-2.069791549,-9.2398844699,0.4522434714,418
108718,195972,266696,-1.9310078382,-9.3475614869,0.4354937132,419
108797,196003,266729,-1.9345970721,-9.4145605197,0.5682953675,420
108956,195991,266775,-1.9860427579999997,-9.2781696315,0.370887503,421
109185,196025,266740,-2.0889341298,-9.274580397600001,0.38763726119999997,422
109437,196056,266802,-2.0267207422,-9.286544510599999,0.5012963347,423
109703,196067,266778,-1.9692929998,-9.2877409219,0.40677984199999995,424
109976,196119,266757,-2.0315063874,-9.4145605197,0.5000999234,425
110207,196100,266796,-2.009970984,-9.2255275343,0.4618147618,426
110455,196154,266828,-2.0781664281,-9.3248296722,0.5036891573,427
110662,196148,266816,-1.8819549749,-9.2638126959,0.4606183505,428
110885,196170,266884,-1.9453647738,-9.4839523751,0.4163511324,429
111084,196181,266868,-2.0315063874,-9.2829552767,0.5395814963,430
111296,196195,266847,-2.0566310246999997,-9.3954179389,0.39960137419999997,431
111508,196278,266917,-2.0721843716,-9.2949193897,0.4331008906,432
111726,196258,266908,-1.9226329591,-9.232706002099999,0.41874395499999995,433
111956,196258,266956,-2.0075781614,-9.3607220112,0.4354937132,434
112219,196322,266943,-2.1260228801,-9.2877409219,0.394815729,435
112470,196342,266956,-2.0685951377,-9.2518485829,0.39960137419999997,436
112697,196364,267011,-1.9704894111,-9.3116691479,0.40917266459999996,437
112935,196433,267047,-2.0087745727,-9.2219383004,0.5012963347,438
113159,196496,267053,-1.8951154991999999,-9.220741889100001,0.44985064880000003,439
113402,196476,267093,-2.069791549,-9.3810610033,0.4402793584,440
113639,196518,267097,-1.8819549749,-9.2374916473,0.466600407,441
113884,196590,267147,-1.9453647738,-9.284151688,0.454636294,442
114129,196600,267113,-1.9465611851,-9.3942215276,0.48574298779999997,443
113855,196608,267071,-1.998006871,-9.3655076564,0.4211367776,444
112780,196465,267088,-2.0171494518,-9.3607220112,0.5300102059,445
111361,196363,266927,-2.0769700168,-9.296115801,0.42592242280000003,446
110190,196219,266935,-1.9716858223999998,-9.3655076564,0.4582255279,447
109437,196135,266814,-1.9034903783000001,-9.2877409219,0.5300102059,448
108966,196087,266759,-1.8436698133,-9.2578306394,0.4139583098,449
108687,196072,266768,-1.9537396529,-9.384650237199999,0.5515456093,450
108524,196082,266770,-2.0063817501,-9.320044027,0.49172504429999997,451
108682,196087,266809,-1.9274186043000001,-9.299705034899999,0.41156548719999997,452
108861,196099,266804,-1.998006871,-9.2889373332,0.4331008906,453
108915,196106,266848,-1.9776678789,-9.2817588654,0.43788653580000003,454
108790,196082,266827,-1.9525432416,-9.2769732202,0.5000999234,455
108843,196107,266831,-1.8556339263000001,-9.242277292499999,0.4235296002,456
108916,196098,266829,-2.1224336462,-9.2757768089,0.4677968183,457
109086,196140,266789,-1.9501504189999999,-9.327222494799999,0.4594219392,458
109314,196167,266843,-1.9034903783000001,-9.3056870914,0.33738798659999997,459
109594,196229,266823,-1.8257236438,-9.399007172800001,0.4354937132,460
109914,196208,266881,-1.8616159827999998,-9.2937229784,0.4211367776,461
110206,196288,266949,-2.0291135648000003,-9.2793660428,0.4402793584,462
110515,196307,266997,-1.9477575963999998,-9.1992064857,0.43788653580000003,463
110740,196373,266988,-1.8807585636,-9.2793660428,0.4462614149,464
111101,196387,266976,-2.0793628394,-9.2303131795,0.4570291166,465
111370,196439,267030,-1.9094724347999998,-9.4061856406,0.3816552047,466
111648,196468,267057,-1.8915262653,-9.1992064857,0.4642075844,467
111904,196485,267072,-1.9812571127999998,-9.2697947524,0.43788653580000003,468
112235,196541,267075,-1.9704894111,-9.3056870914,0.5324030285,469
112429,196586,267136,-2.0925233637,-9.3511507208,0.4725824635,470
112708,196590,267158,-2.0374884439,-9.3487578982,0.5108676251000001,471
112951,196652,267134,-2.0147566292,-9.2973122123,0.4630111731,472
113226,196660,267198,-2.0506489682,-9.265009107200001,0.5072783912000001,473
113485,196696,267201,-1.9214365478,-9.290133744499999,0.4749752861,474
113769,196729,267241,-2.0243279196,-9.4121676971,0.38763726119999997,475
114012,196796,267276,-1.9585252981,-9.286544510599999,0.4211367776,476
114277,196781,267253,-2.0434705004000002,-9.2937229784,0.4474578262,477
114546,196805,267238,-1.9908284031999999,-9.3667040677,0.466600407,478
114751,196863,267304,-1.9812571127999998,-9.4193461649,0.43788653580000003,479
114996,196905,267307,-2.1475582835,-9.5306124158,0.5132604477,480
115277,196966,267334,-2.1487546948,-9.21236701,0.5096712138,481
115332,196964,267310,-1.9944176371,-9.3367937852,0.48933222169999996,482
114705,196876,267286,-2.0446669117,-9.2757768089,0.442672181,483
113347,196777,267243,-2.1164515897,-9.3607220112,0.31345976059999997,484
111876,196640,267076,-2.081755662,-9.2398844699,0.4462614149,485
110742,196494,267006,-1.9429719511999999,-9.3140619705,0.47856452,486
109976,196391,267000,-1.9704894111,-9.2853480993,0.40319060809999996,487
109453,196378,266958,-2.0829520733,-9.3463650756,0.48335016519999996,488
109095,196300,266880,-2.0721843716,-9.284151688,0.42831524540000004,489
108953,196271,266855,-2.0327027987,-9.379864592,0.41874395499999995,490
109036,196330,266892,-2.0147566292,-9.4612205604,0.5168496816,491
109147,196309,266857,-2.069791549,-9.2099741874,0.4941178669,492
109141,196239,266959,-2.0566310246999997,-9.2829552767,0.42592242280000003,493
109075,196287,266881,-1.9752750562999999,-9.3415794304,0.4522434714,494
109021,196270,266897,-2.0075781614,-9.286544510599999,0.4522434714,495
109097,196312,266907,-1.9106688461,-9.1704926145,0.5000999234,496
109268,196301,266882,-2.0003996936,-9.2697947524,0.48693939909999995,497
109517,196321,266925,-1.9752750562999999,-9.2542414055,0.43788653580000003,498
109790,196345,266947,-2.0602202586000002,-9.308079914,0.39960137419999997,499
110108,196386,266968,-2.0626130812,-9.4013999954,0.4331008906,500
110418,196438,267002,-1.9477575963999998,-9.284151688,0.5587240770999999,501
110713,196428,267027,-1.9968104597,-9.3152583818,0.4761716974,502
111067,196502,267076,-1.9477575963999998,-9.327222494799999,0.5036891573,503
111226,196504,267076,-1.9812571127999998,-9.3487578982,0.454636294,504
111614,196545,267044,-2.0267207422,-9.1704926145,0.4331008906,505
111859,196578,267083,-1.9022939669999999,-9.3188476157,0.49531427819999996,506
112127,196614,267138,-1.9800607015,-9.2255275343,0.4402793584,507
112381,196623,267131,-1.9345970721,-9.3631148338,0.5347958510999999,508
112700,196668,267176,-2.0267207422,-9.3367937852,0.4570291166,509
112973,196660,267229,-1.9716858223999998,-9.3224368496,0.3684946804,510
113241,196707,267163,-2.0446669117,-9.3822574146,0.5371886737,511
113511,196742,267179,-1.9764714676,-9.2111705987,0.4019941968,512
113781,196776,267200,-2.0721843716,-9.260223461999999,0.44985064880000003,513
114051,196817,267277,-1.9286150156,-9.2410808812,0.4689932296,514
114301,196857,267263,-1.9836499354,-9.2458665264,0.42592242280000003,515
114567,196864,267331,-2.0147566292,-9.3056870914,0.4331008906,516
114808,196912,267290,-1.9704894111,-9.2638126959,0.42592242280000003,517
115057,196924,267356,-1.9202401365000001,-9.384650237199999,0.41874395499999995,518
115265,196970,267324,-2.0123638066000002,-9.3391866078,0.44386859230000003,519
115508,196945,267320,-1.9525432416,-9.3607220112,0.4510470601,520
115770,196983,267340,-2.0614166699,-9.4911308429,0.5491527867,521
115887,197015,267356,-1.9214365478,-9.3056870914,0.4689932296,522
115449,196960,267300,-1.9740786449999999,-9.2554378168,0.4235296002,523
114189,196861,267270,-1.9908284031999999,-9.1728854371,0.3661018578,524
112738,196706,267186,-2.0662023151,-9.178867493599999,0.4462614149,525
111500,196532,267095,-1.9764714676,-9.379864592,0.4522434714,526
110660,196460,266979,-1.9465611851,-9.2171526552,0.3744767369,527
110101,196351,266980,-2.0183458631,-9.1561356789,0.3804587934,528
109684,196346,266855,-2.0470597343,-9.2697947524,0.4570291166,529
109511,196317,266836,-1.9441683625,-9.2985086236,0.36370903520000003,530
109543,196317,266849,-1.9046867896,-9.3009014462,0.5084748025,531
109613,196288,266829,-1.998006871,-9.260223461999999,0.4570291166,532
109594,196295,266865,-2.0195422744,-9.355936366,0.5395814963,533
109473,196284,266853,-1.9752750562999999,-9.371489712899999,0.4402793584,534
109379,196243,266809,-2.03389921,-9.260223461999999,0.4582255279,535
109333,196242,266828,-2.009970984,-9.3894358824,0.44386859230000003,536
109514,196252,266836,-1.9202401365000001,-9.247062937699999,0.4725824635,537
109697,196230,266843,-2.1499511061,-9.2769732202,0.4079762533,538
109937,196282,266847,-2.0291135648000003,-9.2051885422,0.4163511324,539
110195,196286,266854,-1.9429719511999999,-9.2398844699,0.430708068,540
110471,196300,266840,-1.9417755399,-9.2781696315,0.3684946804,541
110755,196324,266850,-1.938186306,-9.3044906801,0.4462614149,542
111022,196408,266903,-1.9310078382,-9.3236332609,0.394815729,543
111272,196416,266876,-2.0913269524,-9.296115801,0.5000999234,544
111538,196413,266935,-1.9812571127999998,-9.2279203569,0.4331008906,545
111747,196450,266927,-2.0422740890999997,-9.273383986299999,0.4402793584,546
111994,196447,266971,-1.9728822337,-9.1896351953,0.39960137419999997,547
112209,196479,266973,-1.9453647738,-9.3631148338,0.42831524540000004,548
112464,196465,266991,-1.9872391693,-9.3726861242,0.4570291166,549
112683,196519,267022,-2.0027925162,-9.391828705,0.4630111731,550
112934,196564,267030,-2.0362920326,-9.355936366,0.4462614149,551
113189,196548,267033,-2.0147566292,-9.2135634213,0.4522434714,552
113444,196599,267076,-1.8556339263000001,-9.3044906801,0.490528633,553
113714,196621,267084,-1.8999011444,-9.330811728699999,0.502492746,554
113945,196654,267151,-2.0482561456,-9.2626162846,0.4749752861,555
114202,196707,267072,-1.9956140484,-9.2590270507,0.4594219392,556
114458,196717,267139,-2.0051853388,-9.2051885422,0.4043870194,557
114624,196759,267188,-1.9202401365000001,-9.2829552767,0.4235296002,558
115011,196804,267194,-2.0530417908,-9.3020978575,0.4749752861,559
115235,196823,267178,-2.0003996936,-9.4983093107,0.5324030285,560
115472,196855,267224,-1.9477575963999998,-9.2937229784,0.4689932296,561
115254,196912,267267,-2.0195422744,-9.3176512044,0.41156548719999997,562
114266,196778,267196,-1.9274186043000001,-9.2662055185,0.4402793584,563
112902,196643,267055,-2.0267207422,-9.3056870914,0.311066938,564
111797,196502,266934,-2.0410776778,-9.272187575,0.4534398827,565
111060,196462,266907,-1.9082760235,-9.232706002099999,0.47976093129999997,566
110600,196381,266896,-1.9860427579999997,-9.2147598326,0.5000999234,567
110349,196404,266951,-2.1284157027,-9.379864592,0.4295116567,568
110238,196362,266860,-1.9489540077,-9.3894358824,0.3361915753,569
110339,196396,266923,-1.8652052167000002,-9.296115801,0.4402793584,570
110482,196419,266924,-1.9752750562999999,-9.299705034899999,0.4582255279,571
110554,196405,266942,-1.9034903783000001,-9.2937229784,0.40558343069999997,572
110438,196389,266914,-1.9334006607999998,-9.3487578982,0.490528633,573
110418,196380,266933,-1.8580267489000002,-9.2674019298,0.48693939909999995,574
110468,196382,266896,-1.9884355805999998,-9.3415794304,0.442672181,575
110617,196426,266951,-1.9645073545999998,-9.3631148338,0.466600407,576
110871,196425,266951,-2.0291135648000003,-9.3104727366,0.430708068,577
111138,196476,266968,-1.9764714676,-9.236295236,0.4402793584,578
111441,196533,267028,-1.8580267489000002,-9.4145605197,0.4366901245,579
111746,196550,267028,-2.0003996936,-9.3296153174,0.41156548719999997,580
112055,196567,267024,-1.9573288867999998,-9.3367937852,0.5060819799,581
112349,196606,267097,-1.8652052167000002,-9.2518485829,0.48335016519999996,582
112649,196617,267094,-1.8352949342,-9.4241318101,0.4630111731,583
112911,196677,267119,-1.9645073545999998,-9.3044906801,0.430708068,584
113205,196694,267117,-1.9800607015,-9.2111705987,0.5443671415,585
113509,196702,267179,-1.9130616687,-9.410971285799999,0.454636294,586
113706,196750,267144,-2.0075781614,-9.232706002099999,0.46540399569999996,587
114021,196779,267202,-1.9501504189999999,-9.299705034899999,0.5180460929,588
114286,196811,267228,-1.8939190879,-9.2685983411,0.4606183505,589
114538,196838,267243,-1.9716858223999998,-9.296115801,0.5204389155,590
114836,196898,267265,-2.0195422744,-9.2937229784,0.3900300838,591
115095,196891,267307,-2.0003996936,-9.3344009626,0.44985064880000003,592
115365,196932,267274,-1.8987047331,-9.3355973739,0.5132604477,593
115635,196988,267351,-1.9669001771999999,-9.353543543399999,0.4618147618,594
115876,196998,267310,-1.8544375149999999,-9.299705034899999,0.38763726119999997,595
116125,197076,267388,-2.0685951377,-9.2386880586,0.47736810869999996,596
116367,197079,267372,-1.9082760235,-9.3104727366,0.4331008906,597
116625,197071,267394,-2.0482561456,-9.3260260835,0.48574298779999997,598
116802,197100,267377,-2.0422740890999997,-9.273383986299999,0.48335016519999996,599
116373,197092,267403,-2.009970984,-9.2015993083,0.48335016519999996,600
115129,196946,267308,-1.9836499354,-9.2410808812,0.41874395499999995,601
113802,196816,267211,-2.0602202586000002,-9.2853480993,0.44985064880000003,602
112625,196705,267117,-1.9405791285999998,-9.2350988247,0.5419743189,603
111788,196596,267065,-1.9716858223999998,-9.2111705987,0.3888336725,604
111237,196554,267008,-2.0626130812,-9.3822574146,0.5048855686,605
110844,196491,266927,-2.0961125976,-9.3164547931,0.47856452,606
110653,196433,266951,-2.0267207422,-9.2279203569,0.42831524540000004,607
110682,196428,266942,-2.0075781614,-9.2949193897,0.5156532703,608
110760,196473,266998,-2.0267207422,-9.3894358824,0.5036891573,609
110756,196466,266924,-2.1104695332,-9.3523471321,0.382851616,610
110640,196435,266966,-1.9513468303000001,-9.296115801,0.3852444386,611
110630,196389,266962,-2.009970984,-9.355936366,0.5347958510999999,612
110672,196397,266923,-1.9932212258000002,-9.3164547931,0.3852444386,613
110824,196454,266912,-2.0279171535,-9.2685983411,0.49172504429999997,614
111037,196422,266995,-1.9537396529,-9.355936366,0.47138605219999996,615
111296,196471,266957,-2.0554346134,-9.3822574146,0.4642075844,616
111574,196490,267018,-2.0638094925,-9.2805624541,0.39720855159999996,617
111868,196525,267037,-2.1870398563999998,-9.4097748745,0.49172504429999997,618
112173,196592,267063,-1.9274186043000001,-9.1932244292,0.3684946804,619
112458,196597,267082,-1.9836499354,-9.2099741874,0.48693939909999995,620
112753,196644,267083,-1.9633109433,-9.308079914,0.3553341561,621
113018,196652,267117,-2.0195422744,-9.3415794304,0.430708068,622
113284,196682,267142,-1.9704894111,-9.3332045513,0.39960137419999997,623
113581,196702,267217,-2.0494525569,-9.272187575,0.5419743189,624
113822,196762,267137,-2.0554346134,-9.2853480993,0.47138605219999996,625
114079,196727,267178,-2.009970984,-9.2877409219,0.44985064880000003,626
114363,196775,267238,-1.9645073545999998,-9.274580397600001,0.42831524540000004,627
114616,196814,267216,-2.0865413072,-9.2374916473,0.442672181,628
114897,196865,267239,-2.0913269524,-9.3571327773,0.502492746,629
115157,196909,267243,-2.0279171535,-9.4576313265,0.4331008906,630
115428,196907,267308,-2.1044874766999997,-9.2542414055,0.466600407,631
115670,196943,267334,-1.998006871,-9.353543543399999,0.4570291166,632
115917,196987,267265,-2.0291135648000003,-9.2853480993,0.4474578262,633
116171,196994,267356,-1.9968104597,-9.296115801,0.4390829471,634
116356,197023,267287,-1.8939190879,-9.2279203569,0.47976093129999997,635
116596,197059,267307,-1.9740786449999999,-9.3104727366,0.4414757697,636
116850,197070,267318,-1.9860427579999997,-9.206384953499999,0.5838487144,637
116917,197053,267387,-2.0757736055,-9.5581298757,0.490528633,638
116335,197005,267357,-1.9573288867999998,-9.3188476157,0.4462614149,639
115071,196842,267246,-2.0195422744,-9.3367937852,0.5371886737,640
113649,196717,267100,-1.9848463467,-9.3152583818,0.4522434714,641
112468,196542,267043,-1.9680965885,-9.2949193897,0.4749752861,642
111759,196468,267018,-1.938186306,-9.2590270507,0.48933222169999996,643
111236,196422,266921,-1.9525432416,-9.286544510599999,0.3744767369,644
110873,196382,266918,-1.9585252981,-9.308079914,0.4474578262,645
110735,196322,266850,-1.7754743692000001,-9.3367937852,0.47377887479999997,646
110710,196365,266861,-1.9824535241,-9.4444708022,0.4163511324,647
110733,196323,266887,-1.9860427579999997,-9.2015993083,0.4642075844,648
110701,196295,266921,-1.9393827173,-9.273383986299999,0.48574298779999997,649
110581,196317,266804,-2.0159530405,-9.2853480993,0.4821537539,650
110497,196263,266818,-1.9513468303000001,-9.353543543399999,0.43429730190000004,651
110536,196226,266847,-2.0063817501,-9.3702933016,0.48574298779999997,652
110659,196277,266823,-2.03389921,-9.3009014462,0.4761716974,653
110852,196290,266836,-2.03389921,-9.3128655592,0.48574298779999997,654
111117,196275,266858,-1.9537396529,-9.2674019298,0.42831524540000004,655
111362,196306,266881,-1.9501504189999999,-9.3032942688,0.454636294,656
111648,196346,266913,-1.9908284031999999,-9.2398844699,0.4019941968,657
111903,196356,266934,-1.9178473139,-9.2303131795,0.5108676251000001,658
112193,196354,266897,-1.9848463467,-9.3511507208,0.3780659708,659
112418,196395,266906,-2.0673987264,-9.3140619705,0.4677968183,660
112656,196404,266925,-1.9166509025999998,-9.3344009626,0.5324030285,661
112897,196406,266994,-1.9836499354,-9.2685983411,0.4474578262,662
113131,196467,267007,-2.0626130812,-9.3463650756,0.39720855159999996,663
113327,196470,267028,-2.1080767106,-9.2973122123,0.5371886737,664
113590,196513,267037,-2.0602202586000002,-9.2793660428,0.3780659708,665
113826,196556,267006,-2.0602202586000002,-9.3822574146,0.442672181,666
114087,196553,267051,-2.0171494518,-9.3702933016,0.442672181,667
114355,196604,267020,-2.057827436,-9.2506521716,0.4331008906,668
114603,196598,267026,-2.009970984,-9.2398844699,0.48693939909999995,669
114857,196636,267113,-1.9800607015,-9.286544510599999,0.38763726119999997,670
115123,196668,267108,-1.8843477975,-9.3726861242,0.4402793584,671
115362,196646,267159,-2.009970984,-9.1980100744,0.4354937132,672
115649,196741,267174,-1.9956140484,-9.3738825355,0.4354937132,673
115863,196761,267151,-2.0434705004000002,-9.175278259699999,0.5168496816,674
116163,196813,267228,-2.0195422744,-9.308079914,0.5120640364,675
116258,196857,267223,-2.0291135648000003,-9.3296153174,0.5072783912000001,676
115705,196786,267195,-1.9860427579999997,-9.3009014462,0.3661018578,677
114606,196663,267121,-2.1379869930999997,-9.272187575,0.4606183505,678
113302,196539,267040,-1.9944176371,-9.327222494799999,0.42592242280000003,679
112315,196439,266925,-1.9262221929999999,-9.176474671,0.4522434714,680
111693,196341,266909,-1.9752750562999999,-9.2709911637,0.5180460929,681
111323,196330,266901,-1.9716858223999998,-9.1800639049,0.42831524540000004,682
111096,196316,266888,-1.9477575963999998,-9.2434737038,0.430708068,683
111076,196310,266851,-1.9429719511999999,-9.2757768089,0.39720855159999996,684
111161,196291,266859,-1.91425808,-9.4337031005,0.48693939909999995,685
111239,196218,266906,-1.998006871,-9.3344009626,0.5060819799,686
111258,196320,266919,-1.7515461432000001,-9.284151688,0.4163511324,687
111135,196293,266904,-2.0422740890999997,-9.21236701,0.47138605219999996,688
111146,196305,266892,-2.0889341298,-9.2626162846,0.4402793584,689
111215,196303,266918,-1.9860427579999997,-9.3786681807,0.4725824635,690
111436,196356,266946,-1.8747765071,-9.2949193897,0.442672181,691
111628,196360,266959,-1.9728822337,-9.3152583818,0.47976093129999997,692
111913,196397,266998,-2.0542382021,-9.2638126959,0.40917266459999996,693
112191,196368,266980,-1.9250257817,-9.2015993083,0.5491527867,694
112491,196438,267023,-1.8628123941,-9.3056870914,0.5096712138,695
112767,196509,267067,-2.1116659445,-9.4061856406,0.44985064880000003,696
113034,196499,267060,-1.9956140484,-9.2554378168,0.47976093129999997,697
113330,196562,267093,-2.0530417908,-9.296115801,0.4235296002,698
113610,196599,267073,-2.0877377184999997,-9.438488745699999,0.490528633,699
113878,196626,267158,-2.0267207422,-9.367900479,0.4474578262,700
114151,196640,267102,-1.8987047331,-9.3128655592,0.4630111731,701
114432,196682,267177,-1.9728822337,-9.3870430598,0.4414757697,702
114602,196713,267144,-1.8819549749,-9.3116691479,0.47377887479999997,703
114963,196752,267170,-1.9429719511999999,-9.2147598326,0.47736810869999996,704
115188,196783,267209,-1.9298114269,-9.4253282214,0.47736810869999996,705
115488,196787,267250,-1.9453647738,-9.3690968903,0.4749752861,706
115720,196828,267277,-2.0709879603,-9.2829552767,0.5192425042,707
115992,196867,267271,-2.0147566292,-9.3655076564,0.4701896409,708
116268,196922,267299,-2.093719775,-9.3367937852,0.4235296002,709
116513,196920,267286,-1.8939190879,-9.2578306394,0.48095734259999995,710
116743,196967,267408,-2.0925233637,-9.2697947524,0.4689932296,711
117004,196990,267358,-1.9633109433,-9.4013999954,0.5300102059,712
117273,196995,267385,-2.0315063874,-9.3116691479,0.49531427819999996,713
117289,197018,267423,-2.1092731219,-9.3894358824,0.4845465765,714
116598,196940,267323,-1.938186306,-9.2410808812,0.4582255279,715
115268,196794,267290,-1.9764714676,-9.1872423727,0.3613162126,716
113873,196653,267163,-1.9238293703999998,-9.2913301558,0.4462614149,717
112801,196569,267041,-2.0075781614,-9.2039921309,0.49770710079999997,718
112065,196447,267000,-1.9178473139,-9.2398844699,0.4331008906,719
111543,196411,266972,-2.03389921,-9.2925265671,0.47856452,720
111249,196342,266957,-2.0123638066000002,-9.4181497536,0.44985064880000003,721
111073,196307,266916,-2.0709879603,-9.2937229784,0.33140593009999997,722
111110,196298,266891,-2.0039889275,-9.2614198733,0.4618147618,723
111188,196314,266962,-1.9716858223999998,-9.320044027,0.5156532703,724
111135,196317,266896,-1.8987047331,-9.3643112451,0.41874395499999995,725
111030,196312,266901,-1.9884355805999998,-9.4241318101,0.48095734259999995,726
111003,196303,266925,-1.9274186043000001,-9.4588277378,0.502492746,727
111065,196287,266882,-1.9501504189999999,-9.4576313265,0.41874395499999995,728
111236,196343,266910,-2.0291135648000003,-9.1800639049,0.40917266459999996,729
111452,196337,266942,-2.0362920326,-9.3176512044,0.47138605219999996,730
111708,196348,266962,-2.0386848552,-9.3631148338,0.4450650036,731
112019,196389,267007,-1.998006871,-9.2518485829,0.4594219392,732
112303,196395,266984,-1.8652052167000002,-9.2817588654,0.454636294,733
112603,196431,266998,-1.9094724347999998,-9.3655076564,0.41874395499999995,734
112851,196475,267072,-2.0027925162,-9.3128655592,0.466600407,735
113118,196507,267092,-2.0566310246999997,-9.224331123,0.5491527867,736
113409,196540,267075,-1.9573288867999998,-9.2087777761,0.49770710079999997,737
113649,196552,267122,-2.0051853388,-9.2315095908,0.4019941968,738
113906,196562,267177,-1.9429719511999999,-9.2303131795,0.4845465765,739
114167,196603,267100,-1.9334006607999998,-9.3643112451,0.4522434714,740
114401,196628,267135,-2.1200408236,-9.308079914,0.35892339,741
114682,196626,267152,-2.0291135648000003,-9.2925265671,0.39960137419999997,742
114931,196654,267150,-2.0362920326,-9.3690968903,0.4570291166,743
115187,196703,267168,-1.9812571127999998,-9.2183490665,0.5611168997,744
115442,196711,267192,-2.0147566292,-9.3009014462,0.394815729,745
115713,196731,267220,-2.0255243308999997,-9.2231347117,0.42831524540000004,746
116000,196798,267227,-1.9477575963999998,-9.2973122123,0.5132604477,747
116112,196799,267244,-1.9609181207,-9.4133641084,0.48574298779999997,748
116412,196811,267299,-2.1020946541,-9.284151688,0.4474578262,749
116638,196836,267228,-2.0650059038,-9.3296153174,0.3804587934,750
116876,196867,267272,-2.0350956213,-9.4600241491,0.37567314820000003,751
117111,196858,267268,-2.1810577999,-9.3009014462,0.4989035121,752
117118,196879,267269,-2.0195422744,-9.290133744499999,0.48335016519999996,753
116333,196782,267242,-1.9836499354,-9.2183490665,0.42831524540000004,754
114998,196639,267124,-2.1284157027,-9.3870430598,0.40917266459999996,755
113624,196496,267034,-1.9489540077,-9.2530449942,0.3732803256,756
112581,196316,266898,-1.9716858223999998,-9.2446701151,0.49770710079999997,757
111869,196247,266871,-2.0051853388,-9.3379901965,0.42831524540000004,758
111382,196242,266881,-2.03389921,-9.3296153174,0.4474578262,759
111083,196197,266860,-2.0362920326,-9.4145605197,0.4606183505,760
110979,196159,266789,-2.0530417908,-9.299705034899999,0.4510470601,761
111009,196193,266782,-2.0518453795,-9.3906322937,0.40917266459999996,762
111018,196120,266797,-2.0386848552,-9.2458665264,0.4522434714,763
110934,196143,266794,-1.9477575963999998,-9.2913301558,0.40917266459999996,764
110793,196057,266763,-1.9501504189999999,-9.274580397600001,0.41156548719999997,765
110734,196108,266739,-2.0554346134,-9.272187575,0.454636294,766
110762,196067,266741,-2.0662023151,-9.2386880586,0.4618147618,767
110929,196076,266777,-1.9920248145,-9.4301138666,0.35892339,768
111155,196145,266842,-2.0015961049,-9.2147598326,0.4163511324,769
111376,196173,266807,-2.0063817501,-9.2494557603,0.48933222169999996,770
111646,196208,266857,-1.8963119105000001,-9.2171526552,0.39720855159999996,771
111927,196244,266860,-1.9669001771999999,-9.2566342281,0.47976093129999997,772
112225,196252,266921,-1.9345970721,-9.3032942688,0.42831524540000004,773
112506,196252,266902,-2.069791549,-9.353543543399999,0.5467599640999999,774
112800,196302,266918,-1.9716858223999998,-9.2793660428,0.47138605219999996,775
113061,196362,267034,-2.1248264688,-9.296115801,0.4163511324,776
113327,196387,267024,-1.9322042495,-9.3583291886,0.5132604477,777
113598,196394,266989,-2.0434705004000002,-9.265009107200001,0.4139583098,778
113884,196422,267066,-1.9334006607999998,-9.327222494799999,0.4522434714,779
114168,196501,267019,-1.9501504189999999,-9.265009107200001,0.4331008906,780
114447,196494,267092,-1.9226329591,-9.495916488099999,0.4402793584,781
114744,196563,267140,-1.9944176371,-9.2805624541,0.5419743189,782
115031,196608,267139,-1.9298114269,-9.1704926145,0.382851616,783
115339,196682,267129,-2.0291135648000003,-9.3176512044,0.5359922624,784
115633,196674,267202,-2.0709879603,-9.3152583818,0.5898307709,785
115913,196751,267256,-2.1343977592,-9.384650237199999,0.442672181,786
116171,196768,267273,-1.9417755399,-9.3032942688,0.5000999234,787
116456,196806,267251,-1.9549360641999998,-9.260223461999999,0.4821537539,788
116746,196841,267273,-2.0003996936,-9.3702933016,0.48933222169999996,789
116866,196856,267305,-1.9585252981,-9.384650237199999,0.5000999234,790
116366,196822,267255,-2.0027925162,-9.332008140000001,0.4642075844,791
115149,196686,267201,-1.8795621523000001,-9.320044027,0.4689932296,792
113778,196549,267077,-1.9345970721,-9.3391866078,0.48693939909999995,793
112678,196381,267041,-2.0889341298,-9.3702933016,0.4354937132,794
111927,196333,266898,-2.0434705004000002,-9.1573320902,0.4331008906,795
111386,196302,266950,-1.9740786449999999,-9.2925265671,0.4570291166,796
111036,196214,266841,-2.0003996936,-9.265009107200001,0.48574298779999997,797
110870,196185,266867,-1.9369898947,-9.3296153174,0.48335016519999996,798
110919,196171,266874,-1.9788642901999998,-9.3379901965,0.48335016519999996,799
111021,196240,266879,-1.9872391693,-9.3152583818,0.4630111731,800
111022,196194,266863,-1.9405791285999998,-9.2542414055,0.5084748025,801
110980,196203,266857,-1.962114532,-9.3870430598,0.454636294,802
110914,196166,266837,-1.9298114269,-9.2685983411,0.4570291166,803
110987,196180,266920,-2.0362920326,-9.379864592,0.526420972,804
111111,196196,266885,-2.0781664281,-9.343972252999999,0.4989035121,805
111392,196182,266909,-2.045863323,-9.2590270507,0.48574298779999997,806
111646,196248,266904,-2.1930219129,-9.2769732202,0.5443671415,807
111955,196293,266889,-1.9573288867999998,-9.4372923344,0.48335016519999996,808
112272,196311,266965,-2.021935097,-9.3619184225,0.36370903520000003,809
112537,196323,266994,-2.1116659445,-9.3463650756,0.42831524540000004,810
112847,196378,267037,-1.9657037659,-9.3583291886,0.4558327053,811
113122,196398,267025,-1.9046867896,-9.3738825355,0.4354937132,812
113431,196428,267055,-2.0075781614,-9.4695954395,0.4570291166,813
113689,196450,267089,-1.938186306,-9.385846648500001,0.490528633,814
113943,196496,267131,-2.0889341298,-9.299705034899999,0.48693939909999995,815
114219,196484,267104,-2.0470597343,-9.3619184225,0.4821537539,816
114510,196524,267144,-2.03389921,-9.3152583818,0.5168496816,817
114762,196588,267179,-2.081755662,-9.3966143502,0.48574298779999997,818
115037,196605,267160,-1.9417755399,-9.260223461999999,0.4331008906,819
115313,196614,267155,-2.0147566292,-9.308079914,0.5300102059,820
115593,196712,267222,-2.0291135648000003,-9.4025964067,0.4845465765,821
115875,196707,267230,-2.0913269524,-9.273383986299999,0.4618147618,822
116139,196715,267268,-2.0039889275,-9.2913301558,0.5156532703,823
116381,196769,267235,-1.9190437251999999,-9.3104727366,0.32901310749999996,824
116621,196792,267302,-2.0350956213,-9.2805624541,0.4594219392,825
116891,196795,267277,-1.9058832009,-9.2027957196,0.4019941968,826
117155,196877,267326,-1.9573288867999998,-9.4061856406,0.5539384319,827
117298,196880,267316,-1.9417755399,-9.1920280179,0.4474578262,828
116878,196832,267208,-1.7934205387,-9.3116691479,0.48095734259999995,829
115704,196720,267268,-1.9657037659,-9.3583291886,0.35174492220000003,830
114323,196593,267160,-1.9561324755,-9.3296153174,0.4402793584,831
113211,196420,266967,-2.0997018315,-9.3224368496,0.5000999234,832
112379,196336,267002,-1.9752750562999999,-9.2829552767,0.4522434714,833
111859,196294,266953,-2.0673987264,-9.3894358824,0.5347958510999999,834
111502,196274,266908,-1.9992032822999999,-9.3212404383,0.4390829471,835
111321,196229,266931,-1.9274186043000001,-9.2697947524,0.4725824635,836
111357,196216,266943,-2.1750757434,-9.367900479,0.48933222169999996,837
111416,196214,266920,-2.0147566292,-9.2817588654,0.4390829471,838
111380,196226,266855,-2.045863323,-9.2458665264,0.5072783912000001,839
111272,196236,266874,-1.9537396529,-9.327222494799999,0.4354937132,840
111194,196104,266916,-1.9202401365000001,-9.2303131795,0.4414757697,841
111287,196159,266906,-1.9657037659,-9.2662055185,0.43429730190000004,842
111398,196215,266900,-1.9357934834,-9.332008140000001,0.4821537539,843
111616,196208,266893,-1.9812571127999998,-9.3367937852,0.4163511324,844
111871,196239,266931,-1.9645073545999998,-9.3152583818,0.43788653580000003,845
112171,196277,266949,-2.0303099761,-9.3128655592,0.4570291166,846
112470,196338,266959,-2.021935097,-9.3116691479,0.48574298779999997,847
112755,196330,266952,-2.0039889275,-9.4002035841,0.3780659708,848
113033,196385,267040,-2.0231315083,-9.273383986299999,0.5012963347,849
113247,196421,267023,-2.0207386857,-9.3176512044,0.43788653580000003,850
113598,196445,267059,-1.9501504189999999,-9.343972252999999,0.4139583098,851
113829,196452,267058,-1.9345970721,-9.420542576199999,0.3278166962,852
114105,196477,267068,-2.0362920326,-9.3954179389,0.4725824635,853
114348,196501,267084,-1.8699908619,-9.3104727366,0.4211367776,854
114605,196536,267110,-2.057827436,-9.3607220112,0.5204389155,855
114850,196542,267143,-1.9824535241,-9.1573320902,0.47976093129999997,856
115143,196538,267101,-1.9357934834,-9.3260260835,0.4534398827,857
115396,196613,267199,-1.9992032822999999,-9.2853480993,0.40917266459999996,858
115551,196624,267148,-2.0171494518,-9.224331123,0.4450650036,859
115918,196668,267156,-1.9645073545999998,-9.2769732202,0.4881358104,860
116164,196666,267227,-1.9824535241,-9.3068835027,0.4618147618,861
116388,196661,267249,-1.9812571127999998,-9.3726861242,0.5000999234,862
116628,196721,267240,-1.8831513862,-9.3750789468,0.41276189849999995,863
116853,196733,267257,-1.8747765071,-9.345168664300001,0.3182454058,864
117104,196743,267302,-1.9716858223999998,-9.3104727366,0.5563312545,865
117291,196769,267244,-2.105683888,-9.3152583818,0.442672181,866
117062,196713,267237,-2.0506489682,-9.3248296722,0.4043870194,867
116065,196657,267186,-2.0913269524,-9.2949193897,0.4211367776,868
114686,196454,267135,-1.9286150156,-9.2386880586,0.33738798659999997,869
113484,196359,266983,-2.0901305410999997,-9.2554378168,0.44985064880000003,870
112614,196231,266885,-1.962114532,-9.367900479,0.4749752861,871
112026,196172,266896,-1.8197415872999998,-9.2566342281,0.4821537539,872
111633,196123,266846,-1.8987047331,-9.3906322937,0.4043870194,873
111294,196096,266773,-2.081755662,-9.3774717694,0.4606183505,874
111375,196096,266849,-1.8783657409999999,-9.2697947524,0.4402793584,875
111425,196129,266764,-2.069791549,-9.3068835027,0.4103690759,876
111410,196074,266803,-1.9369898947,-9.2626162846,0.49651068949999994,877
111284,196078,266795,-1.9393827173,-9.233902413400001,0.4462614149,878
111182,196026,266713,-1.9417755399,-9.3487578982,0.4510470601,879
111161,196023,266715,-1.938186306,-9.2709911637,0.4271188341,880
111254,196052,266777,-1.7922241274,-9.2889373332,0.4558327053,881
111421,196056,266771,-1.9884355805999998,-9.3188476157,0.41156548719999997,882
111629,196064,266799,-1.9740786449999999,-9.3056870914,0.47377887479999997,883
111889,196079,266820,-1.9549360641999998,-9.3475614869,0.4211367776,884
112198,196133,266813,-1.9417755399,-9.2781696315,0.44985064880000003,885
112456,196145,266854,-2.03389921,-9.3655076564,0.4402793584,886
112715,196183,266884,-1.8472590472,-9.3882394711,0.4522434714,887
112955,196248,266893,-2.0901305410999997,-9.2518485829,0.3613162126,888
113244,196234,266906,-1.9932212258000002,-9.340383019099999,0.4354937132,889
113494,196262,266898,-2.0015961049,-9.286544510599999,0.4331008906,890
113766,196282,266948,-1.9585252981,-9.232706002099999,0.41874395499999995,891
114030,196339,266981,-1.9836499354,-9.2554378168,0.42831524540000004,892
114278,196354,266941,-1.9872391693,-9.2817588654,0.5084748025,893
114564,196391,267033,-1.9645073545999998,-9.2805624541,0.37567314820000003,894
114848,196448,267010,-1.9417755399,-9.3152583818,0.5826523031,895
115143,196486,267011,-1.9932212258000002,-9.3750789468,0.4689932296,896
115423,196528,267088,-1.8819549749,-9.2793660428,0.41156548719999997,897
115709,196561,267137,-1.9465611851,-9.3176512044,0.40917266459999996,898
116002,196581,267149,-2.1379869930999997,-9.3236332609,0.5228317381,899
116265,196614,267205,-1.9716858223999998,-9.2386880586,0.4522434714,900
116552,196668,267188,-1.8963119105000001,-9.2255275343,0.47377887479999997,901
116852,196737,267215,-2.0542382021,-9.2877409219,0.4534398827,902
116873,196709,267213,-2.0506489682,-9.3284189061,0.4618147618,903
116184,196630,267136,-2.045863323,-9.296115801,0.37567314820000003,904
114940,196512,267160,-1.9812571127999998,-9.4169533423,0.42831524540000004,905
113656,196384,267036,-2.0291135648000003,-9.2255275343,0.49292145559999995,906
112680,196306,266936,-1.9154544913,-9.320044027,0.46540399569999996,907
112065,196230,266907,-2.0434705004000002,-9.3930251163,0.4881358104,908
111572,196147,266853,-2.0566310246999997,-9.2315095908,0.5012963347,909
111296,196137,266834,-2.1475582835,-9.242277292499999,0.4474578262,910
111228,196105,266807,-1.9202401365000001,-9.3344009626,0.442672181,911
111338,196167,266867,-1.9274186043000001,-9.2805624541,0.5180460929,912
111307,196142,266825,-1.8592231602,-9.2985086236,0.430708068,913
111341,196144,266801,-1.9573288867999998,-9.1896351953,0.40917266459999996,914
111293,196120,266852,-1.8053846516999998,-9.2937229784,0.490528633,915
111276,196097,266804,-1.9944176371,-9.2937229784,0.430708068,916
111385,196113,266808,-2.1332013479,-9.248259349,0.4402793584,917
111594,196139,266873,-1.9788642901999998,-9.188438784,0.39720855159999996,918
111819,196137,266858,-1.9345970721,-9.3152583818,0.36969109170000003,919
112098,196187,266839,-1.8951154991999999,-9.410971285799999,0.37567314820000003,920
112389,196210,266925,-1.9860427579999997,-9.2494557603,0.4247260115,921
112702,196266,266912,-1.9130616687,-9.2685983411,0.4594219392,922
112979,196260,266947,-1.9836499354,-9.2889373332,0.40677984199999995,923
113257,196322,266976,-1.9692929998,-9.2937229784,0.4677968183,924
113540,196326,267001,-1.9645073545999998,-9.4097748745,0.44386859230000003,925
113814,196383,267006,-1.9525432416,-9.3009014462,0.4019941968,926
114095,196420,267035,-1.9010975557,-9.3511507208,0.5563312545,927
114326,196420,267018,-1.9884355805999998,-9.175278259699999,0.5395814963,928
114609,196488,267090,-2.0279171535,-9.3056870914,0.4235296002,929
114881,196503,267083,-1.9669001771999999,-9.2446701151,0.48574298779999997,930
115146,196522,267103,-1.9752750562999999,-9.320044027,0.43788653580000003,931
115407,196544,267148,-1.8963119105000001,-9.2853480993,0.3924229064,932
115577,196560,267147,-1.9477575963999998,-9.3104727366,0.39361931769999997,933
115965,196625,267202,-1.9453647738,-9.3595255999,0.46540399569999996,934
116194,196670,267182,-1.8915262653,-9.2039921309,0.5359922624,935
116471,196698,267238,-2.0171494518,-9.2793660428,0.42592242280000003,936
116754,196706,267225,-1.9776678789,-9.3260260835,0.37567314820000003,937
116990,196744,267257,-2.0446669117,-9.3702933016,0.4331008906,938
117205,196768,267247,-1.9836499354,-9.3882394711,0.49651068949999994,939
117454,196807,267272,-2.0123638066000002,-9.3104727366,0.47856452,940
117490,196811,267312,-1.8927226765999998,-9.3499543095,0.48693939909999995,941
116829,196737,267215,-2.0051853388,-9.2566342281,0.41874395499999995,942
115513,196603,267158,-2.0446669117,-9.3882394711,0.4390829471,943
114194,196472,267026,-1.9944176371,-9.2614198733,0.38763726119999997,944
113158,196350,267051,-2.0291135648000003,-9.3463650756,0.5551348432,945
112429,196265,266924,-1.8963119105000001,-9.3894358824,0.466600407,946
111964,196225,266839,-1.9585252981,-9.3786681807,0.5324030285,947
111594,196172,266852,-2.03389921,-9.4253282214,0.4689932296,948
111459,196156,266809,-2.1367905818,-9.272187575,0.37567314820000003,949
111526,196135,266869,-1.9322042495,-9.3619184225,0.4402793584,950
111580,196199,266796,-1.8197415872999998,-9.3248296722,0.48335016519999996,951
111528,196145,266792,-2.0243279196,-9.3822574146,0.5180460929,952
111446,196126,266803,-1.9585252981,-9.4301138666,0.5503491979999999,953
111422,196113,266783,-1.9788642901999998,-9.3487578982,0.4761716974,954
111481,196122,266787,-1.9226329591,-9.2853480993,0.4558327053,955
111622,196173,266886,-2.0386848552,-9.2315095908,0.4558327053,956
111878,196175,266864,-2.0003996936,-9.284151688,0.430708068,957
112139,196207,266830,-1.9286150156,-9.2662055185,0.4642075844,958
112416,196237,266821,-1.9716858223999998,-9.206384953499999,0.5108676251000001,959
112687,196244,266904,-2.057827436,-9.290133744499999,0.49292145559999995,960
112937,196282,266942,-2.0027925162,-9.3774717694,0.4331008906,961
113225,196292,266915,-2.0003996936,-9.229116768199999,0.4689932296,962
113485,196301,266936,-2.0147566292,-9.308079914,0.4474578262,963
113753,196334,266932,-2.0147566292,-9.2506521716,0.3888336725,964
114018,196363,266986,-1.9884355805999998,-9.3009014462,0.4331008906,965
114292,196378,267026,-1.9776678789,-9.2685983411,0.3661018578,966
114520,196384,267029,-2.045863323,-9.3415794304,0.39960137419999997,967
114754,196461,267034,-2.1008982428,-9.2398844699,0.394815729,968
115002,196493,266983,-1.9944176371,-9.3415794304,0.4331008906,969
115252,196482,267030,-2.0662023151,-9.2805624541,0.4761716974,970
115481,196517,267038,-2.0602202586000002,-9.320044027,0.3804587934,971
115723,196510,267028,-1.9728822337,-9.3164547931,0.4594219392,972
115980,196538,267030,-1.8963119105000001,-9.2913301558,0.47377887479999997,973
116205,196565,267096,-2.0805592507,-9.247062937699999,0.40677984199999995,974
116422,196580,267142,-2.03389921,-9.2267239456,0.454636294,975
116667,196614,267099,-2.1068802992999998,-9.2674019298,0.4450650036,976
116886,196637,267110,-2.0147566292,-9.1968136631,0.4522434714,977
117133,196666,267122,-1.9058832009,-9.2350988247,0.40917266459999996,978
117344,196700,267153,-2.069791549,-9.332008140000001,0.5611168997,979
117231,196691,267196,-1.9070796122,-9.330811728699999,0.4019941968,980
116364,196559,267123,-2.0650059038,-9.3954179389,0.35174492220000003,981
115014,196437,267001,-2.0315063874,-9.2877409219,0.48693939909999995,982
113726,196298,266896,-1.9645073545999998,-9.385846648500001,0.454636294,983
112831,196220,266837,-1.9633109433,-9.308079914,0.47138605219999996,984
112132,196118,266802,-2.1032910654,-9.309276325299999,0.4881358104,985
111685,196062,266727,-1.9489540077,-9.2231347117,0.4474578262,986
111399,195955,266785,-1.9250257817,-9.206384953499999,0.4510470601,987
111368,195998,266633,-2.0518453795,-9.3260260835,0.4211367776,988
111411,196006,266668,-2.0745771942,-9.2614198733,0.37567314820000003,989
111371,196038,266743,-2.0829520733,-9.320044027,0.442672181,990
111276,195994,266631,-1.9752750562999999,-9.4719882621,0.42233318890000004,991
111177,195969,266648,-2.1068802992999998,-9.1944208405,0.4570291166,992
111137,195966,266695,-1.9657037659,-9.340383019099999,0.5048855686,993
111223,195957,266658,-2.0051853388,-9.3284189061,0.5204389155,994
111422,196006,266690,-2.0386848552,-9.308079914,0.4881358104,995
111633,195989,266735,-2.1080767106,-9.296115801,0.46540399569999996,996
111924,196042,266750,-2.1846470338,-9.3391866078,0.4618147618,997
112189,196066,266741,-2.0470597343,-9.2817588654,0.394815729,998
112485,196124,266820,-2.0530417908,-9.2913301558,0.41156548719999997,999
112787,196184,266800,-1.9429719511999999,-9.391828705,0.4331008906,1000
113085,196199,266830,-2.0291135648000003,-9.2781696315,0.4019941968,1001
113366,196194,266904,-2.0374884439,-9.3367937852,0.4989035121,1002
113638,196253,266876,-1.8843477975,-9.4229353988,0.42592242280000003,1003
113905,196263,266933,-2.0482561456,-9.2638126959,0.37567314820000003,1004
114206,196376,266919,-2.03389921,-9.3056870914,0.4211367776,1005
114410,196336,266958,-1.9082760235,-9.3296153174,0.4534398827,1006
114781,196372,266972,-1.9130616687,-9.343972252999999,0.47856452,1007
115076,196432,267000,-2.0015961049,-9.371489712899999,0.4354937132,1008
115349,196454,267014,-2.021935097,-9.2889373332,0.4331008906,1009
115637,196518,267060,-1.8747765071,-9.4707918508,0.49651068949999994,1010
115918,196572,267078,-2.0434705004000002,-9.3786681807,0.3900300838,1011
116213,196572,267125,-1.9250257817,-9.2697947524,0.43429730190000004,1012
116477,196614,267108,-1.9812571127999998,-9.3655076564,0.48693939909999995,1013
116751,196660,267077,-2.057827436,-9.3894358824,0.3900300838,1014
117020,196684,267165,-2.0602202586000002,-9.284151688,0.4881358104,1015
117275,196741,267168,-1.8616159827999998,-9.3499543095,0.41515472109999996,1016
117250,196731,267169,-2.0434705004000002,-9.3655076564,0.46540399569999996,1017
116437,196690,267105,-1.8915262653,-9.2829552767,0.47856452,1018
115128,196499,267073,-1.9238293703999998,-9.2267239456,0.4271188341,1019
113821,196390,266950,-2.0267207422,-9.4025964067,0.4235296002,1020
112725,196299,266861,-1.998006871,-9.3104727366,0.4630111731,1021
112154,196213,266844,-1.9764714676,-9.1776710823,0.43429730190000004,1022
111647,196108,266798,-1.9992032822999999,-9.286544510599999,0.48335016519999996,1023
111357,196128,266772,-2.0434705004000002,-9.2805624541,0.4450650036,1024
111225,196103,266757,-2.0530417908,-9.2135634213,0.4630111731,1025
111319,196097,266726,-2.0530417908,-9.3104727366,0.430708068,1026
111390,196110,266728,-1.9764714676,-9.2554378168,0.454636294,1027
111331,196093,266713,-1.9645073545999998,-9.3152583818,0.4474578262,1028
111258,196060,266735,-2.0362920326,-9.3128655592,0.41156548719999997,1029
111248,196060,266718,-1.9716858223999998,-9.3344009626,0.43429730190000004,1030
111371,196079,266783,-1.8329021116,-9.3690968903,0.4642075844,1031
111529,196095,266714,-1.9094724347999998,-9.2697947524,0.4211367776,1032
111771,196113,266724,-2.0362920326,-9.2709911637,0.37567314820000003,1033
112068,196118,266821,-1.9489540077,-9.2374916473,0.39720855159999996,1034
112357,196186,266827,-2.0123638066000002,-9.3894358824,0.4689932296,1035
112642,196241,266846,-1.9250257817,-9.3583291886,0.4103690759,1036
112949,196223,266847,-2.045863323,-9.3128655592,0.4414757697,1037
113227,196285,266866,-2.0147566292,-9.327222494799999,0.47138605219999996,1038
113514,196298,266984,-1.9429719511999999,-9.3032942688,0.37567314820000003,1039
113815,196342,266955,-1.9010975557,-9.320044027,0.39720855159999996,1040
114061,196366,266963,-1.9286150156,-9.355936366,0.49172504429999997,1041
114316,196382,267009,-2.093719775,-9.2578306394,0.4331008906,1042
114512,196463,266999,-2.0769700168,-9.3930251163,0.4594219392,1043
114889,196437,267010,-1.8556339263000001,-9.2985086236,0.48693939909999995,1044
115142,196497,267068,-1.8939190879,-9.3128655592,0.4163511324,1045
115394,196567,267084,-1.8843477975,-9.3415794304,0.5168496816,1046
115602,196594,267073,-2.0350956213,-9.3260260835,0.44985064880000003,1047
115953,196589,267073,-2.1032910654,-9.3415794304,0.40917266459999996,1048
116209,196614,267134,-2.021935097,-9.3966143502,0.4139583098,1049
116481,196608,267135,-1.9561324755,-9.3152583818,0.4761716974,1050
116733,196686,267125,-1.9728822337,-9.2757768089,0.5395814963,1051
116995,196696,267111,-2.0793628394,-9.2506521716,0.3804587934,1052
117237,196700,267168,-2.0051853388,-9.4169533423,0.4941178669,1053
117499,196753,267207,-2.0362920326,-9.3344009626,0.4594219392,1054
117661,196806,267185,-1.9992032822999999,-9.3655076564,0.4618147618,1055
117324,196727,267183,-1.9477575963999998,-9.3344009626,0.4522434714,1056
116225,196677,267153,-1.7970097726,-9.284151688,0.4139583098,1057
114800,196509,267025,-1.9968104597,-9.299705034899999,0.3924229064,1058
113593,196370,266949,-1.9513468303000001,-9.2973122123,0.5108676251000001,1059
112731,196241,266878,-2.0123638066000002,-9.2183490665,0.39720855159999996,1060
112139,196209,266825,-1.9908284031999999,-9.1872423727,0.4235296002,1061
111633,196132,266775,-2.0027925162,-9.343972252999999,0.43788653580000003,1062
111481,196146,266786,-2.0410776778,-9.2829552767,0.4402793584,1063
111465,196127,266753,-1.8364913454999998,-9.3116691479,0.49651068949999994,1064
111513,196134,266785,-2.009970984,-9.407382051899999,0.5204389155,1065
111471,196118,266721,-1.8819549749,-9.2793660428,0.5443671415,1066
111272,196083,266731,-1.998006871,-9.2530449942,0.4618147618,1067
111246,196060,266701,-1.9453647738,-9.3810610033,0.5204389155,1068
111251,196079,266731,-1.9010975557,-9.3750789468,0.454636294,1069
111342,196098,266713,-1.8723836845000001,-9.296115801,0.4450650036,1070
111580,196086,266728,-2.0590238472999998,-9.272187575,0.42831524540000004,1071
111816,196110,266725,-2.0745771942,-9.3942215276,0.4354937132,1072
112059,196083,266782,-1.9010975557,-9.2877409219,0.4701896409,1073
112338,196159,266767,-2.1188444122999996,-9.3690968903,0.4594219392,1074
112623,196184,266813,-1.9932212258000002,-9.2159562439,0.382851616,1075
112851,196174,266834,-1.8735800958,-9.290133744499999,0.4331008906,1076
113125,196214,266833,-2.0961125976,-9.4193461649,0.4630111731,1077
113369,196223,266849,-1.9369898947,-9.4049892293,0.4522434714,1078
113629,196251,266810,-1.9130616687,-9.3583291886,0.4450650036,1079
113873,196278,266842,-1.9716858223999998,-9.2566342281,0.4677968183,1080
114095,196294,266865,-1.8388841681,-9.3152583818,0.3984049629,1081
114344,196351,266899,-1.9812571127999998,-9.1968136631,0.47736810869999996,1082
114575,196325,266913,-2.0506489682,-9.3367937852,0.430708068,1083
114820,196357,266949,-2.0889341298,-9.2446701151,0.3780659708,1084
115062,196410,266955,-1.9465611851,-9.415756931,0.3218346397,1085
115298,196382,266956,-2.0087745727,-9.2434737038,0.4331008906,1086
115546,196444,266953,-2.057827436,-9.3296153174,0.5072783912000001,1087
115781,196470,267007,-1.9788642901999998,-9.330811728699999,0.3804587934,1088
115991,196489,267000,-1.9956140484,-9.286544510599999,0.4558327053,1089
116209,196507,267024,-2.0087745727,-9.2171526552,0.346959277,1090
116443,196503,266995,-1.9226329591,-9.2578306394,0.4402793584,1091
116695,196587,267067,-1.9692929998,-9.3344009626,0.5204389155,1092
116763,196567,267045,-2.0279171535,-9.3786681807,0.34337004309999997,1093
116164,196500,267008,-1.8628123941,-9.2985086236,0.44386859230000003,1094
114887,196343,266931,-1.8879370314,-9.3248296722,0.41515472109999996,1095
113475,196222,266788,-2.0195422744,-9.4289174553,0.4414757697,1096
112369,196088,266714,-2.0865413072,-9.2434737038,0.5515456093,1097
111628,195993,266685,-1.9369898947,-9.2530449942,0.47377887479999997,1098
111151,195938,266600,-2.1092731219,-9.2913301558,0.42592242280000003,1099
110731,195903,266619,-2.057827436,-9.2949193897,0.4402793584,1100
110705,195891,266617,-1.9250257817,-9.320044027,0.4821537539,1101
110797,195899,266588,-1.9764714676,-9.3607220112,0.37567314820000003,1102
110843,195924,266599,-2.0434705004000002,-9.3415794304,0.430708068,1103
110755,195914,266639,-2.0805592507,-9.3655076564,0.4618147618,1104
110640,195890,266592,-1.9800607015,-9.3834538259,0.41874395499999995,1105
110600,195892,266598,-1.9501504189999999,-9.3655076564,0.4211367776,1106
110649,195919,266619,-1.9298114269,-9.2889373332,0.3613162126,1107
110814,195910,266672,-2.009970984,-9.2817588654,0.5491527867,1108
111051,195923,266621,-1.9920248145,-9.391828705,0.43788653580000003,1109
111336,195968,266636,-2.0386848552,-9.3176512044,0.4594219392,1110
111591,196034,266674,-1.9441683625,-9.2614198733,0.4845465765,1111
111914,196091,266690,-1.9250257817,-9.415756931,0.5132604477,1112
112224,196072,266743,-2.0362920326,-9.4229353988,0.4402793584,1113
112407,196136,266711,-1.9920248145,-9.2614198733,0.4295116567,1114
112799,196177,266802,-1.9214365478,-9.3655076564,0.4211367776,1115
113083,196219,266757,-1.9345970721,-9.3104727366,0.4354937132,1116
113370,196221,266840,-2.03389921,-9.2087777761,0.47377887479999997,1117
113640,196271,266868,-1.9465611851,-9.3499543095,0.5324030285,1118
113920,196331,266816,-1.9920248145,-9.1956172518,0.4677968183,1119
114190,196356,266931,-1.9417755399,-9.4133641084,0.47138605219999996,1120
114446,196382,266948,-2.0003996936,-9.2087777761,0.4881358104,1121
114704,196399,266973,-1.9788642901999998,-9.2937229784,0.48335016519999996,1122
114998,196444,266984,-1.9573288867999998,-9.4085784632,0.4689932296,1123
115247,196485,267036,-2.0446669117,-9.3750789468,0.454636294,1124
115539,196506,267026,-1.9728822337,-9.1920280179,0.4211367776,1125
115757,196575,267078,-2.0087745727,-9.296115801,0.4043870194,1126
115994,196620,267074,-2.0602202586000002,-9.3367937852,0.4331008906,1127
116298,196606,267124,-2.0051853388,-9.2937229784,0.514456859,1128
116390,196674,267116,-2.1128623558,-9.4839523751,0.48574298779999997,1129
115839,196607,267095,-1.9154544913,-9.2135634213,0.4235296002,1130
114487,196471,267010,-2.03389921,-9.320044027,0.4354937132,1131
112972,196342,266884,-1.9118652574,-9.3116691479,0.5000999234,1132
111797,196165,266792,-1.9824535241,-9.379864592,0.4043870194,1133
110965,196111,266734,-2.0470597343,-9.2757768089,0.5108676251000001,1134
110399,196008,266727,-1.9417755399,-9.2769732202,0.4163511324,1135
109993,196009,266664,-1.7754743692000001,-9.2817588654,0.40677984199999995,1136
109828,195939,266661,-1.8975083218,-9.410971285799999,0.5371886737,1137
109898,195995,266698,-1.9992032822999999,-9.3176512044,0.3852444386,1138
110001,195974,266631,-1.9046867896,-9.290133744499999,0.4163511324,1139
109997,195963,266696,-2.0291135648000003,-9.273383986299999,0.47856452,1140
109928,195958,266614,-1.8867406201,-9.320044027,0.4689932296,1141
109870,195943,266660,-2.0231315083,-9.2662055185,0.48933222169999996,1142
109934,195952,266647,-2.009970984,-9.2530449942,0.4534398827,1143
110117,195981,266698,-1.8209379986,-9.4002035841,0.35772697870000003,1144
110336,195994,266754,-2.009970984,-9.3068835027,0.47856452,1145
110621,196059,266751,-1.9812571127999998,-9.415756931,0.47856452,1146
110904,196025,266763,-1.9561324755,-9.1968136631,0.4139583098,1147
111209,196065,266726,-1.9585252981,-9.3906322937,0.43788653580000003,1148
111486,196118,266768,-1.938186306,-9.2506521716,0.502492746,1149
111780,196138,266787,-2.0075781614,-9.274580397600001,0.35174492220000003,1150
112041,196148,266836,-1.962114532,-9.2709911637,0.41156548719999997,1151
112305,196209,266888,-1.9166509025999998,-9.3344009626,0.47976093129999997,1152
112574,196240,266895,-2.0195422744,-9.247062937699999,0.5228317381,1153
112815,196267,266859,-2.1068802992999998,-9.2769732202,0.43429730190000004,1154
113043,196292,266909,-2.0482561456,-9.2614198733,0.47856452,1155
113301,196360,266920,-2.0398812665,-9.3164547931,0.5108676251000001,1156
113553,196330,266960,-1.9872391693,-9.2805624541,0.4630111731,1157
113797,196407,266975,-2.0865413072,-9.220741889100001,0.49292145559999995,1158
114049,196470,267040,-1.8580267489000002,-9.2817588654,0.430708068,1159
114234,196454,267001,-1.9752750562999999,-9.4289174553,0.41874395499999995,1160
114505,196465,267036,-2.1128623558,-9.4013999954,0.466600407,1161
114738,196489,267051,-1.9561324755,-9.265009107200001,0.4594219392,1162
114976,196557,267080,-2.0327027987,-9.3415794304,0.4235296002,1163
115181,196591,267080,-1.9178473139,-9.3822574146,0.40558343069999997,1164
115394,196599,267090,-1.8197415872999998,-9.4672026169,0.48574298779999997,1165
115583,196628,267136,-1.9178473139,-9.320044027,0.40558343069999997,1166
115208,196597,267087,-2.1439690496,-9.2697947524,0.4211367776,1167
113976,196473,267019,-2.0518453795,-9.3224368496,0.4558327053,1168
112304,196313,266946,-1.9884355805999998,-9.3475614869,0.3852444386,1169
110878,196135,266760,-1.9250257817,-9.355936366,0.5132604477,1170
109898,196067,266725,-1.8819549749,-9.265009107200001,0.48095734259999995,1171
109191,195968,266700,-1.9274186043000001,-9.2781696315,0.394815729,1172
108731,195903,266649,-2.0434705004000002,-9.3619184225,0.5108676251000001,1173
108488,195884,266601,-1.9645073545999998,-9.2446701151,0.47138605219999996,1174
108478,195893,266664,-1.9884355805999998,-9.2793660428,0.35892339,1175
108563,195857,266643,-1.9716858223999998,-9.2985086236,0.430708068,1176
108542,195857,266567,-2.0027925162,-9.3032942688,0.4402793584,1177
108387,195839,266571,-2.0386848552,-9.407382051899999,0.5180460929,1178
108302,195823,266582,-1.9106688461,-9.3774717694,0.454636294,1179
108279,195822,266575,-2.105683888,-9.2853480993,0.4989035121,1180
108379,195811,266606,-2.0410776778,-9.3032942688,0.3924229064,1181
108560,195787,266587,-1.9405791285999998,-9.2542414055,0.5443671415,1182
108820,195908,266624,-1.9501504189999999,-9.3104727366,0.526420972,1183
109076,195915,266643,-1.9884355805999998,-9.3822574146,0.4618147618,1184
109342,195915,266595,-2.0291135648000003,-9.284151688,0.43788653580000003,1185
109614,195985,266678,-2.0362920326,-9.403792818,0.4450650036,1186
109836,195950,266698,-1.8484554585000001,-9.3344009626,0.4677968183,1187
110104,195990,266681,-1.9968104597,-9.343972252999999,0.4474578262,1188
110277,196016,266724,-2.0279171535,-9.2829552767,0.43788653580000003,1189
110462,196065,266746,-1.9633109433,-9.176474671,0.394815729,1190
110668,196069,266768,-1.9932212258000002,-9.2027957196,0.37567314820000003,1191
110870,196076,266759,-1.9944176371,-9.2494557603,0.4043870194,1192
111064,196120,266801,-2.0123638066000002,-9.2374916473,0.4247260115,1193
111266,196147,266792,-2.0087745727,-9.233902413400001,0.394815729,1194
111467,196146,266833,-2.0195422744,-9.3427758417,0.4163511324,1195
111635,196171,266861,-1.9728822337,-9.272187575,0.3361915753,1196
111858,196183,266862,-1.9908284031999999,-9.3631148338,0.4618147618,1197
111939,196167,266865,-1.9860427579999997,-9.2781696315,0.4582255279,1198
112196,196213,266905,-2.0051853388,-9.3355973739,0.394815729,1199
112347,196225,266831,-1.9657037659,-9.353543543399999,0.31345976059999997,1200
112496,196208,266788,-1.9178473139,-9.2829552767,0.3529413335,1201
112644,196216,266847,-2.045863323,-9.376275358100001,0.40319060809999996,1202
112790,196222,266787,-1.9908284031999999,-9.1896351953,0.41874395499999995,1203
112826,196215,266791,-2.0650059038,-9.343972252999999,0.3804587934,1204
112243,196116,266740,-1.9680965885,-9.233902413400001,0.4163511324,1205
110758,195985,266700,-2.0494525569,-9.3296153174,0.3900300838,1206
109064,195767,266541,-2.2719850587,-9.265009107200001,0.35892339,1207
107808,195610,266409,-1.8879370314,-9.3643112451,0.4701896409,1208
107034,195495,266290,-1.9609181207,-9.3020978575,0.4821537539,1209
106598,195444,266308,-2.0291135648000003,-9.232706002099999,0.3529413335,1210
106376,195446,266310,-2.0147566292,-9.2638126959,0.41515472109999996,1211
106435,195432,266285,-2.1834506225,-9.3152583818,0.4354937132,1212
106685,195491,266301,-1.9908284031999999,-9.3152583818,0.4007977855,1213
106795,195519,266354,-2.0243279196,-9.2350988247,0.4689932296,1214
106695,195496,266311,-2.0889341298,-9.327222494799999,0.42831524540000004,1215
106544,195510,266367,-2.0075781614,-9.2853480993,0.4689932296,1216
106503,195514,266400,-2.0063817501,-9.3248296722,0.430708068,1217
106648,195546,266409,-2.1116659445,-9.2889373332,0.4414757697,1218
106804,195585,266417,-2.0745771942,-9.3224368496,0.4103690759,1219
107095,195641,266465,-2.0051853388,-9.2697947524,0.41156548719999997,1220
107423,195665,266487,-2.0482561456,-9.3176512044,0.5276173833,1221
107730,195731,266534,-1.9932212258000002,-9.2279203569,0.4881358104,1222
108016,195782,266586,-1.9968104597,-9.273383986299999,0.33738798659999997,1223
108351,195809,266595,-1.9417755399,-9.3631148338,0.4211367776,1224
108583,195862,266646,-2.0303099761,-9.2039921309,0.4570291166,1225
108849,195917,266571,-1.9657037659,-9.242277292499999,0.43190447930000003,1226
109117,195962,266723,-2.0877377184999997,-9.1609213241,0.41874395499999995,1227
109351,196009,266732,-2.15354034,-9.2817588654,0.4618147618,1228
109629,196058,266733,-1.9501504189999999,-9.2769732202,0.3852444386,1229
109860,196108,266791,-1.9896319919,-9.3128655592,0.4139583098,1230
110140,196154,266810,-2.057827436,-9.1944208405,0.4450650036,1231
110390,196181,266818,-1.9573288867999998,-9.3463650756,0.5012963347,1232
110629,196246,266876,-1.9752750562999999,-9.2374916473,0.4414757697,1233
110895,196307,266910,-1.9561324755,-9.2590270507,0.4163511324,1234
111160,196326,266913,-2.0662023151,-9.3391866078,0.39720855159999996,1235
111444,196359,266944,-1.8699908619,-9.2889373332,0.49770710079999997,1236
111742,196392,267016,-1.8987047331,-9.2303131795,0.5216353268,1237
111692,196357,266999,-2.1104695332,-9.2805624541,0.4163511324,1238
110736,196305,266969,-1.9417755399,-9.2937229784,0.4402793584,1239
109069,196138,266853,-2.1523439287,-9.2889373332,0.4235296002,1240
107689,196015,266734,-2.1224336462,-9.2913301558,0.394815729,1241
106733,195907,266615,-2.0279171535,-9.2159562439,0.4211367776,1242
106123,195767,266594,-2.0123638066000002,-9.274580397600001,0.44985064880000003,1243
105733,195706,266522,-2.0386848552,-9.2793660428,0.454636294,1244
105560,195651,266542,-2.1762721547,-9.21236701,0.3900300838,1245
105695,195705,266542,-1.9202401365000001,-9.3355973739,0.5084748025,1246
106102,195770,266568,-2.0315063874,-9.232706002099999,0.4618147618,1247
106299,195812,266584,-2.0291135648000003,-9.3260260835,0.41156548719999997,1248
106378,195817,266640,-1.9345970721,-9.178867493599999,0.49172504429999997,1249
106426,195817,266618,-2.0626130812,-9.1633141467,0.4331008906,1250
106477,195827,266607,-2.0650059038,-9.1561356789,0.5228317381,1251
106670,195833,266662,-2.0733807828999997,-9.3415794304,0.4941178669,1252
106905,195844,266640,-2.1212372348999997,-9.3427758417,0.4642075844,1253
107238,195888,266701,-1.9704894111,-9.495916488099999,0.5072783912000001,1254
107583,195906,266703,-2.0279171535,-9.2913301558,0.43788653580000003,1255
107938,195995,266769,-2.0183458631,-9.367900479,0.42592242280000003,1256
108279,196044,266788,-2.0530417908,-9.2937229784,0.48335016519999996,1257
108589,196076,266854,-1.9944176371,-9.3164547931,0.5563312545,1258
108885,196107,266867,-2.0027925162,-9.3391866078,0.47736810869999996,1259
109179,196196,266850,-2.0147566292,-9.2494557603,0.39960137419999997,1260
109433,196223,266906,-2.1762721547,-9.3595255999,0.3206382284,1261
109700,196261,266954,-1.9704894111,-9.2913301558,0.4331008906,1262
109943,196295,266979,-2.1379869930999997,-9.3296153174,0.42831524540000004,1263
110181,196367,267006,-2.0506489682,-9.308079914,0.39720855159999996,1264
110413,196403,267060,-1.9357934834,-9.3415794304,0.4235296002,1265
110631,196472,267036,-1.8951154991999999,-9.353543543399999,0.47377887479999997,1266
110853,196477,267084,-2.0494525569,-9.207581364800001,0.5778666579,1267
111060,196498,267080,-1.9848463467,-9.308079914,0.490528633,1268
111296,196562,267097,-2.0506489682,-9.219545477799999,0.4354937132,1269
111490,196589,267141,-1.9716858223999998,-9.1956172518,0.4199403663,1270
111720,196601,267155,-1.9202401365000001,-9.3044906801,0.47856452,1271
111902,196640,267171,-2.009970984,-9.343972252999999,0.538385085,1272
111591,196642,267166,-2.0889341298,-9.3894358824,0.4677968183,1273
110402,196519,267135,-1.9669001771999999,-9.3260260835,0.4295116567,1274
108701,196413,266962,-1.9872391693,-9.2889373332,0.4474578262,1275
107472,196249,266924,-2.117648001,-9.299705034899999,0.3900300838,1276
106648,196180,266834,-2.0626130812,-9.2458665264,0.42831524540000004,1277
106094,196126,266737,-2.0267207422,-9.308079914,0.4725824635,1278
105770,196035,266753,-1.8735800958,-9.1597249128,0.40917266459999996,1279
105662,196018,266747,-1.9992032822999999,-9.308079914,0.39960137419999997,1280
105870,196028,266736,-2.0183458631,-9.274580397600001,0.35892339,1281
106129,196072,266774,-1.9429719511999999,-9.2494557603,0.44985064880000003,1282
106295,196094,266834,-2.093719775,-9.2554378168,0.4522434714,1283
106299,196115,266800,-2.021935097,-9.2374916473,0.3804587934,1284
106319,196138,266809,-2.0793628394,-9.3128655592,0.3924229064,1285
106400,196111,266847,-1.9884355805999998,-9.2697947524,0.43788653580000003,1286
106581,196184,266844,-1.9932212258000002,-9.3296153174,0.3780659708,1287
106833,196214,266904,-1.8460626359,-9.2578306394,0.4043870194,1288
107141,196218,266948,-2.0554346134,-9.3152583818,0.4414757697,1289
107432,196289,266955,-1.9537396529,-9.2793660428,0.4163511324,1290
107735,196317,266923,-1.9465611851,-9.2638126959,0.4510470601,1291
107992,196368,267008,-2.0685951377,-9.2769732202,0.37567314820000003,1292
108254,196390,267005,-1.9453647738,-9.2925265671,0.4606183505,1293
108511,196407,267035,-1.9836499354,-9.309276325299999,0.35174492220000003,1294
108739,196454,267015,-1.9609181207,-9.2374916473,0.42592242280000003,1295
108913,196453,267042,-2.0745771942,-9.3248296722,0.4474578262,1296
109254,196483,267092,-2.1272192914,-9.2279203569,0.3613162126,1297
109482,196567,267121,-1.9657037659,-9.3152583818,0.394815729,1298
109695,196564,267093,-2.0554346134,-9.2913301558,0.40917266459999996,1299
109935,196509,267122,-1.9513468303000001,-9.2829552767,0.40677984199999995,1300
110185,196640,267183,-1.9992032822999999,-9.353543543399999,0.34456645439999994,1301
110384,196655,267170,-1.9704894111,-9.2877409219,0.3852444386,1302
110611,196702,267178,-2.0362920326,-9.2159562439,0.5000999234,1303
110814,196714,267203,-1.9836499354,-9.220741889100001,0.44985064880000003,1304
111031,196759,267243,-1.9896319919,-9.3463650756,0.4594219392,1305
111243,196780,267241,-2.021935097,-9.2374916473,0.39122649509999996,1306
111462,196786,267289,-2.0195422744,-9.3379901965,0.47138605219999996,1307
111684,196848,267255,-2.0446669117,-9.232706002099999,0.4594219392,1308
111675,196870,267302,-2.0327027987,-9.3332045513,0.4103690759,1309
110966,196752,267230,-1.9884355805999998,-9.3224368496,0.43190447930000003,1310
109658,196652,267184,-1.9896319919,-9.176474671,0.31345976059999997,1311
108523,196531,267119,-2.1595223965,-9.2183490665,0.4331008906,1312
107821,196423,267054,-2.2313070745,-9.3367937852,0.4558327053,1313
107414,196402,266997,-1.9298114269,-9.247062937699999,0.46540399569999996,1314
107173,196345,266975,-1.9740786449999999,-9.1597249128,0.3816552047,1315
107111,196331,266950,-2.069791549,-9.320044027,0.3720839143,1316
107270,196380,266993,-1.998006871,-9.2530449942,0.48933222169999996,1317
107534,196379,267005,-1.8747765071,-9.3655076564,0.3493520996,1318
107649,196398,266973,-1.9752750562999999,-9.332008140000001,0.37567314820000003,1319
107637,196404,267037,-2.0554346134,-9.3176512044,0.3684946804,1320
107643,196426,267009,-1.9609181207,-9.2709911637,0.4606183505,1321
107744,196437,267026,-2.0410776778,-9.2973122123,0.44386859230000003,1322
107948,196468,267064,-2.0195422744,-9.1896351953,0.4522434714,1323
108227,196517,267086,-1.9465611851,-9.4061856406,0.4558327053,1324
108540,196564,267056,-2.057827436,-9.236295236,0.34456645439999994,1325
108856,196583,267168,-2.0410776778,-9.3690968903,0.3613162126,1326
109168,196653,267181,-2.0063817501,-9.2494557603,0.5096712138,1327
109503,196723,267149,-2.0315063874,-9.2913301558,0.4821537539,1328
109763,196717,267239,-1.9657037659,-9.3009014462,0.4689932296,1329
109985,196809,267256,-2.0195422744,-9.272187575,0.382851616,1330
110330,196796,267291,-1.9788642901999998,-9.4217389875,0.4450650036,1331
110613,196861,267313,-2.0566310246999997,-9.286544510599999,0.3804587934,1332
110868,196929,267397,-2.1080767106,-9.248259349,0.4163511324,1333
111122,196955,267365,-2.0662023151,-9.1609213241,0.3613162126,1334
111403,196978,267427,-2.0051853388,-9.272187575,0.4450650036,1335
111666,197047,267457,-2.0255243308999997,-9.320044027,0.370887503,1336
111879,197058,267481,-2.0650059038,-9.4372923344,0.41874395499999995,1337
112228,197106,267481,-1.9992032822999999,-9.3750789468,0.40917266459999996,1338
112501,197137,267487,-2.0985054202,-9.2674019298,0.4331008906,1339
112757,197182,267521,-2.0207386857,-9.2877409219,0.4522434714,1340
113028,197234,267549,-2.1128623558,-9.3296153174,0.4725824635,1341
113294,197261,267593,-1.9657037659,-9.3499543095,0.41874395499999995,1342
113537,197310,267595,-2.0039889275,-9.290133744499999,0.4630111731,1343
113775,197323,267623,-2.0111673952999998,-9.327222494799999,0.35892339,1344
114041,197347,267627,-2.0997018315,-9.4612205604,0.42592242280000003,1345
114270,197371,267660,-1.9692929998,-9.164510558,0.40917266459999996,1346
114521,197412,267714,-2.0386848552,-9.353543543399999,0.4845465765,1347
114722,197475,267698,-2.069791549,-9.4121676971,0.48335016519999996,1348
114500,197473,267693,-2.0267207422,-9.3116691479,0.4295116567,1349
113594,197362,267636,-1.8604195715,-9.1968136631,0.394815729,1350
112422,197283,267568,-1.8855442087999998,-9.3152583818,0.43788653580000003,1351
111503,197223,267495,-1.9417755399,-9.3367937852,0.4331008906,1352
110867,197149,267469,-1.9441683625,-9.2817588654,0.4331008906,1353
110440,197080,267380,-1.9022939669999999,-9.3116691479,0.4354937132,1354
110140,197031,267412,-2.0039889275,-9.2674019298,0.442672181,1355
109998,197068,267400,-2.1355941704999997,-9.273383986299999,0.4510470601,1356
110149,197076,267444,-1.9680965885,-9.2889373332,0.4570291166,1357
110360,197105,267424,-2.0506489682,-9.2757768089,0.4677968183,1358
110466,197101,267478,-1.9010975557,-9.2446701151,0.41156548719999997,1359
110516,197112,267443,-1.9848463467,-9.236295236,0.5168496816,1360
110590,197114,267414,-1.9238293703999998,-9.353543543399999,0.42592242280000003,1361
110700,197131,267480,-2.0039889275,-9.2793660428,0.47377887479999997,1362
110885,197160,267498,-2.0386848552,-9.1956172518,0.4749752861,1363
111140,197174,267508,-2.045863323,-9.3822574146,0.46540399569999996,1364
111429,197202,267526,-2.0315063874,-9.232706002099999,0.4474578262,1365
111704,197243,267566,-2.0602202586000002,-9.3224368496,0.49651068949999994,1366
111970,197301,267544,-2.1762721547,-9.2374916473,0.4390829471,1367
112217,197337,267547,-2.0650059038,-9.3104727366,0.4761716974,1368
112481,197367,267642,-2.0530417908,-9.260223461999999,0.4211367776,1369
112731,197388,267634,-1.9788642901999998,-9.247062937699999,0.47976093129999997,1370
112976,197408,267605,-2.0602202586000002,-9.2889373332,0.4510470601,1371
113235,197474,267630,-1.9657037659,-9.2697947524,0.39720855159999996,1372
113474,197499,267715,-1.9202401365000001,-9.4002035841,0.3780659708,1373
113736,197539,267683,-2.0781664281,-9.1597249128,0.40917266459999996,1374
113991,197542,267714,-1.9106688461,-9.2099741874,0.4019941968,1375
114238,197580,267736,-1.8867406201,-9.3415794304,0.4211367776,1376
114485,197589,267766,-2.1260228801,-9.242277292499999,0.5922235935,1377
114723,197656,267780,-2.0793628394,-9.1704926145,0.3397808092,1378
114998,197735,267794,-2.069791549,-9.399007172800001,0.4510470601,1379
115215,197710,267784,-2.0075781614,-9.1585285015,0.430708068,1380
115491,197731,267814,-1.9752750562999999,-9.2889373332,0.48095734259999995,1381
115734,197756,267892,-2.0709879603,-9.2051885422,0.4402793584,1382
115959,197783,267869,-1.9082760235,-9.332008140000001,0.454636294,1383
116200,197815,267849,-2.0422740890999997,-9.2913301558,0.42831524540000004,1384
116460,197829,267900,-2.0530417908,-9.2590270507,0.39361931769999997,1385
116674,197873,267929,-2.0362920326,-9.3822574146,0.3732803256,1386
116915,197893,267935,-1.9561324755,-9.3140619705,0.34456645439999994,1387
117141,197939,267933,-1.9393827173,-9.332008140000001,0.5060819799,1388
117356,197959,267978,-2.0267207422,-9.2398844699,0.4582255279,1389
117604,197965,267978,-1.9992032822999999,-9.2793660428,0.39960137419999997,1390
117841,198007,268016,-2.0793628394,-9.296115801,0.4271188341,1391
118055,198038,268033,-2.0315063874,-9.1968136631,0.4354937132,1392
118278,198020,267985,-2.0673987264,-9.2793660428,0.4354937132,1393
118493,198076,268053,-2.0171494518,-9.3128655592,0.39720855159999996,1394
118701,198113,268034,-2.1092731219,-9.2674019298,0.42592242280000003,1395
118947,198144,268021,-2.1152551784,-9.3690968903,0.4689932296,1396
119142,198134,268077,-1.9154544913,-9.2171526552,0.42233318890000004,1397
119347,198178,268028,-1.9645073545999998,-9.232706002099999,0.47976093129999997,1398
119549,198182,268025,-2.0745771942,-9.284151688,0.490528633,1399
119634,198208,268053,-2.0554346134,-9.3188476157,0.3804587934,1400
119199,198171,268070,-2.0123638066000002,-9.3164547931,0.5012963347,1401
118344,198074,268004,-2.0494525569,-9.353543543399999,0.430708068,1402
117428,198004,267935,-2.0626130812,-9.4408815683,0.4331008906,1403
116731,197954,267912,-1.9812571127999998,-9.2709911637,0.4594219392,1404
116183,197943,267874,-1.9465611851,-9.2578306394,0.4606183505,1405
115766,197855,267832,-2.1116659445,-9.2015993083,0.48574298779999997,1406
115411,197827,267769,-2.0482561456,-9.3044906801,0.4606183505,1407
115241,197784,267749,-1.9537396529,-9.3248296722,0.3900300838,1408
115150,197778,267777,-1.8915262653,-9.3128655592,0.4701896409,1409
115098,197748,267668,-1.9788642901999998,-9.327222494799999,0.3852444386,1410
114978,197744,267722,-2.0566310246999997,-9.2410808812,0.4331008906,1411
114791,197729,267707,-1.9298114269,-9.2817588654,0.5682953675,1412
114710,197668,267670,-2.0733807828999997,-9.3655076564,0.33499516399999996,1413
114661,197689,267654,-1.9704894111,-9.3032942688,0.3302095188,1414
114703,197683,267656,-1.9573288867999998,-9.3511507208,0.4474578262,1415
114819,197667,267601,-1.9561324755,-9.3822574146,0.4582255279,1416
114945,197693,267606,-2.0147566292,-9.3391866078,0.3732803256,1417
115066,197691,267627,-2.1152551784,-9.3882394711,0.5395814963,1418
115217,197695,267582,-2.0745771942,-9.220741889100001,0.39960137419999997,1419
115331,197728,267624,-1.9992032822999999,-9.2877409219,0.40917266459999996,1420
115493,197704,267586,-2.081755662,-9.4145605197,0.3780659708,1421
115603,197737,267627,-2.0602202586000002,-9.327222494799999,0.41874395499999995,1422
115732,197710,267598,-2.0590238472999998,-9.2985086236,0.46540399569999996,1423
115779,197723,267612,-1.8329021116,-9.3595255999,0.41874395499999995,1424
116005,197728,267593,-1.9776678789,-9.2315095908,0.41156548719999997,1425
116161,197745,267634,-2.0327027987,-9.3415794304,0.41874395499999995,1426
116290,197742,267590,-2.045863323,-9.2315095908,0.4749752861,1427
116442,197762,267596,-2.0650059038,-9.273383986299999,0.3565305674,1428
116580,197778,267535,-2.1020946541,-9.327222494799999,0.4139583098,1429
116752,197788,267644,-1.9669001771999999,-9.2039921309,0.43429730190000004,1430
116927,197813,267594,-1.9956140484,-9.286544510599999,0.3804587934,1431
117082,197798,267582,-2.0518453795,-9.3104727366,0.2931207685,1432
117270,197822,267594,-2.0267207422,-9.2458665264,0.3661018578,1433
117405,197853,267630,-2.0482561456,-9.3511507208,0.40677984199999995,1434
117553,197851,267589,-2.0386848552,-9.2590270507,0.44386859230000003,1435
117728,197930,267640,-2.0051853388,-9.2674019298,0.430708068,1436
117868,197934,267653,-1.9860427579999997,-9.320044027,0.4139583098,1437
117987,197918,267653,-2.0374884439,-9.3511507208,0.48933222169999996,1438
118245,197936,267657,-1.962114532,-9.3834538259,0.4570291166,1439
118401,197973,267755,-2.0518453795,-9.229116768199999,0.41156548719999997,1440
118586,197980,267698,-2.1008982428,-9.2769732202,0.3661018578,1441
118781,198019,267729,-2.0195422744,-9.3655076564,0.4594219392,1442
118944,198044,267695,-2.0745771942,-9.220741889100001,0.5180460929,1443
118995,198060,267808,-1.866401628,-9.2781696315,0.42592242280000003,1444
118600,198065,267751,-1.9860427579999997,-9.3332045513,0.42592242280000003,1445
117755,197966,267715,-2.1224336462,-9.2925265671,0.4486542375,1446
116916,197886,267615,-1.9513468303000001,-9.3942215276,0.4989035121,1447
116187,197854,267631,-2.0051853388,-9.403792818,0.3852444386,1448
115696,197801,267562,-1.9274186043000001,-9.2757768089,0.4618147618,1449
115250,197749,267509,-1.9082760235,-9.299705034899999,0.4677968183,1450
114938,197789,267506,-2.1008982428,-9.3655076564,0.34576286570000003,1451
114749,197766,267486,-2.1475582835,-9.2817588654,0.3613162126,1452
114681,197636,267507,-2.0207386857,-9.284151688,0.4390829471,1453
114636,197752,267479,-2.1571295739000003,-9.2662055185,0.41874395499999995,1454
114475,197728,267474,-1.9441683625,-9.265009107200001,0.3804587934,1455
114300,197676,267475,-2.021935097,-9.320044027,0.3720839143,1456
114168,197698,267475,-2.0231315083,-9.296115801,0.4630111731,1457
114148,197653,267474,-2.1236300575,-9.3344009626,0.47377887479999997,1458
114162,197735,267496,-2.0626130812,-9.3954179389,0.3804587934,1459
114237,197706,267449,-2.1619152191,-9.176474671,0.39960137419999997,1460
114372,197750,267473,-2.0626130812,-9.3104727366,0.49770710079999997,1461
114505,197712,267453,-1.9669001771999999,-9.3032942688,0.4139583098,1462
114645,197743,267462,-1.9884355805999998,-9.3906322937,0.4019941968,1463
114782,197762,267508,-1.9345970721,-9.2889373332,0.33499516399999996,1464
114901,197749,267460,-2.0733807828999997,-9.308079914,0.4450650036,1465
115068,197788,267440,-2.0195422744,-9.327222494799999,0.5180460929,1466
115185,197782,267538,-2.0315063874,-9.3032942688,0.42831524540000004,1467
115326,197792,267460,-2.0434705004000002,-9.2590270507,0.3732803256,1468
115467,197806,267472,-1.9788642901999998,-9.3032942688,0.3984049629,1469
115638,197830,267481,-1.9154544913,-9.2889373332,0.370887503,1470
115794,197861,267517,-1.9405791285999998,-9.379864592,0.49651068949999994,1471
115960,197878,267544,-1.9453647738,-9.2913301558,0.43429730190000004,1472
116116,197893,267599,-2.0362920326,-9.1848495501,0.4821537539,1473
116302,197894,267514,-2.1643080417,-9.332008140000001,0.48693939909999995,1474
116463,197884,267552,-2.0602202586000002,-9.2674019298,0.4043870194,1475
116638,197901,267564,-2.0015961049,-9.3056870914,0.5276173833,1476
116807,197963,267580,-2.0985054202,-9.3176512044,0.4582255279,1477
117001,197977,267576,-2.1128623558,-9.2542414055,0.48693939909999995,1478
117172,198017,267639,-2.1367905818,-9.2111705987,0.4749752861,1479
117341,198024,267584,-1.9740786449999999,-9.3870430598,0.40917266459999996,1480
117478,198019,267615,-2.0590238472999998,-9.3176512044,0.3565305674,1481
117638,198054,267658,-1.9908284031999999,-9.3631148338,0.40677984199999995,1482
117797,198074,267585,-2.021935097,-9.2374916473,0.4845465765,1483
117967,198091,267599,-2.0877377184999997,-9.2590270507,0.5108676251000001,1484
118126,198066,267588,-2.0195422744,-9.309276325299999,0.44386859230000003,1485
117996,198089,267621,-1.9417755399,-9.3631148338,0.38763726119999997,1486
117391,197996,267594,-2.1236300575,-9.3056870914,0.40677984199999995,1487
116375,197925,267544,-2.1104695332,-9.320044027,0.40917266459999996,1488
115465,197840,267456,-2.1080767106,-9.3774717694,0.47976093129999997,1489
114760,197783,267367,-1.9501504189999999,-9.2697947524,0.47976093129999997,1490
114171,197697,267351,-2.0255243308999997,-9.3391866078,0.35174492220000003,1491
113818,197680,267351,-2.0123638066000002,-9.2267239456,0.442672181,1492
113494,197616,267258,-1.9513468303000001,-9.4133641084,0.3852444386,1493
113335,197624,267323,-2.117648001,-9.265009107200001,0.4570291166,1494
113306,197557,267273,-2.0841484846,-9.353543543399999,0.4043870194,1495
113243,197612,267258,-2.045863323,-9.3702933016,0.3565305674,1496
113128,197562,267275,-2.0530417908,-9.095118702599999,0.41156548719999997,1497
112935,197597,267277,-1.9812571127999998,-9.3284189061,0.36370903520000003,1498
112933,197515,267253,-2.0673987264,-9.3810610033,0.4390829471,1499
112919,197540,267229,-1.9130616687,-9.2769732202,0.4331008906,1500
113001,197558,267224,-1.9034903783000001,-9.3966143502,0.41156548719999997,1501
113136,197562,267282,-1.9692929998,-9.2674019298,0.44985064880000003,1502
113309,197595,267292,-2.0183458631,-9.2542414055,0.39720855159999996,1503
113527,197587,267242,-2.0889341298,-9.2985086236,0.454636294,1504
113685,197626,267291,-2.1200408236,-9.296115801,0.4043870194,1505
113863,197602,267274,-2.1188444122999996,-9.2027957196,0.430708068,1506
114066,197649,267333,-2.0626130812,-9.399007172800001,0.41276189849999995,1507
114238,197692,267350,-2.0482561456,-9.290133744499999,0.4019941968,1508
114424,197681,267282,-2.0255243308999997,-9.286544510599999,0.48335016519999996,1509
114609,197687,267360,-2.069791549,-9.2829552767,0.44985064880000003,1510
114728,197734,267376,-1.9393827173,-9.3655076564,0.4450650036,1511
115002,197734,267403,-2.1164515897,-9.206384953499999,0.3804587934,1512
115167,197754,267387,-2.0745771942,-9.200402897,0.43788653580000003,1513
115363,197821,267399,-2.0135602179,-9.2697947524,0.39720855159999996,1514
115566,197772,267342,-2.1032910654,-9.384650237199999,0.4474578262,1515
115768,197808,267413,-2.0327027987,-9.3176512044,0.4247260115,1516
115976,197806,267400,-1.9872391693,-9.3068835027,0.370887503,1517
116167,197857,267443,-1.9872391693,-9.427721044,0.38763726119999997,1518
