green,red,IR,acc_x,acc_y,acc_z,sample_index
108650,187766,246474,-4.0857445895,8.7840517646,1.8771693297,1
108733,187804,246534,-4.0941194686,8.7314096674,1.9046867896,2
108927,187784,246483,-4.2879380992,8.7517486595,1.9573288867999998,3
109077,187815,246547,-4.0570307183,8.7840517646,1.9286150156,4
109214,187869,246576,-4.1802610821999995,8.8450687409,1.9525432416,5
109349,187837,246550,-4.1252261624,8.7373917239,1.8951154991999999,6
109464,187860,246626,-4.175475436999999,8.748159425599999,1.9429719511999999,7
109565,187915,246562,-4.2723847523,8.8558364426,1.9704894111,8
109744,187947,246575,-4.3800617693,8.654839344200001,1.9704894111,9
109861,187969,246607,-4.2065821308,8.7385881352,1.9357934834,10
109975,187945,246606,-4.1324046302,8.8031943454,1.9238293703999998,11
109783,187869,246536,-4.1240297511,8.8091764019,1.9429719511999999,12
109120,187679,246458,-4.139583098,8.7625163612,1.8520446924,13
108520,187622,246412,-4.0785661217,8.7948194663,1.9118652574,14
108363,187629,246383,-4.0522450731,8.841479506999999,1.9094724347999998,15
108299,187613,246362,-4.1383866867,8.8008015228,1.9405791285999998,16
108150,187620,246319,-4.2843488653,8.8809610799,1.9369898947,17
108280,187664,246394,-4.163511324,8.8977108381,1.9046867896,18
108451,187640,246466,-4.2137605985999995,8.7601235386,1.9453647738,19
108593,187727,246416,-4.2209390664,8.7912302324,1.8855442087999998,20
108643,187667,246448,-4.2759739861999995,8.8139620471,1.9549360641999998,21
108720,187633,246415,-4.1611185014,8.8019979341,1.9094724347999998,22
108813,187688,246403,-4.2807596314,8.8366938618,1.8843477975,23
108927,187697,246444,-4.0713876539,8.8941216042,1.8807585636,24
109070,187720,246464,-4.3154555591,8.8390866844,1.9597217094,25
109211,187745,246482,-4.1563328562,8.8271225714,1.8544375149999999,26
109329,187769,246502,-4.127618985,8.8618184991,1.8951154991999999,27
109451,187791,246554,-4.3082770913,8.8630149104,1.9513468303000001,28
109582,187778,246567,-4.1694933805000005,8.818747692299999,1.9118652574,29
109702,187752,246536,-4.3106699139,8.8163548697,1.8771693297,30
109819,187794,246559,-4.2759739861999995,8.9048893059,1.8568303376,31
109931,187844,246562,-4.1934216065,8.7888374098,1.938186306,32
109964,187865,246517,-4.2604206393,8.8965144268,1.8711872732,33
109898,187777,246474,-4.1706897918,8.7230347883,1.8951154991999999,34
109299,187621,246392,-4.3034914461,8.9718883387,1.8975083218,35
108760,187572,246353,-4.1838503161,8.8271225714,1.962114532,36
108448,187489,246332,-4.1024943476999995,8.7194455544,1.9848463467,37
108312,187502,246319,-4.0175491454,8.7673020064,1.9190437251999999,38
108233,187535,246378,-4.0450666053,8.7278204335,1.8472590472,39
108263,187461,246339,-4.199403663,8.7900338211,1.9477575963999998,40
108441,187589,246411,-4.235296002,8.7792661194,1.9633109433,41
108563,187610,246399,-4.247260115,8.8163548697,1.9968104597,42
108626,187609,246443,-4.1048871703,8.859425676499999,1.9872391693,43
108725,187617,246472,-4.2436708811,8.8486579748,1.9752750562999999,44
108822,187637,246456,-4.2257247116,8.8546400313,1.9046867896,45
108934,187644,246484,-4.0689948312999995,8.7314096674,1.9166509025999998,46
109073,187673,246504,-4.1001015251,8.7912302324,1.9884355805999998,47
109190,187707,246510,-4.0630127748,8.6967137397,1.890329854,48
109337,187709,246548,-4.1419759206,8.872586200799999,1.9417755399,49
109481,187767,246555,-4.0594235409,8.8450687409,1.9190437251999999,50
109601,187756,246517,-4.2747775749,8.85344362,1.9453647738,51
109741,187825,246526,-4.1228333398,8.7768732968,1.866401628,52
109767,187840,246590,-4.2077785421,8.6345003521,1.9513468303000001,53
109970,187854,246596,-4.1790646709,8.8666041443,1.9334006607999998,54
110077,187881,246638,-4.2699919297,8.6799639815,1.9489540077,55
109896,187793,246590,-4.2340995907,8.8139620471,1.9549360641999998,56
109193,187606,246455,-4.0486558392,8.8271225714,1.9034903783000001,57
108543,187534,246428,-4.113262049399999,8.8546400313,1.9238293703999998,58
108127,187462,246386,-4.1946180178,8.9036928946,1.8699908619,59
107828,187424,246370,-4.146761565799999,8.7326060787,2.0231315083,60
107685,187421,246369,-4.1371902754,8.8881395477,1.8759729184,61
107562,187389,246347,-4.0534414844,8.7505522482,1.9609181207,62
107516,187436,246366,-4.3166519704,8.7984087002,1.9740786449999999,63
107779,187512,246439,-4.0869410008000004,8.8941216042,1.962114532,64
107900,187522,246479,-4.1084764042,8.7673020064,1.9477575963999998,65
107943,187523,246503,-4.0989051138,8.774480474199999,1.91425808,66
108051,187573,246421,-4.2640098732,8.7637127725,1.9740786449999999,67
108132,187554,246465,-4.126422573699999,8.7242311996,1.8747765071,68
108252,187613,246502,-4.2149570099,8.8618184991,1.8723836845000001,69
108426,187602,246520,-4.1228333398,8.873782612100001,1.8592231602,70
108500,187624,246507,-4.2305103568,8.721838377,1.938186306,71
108657,187615,246490,-4.0857445895,8.8402830957,1.8568303376,72
108780,187673,246539,-4.1048871703,8.697910151,2.0446669117,73
108905,187703,246578,-4.1336010414999995,8.745766603,1.9118652574,74
109032,187655,246602,-4.0426737827,8.757730716,1.9525432416,75
109142,187756,246617,-4.237688824599999,8.8606220878,1.9752750562999999,76
109263,187764,246627,-4.0821553556,8.7589271273,1.8747765071,77
109381,187793,246608,-4.1120656381,8.7864445872,1.9118652574,78
109361,187757,246567,-4.295116567,8.73380249,2.0398812665,79
108809,187602,246479,-4.223331889,8.7637127725,1.9130616687,80
108061,187459,246353,-4.2161534212,8.708677852700001,1.9669001771999999,81
107562,187381,246451,-4.0941194686,8.8474615635,1.8496518698,82
107267,187380,246367,-4.1706897918,8.9407816449,1.8843477975,83
107020,187361,246354,-4.1671005579,8.7960158776,2.0039889275,84
106898,187340,246363,-4.1838503161,8.818747692299999,1.9022939669999999,85
106885,187321,246369,-4.1898323726,8.885746725099999,1.9836499354,86
107039,187387,246390,-4.1204405172000005,8.805587167999999,1.8867406201,87
107174,187394,246392,-4.139583098,8.8103728132,1.9214365478,88
107246,187398,246405,-4.1898323726,8.7601235386,1.9764714676,89
107228,187397,246404,-4.126422573699999,8.7900338211,1.9453647738,90
107393,187440,246393,-4.1120656381,8.8510507974,1.9728822337,91
107514,187415,246382,-4.242474469799999,8.7876409985,1.9597217094,92
107645,187469,246451,-4.2269211229,8.833104627900001,2.0027925162,93
107766,187528,246453,-4.0773697104,8.8390866844,1.9046867896,94
107859,187528,246507,-4.0522450731,8.7589271273,1.9501504189999999,95
108072,187536,246516,-4.0522450731,8.721838377,1.9118652574,96
108213,187558,246466,-4.1946180178,8.9587278144,1.9692929998,97
108323,187592,246480,-4.1288153963,8.7445701917,1.8879370314,98
108497,187658,246524,-4.175475436999999,8.695517328400001,1.890329854,99
108620,187658,246541,-4.4111684631,8.8510507974,1.9848463467,100
108636,187668,246490,-4.1527436223,8.7888374098,1.9022939669999999,101
108883,187638,246481,-4.2017964856,8.7840517646,1.9453647738,102
108976,187727,246578,-4.1814574935,8.7768732968,1.9908284031999999,103
108776,187593,246482,-4.2412780585,8.7565343047,1.9190437251999999,104
108087,187428,246426,-4.115654872,8.6823568041,1.9585252981,105
107508,187343,246334,-4.1790646709,8.8558364426,1.8879370314,106
107214,187273,246305,-4.2161534212,8.841479506999999,2.0135602179,107
107076,187307,246304,-4.1312082188999995,8.7888374098,1.9310078382,108
106961,187249,246320,-4.2400816472,8.721838377,1.8951154991999999,109
106924,187308,246358,-4.3154555591,8.6703926911,1.9094724347999998,110
107144,187320,246379,-4.0761732991,8.7804625307,1.9238293703999998,111
107319,187349,246334,-4.1623149127,8.7050886188,1.9166509025999998,112
107394,187255,246412,-4.140779509300001,8.708677852700001,1.8520446924,113
107451,187355,246350,-4.2783668087999995,8.8235333375,1.9513468303000001,114
107552,187410,246371,-4.1599220901,8.8546400313,1.9262221929999999,115
107665,187387,246377,-4.247260115,8.817551281,1.9549360641999998,116
107714,187434,246412,-4.30708068,8.764909183799999,1.9692929998,117
107954,187370,246411,-4.2520457602,8.8235333375,1.9393827173,118
108116,187458,246394,-4.1659041466,8.6656070459,1.8448662246,119
108234,187497,246447,-4.3094735026,8.831908216599999,1.8723836845000001,120
108382,187509,246429,-4.163511324,8.7505522482,1.8879370314,121
108536,187558,246442,-4.2017964856,8.6512501103,1.9513468303000001,122
108654,187556,246471,-4.1383866867,8.864211321700001,1.9310078382,123
108811,187601,246499,-4.1946180178,8.764909183799999,1.9070796122,124
108934,187571,246541,-4.097708702499999,8.8079799906,1.8879370314,125
108835,187548,246410,-4.2723847523,8.6763747476,1.9286150156,126
108287,187368,246326,-4.2544385828,8.7266240222,1.9429719511999999,127
107682,187294,246313,-4.1946180178,8.7673020064,1.9417755399,128
107402,187222,246283,-4.242474469799999,8.8211405149,1.8472590472,129
107198,187214,246295,-4.2400816472,8.8797646686,1.998006871,130
107256,187225,246345,-4.2508493489,8.7720876516,1.91425808,131
107276,187256,246313,-4.1850467274,8.828318982699999,1.9214365478,132
107493,187352,246367,-4.2161534212,8.8019979341,1.938186306,133
107603,187236,246315,-4.2257247116,8.7852481759,1.9357934834,134
107652,187360,246323,-4.1706897918,8.764909183799999,1.9477575963999998,135
107716,187330,246388,-4.2640098732,8.8079799906,1.9920248145,136
107756,187376,246368,-4.1659041466,8.8510507974,1.9585252981,137
107942,187385,246435,-4.0630127748,8.9515493466,1.9094724347999998,138
108065,187417,246422,-4.271188340999999,8.757730716,1.8927226765999998,139
108202,187443,246415,-4.1240297511,8.828318982699999,1.8975083218,140
108341,187478,246456,-4.0881374121,8.7314096674,1.9070796122,141
108486,187490,246447,-4.0905302347,8.7720876516,1.9537396529,142
108609,187467,246513,-4.1563328562,8.7601235386,1.8209379986,143
108688,187533,246506,-4.1922251952,8.7038922075,2.0207386857,144
108874,187577,246539,-4.1587256788,8.7026957962,1.9238293703999998,145
108999,187579,246477,-4.2388852359,8.7960158776,1.8975083218,146
109042,187556,246484,-4.1742790257,8.865407733,1.9609181207,147
108556,187365,246437,-4.1958144290999995,8.8091764019,1.8927226765999998,148
107784,187194,246360,-4.1623149127,8.7517486595,1.8831513862,149
107276,187146,246266,-4.2687955184,8.8570328539,1.9286150156,150
107000,187154,246252,-4.151547211,8.7409809578,1.9417755399,151
106792,187103,246296,-4.2161534212,8.8426759183,1.91425808,152
106667,187122,246289,-4.1359938641000005,8.876175434699999,1.9645073545999998,153
106677,187033,246312,-4.1958144290999995,8.7003029736,1.9740786449999999,154
106842,187202,246392,-4.1503507997,8.6512501103,1.8975083218,155
106985,187202,246370,-4.1682969692,8.913264185,1.9310078382,156
107081,187265,246330,-4.2257247116,8.8929251929,1.9657037659,157
107100,187229,246362,-4.1527436223,8.831908216599999,1.8831513862,158
107242,187296,246401,-4.2388852359,8.817551281,1.8448662246,159
107344,187328,246409,-4.2652062845000005,8.8498543861,2.0171494518,160
107482,187425,246463,-4.175475436999999,8.8343010392,1.8999011444,161
107607,187361,246473,-4.2436708811,8.8402830957,1.8783657409999999,162
107768,187406,246466,-4.199403663,8.885746725099999,1.9429719511999999,163
107904,187384,246439,-4.139583098,8.8079799906,1.8807585636,164
107968,187414,246511,-4.2759739861999995,8.8522472087,2.0015961049,165
108148,187449,246556,-4.3214376156,8.8307118053,2.0303099761,166
106198,186967,246252,-4.2041893082,8.7828553533,1.9310078382,167
106017,187062,246316,-4.1898323726,8.769694829,1.9429719511999999,168
106018,187064,246256,-4.1922251952,8.752945070800001,1.8927226765999998,169
106174,187085,246287,-4.2927237444,8.793623055,1.8592231602,170
106343,187156,246323,-4.1072799929,8.6679998685,1.9992032822999999,171
106434,187176,246352,-4.1312082188999995,8.7050886188,1.9334006607999998,172
106506,187155,246299,-4.1958144290999995,8.7505522482,1.9070796122,173
106656,187200,246326,-4.1563328562,8.6775711589,1.9262221929999999,174
106751,187138,246350,-4.1778682596,8.774480474199999,1.9800607015,175
106913,187312,246356,-4.1024943476999995,8.8079799906,1.8975083218,176
107054,187294,246421,-4.2879380992,8.7421773691,1.8735800958,177
107227,187294,246406,-4.2879380992,8.7421773691,1.8735800958,178
107363,187363,246437,-4.2879380992,8.7421773691,1.8735800958,179
107517,187377,246466,-4.2879380992,8.7421773691,1.8735800958,180
107661,187370,246469,-4.2879380992,8.7421773691,1.8735800958,181
107787,187410,246502,-4.2879380992,8.7421773691,1.8735800958,182
107935,187473,246507,-4.2879380992,8.7421773691,1.8735800958,183
108084,187429,246530,-4.2879380992,8.7421773691,1.8735800958,184
108240,187510,246577,-4.2879380992,8.7421773691,1.8735800958,185
108264,187472,246441,-4.2879380992,8.7421773691,1.8735800958,186
107766,187282,246370,-4.2879380992,8.7421773691,1.8735800958,187
107061,187124,246276,-4.2879380992,8.7421773691,1.8735800958,188
106604,187119,246289,-4.2879380992,8.7421773691,1.8735800958,189
106441,187100,246281,-4.2879380992,8.7421773691,1.8735800958,190
106310,187095,246266,-4.3034914461,8.9359959997,1.9022939669999999,191
106423,187141,246322,-4.3034914461,8.9359959997,1.9022939669999999,192
106610,187181,246323,-4.3034914461,8.9359959997,1.9022939669999999,193
106729,187190,246316,-4.3034914461,8.9359959997,1.9022939669999999,194
106787,187199,246340,-4.3034914461,8.9359959997,1.9022939669999999,195
106856,187204,246307,-4.3034914461,8.9359959997,1.9022939669999999,196
106980,187250,246393,-4.3034914461,8.9359959997,1.9022939669999999,197
107143,187297,246403,-4.3034914461,8.9359959997,1.9022939669999999,198
107295,187311,246417,-4.3034914461,8.9359959997,1.9022939669999999,199
107445,187333,246410,-4.3034914461,8.9359959997,1.9022939669999999,200
107591,187349,246429,-4.3034914461,8.9359959997,1.9022939669999999,201
107774,187368,246432,-4.3034914461,8.9359959997,1.9022939669999999,202
107912,187448,246484,-4.3034914461,8.9359959997,1.9022939669999999,203
108046,187441,246506,-4.3034914461,8.9359959997,1.9022939669999999,204
108183,187460,246467,-4.3034914461,8.9359959997,1.9022939669999999,205
108317,187480,246548,-4.3034914461,8.9359959997,1.9022939669999999,206
108350,187465,246519,-4.3034914461,8.9359959997,1.9022939669999999,207
107886,187320,246385,-4.3034914461,8.9359959997,1.9022939669999999,208
107193,187173,246296,-4.3034914461,8.9359959997,1.9022939669999999,209
106784,187122,246271,-4.3034914461,8.9359959997,1.9022939669999999,210
106648,187128,246330,-4.3034914461,8.9359959997,1.9022939669999999,211
106576,187089,246303,-4.3034914461,8.9359959997,1.9022939669999999,212
106561,187127,246316,-4.3034914461,8.9359959997,1.9022939669999999,213
106687,187195,246347,-4.3034914461,8.9359959997,1.9022939669999999,214
106840,187217,246327,-4.3034914461,8.9359959997,1.9022939669999999,215
106952,187221,246373,-4.1587256788,8.7361953126,1.9968104597,216
107043,187269,246416,-4.1587256788,8.7361953126,1.9968104597,217
107116,187257,246455,-4.1587256788,8.7361953126,1.9968104597,218
107247,187297,246437,-4.1587256788,8.7361953126,1.9968104597,219
107395,187262,246439,-4.1587256788,8.7361953126,1.9968104597,220
107529,187314,246433,-4.1587256788,8.7361953126,1.9968104597,221
107670,187384,246446,-4.1587256788,8.7361953126,1.9968104597,222
107824,187387,246438,-4.1587256788,8.7361953126,1.9968104597,223
107958,187400,246531,-4.1587256788,8.7361953126,1.9968104597,224
108111,187447,246503,-4.1587256788,8.7361953126,1.9968104597,225
108266,187476,246560,-4.1587256788,8.7361953126,1.9968104597,226
108400,187456,246569,-4.1587256788,8.7361953126,1.9968104597,227
108533,187512,246583,-4.1587256788,8.7361953126,1.9968104597,228
108403,187431,246536,-4.283152454,8.8091764019,1.9573288867999998,229
107644,187235,246406,-4.2496529376,8.8378902731,1.9190437251999999,230
107026,187093,246340,-4.103690759,8.7314096674,1.938186306,231
106652,187068,246321,-4.0941194686,8.8438723296,1.8831513862,232
106439,187089,246327,-4.0941194686,8.8438723296,1.8831513862,233
106264,187075,246346,-4.0941194686,8.8438723296,1.8831513862,234
106185,187024,246341,-4.0941194686,8.8438723296,1.8831513862,235
106285,187094,246359,-4.0941194686,8.8438723296,1.8831513862,236
106467,187133,246357,-4.0941194686,8.8438723296,1.8831513862,237
106633,187190,246414,-4.0941194686,8.8438723296,1.8831513862,238
106720,187158,246435,-4.0941194686,8.8438723296,1.8831513862,239
106815,187198,246403,-4.0941194686,8.8438723296,1.8831513862,240
106921,187234,246465,-4.0941194686,8.8438723296,1.8831513862,241
107076,187240,246483,-4.0941194686,8.8438723296,1.8831513862,242
107207,187261,246495,-4.0941194686,8.8438723296,1.8831513862,243
107384,187309,246540,-4.0941194686,8.8438723296,1.8831513862,244
107552,187353,246526,-4.0941194686,8.8438723296,1.8831513862,245
107684,187350,246486,-4.0941194686,8.8438723296,1.8831513862,246
107830,187400,246522,-4.0941194686,8.8438723296,1.8831513862,247
107949,187397,246571,-4.0689948312999995,8.7673020064,1.9704894111,248
108104,187370,246535,-4.0893338234,8.818747692299999,1.9118652574,249
108235,187472,246587,-4.1958144290999995,8.8354974505,1.9920248145,250
108367,187476,246601,-4.2269211229,8.8845503138,1.9405791285999998,251
108260,187364,246545,-4.3034914461,8.7314096674,1.9238293703999998,252
107612,187252,246443,-4.2281175342,8.8354974505,1.9310078382,253
106871,187070,246357,-4.1443687432,8.7768732968,1.890329854,254
106460,187069,246315,-4.1443687432,8.7768732968,1.890329854,255
106261,187053,246330,-4.1443687432,8.7768732968,1.890329854,256
106091,186991,246313,-4.1443687432,8.7768732968,1.890329854,257
106015,187011,246308,-4.1443687432,8.7768732968,1.890329854,258
106103,187051,246308,-4.1443687432,8.7768732968,1.890329854,259
106276,187088,246406,-4.1443687432,8.7768732968,1.890329854,260
106428,187130,246336,-4.1443687432,8.7768732968,1.890329854,261
106507,187142,246398,-4.1443687432,8.7768732968,1.890329854,262
106597,187190,246397,-4.1443687432,8.7768732968,1.890329854,263
106708,187186,246395,-4.1443687432,8.7768732968,1.890329854,264
106845,187227,246345,-4.1443687432,8.7768732968,1.890329854,265
107002,187244,246467,-4.1443687432,8.7768732968,1.890329854,266
107180,187277,246473,-4.223331889,8.7720876516,1.9477575963999998,267
107339,187282,246488,-4.223331889,8.7720876516,1.9477575963999998,268
107481,187328,246475,-4.223331889,8.7720876516,1.9477575963999998,269
107646,187382,246512,-4.223331889,8.7720876516,1.9477575963999998,270
107781,187355,246483,-4.223331889,8.7720876516,1.9477575963999998,271
107926,187368,246559,-4.223331889,8.7720876516,1.9477575963999998,272
108069,187442,246541,-4.223331889,8.7720876516,1.9477575963999998,273
108207,187417,246579,-4.223331889,8.7720876516,1.9477575963999998,274
108349,187421,246592,-4.223331889,8.7720876516,1.9477575963999998,275
108173,187358,246466,-4.223331889,8.7720876516,1.9477575963999998,276
107498,187162,246384,-4.223331889,8.7720876516,1.9477575963999998,277
106895,187071,246347,-4.223331889,8.7720876516,1.9477575963999998,278
106599,187085,246356,-4.223331889,8.7720876516,1.9477575963999998,279
106498,187071,246279,-4.223331889,8.7720876516,1.9477575963999998,280
106433,187036,246309,-4.223331889,8.7720876516,1.9477575963999998,281
106495,187084,246356,-4.223331889,8.7720876516,1.9477575963999998,282
106685,187129,246404,-4.223331889,8.7720876516,1.9477575963999998,283
106834,187155,246373,-4.223331889,8.7720876516,1.9477575963999998,284
106908,187181,246423,-4.223331889,8.7720876516,1.9477575963999998,285
106984,187179,246365,-4.223331889,8.7720876516,1.9477575963999998,286
107076,187180,246376,-4.223331889,8.7720876516,1.9477575963999998,287
107194,187242,246407,-4.223331889,8.7720876516,1.9477575963999998,288
107325,187247,246410,-4.223331889,8.7720876516,1.9477575963999998,289
107492,187282,246420,-4.223331889,8.7720876516,1.9477575963999998,290
107645,187317,246470,-4.223331889,8.7720876516,1.9477575963999998,291
107794,187339,246470,-4.223331889,8.7720876516,1.9477575963999998,292
107934,187334,246496,-4.223331889,8.7720876516,1.9477575963999998,293
108046,187357,246528,-4.223331889,8.7720876516,1.9477575963999998,294
108198,187451,246511,-4.223331889,8.7720876516,1.9477575963999998,295
108338,187483,246524,-4.223331889,8.7720876516,1.9477575963999998,296
108322,187359,246553,-4.223331889,8.7720876516,1.9477575963999998,297
107813,187229,246447,-4.223331889,8.7720876516,1.9477575963999998,298
107143,187120,246387,-4.2137605985999995,8.761319949899999,1.9824535241,299
106759,187078,246367,-4.2137605985999995,8.761319949899999,1.9824535241,300
106652,187077,246364,-4.2137605985999995,8.761319949899999,1.9824535241,301
106578,187055,246335,-4.2137605985999995,8.761319949899999,1.9824535241,302
106608,187075,246373,-4.2137605985999995,8.761319949899999,1.9824535241,303
106787,187115,246425,-4.2137605985999995,8.761319949899999,1.9824535241,304
106933,187181,246392,-4.2137605985999995,8.761319949899999,1.9824535241,305
107039,187194,246424,-4.031906081,8.7673020064,1.938186306,306
107116,187191,246437,-4.199403663,8.7972122889,1.9740786449999999,307
107216,187265,246443,-4.223331889,8.6129649487,1.9501504189999999,308
107346,187281,246486,-4.2006000743,8.8091764019,1.8687944506,309
107477,187286,246535,-4.2006000743,8.8091764019,1.8687944506,310
107620,187316,246480,-4.2006000743,8.8091764019,1.8687944506,311
107777,187332,246506,-4.2006000743,8.8091764019,1.8687944506,312
107924,187322,246595,-4.2006000743,8.8091764019,1.8687944506,313
108063,187405,246567,-4.2006000743,8.8091764019,1.8687944506,314
108240,187392,246604,-4.2006000743,8.8091764019,1.8687944506,315
108370,187466,246559,-4.2006000743,8.8091764019,1.8687944506,316
108510,187476,246647,-4.2006000743,8.8091764019,1.8687944506,317
108620,187487,246614,-4.2006000743,8.8091764019,1.8687944506,318
108322,187358,246522,-4.2006000743,8.8091764019,1.8687944506,319
107575,187154,246480,-4.2006000743,8.8091764019,1.8687944506,320
106948,187076,246401,-4.2006000743,8.8091764019,1.8687944506,321
106646,187068,246388,-4.2006000743,8.8091764019,1.8687944506,322
106456,187073,246332,-4.2006000743,8.8091764019,1.8687944506,323
106333,187065,246374,-4.2006000743,8.8091764019,1.8687944506,324
106275,187085,246423,-4.2006000743,8.8091764019,1.8687944506,325
106437,187127,246438,-4.2006000743,8.8091764019,1.8687944506,326
106640,187161,246438,-4.2006000743,8.8091764019,1.8687944506,327
106751,187176,246468,-4.2006000743,8.8091764019,1.8687944506,328
106822,187197,246551,-4.2006000743,8.8091764019,1.8687944506,329
106916,187221,246510,-4.2006000743,8.8091764019,1.8687944506,330
107040,187252,246517,-4.2006000743,8.8091764019,1.8687944506,331
107201,187307,246545,-4.2006000743,8.8091764019,1.8687944506,332
107311,187325,246584,-4.2006000743,8.8091764019,1.8687944506,333
107483,187369,246571,-4.2006000743,8.8091764019,1.8687944506,334
107608,187400,246614,-4.2006000743,8.8091764019,1.8687944506,335
107774,187421,246574,-4.2006000743,8.8091764019,1.8687944506,336
107900,187455,246684,-4.2006000743,8.8091764019,1.8687944506,337
108040,187474,246655,-4.1048871703,8.828318982699999,1.8711872732,338
108183,187494,246677,-4.1048871703,8.828318982699999,1.8711872732,339
108311,187501,246658,-4.1048871703,8.828318982699999,1.8711872732,340
108162,187414,246630,-4.1048871703,8.828318982699999,1.8711872732,341
107482,187236,246529,-4.1048871703,8.828318982699999,1.8711872732,342
106785,187166,246436,-4.1048871703,8.828318982699999,1.8711872732,343
106416,187112,246396,-4.1048871703,8.828318982699999,1.8711872732,344
106214,187075,246420,-4.1048871703,8.828318982699999,1.8711872732,345
106105,187075,246380,-4.1048871703,8.828318982699999,1.8711872732,346
106057,187081,246410,-4.1048871703,8.828318982699999,1.8711872732,347
106208,187167,246433,-4.1048871703,8.828318982699999,1.8711872732,348
106392,187197,246426,-4.1048871703,8.828318982699999,1.8711872732,349
106520,187184,246465,-4.1048871703,8.828318982699999,1.8711872732,350
106586,187231,246460,-4.1048871703,8.828318982699999,1.8711872732,351
106692,187230,246479,-4.1048871703,8.828318982699999,1.8711872732,352
106809,187245,246534,-4.1048871703,8.828318982699999,1.8711872732,353
106924,187281,246558,-4.1048871703,8.828318982699999,1.8711872732,354
107107,187336,246563,-4.1048871703,8.828318982699999,1.8711872732,355
107274,187341,246601,-4.1048871703,8.828318982699999,1.8711872732,356
107409,187389,246568,-4.2185462438,8.819944103600001,1.91425808,357
107568,187384,246599,-4.2185462438,8.819944103600001,1.91425808,358
107713,187438,246595,-4.2185462438,8.819944103600001,1.91425808,359
107856,187478,246563,-4.2185462438,8.819944103600001,1.91425808,360
108004,187492,246641,-4.2185462438,8.819944103600001,1.91425808,361
108157,187523,246672,-4.2185462438,8.819944103600001,1.91425808,362
108282,187509,246615,-4.2185462438,8.819944103600001,1.91425808,363
108122,187427,246599,-4.2185462438,8.819944103600001,1.91425808,364
107453,187244,246509,-4.2185462438,8.819944103600001,1.91425808,365
106883,187150,246434,-4.2185462438,8.819944103600001,1.91425808,366
106603,187132,246435,-4.2185462438,8.819944103600001,1.91425808,367
106526,187145,246447,-4.2185462438,8.819944103600001,1.91425808,368
106501,187156,246423,-4.2185462438,8.819944103600001,1.91425808,369
106583,187181,246432,-4.2185462438,8.819944103600001,1.91425808,370
106747,187247,246478,-4.2185462438,8.819944103600001,1.91425808,371
106864,187239,246495,-4.2185462438,8.819944103600001,1.91425808,372
106935,187259,246476,-4.2185462438,8.819944103600001,1.91425808,373
107040,187254,246486,-4.2185462438,8.819944103600001,1.91425808,374
107123,187295,246485,-4.2185462438,8.819944103600001,1.91425808,375
107247,187298,246578,-4.2185462438,8.819944103600001,1.91425808,376
107381,187345,246550,-4.2185462438,8.819944103600001,1.91425808,377
107544,187319,246564,-4.2185462438,8.819944103600001,1.91425808,378
107686,187403,246551,-4.2185462438,8.819944103600001,1.91425808,379
107855,187372,246546,-4.2185462438,8.819944103600001,1.91425808,380
107984,187456,246597,-4.2185462438,8.819944103600001,1.91425808,381
108113,187443,246638,-4.2185462438,8.819944103600001,1.91425808,382
108272,187473,246652,-4.2185462438,8.819944103600001,1.91425808,383
108376,187476,246640,-4.2185462438,8.819944103600001,1.91425808,384
108277,187429,246575,-4.2185462438,8.819944103600001,1.91425808,385
107682,187237,246508,-4.2185462438,8.819944103600001,1.91425808,386
107068,187156,246494,-4.2185462438,8.819944103600001,1.91425808,387
106769,187141,246445,-4.2185462438,8.819944103600001,1.91425808,388
106685,187141,246424,-4.2185462438,8.819944103600001,1.91425808,389
106630,187116,246412,-4.2185462438,8.819944103600001,1.91425808,390
106671,187152,246460,-4.2185462438,8.819944103600001,1.91425808,391
106833,187219,246489,-4.2185462438,8.819944103600001,1.91425808,392
106963,187233,246510,-4.2185462438,8.819944103600001,1.91425808,393
107036,187192,246563,-4.2185462438,8.819944103600001,1.91425808,394
107102,187244,246519,-4.2185462438,8.819944103600001,1.91425808,395
107185,187258,246493,-4.2185462438,8.819944103600001,1.91425808,396
107316,187291,246532,-4.2185462438,8.819944103600001,1.91425808,397
107456,187329,246527,-4.2185462438,8.819944103600001,1.91425808,398
107531,187316,246626,-4.0881374121,8.7541414821,1.8711872732,399
107652,187389,246610,-4.0881374121,8.7541414821,1.8711872732,400
107811,187391,246645,-4.0881374121,8.7541414821,1.8711872732,401
107937,187415,246644,-4.0881374121,8.7541414821,1.8711872732,402
107928,187373,246552,-4.0881374121,8.7541414821,1.8711872732,403
107426,187228,246505,-4.0881374121,8.7541414821,1.8711872732,404
106735,187050,246415,-4.0881374121,8.7541414821,1.8711872732,405
106322,187017,246367,-4.0881374121,8.7541414821,1.8711872732,406
106169,187035,246357,-4.0881374121,8.7541414821,1.8711872732,407
106099,187005,246382,-4.0881374121,8.7541414821,1.8711872732,408
106093,187042,246365,-4.0881374121,8.7541414821,1.8711872732,409
106240,187117,246436,-4.0881374121,8.7541414821,1.8711872732,410
106402,187118,246460,-4.0881374121,8.7541414821,1.8711872732,411
106519,187132,246473,-4.0881374121,8.7541414821,1.8711872732,412
106600,187186,246419,-4.0881374121,8.7541414821,1.8711872732,413
106670,187166,246499,-4.0881374121,8.7541414821,1.8711872732,414
106779,187205,246496,-4.0881374121,8.7541414821,1.8711872732,415
106926,187220,246537,-4.0881374121,8.7541414821,1.8711872732,416
107052,187278,246558,-4.0881374121,8.7541414821,1.8711872732,417
107207,187274,246526,-4.1527436223,8.829515394,1.9334006607999998,418
107375,187317,246529,-4.2556349941,8.7768732968,1.9501504189999999,419
107504,187333,246576,-4.2556349941,8.7768732968,1.9501504189999999,420
107627,187357,246551,-4.2556349941,8.7768732968,1.9501504189999999,421
107778,187434,246606,-4.2556349941,8.7768732968,1.9501504189999999,422
107906,187399,246606,-4.2556349941,8.7768732968,1.9501504189999999,423
108026,187426,246626,-4.2556349941,8.7768732968,1.9501504189999999,424
107828,187303,246610,-4.2556349941,8.7768732968,1.9501504189999999,425
107190,187147,246473,-4.2556349941,8.7768732968,1.9501504189999999,426
106666,187091,246367,-4.2556349941,8.7768732968,1.9501504189999999,427
106459,187078,246351,-4.2556349941,8.7768732968,1.9501504189999999,428
106396,187088,246411,-4.2556349941,8.7768732968,1.9501504189999999,429
106378,187127,246432,-4.2556349941,8.7768732968,1.9501504189999999,430
106492,187153,246453,-4.2556349941,8.7768732968,1.9501504189999999,431
106638,187181,246405,-4.2556349941,8.7768732968,1.9501504189999999,432
106733,187224,246504,-4.2556349941,8.7768732968,1.9501504189999999,433
106800,187210,246518,-4.2556349941,8.7768732968,1.9501504189999999,434
106864,187245,246442,-4.2556349941,8.7768732968,1.9501504189999999,435
106950,187233,246485,-4.2556349941,8.7768732968,1.9501504189999999,436
107060,187281,246482,-4.2556349941,8.7768732968,1.9501504189999999,437
107182,187263,246554,-4.2556349941,8.7768732968,1.9501504189999999,438
107326,187335,246505,-4.2556349941,8.7768732968,1.9501504189999999,439
107463,187325,246580,-4.2556349941,8.7768732968,1.9501504189999999,440
107603,187357,246563,-4.2556349941,8.7768732968,1.9501504189999999,441
107730,187374,246576,-4.2556349941,8.7768732968,1.9501504189999999,442
107868,187441,246645,-4.2556349941,8.7768732968,1.9501504189999999,443
108007,187477,246653,-4.2556349941,8.7768732968,1.9501504189999999,444
108045,187454,246605,-4.2556349941,8.7768732968,1.9501504189999999,445
107622,187283,246499,-4.2556349941,8.7768732968,1.9501504189999999,446
106868,187136,246481,-4.2556349941,8.7768732968,1.9501504189999999,447
106373,187084,246419,-4.2556349941,8.7768732968,1.9501504189999999,448
106142,187098,246385,-4.2556349941,8.7768732968,1.9501504189999999,449
106000,187078,246377,-4.2556349941,8.7768732968,1.9501504189999999,450
105908,187098,246346,-4.2556349941,8.7768732968,1.9501504189999999,451
105958,187098,246439,-4.2556349941,8.7768732968,1.9501504189999999,452
106144,187176,246431,-4.2556349941,8.7768732968,1.9501504189999999,453
106292,187157,246440,-4.2556349941,8.7768732968,1.9501504189999999,454
106392,187181,246507,-4.2556349941,8.7768732968,1.9501504189999999,455
106483,187193,246480,-4.2556349941,8.7768732968,1.9501504189999999,456
106577,187212,246466,-4.2556349941,8.7768732968,1.9501504189999999,457
106720,187287,246512,-4.2556349941,8.7768732968,1.9501504189999999,458
106869,187316,246499,-4.2556349941,8.7768732968,1.9501504189999999,459
106989,187325,246548,-4.2556349941,8.7768732968,1.9501504189999999,460
105832,187140,246461,-4.1802610821999995,8.7768732968,1.9166509025999998,461
105906,187131,246446,-4.1802610821999995,8.7768732968,1.9166509025999998,462
105997,187152,246446,-4.1802610821999995,8.7768732968,1.9166509025999998,463
106083,187158,246450,-4.1802610821999995,8.7768732968,1.9166509025999998,464
106250,187205,246448,-4.1802610821999995,8.7768732968,1.9166509025999998,465
106374,187248,246493,-4.1802610821999995,8.7768732968,1.9166509025999998,466
106522,187287,246539,-4.1802610821999995,8.7768732968,1.9166509025999998,467
106684,187269,246512,-4.1802610821999995,8.7768732968,1.9166509025999998,468
106837,187363,246547,-4.1802610821999995,8.7768732968,1.9166509025999998,469
107011,187344,246544,-4.1802610821999995,8.7768732968,1.9166509025999998,470
107161,187363,246548,-4.1802610821999995,8.7768732968,1.9166509025999998,471
107298,187406,246582,-4.1802610821999995,8.7768732968,1.9166509025999998,472
107440,187451,246587,-4.1802610821999995,8.7768732968,1.9166509025999998,473
107545,187411,246560,-4.1204405172000005,8.8247297488,1.9070796122,474
107259,187303,246519,-4.1204405172000005,8.8247297488,1.9070796122,475
106517,187141,246450,-4.1204405172000005,8.8247297488,1.9070796122,476
105950,187060,246342,-4.1204405172000005,8.8247297488,1.9070796122,477
105710,187033,246343,-4.1204405172000005,8.8247297488,1.9070796122,478
105580,187039,246346,-4.1204405172000005,8.8247297488,1.9070796122,479
105501,186999,246380,-4.1204405172000005,8.8247297488,1.9070796122,480
105586,187052,246391,-4.1204405172000005,8.8247297488,1.9070796122,481
105765,187094,246420,-4.1204405172000005,8.8247297488,1.9070796122,482
105927,187132,246371,-4.1204405172000005,8.8247297488,1.9070796122,483
106035,187136,246356,-4.1204405172000005,8.8247297488,1.9070796122,484
106123,187172,246425,-4.1204405172000005,8.8247297488,1.9070796122,485
106245,187190,246402,-4.1204405172000005,8.8247297488,1.9070796122,486
106371,187236,246441,-4.1204405172000005,8.8247297488,1.9070796122,487
106504,187273,246465,-4.1204405172000005,8.8247297488,1.9070796122,488
106666,187271,246512,-4.1204405172000005,8.8247297488,1.9070796122,489
106844,187299,246481,-4.1204405172000005,8.8247297488,1.9070796122,490
106973,187304,246497,-4.1204405172000005,8.8247297488,1.9070796122,491
107141,187343,246452,-4.1204405172000005,8.8247297488,1.9070796122,492
107285,187334,246488,-4.2939201557,8.749355836900001,2.0207386857,493
107453,187414,246557,-4.1790646709,8.876175434699999,1.9573288867999998,494
107547,187427,246573,-4.2520457602,8.7972122889,1.938186306,495
107341,187285,246494,-4.2807596314,8.8929251929,1.9405791285999998,496
106699,187060,246350,-4.175475436999999,8.7409809578,1.890329854,497
106187,187090,246332,-4.1527436223,8.6644106346,2.0303099761,498
105980,187067,246363,-4.2867416879,8.7756768855,1.9549360641999998,499
105916,187024,246299,-4.2185462438,8.7314096674,1.8831513862,500
105935,187091,246320,-4.2185462438,8.721838377,1.9465611851,501
106071,187165,246362,-4.1288153963,8.7792661194,1.8400805794,502
106210,187165,246407,-4.2137605985999995,8.8211405149,1.9549360641999998,503
106336,187203,246428,-4.2604206393,8.9551385805,1.9824535241,504
106389,187126,246376,-4.2448672924,8.6787675702,1.8711872732,505
106461,187173,246445,-4.1694933805000005,8.748159425599999,1.9046867896,506
106582,187264,246491,-4.1694933805000005,8.7960158776,1.8687944506,507
106683,187207,246440,-4.1802610821999995,8.748159425599999,1.9525432416,508
106869,187277,246471,-4.3573299546,8.8869431364,1.9896319919,509
106978,187212,246512,-4.2939201557,8.8103728132,1.9465611851,510
107147,187361,246481,-4.2065821308,8.7960158776,1.9932212258000002,511
107274,187357,246507,-4.1850467274,8.7984087002,1.9274186043000001,512
107391,187382,246530,-4.3250268494999995,8.833104627900001,1.938186306,513
107585,187423,246571,-4.2185462438,8.7290168448,2.0135602179,514
107691,187342,246556,-4.295116567,8.9276211206,1.9860427579999997,515
107388,187276,246460,-4.1934216065,8.8378902731,1.91425808,516
106682,187116,246360,-4.2329031794,8.7254276109,1.9405791285999998,517
106129,187026,246329,-4.1946180178,8.7433737804,1.9094724347999998,518
105863,187010,246303,-4.1946180178,8.7433737804,1.9094724347999998,519
105714,186957,246329,-4.1946180178,8.7433737804,1.9094724347999998,520
105609,186997,246321,-4.1946180178,8.7433737804,1.9094724347999998,521
105675,187046,246269,-4.1946180178,8.7433737804,1.9094724347999998,522
105827,187079,246336,-4.1946180178,8.7433737804,1.9094724347999998,523
106006,187095,246411,-4.1946180178,8.7433737804,1.9094724347999998,524
106097,187153,246391,-4.1946180178,8.7433737804,1.9094724347999998,525
106219,187168,246392,-4.1946180178,8.7433737804,1.9094724347999998,526
106334,187191,246402,-4.1946180178,8.7433737804,1.9094724347999998,527
106442,187233,246451,-4.1946180178,8.7433737804,1.9094724347999998,528
106596,187235,246464,-4.1946180178,8.7433737804,1.9094724347999998,529
106740,187260,246467,-4.1946180178,8.7433737804,1.9094724347999998,530
106896,187290,246428,-4.2412780585,8.8582292652,1.8592231602,531
107033,187289,246505,-4.2412780585,8.8582292652,1.8592231602,532
107176,187309,246481,-4.2412780585,8.8582292652,1.8592231602,533
107317,187361,246533,-4.2412780585,8.8582292652,1.8592231602,534
107488,187412,246529,-4.2412780585,8.8582292652,1.8592231602,535
107620,187373,246570,-4.2412780585,8.8582292652,1.8592231602,536
107296,187262,246435,-4.2412780585,8.8582292652,1.8592231602,537
106539,187077,246334,-4.2412780585,8.8582292652,1.8592231602,538
105942,186994,246302,-4.2412780585,8.8582292652,1.8592231602,539
105628,186978,246302,-4.2412780585,8.8582292652,1.8592231602,540
105463,186941,246298,-4.2412780585,8.8582292652,1.8592231602,541
105325,186927,246282,-4.2412780585,8.8582292652,1.8592231602,542
105321,186982,246294,-4.2412780585,8.8582292652,1.8592231602,543
105466,187005,246329,-4.2412780585,8.8582292652,1.8592231602,544
105667,187026,246320,-4.2412780585,8.8582292652,1.8592231602,545
105786,187027,246301,-4.2412780585,8.8582292652,1.8592231602,546
105887,187085,246345,-4.2412780585,8.8582292652,1.8592231602,547
106004,187085,246396,-4.2412780585,8.8582292652,1.8592231602,548
106135,187112,246399,-4.2412780585,8.8582292652,1.8592231602,549
106287,187163,246367,-4.2412780585,8.8582292652,1.8592231602,550
106435,187195,246438,-4.2412780585,8.8582292652,1.8592231602,551
106603,187232,246426,-4.2412780585,8.8582292652,1.8592231602,552
106763,187234,246422,-4.2412780585,8.8582292652,1.8592231602,553
106918,187272,246431,-4.2412780585,8.8582292652,1.8592231602,554
107068,187289,246442,-4.2412780585,8.8582292652,1.8592231602,555
107243,187326,246482,-4.2412780585,8.8582292652,1.8592231602,556
107386,187330,246485,-4.2412780585,8.8582292652,1.8592231602,557
107409,187284,246462,-4.2412780585,8.8582292652,1.8592231602,558
106916,187134,246406,-4.2412780585,8.8582292652,1.8592231602,559
106191,186969,246249,-4.2412780585,8.8582292652,1.8592231602,560
105773,186902,246228,-4.2412780585,8.8582292652,1.8592231602,561
105585,186931,246288,-4.2412780585,8.8582292652,1.8592231602,562
105508,186958,246265,-4.2412780585,8.8582292652,1.8592231602,563
105478,186939,246229,-4.2412780585,8.8582292652,1.8592231602,564
105653,187018,246268,-4.2412780585,8.8582292652,1.8592231602,565
105838,187050,246308,-4.2412780585,8.8582292652,1.8592231602,566
105960,187057,246360,-4.2412780585,8.8582292652,1.8592231602,567
106061,187058,246297,-4.2412780585,8.8582292652,1.8592231602,568
106167,187092,246314,-4.2412780585,8.8582292652,1.8592231602,569
106257,187103,246361,-4.2568314054,8.752945070800001,1.9788642901999998,570
106393,187146,246351,-4.2568314054,8.752945070800001,1.9788642901999998,571
106556,187141,246394,-4.2568314054,8.752945070800001,1.9788642901999998,572
106712,187164,246333,-4.2568314054,8.752945070800001,1.9788642901999998,573
106849,187213,246370,-4.2568314054,8.752945070800001,1.9788642901999998,574
107015,187241,246405,-4.2568314054,8.752945070800001,1.9788642901999998,575
107155,187246,246428,-4.2568314054,8.752945070800001,1.9788642901999998,576
107299,187294,246484,-4.2568314054,8.752945070800001,1.9788642901999998,577
107430,187279,246424,-4.2568314054,8.752945070800001,1.9788642901999998,578
107259,187216,246396,-4.2568314054,8.752945070800001,1.9788642901999998,579
106650,187025,246266,-4.2568314054,8.752945070800001,1.9788642901999998,580
106077,186925,246214,-4.2568314054,8.752945070800001,1.9788642901999998,581
105818,186912,246210,-4.2568314054,8.752945070800001,1.9788642901999998,582
105741,186890,246207,-4.2568314054,8.752945070800001,1.9788642901999998,583
105747,186912,246237,-4.2568314054,8.752945070800001,1.9788642901999998,584
105862,186984,246300,-4.2568314054,8.752945070800001,1.9788642901999998,585
106011,187008,246271,-4.2568314054,8.752945070800001,1.9788642901999998,586
106138,186969,246287,-4.2568314054,8.752945070800001,1.9788642901999998,587
106206,187035,246338,-4.2568314054,8.752945070800001,1.9788642901999998,588
106285,187021,246280,-4.2568314054,8.752945070800001,1.9788642901999998,589
106386,187092,246338,-4.2568314054,8.752945070800001,1.9788642901999998,590
106512,187057,246335,-4.2568314054,8.752945070800001,1.9788642901999998,591
106630,187102,246328,-4.2568314054,8.752945070800001,1.9788642901999998,592
106784,187154,246328,-4.2568314054,8.752945070800001,1.9788642901999998,593
106888,187132,246364,-4.2568314054,8.752945070800001,1.9788642901999998,594
107050,187197,246398,-4.2568314054,8.752945070800001,1.9788642901999998,595
107195,187202,246388,-4.2568314054,8.752945070800001,1.9788642901999998,596
107337,187275,246461,-4.2568314054,8.752945070800001,1.9788642901999998,597
107334,187206,246375,-4.2568314054,8.752945070800001,1.9788642901999998,598
106844,186990,246325,-4.2568314054,8.752945070800001,1.9788642901999998,599
106081,186841,246241,-4.2568314054,8.752945070800001,1.9788642901999998,600
105618,186815,246201,-4.2568314054,8.752945070800001,1.9788642901999998,601
105400,186828,246137,-4.2568314054,8.752945070800001,1.9788642901999998,602
105276,186805,246220,-4.2568314054,8.752945070800001,1.9788642901999998,603
105221,186786,246148,-4.2568314054,8.752945070800001,1.9788642901999998,604
105331,186835,246240,-4.2568314054,8.752945070800001,1.9788642901999998,605
105539,186927,246266,-4.2568314054,8.752945070800001,1.9788642901999998,606
105695,186945,246274,-4.2568314054,8.752945070800001,1.9788642901999998,607
105787,186948,246294,-4.2568314054,8.752945070800001,1.9788642901999998,608
105878,186982,246326,-4.2568314054,8.752945070800001,1.9788642901999998,609
106000,186987,246351,-4.2568314054,8.752945070800001,1.9788642901999998,610
106124,187012,246374,-4.2568314054,8.752945070800001,1.9788642901999998,611
105206,186810,246235,-4.2975093896,8.5914295453,1.9310078382,612
105327,186823,246183,-4.2975093896,8.5914295453,1.9310078382,613
105418,186820,246234,-4.2975093896,8.5914295453,1.9310078382,614
105526,186856,246309,-4.2975093896,8.5914295453,1.9310078382,615
105666,186899,246275,-4.2975093896,8.5914295453,1.9310078382,616
105832,186913,246308,-4.2975093896,8.5914295453,1.9310078382,617
105976,186929,246303,-4.2975093896,8.5914295453,1.9310078382,618
106127,186974,246281,-4.2975093896,8.5914295453,1.9310078382,619
106284,186999,246269,-4.2975093896,8.5914295453,1.9310078382,620
106446,187023,246326,-4.2975093896,8.5914295453,1.9310078382,621
106624,187050,246382,-4.2975093896,8.5914295453,1.9310078382,622
106770,187113,246372,-4.2975093896,8.5914295453,1.9310078382,623
106876,187084,246365,-4.2975093896,8.5914295453,1.9310078382,624
106562,186906,246274,-4.3166519704,8.739784546500001,2.0039889275,625
105836,186742,246163,-4.3166519704,8.739784546500001,2.0039889275,626
105292,186666,246106,-4.3166519704,8.739784546500001,2.0039889275,627
105055,186648,246072,-4.3166519704,8.739784546500001,2.0039889275,628
104944,186656,246113,-4.3166519704,8.739784546500001,2.0039889275,629
104920,186664,246123,-4.3166519704,8.739784546500001,2.0039889275,630
105027,186687,246144,-4.3166519704,8.739784546500001,2.0039889275,631
105254,186741,246196,-4.3166519704,8.739784546500001,2.0039889275,632
105407,186778,246159,-4.3166519704,8.739784546500001,2.0039889275,633
105495,186769,246202,-4.3166519704,8.739784546500001,2.0039889275,634
105602,186799,246193,-4.3166519704,8.739784546500001,2.0039889275,635
105722,186824,246192,-4.3166519704,8.739784546500001,2.0039889275,636
105842,186830,246238,-4.3166519704,8.739784546500001,2.0039889275,637
106018,186873,246258,-4.3166519704,8.739784546500001,2.0039889275,638
106164,186903,246194,-4.3166519704,8.739784546500001,2.0039889275,639
106336,186954,246307,-4.3166519704,8.739784546500001,2.0039889275,640
106462,186963,246267,-4.3166519704,8.739784546500001,2.0039889275,641
106640,187001,246317,-4.3166519704,8.739784546500001,2.0039889275,642
106782,187027,246337,-4.3166519704,8.739784546500001,2.0039889275,643
106880,186987,246306,-4.4111684631,8.764909183799999,1.91425808,644
106596,186847,246216,-4.4111684631,8.764909183799999,1.91425808,645
105951,186704,246114,-4.4111684631,8.764909183799999,1.91425808,646
105485,186639,246080,-4.4111684631,8.764909183799999,1.91425808,647
105306,186635,246086,-4.4111684631,8.764909183799999,1.91425808,648
105252,186628,246072,-4.4111684631,8.764909183799999,1.91425808,649
105264,186628,246116,-4.4111684631,8.764909183799999,1.91425808,650
105444,186681,246128,-4.4111684631,8.764909183799999,1.91425808,651
105641,186726,246157,-4.4111684631,8.764909183799999,1.91425808,652
105723,186739,246152,-4.4111684631,8.764909183799999,1.91425808,653
105815,186719,246171,-4.4111684631,8.764909183799999,1.91425808,654
105878,186780,246220,-4.4111684631,8.764909183799999,1.91425808,655
105980,186784,246122,-4.4111684631,8.764909183799999,1.91425808,656
106131,186826,246241,-4.4111684631,8.764909183799999,1.91425808,657
106281,186851,246209,-4.4111684631,8.764909183799999,1.91425808,658
106413,186891,246222,-4.4111684631,8.764909183799999,1.91425808,659
106568,186919,246240,-4.4111684631,8.764909183799999,1.91425808,660
106693,186947,246305,-4.4111684631,8.764909183799999,1.91425808,661
106841,186972,246292,-4.4111684631,8.764909183799999,1.91425808,662
106980,186992,246276,-4.4111684631,8.764909183799999,1.91425808,663
106844,186895,246222,-4.4111684631,8.764909183799999,1.91425808,664
106159,186712,246124,-4.4111684631,8.764909183799999,1.91425808,665
105480,186611,246114,-4.4111684631,8.764909183799999,1.91425808,666
105138,186516,246033,-4.4111684631,8.764909183799999,1.91425808,667
104968,186547,245994,-4.4111684631,8.764909183799999,1.91425808,668
104887,186513,246086,-4.4111684631,8.764909183799999,1.91425808,669
104894,186549,246072,-4.4111684631,8.764909183799999,1.91425808,670
105099,186624,246094,-4.4111684631,8.764909183799999,1.91425808,671
105273,186669,246124,-4.4111684631,8.764909183799999,1.91425808,672
105421,186688,246143,-4.4111684631,8.764909183799999,1.91425808,673
105515,186702,246121,-4.4111684631,8.764909183799999,1.91425808,674
105615,186721,246147,-4.4111684631,8.764909183799999,1.91425808,675
105756,186764,246196,-4.4111684631,8.764909183799999,1.91425808,676
105905,186832,246245,-4.4111684631,8.764909183799999,1.91425808,677
106046,186825,246165,-4.4111684631,8.764909183799999,1.91425808,678
106211,186845,246228,-4.4111684631,8.764909183799999,1.91425808,679
106350,186906,246235,-4.4111684631,8.764909183799999,1.91425808,680
106517,186934,246276,-4.4111684631,8.764909183799999,1.91425808,681
106668,186944,246283,-4.4111684631,8.764909183799999,1.91425808,682
106817,186992,246346,-4.4111684631,8.764909183799999,1.91425808,683
106786,186914,246272,-4.4111684631,8.764909183799999,1.91425808,684
106148,186713,246152,-4.4111684631,8.764909183799999,1.91425808,685
106236,186860,246228,-4.1946180178,8.833104627900001,1.8951154991999999,686
106394,186897,246228,-4.1946180178,8.833104627900001,1.8951154991999999,687
106543,186887,246249,-4.1946180178,8.833104627900001,1.8951154991999999,688
106638,186923,246254,-4.1946180178,8.833104627900001,1.8951154991999999,689
106226,186737,246134,-4.1946180178,8.833104627900001,1.8951154991999999,690
105431,186538,246052,-4.1946180178,8.833104627900001,1.8951154991999999,691
104882,186486,245926,-4.1946180178,8.833104627900001,1.8951154991999999,692
104669,186424,245966,-4.1946180178,8.833104627900001,1.8951154991999999,693
104538,186428,245914,-4.1946180178,8.833104627900001,1.8951154991999999,694
104496,186458,245969,-4.1946180178,8.833104627900001,1.8951154991999999,695
104643,186527,245962,-4.1946180178,8.833104627900001,1.8951154991999999,696
104872,186580,246009,-4.1946180178,8.833104627900001,1.8951154991999999,697
105041,186593,246090,-4.1946180178,8.833104627900001,1.8951154991999999,698
105155,186579,246041,-4.2017964856,8.8163548697,1.9262221929999999,699
105263,186614,246087,-4.1503507997,8.7122670866,1.9812571127999998,700
105385,186684,246088,-4.1898323726,8.764909183799999,1.9968104597,701
105490,186672,246089,-4.3166519704,8.889335959,1.9752750562999999,702
105714,186737,246084,-4.2843488653,8.769694829,1.9597217094,703
105882,186727,246113,-4.1694933805000005,8.805587167999999,1.8927226765999998,704
106033,186786,246152,-4.2735811636,8.8366938618,1.9094724347999998,705
106181,186784,246134,-4.2735811636,8.8366938618,1.9094724347999998,706
106335,186835,246160,-4.2735811636,8.8366938618,1.9094724347999998,707
106507,186873,246204,-4.2735811636,8.8366938618,1.9094724347999998,708
106662,186894,246189,-4.2735811636,8.8366938618,1.9094724347999998,709
106656,186796,246179,-4.2735811636,8.8366938618,1.9094724347999998,710
106136,186605,246029,-4.2735811636,8.8366938618,1.9094724347999998,711
105461,186519,245994,-4.2735811636,8.8366938618,1.9094724347999998,712
105106,186514,245911,-4.2735811636,8.8366938618,1.9094724347999998,713
105006,186467,245951,-4.2735811636,8.8366938618,1.9094724347999998,714
104991,186486,245939,-4.2735811636,8.8366938618,1.9094724347999998,715
105121,186557,245964,-4.2735811636,8.8366938618,1.9094724347999998,716
105308,186621,246014,-4.2735811636,8.8366938618,1.9094724347999998,717
105474,186583,246027,-4.1934216065,8.8666041443,1.9645073545999998,718
105587,186605,246017,-4.3752761241,8.7026957962,1.9585252981,719
105689,186632,246030,-4.2903309218,8.8103728132,1.9334006607999998,720
105745,186658,246038,-4.3082770913,8.793623055,1.8939190879,721
105942,186706,246083,-4.2340995907,8.841479506999999,1.9932212258000002,722
106094,186732,246132,-4.2735811636,8.7792661194,1.8999011444,723
106261,186741,246147,-4.3106699139,8.7242311996,1.9752750562999999,724
106413,186783,246102,-4.3369909625,8.8043907567,1.9429719511999999,725
106576,186829,246141,-4.2759739861999995,8.8079799906,1.9908284031999999,726
106695,186829,246199,-4.1706897918,8.697910151,1.866401628,727
106846,186873,246152,-4.1706897918,8.697910151,1.866401628,728
106983,186884,246229,-4.1706897918,8.697910151,1.866401628,729
107108,186912,246212,-4.1706897918,8.697910151,1.866401628,730
106959,186797,246192,-4.1706897918,8.697910151,1.866401628,731
106251,186592,246005,-4.1706897918,8.697910151,1.866401628,732
105578,186485,245930,-4.1706897918,8.697910151,1.866401628,733
105240,186416,245954,-4.1706897918,8.697910151,1.866401628,734
105107,186462,245940,-4.1706897918,8.697910151,1.866401628,735
105053,186429,245944,-4.1706897918,8.697910151,1.866401628,736
105118,186476,245941,-4.3405801963999995,8.6512501103,1.9286150156,737
105297,186540,246012,-4.1826539048,8.8127656358,1.9453647738,738
105458,186596,246031,-4.1826539048,8.8127656358,1.9453647738,739
105593,186612,246032,-4.1826539048,8.8127656358,1.9453647738,740
105686,186615,246117,-4.1826539048,8.8127656358,1.9453647738,741
105810,186662,246117,-4.1826539048,8.8127656358,1.9453647738,742
105927,186690,246115,-4.1826539048,8.8127656358,1.9453647738,743
106074,186691,246085,-4.1826539048,8.8127656358,1.9453647738,744
106242,186737,246099,-4.1826539048,8.8127656358,1.9453647738,745
106376,186785,246161,-4.1826539048,8.8127656358,1.9453647738,746
106538,186816,246188,-4.1826539048,8.8127656358,1.9453647738,747
106692,186834,246180,-4.1826539048,8.8127656358,1.9453647738,748
106825,186871,246238,-4.1826539048,8.8127656358,1.9453647738,749
106993,186902,246226,-4.1826539048,8.8127656358,1.9453647738,750
107150,186971,246256,-4.1826539048,8.8127656358,1.9453647738,751
107208,186897,246250,-4.1826539048,8.8127656358,1.9453647738,752
106789,186723,246171,-4.1826539048,8.8127656358,1.9453647738,753
105921,186540,246008,-4.1826539048,8.8127656358,1.9453647738,754
105276,186454,245975,-4.1826539048,8.8127656358,1.9453647738,755
104922,186436,246015,-4.1826539048,8.8127656358,1.9453647738,756
104712,186419,245923,-4.3417766077,8.7290168448,1.9680965885,757
104589,186387,245910,-4.3417766077,8.7290168448,1.9680965885,758
104601,186479,245975,-4.3417766077,8.7290168448,1.9680965885,759
104799,186516,246020,-4.3417766077,8.7290168448,1.9680965885,760
104992,186548,246029,-4.3417766077,8.7290168448,1.9680965885,761
105114,186555,246012,-4.3417766077,8.7290168448,1.9680965885,762
105195,186580,245997,-4.3417766077,8.7290168448,1.9680965885,763
105319,186581,246057,-4.3417766077,8.7290168448,1.9680965885,764
105436,186642,246118,-4.3417766077,8.7290168448,1.9680965885,765
105570,186672,246117,-4.3417766077,8.7290168448,1.9680965885,766
105740,186698,246126,-4.3417766077,8.7290168448,1.9680965885,767
105891,186738,246131,-4.3417766077,8.7290168448,1.9680965885,768
106056,186752,246101,-4.3417766077,8.7290168448,1.9680965885,769
106189,186773,246138,-4.3417766077,8.7290168448,1.9680965885,770
106336,186789,246169,-4.3417766077,8.7290168448,1.9680965885,771
106477,186850,246197,-4.3417766077,8.7290168448,1.9680965885,772
106627,186908,246253,-4.3417766077,8.7290168448,1.9680965885,773
106779,186904,246235,-4.3417766077,8.7290168448,1.9680965885,774
106894,186876,246228,-4.3417766077,8.7290168448,1.9680965885,775
106619,186734,246110,-4.1551364449,8.717052731799999,1.9453647738,776
105763,186517,246021,-4.1551364449,8.717052731799999,1.9453647738,777
105053,186470,245934,-4.1551364449,8.717052731799999,1.9453647738,778
104731,186408,245902,-4.1551364449,8.717052731799999,1.9453647738,779
104583,186423,245862,-4.1551364449,8.717052731799999,1.9453647738,780
104495,186440,245948,-4.1551364449,8.717052731799999,1.9453647738,781
104553,186427,245951,-4.1551364449,8.717052731799999,1.9453647738,782
104762,186509,245994,-4.1551364449,8.717052731799999,1.9453647738,783
104966,186574,246009,-4.1551364449,8.717052731799999,1.9453647738,784
105084,186562,246007,-4.1551364449,8.717052731799999,1.9453647738,785
105168,186587,245971,-4.1551364449,8.717052731799999,1.9453647738,786
105263,186621,246042,-4.1551364449,8.717052731799999,1.9453647738,787
105400,186673,246079,-4.1551364449,8.717052731799999,1.9453647738,788
105555,186671,246039,-4.1551364449,8.717052731799999,1.9453647738,789
105705,186727,246076,-4.1551364449,8.717052731799999,1.9453647738,790
105888,186747,246079,-4.1551364449,8.717052731799999,1.9453647738,791
106029,186758,246118,-4.1551364449,8.717052731799999,1.9453647738,792
106188,186829,246148,-4.1551364449,8.717052731799999,1.9453647738,793
106318,186858,246126,-4.1551364449,8.717052731799999,1.9453647738,794
106485,186831,246134,-4.1551364449,8.717052731799999,1.9453647738,795
106643,186894,246167,-4.1551364449,8.717052731799999,1.9453647738,796
106739,186894,246186,-4.1551364449,8.717052731799999,1.9453647738,797
106483,186709,246078,-4.1551364449,8.717052731799999,1.9453647738,798
105761,186531,245972,-4.1551364449,8.717052731799999,1.9453647738,799
105224,186488,245880,-4.1551364449,8.717052731799999,1.9453647738,800
105005,186472,245943,-4.1551364449,8.717052731799999,1.9453647738,801
104958,186467,245913,-4.1551364449,8.717052731799999,1.9453647738,802
105000,186525,245892,-4.1551364449,8.717052731799999,1.9453647738,803
105174,186569,246011,-4.1551364449,8.717052731799999,1.9453647738,804
105353,186632,246041,-4.1551364449,8.717052731799999,1.9453647738,805
105477,186618,246045,-4.1551364449,8.717052731799999,1.9453647738,806
105524,186660,246014,-4.1551364449,8.717052731799999,1.9453647738,807
105609,186651,245999,-4.2340995907,8.721838377,1.938186306,808
105690,186661,246017,-4.2340995907,8.721838377,1.938186306,809
105841,186696,246098,-4.1886359613,8.9503529353,1.9190437251999999,810
105994,186712,246029,-4.0845481781999995,8.764909183799999,1.9776678789,811
106133,186776,246115,-4.2520457602,8.8785682573,1.8783657409999999,812
106273,186767,246115,-4.2257247116,8.7373917239,1.9477575963999998,813
106401,186814,246107,-4.2568314054,8.7625163612,1.8245272325,814
106570,186816,246157,-4.2544385828,8.7864445872,1.8711872732,815
106691,186762,246208,-4.2604206393,8.7385881352,1.9022939669999999,816
106808,186902,246116,-4.2149570099,8.8091764019,1.9669001771999999,817
106741,186807,246127,-4.2161534212,8.7409809578,1.9322042495,818
106139,186583,246049,-4.2305103568,8.7050886188,2.0003996936,819
105420,186510,245896,-4.2006000743,8.7972122889,1.9118652574,820
104984,186438,245876,-4.1718862031,8.721838377,1.9525432416,821
104829,186394,245901,-4.1910287839,8.8618184991,1.9597217094,822
104743,186422,245938,-4.3381873738,8.8905323703,1.8867406201,823
104712,186429,245915,-4.2496529376,8.7661055951,1.9944176371,824
104857,186500,246010,-4.0570307183,8.8127656358,1.8855442087999998,825
105105,186540,246023,-4.2329031794,8.6931245058,2.0159530405,826
105242,186562,246038,-4.1300118076,8.8402830957,1.8580267489000002,827
105355,186616,246016,-4.3034914461,8.764909183799999,1.9836499354,828
105438,186593,246038,-4.1706897918,8.7708912403,1.9453647738,829
105557,186632,246058,-4.2664026958,8.7565343047,1.9669001771999999,830
105732,186659,246110,-4.3465622529,8.8127656358,2.0123638066000002,831
105850,186674,246077,-4.2927237444,8.944370878800001,1.9609181207,832
106041,186705,246081,-4.223331889,8.707481441399999,1.9645073545999998,833
106180,186748,246137,-4.283152454,8.8486579748,1.8628123941,834
106341,186845,246181,-4.237688824599999,8.9001036607,1.9310078382,835
106502,186743,246189,-4.151547211,8.8905323703,1.9992032822999999,836
106656,186837,246156,-4.223331889,8.877371846,1.9908284031999999,837
106796,186842,246213,-4.1539400336,8.6584285781,1.938186306,838
106949,186912,246252,-4.2819560427,8.8103728132,1.9956140484,839
106738,186782,246216,-4.2257247116,8.7708912403,2.0135602179,840
105993,186555,245999,-4.3345981399,8.793623055,2.0494525569,841
105227,186457,245919,-4.0450666053,8.8977108381,1.8855442087999998,842
104851,186445,245862,-4.2616170506,8.757730716,1.9860427579999997,843
104633,186404,245945,-4.283152454,8.8271225714,1.9453647738,844
104503,186370,245927,-4.2855452766,8.7912302324,1.9788642901999998,845
104461,186478,245947,-4.3058842687,8.8354974505,1.9573288867999998,846
104622,186505,245964,-4.2029928969000006,8.8247297488,1.9740786449999999,847
104865,186410,245993,-4.2257247116,8.8929251929,1.9549360641999998,848
104959,186557,245983,-4.2305103568,8.7242311996,1.9740786449999999,849
105071,186562,246014,-4.3130627365,8.745766603,2.0039889275,850
105154,186556,245993,-4.2029928969000006,8.818747692299999,2.0685951377,851
105313,186632,246014,-4.1479579771,8.7720876516,1.9094724347999998,852
105486,186643,246041,-4.237688824599999,8.745766603,1.9130616687,853
105656,186682,246107,-4.1431723319,8.9623170483,1.9166509025999998,854
105806,186609,245998,-4.2532421715,8.774480474199999,1.8999011444,855
105959,186781,246112,-4.2017964856,8.7828553533,2.0255243308999997,856
106118,186767,246131,-4.2340995907,8.8151584584,1.9190437251999999,857
106288,186845,246137,-4.1706897918,8.8713897895,1.9214365478,858
106482,186872,246127,-4.2400816472,8.6392859973,1.9968104597,859
106594,186794,246131,-4.2687955184,8.7589271273,1.9465611851,860
106750,186921,246204,-4.2508493489,8.7433737804,1.9692929998,861
106648,186798,246099,-4.3274196721000004,8.8043907567,1.9573288867999998,862
106006,186642,246011,-4.2484565263,8.8235333375,1.8759729184,863
105289,186502,245926,-4.1946180178,8.8008015228,1.8640088054,864
104920,186501,245937,-4.2329031794,8.7385881352,1.8999011444,865
104765,186479,245903,-4.259224228,8.8666041443,1.9130616687,866
104723,186433,245940,-4.1814574935,8.8271225714,1.9692929998,867
104780,186490,245948,-4.2400816472,8.7912302324,1.9800607015,868
104953,186622,245952,-4.1431723319,8.8558364426,1.998006871,869
105151,186634,245988,-4.2759739861999995,8.8785682573,1.9214365478,870
105262,186660,246015,-4.2759739861999995,8.8785682573,1.9214365478,871
105353,186666,246069,-4.2759739861999995,8.8785682573,1.9214365478,872
105453,186676,245988,-4.2759739861999995,8.8785682573,1.9214365478,873
105559,186670,246015,-4.2759739861999995,8.8785682573,1.9214365478,874
105696,186736,246066,-4.2759739861999995,8.8785682573,1.9214365478,875
105847,186772,246064,-4.2759739861999995,8.8785682573,1.9214365478,876
106006,186798,246115,-4.2759739861999995,8.8785682573,1.9214365478,877
106160,186856,246157,-4.2759739861999995,8.8785682573,1.9214365478,878
106308,186793,246137,-4.2759739861999995,8.8785682573,1.9214365478,879
106461,186914,246210,-4.2759739861999995,8.8785682573,1.9214365478,880
106625,186921,246183,-4.2759739861999995,8.8785682573,1.9214365478,881
106724,186903,246169,-4.2759739861999995,8.8785682573,1.9214365478,882
106444,186815,246127,-4.2759739861999995,8.8785682573,1.9214365478,883
105775,186646,246004,-4.2759739861999995,8.8785682573,1.9214365478,884
105260,186604,245970,-4.2759739861999995,8.8785682573,1.9214365478,885
105042,186602,245884,-4.2759739861999995,8.8785682573,1.9214365478,886
104999,186638,245955,-4.2759739861999995,8.8785682573,1.9214365478,887
105024,186583,245983,-4.2759739861999995,8.8785682573,1.9214365478,888
105203,186652,246072,-4.2759739861999995,8.8785682573,1.9214365478,889
105385,186712,246036,-4.2759739861999995,8.8785682573,1.9214365478,890
105478,186748,246034,-4.2759739861999995,8.8785682573,1.9214365478,891
105529,186723,246074,-4.2759739861999995,8.8785682573,1.9214365478,892
105606,186756,246114,-4.2759739861999995,8.8785682573,1.9214365478,893
105707,186806,246123,-4.2759739861999995,8.8785682573,1.9214365478,894
105827,186832,246112,-4.2759739861999995,8.8785682573,1.9214365478,895
105975,186867,246116,-4.2759739861999995,8.8785682573,1.9214365478,896
106091,186887,246168,-4.2759739861999995,8.8785682573,1.9214365478,897
106228,186911,246185,-4.2759739861999995,8.8785682573,1.9214365478,898
106386,186965,246181,-4.2759739861999995,8.8785682573,1.9214365478,899
106521,186988,246172,-4.2759739861999995,8.8785682573,1.9214365478,900
106655,187009,246204,-4.2759739861999995,8.8785682573,1.9214365478,901
106603,186944,246172,-4.2759739861999995,8.8785682573,1.9214365478,902
105995,186754,246064,-4.2759739861999995,8.8785682573,1.9214365478,903
105264,186660,246071,-4.2759739861999995,8.8785682573,1.9214365478,904
104879,186629,246039,-4.2759739861999995,8.8785682573,1.9214365478,905
104662,186625,246031,-4.2759739861999995,8.8785682573,1.9214365478,906
104544,186608,245966,-4.2759739861999995,8.8785682573,1.9214365478,907
104514,186627,246012,-4.2759739861999995,8.8785682573,1.9214365478,908
104684,186689,246093,-4.2759739861999995,8.8785682573,1.9214365478,909
104881,186733,246046,-4.2759739861999995,8.8785682573,1.9214365478,910
105012,186763,246114,-4.2759739861999995,8.8785682573,1.9214365478,911
105190,186848,246180,-4.1204405172000005,8.6763747476,1.9429719511999999,912
105354,186930,246213,-4.1204405172000005,8.6763747476,1.9429719511999999,913
105530,186974,246192,-4.1204405172000005,8.6763747476,1.9429719511999999,914
105678,186959,246205,-4.1204405172000005,8.6763747476,1.9429719511999999,915
105839,186981,246209,-4.1204405172000005,8.6763747476,1.9429719511999999,916
105985,187009,246242,-4.1204405172000005,8.6763747476,1.9429719511999999,917
106170,187042,246282,-4.1204405172000005,8.6763747476,1.9429719511999999,918
106276,187058,246267,-4.1204405172000005,8.6763747476,1.9429719511999999,919
106028,186915,246200,-4.1204405172000005,8.6763747476,1.9429719511999999,920
105292,186774,246042,-4.1204405172000005,8.6763747476,1.9429719511999999,921
104702,186687,246061,-4.1204405172000005,8.6763747476,1.9429719511999999,922
104417,186665,246028,-4.1204405172000005,8.6763747476,1.9429719511999999,923
104286,186673,246046,-4.1204405172000005,8.6763747476,1.9429719511999999,924
104209,186668,246004,-4.1204405172000005,8.6763747476,1.9429719511999999,925
104312,186691,246045,-4.1204405172000005,8.6763747476,1.9429719511999999,926
104532,186741,246046,-4.1204405172000005,8.6763747476,1.9429719511999999,927
104728,186769,246091,-4.1204405172000005,8.6763747476,1.9429719511999999,928
104867,186800,246119,-4.1204405172000005,8.6763747476,1.9429719511999999,929
104977,186808,246142,-4.1204405172000005,8.6763747476,1.9429719511999999,930
105092,186819,246114,-4.1204405172000005,8.6763747476,1.9429719511999999,931
105245,186858,246116,-4.1204405172000005,8.6763747476,1.9429719511999999,932
105423,186905,246127,-4.1204405172000005,8.6763747476,1.9429719511999999,933
105581,186941,246157,-4.1204405172000005,8.6763747476,1.9429719511999999,934
105748,186950,246218,-4.1204405172000005,8.6763747476,1.9429719511999999,935
105914,186982,246184,-4.1204405172000005,8.6763747476,1.9429719511999999,936
106108,186974,246221,-4.1204405172000005,8.6763747476,1.9429719511999999,937
106269,187005,246228,-4.1204405172000005,8.6763747476,1.9429719511999999,938
106403,187055,246197,-4.1204405172000005,8.6763747476,1.9429719511999999,939
106526,187020,246238,-4.1204405172000005,8.6763747476,1.9429719511999999,940
106280,186964,246173,-4.1204405172000005,8.6763747476,1.9429719511999999,941
105657,186802,246020,-4.1204405172000005,8.6763747476,1.9429719511999999,942
105169,186706,246020,-4.1204405172000005,8.6763747476,1.9429719511999999,943
104995,186707,246054,-4.1204405172000005,8.6763747476,1.9429719511999999,944
104957,186723,246045,-4.1204405172000005,8.6763747476,1.9429719511999999,945
105024,186774,246085,-4.1204405172000005,8.6763747476,1.9429719511999999,946
105225,186826,246108,-4.1204405172000005,8.6763747476,1.9429719511999999,947
105409,186858,246067,-4.1204405172000005,8.6763747476,1.9429719511999999,948
105549,186898,246146,-4.1204405172000005,8.6763747476,1.9429719511999999,949
105648,186857,246125,-4.1204405172000005,8.6763747476,1.9429719511999999,950
105750,186935,246153,-4.1204405172000005,8.6763747476,1.9429719511999999,951
105860,186935,246163,-4.1204405172000005,8.6763747476,1.9429719511999999,952
105996,186926,246150,-4.1204405172000005,8.6763747476,1.9429719511999999,953
105699,186888,246162,-4.3286160834,8.7242311996,1.866401628,954
105801,186877,246208,-4.3286160834,8.7242311996,1.866401628,955
105929,186894,246153,-4.3286160834,8.7242311996,1.866401628,956
106066,186971,246246,-4.3286160834,8.7242311996,1.866401628,957
106236,186963,246231,-4.3286160834,8.7242311996,1.866401628,958
106380,187018,246235,-4.3286160834,8.7242311996,1.866401628,959
106512,187028,246263,-4.3286160834,8.7242311996,1.866401628,960
106689,187052,246304,-4.3286160834,8.7242311996,1.866401628,961
106839,187100,246275,-4.3286160834,8.7242311996,1.866401628,962
106954,187124,246284,-4.3286160834,8.7242311996,1.866401628,963
106859,187066,246252,-4.3286160834,8.7242311996,1.866401628,964
106189,186839,246124,-4.3286160834,8.7242311996,1.866401628,965
105435,186773,246067,-4.3286160834,8.7242311996,1.866401628,966
105016,186706,246029,-4.3286160834,8.7242311996,1.866401628,967
104754,186677,246009,-4.3286160834,8.7242311996,1.866401628,968
104589,186654,246008,-4.3286160834,8.7242311996,1.866401628,969
104539,186674,245975,-4.3286160834,8.7242311996,1.866401628,970
104678,186749,246125,-4.3286160834,8.7242311996,1.866401628,971
104898,186779,246166,-4.3286160834,8.7242311996,1.866401628,972
105040,186787,246073,-4.3286160834,8.7242311996,1.866401628,973
105142,186832,246124,-4.3286160834,8.7242311996,1.866401628,974
105248,186844,246094,-4.3286160834,8.7242311996,1.866401628,975
105359,186846,246206,-4.3286160834,8.7242311996,1.866401628,976
105497,186914,246162,-4.3286160834,8.7242311996,1.866401628,977
105635,186911,246176,-4.3286160834,8.7242311996,1.866401628,978
105801,186952,246204,-4.3286160834,8.7242311996,1.866401628,979
105966,186986,246215,-4.3286160834,8.7242311996,1.866401628,980
106100,186992,246241,-4.3286160834,8.7242311996,1.866401628,981
106248,187047,246262,-4.3286160834,8.7242311996,1.866401628,982
106402,187050,246266,-4.3286160834,8.7242311996,1.866401628,983
106540,187091,246283,-4.3286160834,8.7242311996,1.866401628,984
106425,186988,246214,-4.3286160834,8.7242311996,1.866401628,985
105724,186832,246112,-4.3286160834,8.7242311996,1.866401628,986
104988,186691,246037,-4.3286160834,8.7242311996,1.866401628,987
104587,186679,245995,-4.3286160834,8.7242311996,1.866401628,988
104370,186620,246018,-4.3286160834,8.7242311996,1.866401628,989
104240,186588,246032,-4.3286160834,8.7242311996,1.866401628,990
104223,186649,245947,-4.3286160834,8.7242311996,1.866401628,991
104403,186715,246044,-4.3286160834,8.7242311996,1.866401628,992
104615,186714,246027,-4.3286160834,8.7242311996,1.866401628,993
104744,186774,246061,-4.3286160834,8.7242311996,1.866401628,994
104879,186775,246133,-4.3286160834,8.7242311996,1.866401628,995
106241,187141,246180,-4.2125641873,8.7003029736,1.9716858223999998,996
106380,187189,246189,-4.2125641873,8.7003029736,1.9716858223999998,997
106559,187219,246181,-4.2125641873,8.7003029736,1.9716858223999998,998
106560,187181,246220,-4.2125641873,8.7003029736,1.9716858223999998,999
106161,187004,246082,-4.2125641873,8.7003029736,1.9716858223999998,1000
105607,186935,245957,-4.2125641873,8.7003029736,1.9716858223999998,1001
105273,186941,245985,-4.2125641873,8.7003029736,1.9716858223999998,1002
105137,186953,246004,-4.2125641873,8.7003029736,1.9716858223999998,1003
105105,186916,245989,-4.2125641873,8.7003029736,1.9716858223999998,1004
105186,186981,245990,-4.2125641873,8.7003029736,1.9716858223999998,1005
105333,187049,246037,-4.2125641873,8.7003029736,1.9716858223999998,1006
105493,187067,246116,-4.2125641873,8.7003029736,1.9716858223999998,1007
105604,187090,246053,-4.2125641873,8.7003029736,1.9716858223999998,1008
105697,187073,246068,-4.2125641873,8.7003029736,1.9716858223999998,1009
105815,187145,245995,-4.2125641873,8.7003029736,1.9716858223999998,1010
105969,187167,246097,-4.2125641873,8.7003029736,1.9716858223999998,1011
106129,187205,246144,-4.2125641873,8.7003029736,1.9716858223999998,1012
106294,187247,246147,-4.2125641873,8.7003029736,1.9716858223999998,1013
106466,187281,246174,-4.2125641873,8.7003029736,1.9716858223999998,1014
106634,187335,246200,-4.2317067681000005,8.793623055,1.9477575963999998,1015
106816,187342,246162,-4.2317067681000005,8.793623055,1.9477575963999998,1016
107027,187407,246207,-4.1479579771,8.7792661194,1.9405791285999998,1017
107206,187424,246221,-4.2532421715,8.745766603,2.0063817501,1018
107262,187382,246158,-4.247260115,8.708677852700001,1.8927226765999998,1019
106950,187214,246107,-4.208974953399999,8.7026957962,2.009970984,1020
106492,187139,246029,-4.2520457602,8.841479506999999,1.91425808,1021
106266,187117,246029,-4.1192441059,8.7146599092,1.8759729184,1022
106150,187093,245990,-4.1922251952,8.7385881352,1.9501504189999999,1023
106119,187124,245989,-4.2448672924,8.7673020064,1.9477575963999998,1024
106095,187146,246021,-4.2448672924,8.7673020064,1.9477575963999998,1025
106251,187219,246010,-4.2448672924,8.7673020064,1.9477575963999998,1026
106453,187255,246035,-4.2448672924,8.7673020064,1.9477575963999998,1027
106619,187231,246066,-4.2448672924,8.7673020064,1.9477575963999998,1028
106774,187301,246024,-4.2448672924,8.7673020064,1.9477575963999998,1029
106933,187345,246055,-4.2448672924,8.7673020064,1.9477575963999998,1030
107089,187341,246099,-4.2448672924,8.7673020064,1.9477575963999998,1031
107237,187361,246074,-4.2448672924,8.7673020064,1.9477575963999998,1032
107402,187408,246078,-4.2448672924,8.7673020064,1.9477575963999998,1033
107604,187430,246116,-4.2448672924,8.7673020064,1.9477575963999998,1034
107793,187481,246154,-4.2340995907,8.774480474199999,2.0159530405,1035
107938,187514,246117,-4.2340995907,8.774480474199999,2.0159530405,1036
108111,187531,246150,-4.2340995907,8.774480474199999,2.0159530405,1037
108299,187565,246180,-4.2340995907,8.774480474199999,2.0159530405,1038
108465,187600,246176,-4.2340995907,8.774480474199999,2.0159530405,1039
108552,187524,246154,-4.2340995907,8.774480474199999,2.0159530405,1040
108365,187386,246045,-4.2340995907,8.774480474199999,2.0159530405,1041
107978,187340,245974,-4.2340995907,8.774480474199999,2.0159530405,1042
107754,187337,245964,-4.2340995907,8.774480474199999,2.0159530405,1043
107646,187386,245989,-4.2340995907,8.774480474199999,2.0159530405,1044
107585,187297,245936,-4.2340995907,8.774480474199999,2.0159530405,1045
107575,187335,245906,-4.2340995907,8.774480474199999,2.0159530405,1046
107637,187372,245955,-4.2340995907,8.774480474199999,2.0159530405,1047
107777,187430,245991,-4.2340995907,8.774480474199999,2.0159530405,1048
107925,187453,245976,-4.2340995907,8.774480474199999,2.0159530405,1049
108031,187446,246015,-4.2340995907,8.774480474199999,2.0159530405,1050
108103,187457,245953,-4.2340995907,8.774480474199999,2.0159530405,1051
108206,187478,245938,-4.2340995907,8.774480474199999,2.0159530405,1052
108326,187495,245957,-4.2340995907,8.774480474199999,2.0159530405,1053
108439,187557,245921,-4.2783668087999995,8.7625163612,1.9764714676,1054
108562,187548,245970,-4.1216369285,8.6668034572,1.9872391693,1055
108720,187567,246006,-4.1862431387,8.6751783363,1.8915262653,1056
108849,187590,245948,-4.2173498325,8.7756768855,1.9860427579999997,1057
108971,187623,245986,-4.2173498325,8.7756768855,1.9860427579999997,1058
109106,187583,245978,-4.2173498325,8.7756768855,1.9860427579999997,1059
109239,187672,245998,-4.2173498325,8.7756768855,1.9860427579999997,1060
109386,187668,246002,-4.2173498325,8.7756768855,1.9860427579999997,1061
109494,187683,246000,-4.2173498325,8.7756768855,1.9860427579999997,1062
109474,187563,245904,-4.2173498325,8.7756768855,1.9860427579999997,1063
109137,187463,245797,-4.2173498325,8.7756768855,1.9860427579999997,1064
108699,187435,245796,-4.2173498325,8.7756768855,1.9860427579999997,1065
108405,187424,245763,-4.2173498325,8.7756768855,1.9860427579999997,1066
108205,187389,245807,-4.2173498325,8.7756768855,1.9860427579999997,1067
108053,187422,245764,-4.2173498325,8.7756768855,1.9860427579999997,1068
108013,187462,245762,-4.2173498325,8.7756768855,1.9860427579999997,1069
108055,187511,245794,-4.2173498325,8.7756768855,1.9860427579999997,1070
108100,187509,245828,-4.2173498325,8.7756768855,1.9860427579999997,1071
108132,187489,245786,-4.2173498325,8.7756768855,1.9860427579999997,1072
108175,187510,245819,-4.2173498325,8.7756768855,1.9860427579999997,1073
108224,187553,245832,-4.2173498325,8.7756768855,1.9860427579999997,1074
108246,187547,245765,-4.2173498325,8.7756768855,1.9860427579999997,1075
108319,187560,245745,-4.2173498325,8.7756768855,1.9860427579999997,1076
108384,187614,245788,-4.2173498325,8.7756768855,1.9860427579999997,1077
108485,187629,245760,-4.2173498325,8.7756768855,1.9860427579999997,1078
108556,187636,245782,-4.2173498325,8.7756768855,1.9860427579999997,1079
108648,187602,245798,-4.2173498325,8.7756768855,1.9860427579999997,1080
108733,187653,245770,-4.2173498325,8.7756768855,1.9860427579999997,1081
108834,187656,245809,-4.2173498325,8.7756768855,1.9860427579999997,1082
108898,187669,245838,-4.2173498325,8.7756768855,1.9860427579999997,1083
108907,187594,245758,-4.2173498325,8.7756768855,1.9860427579999997,1084
108538,187480,245631,-4.2173498325,8.7756768855,1.9860427579999997,1085
107954,187422,245628,-4.2173498325,8.7756768855,1.9860427579999997,1086
107547,187415,245564,-4.2173498325,8.7756768855,1.9860427579999997,1087
107324,187451,245609,-4.2173498325,8.7756768855,1.9860427579999997,1088
107166,187443,245615,-4.2173498325,8.7756768855,1.9860427579999997,1089
107135,187450,245623,-4.2173498325,8.7756768855,1.9860427579999997,1090
107185,187460,245606,-4.2173498325,8.7756768855,1.9860427579999997,1091
107219,187504,245620,-4.2173498325,8.7756768855,1.9860427579999997,1092
107193,187513,245604,-4.2173498325,8.7756768855,1.9860427579999997,1093
107177,187483,245633,-4.2173498325,8.7756768855,1.9860427579999997,1094
107201,187489,245570,-4.2173498325,8.7756768855,1.9860427579999997,1095
107257,187504,245570,-4.2173498325,8.7756768855,1.9860427579999997,1096
107298,187503,245596,-4.2173498325,8.7756768855,1.9860427579999997,1097
107375,187536,245622,-4.2173498325,8.7756768855,1.9860427579999997,1098
107380,187427,245527,-4.237688824599999,8.8689969669,1.9118652574,1099
106684,187324,245446,-4.237688824599999,8.8689969669,1.9118652574,1100
106214,187357,245427,-4.237688824599999,8.8689969669,1.9118652574,1101
105952,187303,245400,-4.237688824599999,8.8689969669,1.9118652574,1102
105818,187298,245370,-4.237688824599999,8.8689969669,1.9118652574,1103
105691,187309,245361,-4.237688824599999,8.8689969669,1.9118652574,1104
105728,187324,245402,-4.237688824599999,8.8689969669,1.9118652574,1105
105849,187368,245430,-4.237688824599999,8.8689969669,1.9118652574,1106
105944,187348,245445,-4.237688824599999,8.8689969669,1.9118652574,1107
106016,187368,245469,-4.237688824599999,8.8689969669,1.9118652574,1108
106073,187386,245467,-4.237688824599999,8.8689969669,1.9118652574,1109
106151,187384,245456,-4.237688824599999,8.8689969669,1.9118652574,1110
106253,187418,245496,-4.237688824599999,8.8689969669,1.9118652574,1111
106348,187416,245483,-4.237688824599999,8.8689969669,1.9118652574,1112
106485,187460,245553,-4.237688824599999,8.8689969669,1.9118652574,1113
106602,187479,245531,-4.237688824599999,8.8689969669,1.9118652574,1114
106736,187475,245547,-4.237688824599999,8.8689969669,1.9118652574,1115
106886,187486,245560,-4.237688824599999,8.8689969669,1.9118652574,1116
107001,187525,245534,-4.237688824599999,8.8689969669,1.9118652574,1117
107149,187559,245535,-4.237688824599999,8.8689969669,1.9118652574,1118
107230,187535,245548,-4.237688824599999,8.8689969669,1.9118652574,1119
107064,187411,245471,-4.237688824599999,8.8689969669,1.9118652574,1120
106467,187286,245421,-4.237688824599999,8.8689969669,1.9118652574,1121
105941,187225,245338,-4.237688824599999,8.8689969669,1.9118652574,1122
105684,187253,245293,-4.237688824599999,8.8689969669,1.9118652574,1123
105539,187173,245260,-4.237688824599999,8.8689969669,1.9118652574,1124
105436,187195,245217,-4.237688824599999,8.8689969669,1.9118652574,1125
105426,187173,245232,-4.237688824599999,8.8689969669,1.9118652574,1126
105554,187217,245328,-4.237688824599999,8.8689969669,1.9118652574,1127
105717,187261,245323,-4.237688824599999,8.8689969669,1.9118652574,1128
105837,187271,245389,-4.237688824599999,8.8689969669,1.9118652574,1129
105938,187282,245314,-4.237688824599999,8.8689969669,1.9118652574,1130
106028,187288,245314,-4.237688824599999,8.8689969669,1.9118652574,1131
106171,187306,245302,-4.237688824599999,8.8689969669,1.9118652574,1132
106290,187329,245356,-4.237688824599999,8.8689969669,1.9118652574,1133
106463,187336,245366,-4.237688824599999,8.8689969669,1.9118652574,1134
106622,187380,245354,-4.237688824599999,8.8689969669,1.9118652574,1135
106795,187392,245412,-4.237688824599999,8.8689969669,1.9118652574,1136
106946,187460,245391,-4.237688824599999,8.8689969669,1.9118652574,1137
107081,187474,245460,-4.237688824599999,8.8689969669,1.9118652574,1138
107242,187444,245411,-4.237688824599999,8.8689969669,1.9118652574,1139
107401,187527,245440,-4.237688824599999,8.8689969669,1.9118652574,1140
105016,186878,245844,-4.2006000743,8.764909183799999,1.818545176,1141
105141,186901,245832,-4.2006000743,8.764909183799999,1.818545176,1142
105226,186941,245847,-4.2006000743,8.764909183799999,1.818545176,1143
105308,186883,245833,-4.2006000743,8.764909183799999,1.818545176,1144
105416,186963,245885,-4.2006000743,8.764909183799999,1.818545176,1145
105579,186975,245868,-4.2006000743,8.764909183799999,1.818545176,1146
105705,187018,245934,-4.2006000743,8.764909183799999,1.818545176,1147
105856,187037,245868,-4.2006000743,8.764909183799999,1.818545176,1148
106008,187037,245938,-4.2006000743,8.764909183799999,1.818545176,1149
106166,187064,245983,-4.2006000743,8.764909183799999,1.818545176,1150
106308,187125,245968,-4.2006000743,8.764909183799999,1.818545176,1151
106443,187134,245976,-4.2006000743,8.764909183799999,1.818545176,1152
106597,187147,246011,-4.2006000743,8.764909183799999,1.818545176,1153
106754,187179,245990,-4.2006000743,8.764909183799999,1.818545176,1154
106778,187116,245968,-4.2006000743,8.764909183799999,1.818545176,1155
106347,186988,245920,-4.2006000743,8.764909183799999,1.818545176,1156
105652,186877,245874,-4.2006000743,8.764909183799999,1.818545176,1157
105177,186822,245783,-4.2006000743,8.764909183799999,1.818545176,1158
105006,186782,245821,-4.2006000743,8.764909183799999,1.818545176,1159
104934,186787,245777,-4.2006000743,8.764909183799999,1.818545176,1160
104926,186811,245842,-4.2006000743,8.764909183799999,1.818545176,1161
105085,186831,245864,-4.2006000743,8.764909183799999,1.818545176,1162
105279,186892,245795,-4.2006000743,8.764909183799999,1.818545176,1163
105416,186911,245908,-4.2006000743,8.764909183799999,1.818545176,1164
105514,186908,245946,-4.2006000743,8.764909183799999,1.818545176,1165
105612,186922,245897,-4.2006000743,8.764909183799999,1.818545176,1166
105724,186964,245957,-4.2006000743,8.764909183799999,1.818545176,1167
105855,186956,245904,-4.2006000743,8.764909183799999,1.818545176,1168
106003,186966,245907,-4.2006000743,8.764909183799999,1.818545176,1169
106178,187012,245946,-4.2006000743,8.764909183799999,1.818545176,1170
106337,187027,245954,-4.2006000743,8.764909183799999,1.818545176,1171
106455,187065,246003,-4.2006000743,8.764909183799999,1.818545176,1172
106598,187087,246010,-4.2006000743,8.764909183799999,1.818545176,1173
106747,187155,246000,-4.2006000743,8.764909183799999,1.818545176,1174
106888,187140,246030,-4.2006000743,8.764909183799999,1.818545176,1175
106974,187145,245998,-4.2006000743,8.764909183799999,1.818545176,1176
106712,187002,245993,-4.2006000743,8.764909183799999,1.818545176,1177
106055,186864,245846,-4.2006000743,8.764909183799999,1.818545176,1178
105557,186786,245823,-4.1455651545,8.745766603,1.9597217094,1179
105377,186828,245839,-4.1455651545,8.745766603,1.9597217094,1180
105354,186775,245852,-4.1455651545,8.745766603,1.9597217094,1181
105332,186827,245875,-4.2568314054,8.7780697081,1.9968104597,1182
105551,186872,245914,-4.2687955184,8.6679998685,1.9429719511999999,1183
105734,186940,245943,-4.2664026958,8.9001036607,2.0614166699,1184
105836,186945,245976,-4.2173498325,8.709874264,1.9513468303000001,1185
105903,186924,245975,-4.2017964856,8.7505522482,1.9429719511999999,1186
105870,186925,245953,-4.2065821308,8.7290168448,1.9956140484,1187
106068,186934,245876,-4.3034914461,8.8127656358,1.9680965885,1188
106210,186952,246016,-4.2317067681000005,8.6727855137,1.8855442087999998,1189
106353,186981,245983,-4.2317067681000005,8.6727855137,1.8855442087999998,1190
106514,186985,246015,-4.2317067681000005,8.6727855137,1.8855442087999998,1191
106663,187041,246068,-4.2317067681000005,8.6727855137,1.8855442087999998,1192
106783,187081,246035,-4.2317067681000005,8.6727855137,1.8855442087999998,1193
106944,187111,246038,-4.2317067681000005,8.6727855137,1.8855442087999998,1194
107077,187106,246079,-4.2317067681000005,8.6727855137,1.8855442087999998,1195
107226,187148,246090,-4.2317067681000005,8.6727855137,1.8855442087999998,1196
107375,187137,246080,-4.2317067681000005,8.6727855137,1.8855442087999998,1197
107228,187040,246094,-4.2317067681000005,8.6727855137,1.8855442087999998,1198
106560,186861,245938,-4.2317067681000005,8.6727855137,1.8855442087999998,1199
105868,186733,245875,-4.2317067681000005,8.6727855137,1.8855442087999998,1200
105538,186720,245838,-4.2317067681000005,8.6727855137,1.8855442087999998,1201
105395,186746,245859,-4.2317067681000005,8.6727855137,1.8855442087999998,1202
105316,186711,245855,-4.2317067681000005,8.6727855137,1.8855442087999998,1203
105348,186745,245908,-4.2317067681000005,8.6727855137,1.8855442087999998,1204
105505,186785,245932,-4.2317067681000005,8.6727855137,1.8855442087999998,1205
105690,186839,245942,-4.2317067681000005,8.6727855137,1.8855442087999998,1206
105829,186854,245970,-4.2317067681000005,8.6727855137,1.8855442087999998,1207
105919,186848,245984,-4.2317067681000005,8.6727855137,1.8855442087999998,1208
106033,186880,245995,-4.2317067681000005,8.6727855137,1.8855442087999998,1209
106146,186896,246032,-4.2317067681000005,8.6727855137,1.8855442087999998,1210
106275,186918,246031,-4.2317067681000005,8.6727855137,1.8855442087999998,1211
106430,186943,246008,-4.2317067681000005,8.6727855137,1.8855442087999998,1212
106586,187001,246073,-4.2317067681000005,8.6727855137,1.8855442087999998,1213
106731,187016,246055,-4.2317067681000005,8.6727855137,1.8855442087999998,1214
106905,187043,246066,-4.2317067681000005,8.6727855137,1.8855442087999998,1215
107034,187056,246161,-4.2317067681000005,8.6727855137,1.8855442087999998,1216
107182,187058,246106,-4.2317067681000005,8.6727855137,1.8855442087999998,1217
107311,187065,246110,-4.3561335433,8.7996051115,1.8747765071,1218
107466,187142,246153,-4.3561335433,8.7996051115,1.8747765071,1219
107421,187047,246114,-4.3561335433,8.7996051115,1.8747765071,1220
106855,186868,245983,-4.3561335433,8.7996051115,1.8747765071,1221
106061,186748,245909,-4.3561335433,8.7996051115,1.8747765071,1222
105625,186658,245917,-4.3561335433,8.7996051115,1.8747765071,1223
105446,186682,245868,-4.3561335433,8.7996051115,1.8747765071,1224
105365,186675,245860,-4.3561335433,8.7996051115,1.8747765071,1225
105369,186682,245903,-4.3561335433,8.7996051115,1.8747765071,1226
105503,186738,245930,-4.3561335433,8.7996051115,1.8747765071,1227
105707,186764,245949,-4.3561335433,8.7996051115,1.8747765071,1228
105825,186772,245954,-4.3561335433,8.7996051115,1.8747765071,1229
105950,186815,246030,-4.3561335433,8.7996051115,1.8747765071,1230
106011,186848,245996,-4.3561335433,8.7996051115,1.8747765071,1231
106132,186844,245985,-4.3561335433,8.7996051115,1.8747765071,1232
106284,186910,246019,-4.3561335433,8.7996051115,1.8747765071,1233
106424,186899,246027,-4.3561335433,8.7996051115,1.8747765071,1234
106565,186942,246024,-4.3561335433,8.7996051115,1.8747765071,1235
106727,186957,246136,-4.3561335433,8.7996051115,1.8747765071,1236
106853,186996,246060,-4.3561335433,8.7996051115,1.8747765071,1237
107018,187009,246040,-4.3561335433,8.7996051115,1.8747765071,1238
107168,187022,246155,-4.3561335433,8.7996051115,1.8747765071,1239
107315,187026,246146,-4.3561335433,8.7996051115,1.8747765071,1240
107454,187074,246148,-4.3561335433,8.7996051115,1.8747765071,1241
107464,187051,246119,-4.3561335433,8.7996051115,1.8747765071,1242
107047,186856,245993,-4.3561335433,8.7996051115,1.8747765071,1243
106311,186707,245893,-4.3561335433,8.7996051115,1.8747765071,1244
105879,186700,245890,-4.3561335433,8.7996051115,1.8747765071,1245
105740,186730,245889,-4.3561335433,8.7996051115,1.8747765071,1246
105741,186688,245897,-4.3561335433,8.7996051115,1.8747765071,1247
105839,186704,245943,-4.3561335433,8.7996051115,1.8747765071,1248
106029,186787,245995,-4.3561335433,8.7996051115,1.8747765071,1249
106185,186832,245955,-4.3561335433,8.7996051115,1.8747765071,1250
106289,186813,245979,-4.3561335433,8.7996051115,1.8747765071,1251
106365,186835,245975,-4.3561335433,8.7996051115,1.8747765071,1252
106434,186850,245977,-4.3561335433,8.7996051115,1.8747765071,1253
106560,186849,245990,-4.3561335433,8.7996051115,1.8747765071,1254
106679,186868,246011,-4.3561335433,8.7996051115,1.8747765071,1255
106813,186908,246062,-4.3561335433,8.7996051115,1.8747765071,1256
106926,186944,246066,-4.3561335433,8.7996051115,1.8747765071,1257
107065,186964,246039,-4.3561335433,8.7996051115,1.8747765071,1258
107176,186966,245984,-4.3561335433,8.7996051115,1.8747765071,1259
105639,186639,245900,-4.2927237444,8.654839344200001,1.9788642901999998,1260
105809,186702,245953,-4.2927237444,8.654839344200001,1.9788642901999998,1261
105933,186705,245944,-4.2927237444,8.654839344200001,1.9788642901999998,1262
106002,186679,245948,-4.2927237444,8.654839344200001,1.9788642901999998,1263
106063,186715,245916,-4.2927237444,8.654839344200001,1.9788642901999998,1264
106149,186765,245978,-4.2927237444,8.654839344200001,1.9788642901999998,1265
106275,186779,245995,-4.2927237444,8.654839344200001,1.9788642901999998,1266
106401,186818,245991,-4.2927237444,8.654839344200001,1.9788642901999998,1267
106534,186830,246064,-4.2927237444,8.654839344200001,1.9788642901999998,1268
106673,186828,246047,-4.2927237444,8.654839344200001,1.9788642901999998,1269
106792,186851,245986,-4.2927237444,8.654839344200001,1.9788642901999998,1270
106942,186898,246076,-4.2927237444,8.654839344200001,1.9788642901999998,1271
107070,186924,246100,-4.2927237444,8.654839344200001,1.9788642901999998,1272
107202,186953,246093,-4.2927237444,8.654839344200001,1.9788642901999998,1273
107057,186819,246031,-4.2927237444,8.654839344200001,1.9788642901999998,1274
106360,186644,245915,-4.2927237444,8.654839344200001,1.9788642901999998,1275
105607,186522,245814,-4.2927237444,8.654839344200001,1.9788642901999998,1276
105168,186453,245839,-4.2927237444,8.654839344200001,1.9788642901999998,1277
104951,186477,245844,-4.2927237444,8.654839344200001,1.9788642901999998,1278
104804,186435,245815,-4.1802610821999995,8.6907316832,2.0003996936,1279
104730,186469,245856,-4.1802610821999995,8.6907316832,2.0003996936,1280
104849,186503,245892,-4.1802610821999995,8.6907316832,2.0003996936,1281
105074,186580,245839,-4.1802610821999995,8.6907316832,2.0003996936,1282
105212,186568,245893,-4.1802610821999995,8.6907316832,2.0003996936,1283
105320,186600,245880,-4.1802610821999995,8.6907316832,2.0003996936,1284
105405,186652,245958,-4.1802610821999995,8.6907316832,2.0003996936,1285
105482,186639,245971,-4.1802610821999995,8.6907316832,2.0003996936,1286
105621,186678,245972,-4.1802610821999995,8.6907316832,2.0003996936,1287
105779,186689,245938,-4.1802610821999995,8.6907316832,2.0003996936,1288
105903,186715,246006,-4.1802610821999995,8.6907316832,2.0003996936,1289
106059,186760,246005,-4.1802610821999995,8.6907316832,2.0003996936,1290
106208,186790,246011,-4.1802610821999995,8.6907316832,2.0003996936,1291
106342,186834,246051,-4.1802610821999995,8.6907316832,2.0003996936,1292
106495,186823,246098,-4.1802610821999995,8.6907316832,2.0003996936,1293
106621,186904,246067,-4.1802610821999995,8.6907316832,2.0003996936,1294
106656,186805,246041,-4.1802610821999995,8.6907316832,2.0003996936,1295
106114,186656,245922,-4.1802610821999995,8.6907316832,2.0003996936,1296
105325,186477,245811,-4.1802610821999995,8.6907316832,2.0003996936,1297
104788,186403,245829,-4.1802610821999995,8.6907316832,2.0003996936,1298
104524,186382,245770,-4.1958144290999995,8.6584285781,2.0231315083,1299
104388,186330,245798,-4.1958144290999995,8.6584285781,2.0231315083,1300
104323,186330,245842,-4.1958144290999995,8.6584285781,2.0231315083,1301
104426,186392,245808,-4.1958144290999995,8.6584285781,2.0231315083,1302
104642,186476,245848,-4.1958144290999995,8.6584285781,2.0231315083,1303
104855,186473,245900,-4.1958144290999995,8.6584285781,2.0231315083,1304
104971,186501,245835,-4.1958144290999995,8.6584285781,2.0231315083,1305
105074,186541,245889,-4.1958144290999995,8.6584285781,2.0231315083,1306
105176,186548,245923,-4.1958144290999995,8.6584285781,2.0231315083,1307
105340,186573,245938,-4.1958144290999995,8.6584285781,2.0231315083,1308
105477,186611,245936,-4.1958144290999995,8.6584285781,2.0231315083,1309
105645,186617,245882,-4.1958144290999995,8.6584285781,2.0231315083,1310
105782,186649,245993,-4.1958144290999995,8.6584285781,2.0231315083,1311
105959,186665,245997,-4.1958144290999995,8.6584285781,2.0231315083,1312
106116,186711,245985,-4.1958144290999995,8.6584285781,2.0231315083,1313
106276,186734,246045,-4.1958144290999995,8.6584285781,2.0231315083,1314
106440,186762,246014,-4.1958144290999995,8.6584285781,2.0231315083,1315
106581,186772,246031,-4.1958144290999995,8.6584285781,2.0231315083,1316
106490,186696,246002,-4.1958144290999995,8.6584285781,2.0231315083,1317
105849,186533,245889,-4.1958144290999995,8.6584285781,2.0231315083,1318
105232,186401,245856,-4.1958144290999995,8.6584285781,2.0231315083,1319
104944,186378,245867,-4.1958144290999995,8.6584285781,2.0231315083,1320
104856,186384,245744,-4.1958144290999995,8.6584285781,2.0231315083,1321
104854,186410,245808,-4.1958144290999995,8.6584285781,2.0231315083,1322
104989,186459,245826,-4.1958144290999995,8.6584285781,2.0231315083,1323
105204,186519,245863,-4.1958144290999995,8.6584285781,2.0231315083,1324
105374,186528,245850,-4.1958144290999995,8.6584285781,2.0231315083,1325
105465,186509,245879,-4.1958144290999995,8.6584285781,2.0231315083,1326
105566,186520,245881,-4.1958144290999995,8.6584285781,2.0231315083,1327
105681,186523,245903,-4.1958144290999995,8.6584285781,2.0231315083,1328
105815,186618,245904,-4.1958144290999995,8.6584285781,2.0231315083,1329
105953,186626,245962,-4.1958144290999995,8.6584285781,2.0231315083,1330
106114,186654,245944,-4.1958144290999995,8.6584285781,2.0231315083,1331
106284,186713,245980,-4.1958144290999995,8.6584285781,2.0231315083,1332
106419,186727,245994,-4.1958144290999995,8.6584285781,2.0231315083,1333
106574,186737,245964,-4.1958144290999995,8.6584285781,2.0231315083,1334
106699,186739,246029,-4.1958144290999995,8.6584285781,2.0231315083,1335
106849,186787,246044,-4.1958144290999995,8.6584285781,2.0231315083,1336
106798,186670,245969,-4.1958144290999995,8.6584285781,2.0231315083,1337
106260,186543,245850,-4.1958144290999995,8.6584285781,2.0231315083,1338
105600,186412,245813,-4.1958144290999995,8.6584285781,2.0231315083,1339
105278,186380,245779,-4.1958144290999995,8.6584285781,2.0231315083,1340
106970,186768,246056,-4.2687955184,8.6153577713,1.8819549749,1341
106691,186627,245969,-4.2687955184,8.6153577713,1.8819549749,1342
105904,186433,245815,-4.2687955184,8.6153577713,1.8819549749,1343
105273,186336,245781,-4.2687955184,8.6153577713,1.8819549749,1344
104970,186332,245816,-4.2687955184,8.6153577713,1.8819549749,1345
104802,186315,245822,-4.2687955184,8.6153577713,1.8819549749,1346
104687,186299,245834,-4.2687955184,8.6153577713,1.8819549749,1347
104722,186336,245825,-4.2687955184,8.6153577713,1.8819549749,1348
104901,186380,245862,-4.2687955184,8.6153577713,1.8819549749,1349
105090,186437,245918,-4.2687955184,8.6153577713,1.8819549749,1350
105249,186453,245900,-4.2687955184,8.6153577713,1.8819549749,1351
105346,186483,245866,-4.2687955184,8.6153577713,1.8819549749,1352
105449,186465,245894,-4.2687955184,8.6153577713,1.8819549749,1353
105572,186529,245933,-4.2687955184,8.6153577713,1.8819549749,1354
105724,186577,245958,-4.2687955184,8.6153577713,1.8819549749,1355
105893,186587,245973,-4.2687955184,8.6153577713,1.8819549749,1356
106066,186614,246005,-4.2687955184,8.6153577713,1.8819549749,1357
106212,186647,246008,-4.2687955184,8.6153577713,1.8819549749,1358
106385,186685,246038,-4.2687955184,8.6153577713,1.8819549749,1359
106520,186673,246018,-4.2687955184,8.6153577713,1.8819549749,1360
106696,186761,246054,-4.2687955184,8.6153577713,1.8819549749,1361
106781,186705,246037,-4.2687955184,8.6153577713,1.8819549749,1362
106371,186545,245995,-4.2687955184,8.6153577713,1.8819549749,1363
105521,186344,245778,-4.2687955184,8.6153577713,1.8819549749,1364
104931,186303,245817,-4.2687955184,8.6153577713,1.8819549749,1365
104629,186275,245797,-4.2687955184,8.6153577713,1.8819549749,1366
104463,186229,245761,-4.2687955184,8.6153577713,1.8819549749,1367
104371,186227,245771,-4.2687955184,8.6153577713,1.8819549749,1368
104447,186292,245779,-4.2687955184,8.6153577713,1.8819549749,1369
104657,186341,245800,-4.2687955184,8.6153577713,1.8819549749,1370
104836,186382,245825,-4.2687955184,8.6153577713,1.8819549749,1371
104978,186378,245861,-4.2687955184,8.6153577713,1.8819549749,1372
105098,186431,245805,-4.2269211229,8.7517486595,1.9812571127999998,1373
105207,186432,245804,-4.2269211229,8.7517486595,1.9812571127999998,1374
105376,186452,245860,-4.2269211229,8.7517486595,1.9812571127999998,1375
105534,186455,245903,-4.2269211229,8.7517486595,1.9812571127999998,1376
105707,186525,245938,-4.2269211229,8.7517486595,1.9812571127999998,1377
105860,186561,245918,-4.2269211229,8.7517486595,1.9812571127999998,1378
106069,186591,245898,-4.2269211229,8.7517486595,1.9812571127999998,1379
106205,186580,245948,-4.2269211229,8.7517486595,1.9812571127999998,1380
106371,186639,245949,-4.2269211229,8.7517486595,1.9812571127999998,1381
106521,186658,245941,-4.2269211229,8.7517486595,1.9812571127999998,1382
106709,186646,246003,-4.2269211229,8.7517486595,1.9812571127999998,1383
106789,186712,245936,-4.2269211229,8.7517486595,1.9812571127999998,1384
106435,186536,245894,-4.2269211229,8.7517486595,1.9812571127999998,1385
105689,186353,245792,-4.2269211229,8.7517486595,1.9812571127999998,1386
105199,186266,245742,-4.2269211229,8.7517486595,1.9812571127999998,1387
105027,186294,245747,-4.2269211229,8.7517486595,1.9812571127999998,1388
104990,186295,245744,-4.2269211229,8.7517486595,1.9812571127999998,1389
105007,186331,245771,-4.2269211229,8.7517486595,1.9812571127999998,1390
105191,186344,245775,-4.2269211229,8.7517486595,1.9812571127999998,1391
105399,186418,245761,-4.2269211229,8.7517486595,1.9812571127999998,1392
105538,186380,245788,-4.2269211229,8.7517486595,1.9812571127999998,1393
105620,186429,245820,-4.2269211229,8.7517486595,1.9812571127999998,1394
105726,186432,245830,-4.2269211229,8.7517486595,1.9812571127999998,1395
105863,186467,245808,-4.2269211229,8.7517486595,1.9812571127999998,1396
105986,186494,245859,-4.2269211229,8.7517486595,1.9812571127999998,1397
106137,186542,245878,-4.2269211229,8.7517486595,1.9812571127999998,1398
106341,186591,245906,-4.2269211229,8.7517486595,1.9812571127999998,1399
106461,186567,245862,-4.2269211229,8.7517486595,1.9812571127999998,1400
106619,186599,245863,-4.2269211229,8.7517486595,1.9812571127999998,1401
106778,186626,245963,-4.2269211229,8.7517486595,1.9812571127999998,1402
106912,186651,245924,-4.2269211229,8.7517486595,1.9812571127999998,1403
107056,186692,245969,-4.2269211229,8.7517486595,1.9812571127999998,1404
107011,186603,245892,-4.2269211229,8.7517486595,1.9812571127999998,1405
106460,186437,245808,-4.2269211229,8.7517486595,1.9812571127999998,1406
105827,186340,245736,-4.2269211229,8.7517486595,1.9812571127999998,1407
105481,186262,245715,-4.2269211229,8.7517486595,1.9812571127999998,1408
105342,186274,245746,-4.2269211229,8.7517486595,1.9812571127999998,1409
105301,186308,245721,-4.2269211229,8.7517486595,1.9812571127999998,1410
105373,186321,245769,-4.2269211229,8.7517486595,1.9812571127999998,1411
105552,186375,245790,-4.2125641873,8.8211405149,1.9836499354,1412
105684,186428,245811,-4.2125641873,8.8211405149,1.9836499354,1413
105778,186427,245766,-4.2125641873,8.8211405149,1.9836499354,1414
105834,186431,245800,-4.2125641873,8.8211405149,1.9836499354,1415
105910,186483,245838,-4.2125641873,8.8211405149,1.9836499354,1416
106024,186506,245804,-4.2125641873,8.8211405149,1.9836499354,1417
106149,186555,245847,-4.2125641873,8.8211405149,1.9836499354,1418
106280,186554,245921,-4.2125641873,8.8211405149,1.9836499354,1419
106396,186609,245893,-4.2125641873,8.8211405149,1.9836499354,1420
106561,186643,245966,-4.2125641873,8.8211405149,1.9836499354,1421
106711,186687,245990,-4.2125641873,8.8211405149,1.9836499354,1422
106848,186711,246023,-4.2125641873,8.8211405149,1.9836499354,1423
106984,186739,245994,-4.2125641873,8.8211405149,1.9836499354,1424
106870,186666,245906,-4.2125641873,8.8211405149,1.9836499354,1425
106227,186491,245820,-4.2125641873,8.8211405149,1.9836499354,1426
105544,186371,245745,-4.2125641873,8.8211405149,1.9836499354,1427
105120,186312,245697,-4.2125641873,8.8211405149,1.9836499354,1428
104890,186300,245689,-4.2125641873,8.8211405149,1.9836499354,1429
104750,186293,245703,-4.2125641873,8.8211405149,1.9836499354,1430
104679,186302,245778,-4.2125641873,8.8211405149,1.9836499354,1431
104796,186428,245732,-4.2125641873,8.8211405149,1.9836499354,1432
104988,186443,245792,-4.2125641873,8.8211405149,1.9836499354,1433
105114,186467,245769,-4.2125641873,8.8211405149,1.9836499354,1434
105204,186494,245860,-4.2125641873,8.8211405149,1.9836499354,1435
105279,186525,245903,-4.2125641873,8.8211405149,1.9836499354,1436
105377,186558,245824,-4.2125641873,8.8211405149,1.9836499354,1437
105507,186603,245864,-4.2125641873,8.8211405149,1.9836499354,1438
105619,186625,245876,-4.2125641873,8.8211405149,1.9836499354,1439
105796,186666,245953,-4.2125641873,8.8211405149,1.9836499354,1440
105944,186683,245926,-4.2125641873,8.8211405149,1.9836499354,1441
106087,186736,245918,-4.2125641873,8.8211405149,1.9836499354,1442
106234,186730,245943,-4.2125641873,8.8211405149,1.9836499354,1443
106386,186807,245977,-4.2125641873,8.8211405149,1.9836499354,1444
106539,186816,245977,-4.2125641873,8.8211405149,1.9836499354,1445
106626,186821,245982,-4.2125641873,8.8211405149,1.9836499354,1446
106283,186669,245886,-4.2125641873,8.8211405149,1.9836499354,1447
105548,186506,245824,-4.2125641873,8.8211405149,1.9836499354,1448
104989,186398,245772,-4.2125641873,8.8211405149,1.9836499354,1449
104661,186416,245769,-4.2843488653,8.7110706753,1.9453647738,1450
104504,186366,245693,-4.2843488653,8.7110706753,1.9453647738,1451
104406,186384,245770,-4.2843488653,8.7110706753,1.9453647738,1452
104469,186437,245738,-4.2843488653,8.7110706753,1.9453647738,1453
104678,186482,245743,-4.2843488653,8.7110706753,1.9453647738,1454
104855,186528,245770,-4.2843488653,8.7110706753,1.9453647738,1455
104985,186531,245815,-4.2843488653,8.7110706753,1.9453647738,1456
105087,186544,245847,-4.2843488653,8.7110706753,1.9453647738,1457
105151,186581,245857,-4.2843488653,8.7110706753,1.9453647738,1458
105299,186583,245859,-4.2843488653,8.7110706753,1.9453647738,1459
105438,186658,245841,-4.2843488653,8.7110706753,1.9453647738,1460
105587,186690,245922,-4.2843488653,8.7110706753,1.9453647738,1461
105754,186695,245866,-4.2843488653,8.7110706753,1.9453647738,1462
105907,186760,245948,-4.2843488653,8.7110706753,1.9453647738,1463
106049,186768,245943,-4.2843488653,8.7110706753,1.9453647738,1464
106202,186814,245941,-4.2843488653,8.7110706753,1.9453647738,1465
106353,186831,245915,-4.2843488653,8.7110706753,1.9453647738,1466
106515,186864,246041,-4.2843488653,8.7110706753,1.9453647738,1467
106661,186866,245985,-4.2843488653,8.7110706753,1.9453647738,1468
106652,186792,245951,-4.2843488653,8.7110706753,1.9453647738,1469
106110,186586,245830,-4.2843488653,8.7110706753,1.9453647738,1470
105425,186474,245732,-4.2843488653,8.7110706753,1.9453647738,1471
105055,186454,245754,-4.2843488653,8.7110706753,1.9453647738,1472
104942,186427,245708,-4.2843488653,8.7110706753,1.9453647738,1473
104882,186476,245740,-4.2843488653,8.7110706753,1.9453647738,1474
104931,186487,245742,-4.2843488653,8.7110706753,1.9453647738,1475
105099,186560,245791,-4.2843488653,8.7110706753,1.9453647738,1476
105312,186610,245797,-4.2843488653,8.7110706753,1.9453647738,1477
105462,186647,245764,-4.2843488653,8.7110706753,1.9453647738,1478
105591,186601,245848,-4.2843488653,8.7110706753,1.9453647738,1479
105669,186651,245837,-4.2843488653,8.7110706753,1.9453647738,1480
105803,186671,245831,-4.2843488653,8.7110706753,1.9453647738,1481
105952,186690,245810,-4.2843488653,8.7110706753,1.9453647738,1482
106087,186698,245875,-4.2843488653,8.7110706753,1.9453647738,1483
106254,186755,245835,-4.2843488653,8.7110706753,1.9453647738,1484
106399,186776,245903,-4.2843488653,8.7110706753,1.9453647738,1485
106567,186821,245920,-4.2843488653,8.7110706753,1.9453647738,1486
106708,186840,245993,-4.2843488653,8.7110706753,1.9453647738,1487
106875,186869,245922,-4.2843488653,8.7110706753,1.9453647738,1488
107032,186900,245945,-4.2843488653,8.7110706753,1.9453647738,1489
107178,186915,245999,-4.2843488653,8.7110706753,1.9453647738,1490
107318,186941,246005,-4.2843488653,8.7110706753,1.9453647738,1491
106584,186780,245841,-4.2388852359,8.7266240222,1.8915262653,1492
106668,186786,245835,-4.2388852359,8.7266240222,1.8915262653,1493
106773,186806,245837,-4.2388852359,8.7266240222,1.8915262653,1494
106865,186819,245868,-4.2388852359,8.7266240222,1.8915262653,1495
107015,186858,245841,-4.2388852359,8.7266240222,1.8915262653,1496
107128,186868,245865,-4.2388852359,8.7266240222,1.8915262653,1497
107256,186898,245855,-4.2388852359,8.7266240222,1.8915262653,1498
107375,186921,245931,-4.242474469799999,8.8139620471,1.9716858223999998,1499
107486,186931,245957,-4.242474469799999,8.8139620471,1.9716858223999998,1500
107589,186963,245932,-4.242474469799999,8.8139620471,1.9716858223999998,1501
107670,186989,245911,-4.242474469799999,8.8139620471,1.9716858223999998,1502
107788,186993,245983,-4.242474469799999,8.8139620471,1.9716858223999998,1503
107683,186897,245872,-4.242474469799999,8.8139620471,1.9716858223999998,1504
107175,186765,245793,-4.242474469799999,8.8139620471,1.9716858223999998,1505
106478,186600,245758,-4.242474469799999,8.8139620471,1.9716858223999998,1506
106101,186625,245721,-4.242474469799999,8.8139620471,1.9716858223999998,1507
105913,186637,245694,-4.242474469799999,8.8139620471,1.9716858223999998,1508
105867,186627,245702,-4.242474469799999,8.8139620471,1.9716858223999998,1509
105944,186664,245751,-4.242474469799999,8.8139620471,1.9716858223999998,1510
106079,186733,245767,-4.242474469799999,8.8139620471,1.9716858223999998,1511
106225,186750,245857,-4.2508493489,8.697910151,2.0434705004000002,1512
106299,186755,245814,-4.1599220901,8.7900338211,2.021935097,1513
106345,186741,245871,-4.2436708811,8.8115692245,2.0291135648000003,1514
106442,186798,245899,-4.2783668087999995,8.757730716,1.9645073545999998,1515
106510,186835,245890,-4.2855452766,8.685946038,2.0685951377,1516
106614,186849,245917,-4.3142591478000005,8.6297147069,1.9477575963999998,1517
106751,186830,245902,-4.1288153963,8.7780697081,1.9262221929999999,1518
