green,red,IR,acc_x,acc_y,acc_z,sample_index
89967,176180,216338,0.5922235935,-2.9694928465999997,9.456434915200001,1
89671,176147,216357,0.6652046827999999,-2.8271199019,9.5078806011,2
89520,176121,216379,0.729810893,-2.9252256285000002,9.5342016497,3
89539,176146,216309,0.6209374647,-2.7828526838,9.4193461649,4
89678,176189,216352,0.7872386353999999,-2.8953153460000003,9.4947200768,5
89840,176185,216354,0.7082754896000001,-2.9001009912,9.4576313265,6
89942,176207,216407,0.6233302873,-2.8761727652,9.4229353988,7
90020,176204,216403,0.71784678,-2.9479574432,9.5365944723,8
90082,176243,216390,0.7345965382,-2.8007988533,9.5617191096,9
90197,176248,216427,0.6891329087999999,-2.8522445392,9.456434915200001,10
90310,176248,216412,0.7070790783,-2.9336005076,9.4983093107,11
90491,176252,216453,0.6675975054,-2.8582265956999997,9.5964150373,12
90668,176277,216439,0.7465606512,-2.9874390161,9.5461657627,13
90847,176272,216472,0.6556333924,-3.0161528873,9.4420779796,14
91017,176312,216459,0.6987041992,-2.8031916759,9.5700939887,15
91243,176308,216520,0.7166503687,-2.8642086522,9.535398061,16
91336,176336,216446,0.7226324252,-2.8857440556,9.3750789468,17
91465,176372,216464,0.6879364975,-2.8175486115,9.523433948000001,18
91577,176362,216477,0.6185446421,-2.8366911923,9.499505722,19
91688,176358,216487,0.7070790783,-2.8953153460000003,9.5007021333,20
91833,176363,216490,0.5766702466,-2.9264220398,9.5557370531,21
91922,176387,216493,0.7441678286,-2.8785655878,9.5126662463,22
92054,176369,216485,0.765703232,-2.7948167968,9.4923272542,23
92157,176362,216489,0.6747759731999999,-2.9479574432,9.562915520899999,24
92160,176370,216514,0.7429714173,-2.919243572,9.3822574146,25
91756,176305,216485,0.6245266986,-2.8953153460000003,9.4061856406,26
91144,176242,216434,0.6005984726,-2.9036902251,9.4887380203,27
90547,176233,216441,0.6077769404,-2.8259234905999997,9.5018985446,28
90189,176179,216415,0.6149554081999999,-2.835494781,9.3966143502,29
89887,176135,216402,0.7429714173,-2.8331019584000003,9.384650237199999,30
89657,176149,216404,0.8003991597,-2.931207685,9.451649269999999,31
89821,176164,216387,0.7034898444000001,-2.9048866364,9.4911308429,32
89938,176176,216469,0.7549355303,-2.8701907087,9.475577496,33
90099,176150,216467,0.6125625856,-2.8163522002,9.4121676971,34
90180,176208,216442,0.6628118601999999,-2.8115665549999997,9.5342016497,35
90221,176185,216448,0.6843472636,-2.8450660714,9.4253282214,36
90263,176206,216472,0.6843472636,-2.8953153460000003,9.4468636248,37
90336,176213,216443,0.6556333924,-2.7613172804,9.4325066892,38
90442,176200,216493,0.6496513358999999,-2.6668007876999997,9.391828705,39
90560,176191,216457,0.6580262149999999,-2.8115665549999997,9.522237536699999,40
90732,176227,216448,0.5635097223,-2.9347969189,9.5054877785,41
90857,176237,216472,0.5647061336,-2.8103701436999997,9.5066841898,42
90981,176195,216455,0.6317051664,-2.8283163132,9.511469835,43
91082,176211,216443,0.6161518195,-2.9539394997,9.518648302799999,44
91162,176228,216440,0.7788637562999999,-2.7577280465,9.439685157,45
91308,176237,216417,0.6592226263,-2.8797619991,9.3607220112,46
91340,176239,216419,0.5874379483000001,-2.8857440556,9.4983093107,47
91421,176236,216410,0.8123632727,-2.8127629663000002,9.510273423700001,48
91497,176220,216380,0.6867400861999999,-2.8654050635,9.4791667299,49
91580,176241,216425,0.6245266986,-2.9898318387,9.5007021333,50
91702,176239,216391,0.6161518195,-2.9072794589999997,9.5246303593,51
91675,176240,216401,0.5670989562,-3.0245277664,9.4588277378,52
91329,176206,216389,0.7800601676,-2.7708885708000004,9.4863451977,53
90703,176175,216384,0.7740781111,-2.8821548217,9.463613383,54
90114,176070,216331,0.7250252478,-2.9587251449000003,9.345168664300001,55
89672,176077,216294,0.6340979889999999,-2.9156543381000004,9.477970318599999,56
89390,176072,216267,0.6125625856,-2.8019952646,9.510273423700001,57
89238,176030,216292,0.5958128274,-2.8366911923,9.456434915200001,58
89257,176049,216317,0.7345965382,-2.8378876036,9.4588277378,59
89425,176049,216309,0.7034898444000001,-2.8809584104000003,9.497112899400001,60
89600,176125,216314,0.5371886737,-2.8546373618,9.463613383,61
89698,176084,216338,0.7405785947,-3.0113672421,9.3655076564,62
89716,176113,216316,0.6699903279999999,-2.8701907087,9.385846648500001,63
89831,176093,216337,0.6867400861999999,-3.0161528873,9.477970318599999,64
89927,176131,216325,0.71784678,-2.8965117573,9.4408815683,65
90067,176116,216358,0.6317051664,-2.7768706272999997,9.443274390900001,66
90219,176143,216344,0.6352944003,-3.0747770410000004,9.4265246327,67
90387,176169,216339,0.7154539574000001,-2.8295127245,9.3344009626,68
90548,176167,216348,0.7609175868,-2.8247270792999997,9.4660062056,69
90713,176211,216375,0.6185446421,-2.8211378454,9.399007172800001,70
90889,176222,216395,0.7106683122,-2.9120651042,9.4600241491,71
91011,176248,216359,0.7740781111,-2.7637101029999998,9.4468636248,72
91165,176257,216408,0.7740781111,-2.9024938138,9.4827559638,73
91201,176254,216375,0.7573283529,-2.8773691765,9.4420779796,74
91385,176294,216384,0.7130611348,-2.8785655878,9.3726861242,75
91532,176279,216380,0.8219345630999999,-2.8881368781999996,9.4013999954,76
91668,176331,216376,0.7525427077,-2.8319055471,9.477970318599999,77
91802,176308,216385,0.5898307709,-2.87138712,9.562915520899999,78
91836,176338,216364,0.5778666579,-2.9144579268,9.4731846734,79
91538,176306,216376,0.6616154488999999,-2.9575287336000002,9.3930251163,80
90893,176261,216357,0.6436692794,-2.8857440556,9.391828705,81
90234,176167,216304,0.7106683122,-2.8594230069999997,9.384650237199999,82
89743,176149,216295,0.7645068207,-2.9288148624,9.3870430598,83
89413,176085,216266,0.8123632727,-2.8809584104000003,9.410971285799999,84
89258,176113,216275,0.789631458,-2.8067809098,9.3355973739,85
89288,176099,216311,0.7202396026000001,-3.0029923629999997,9.5724868113,86
89456,176114,216278,0.6963113766000001,-2.9300112737000004,9.5377908836,87
89634,176113,216364,0.6245266986,-2.8666014748,9.5282195932,88
89770,176142,216369,0.6424728680999999,-2.9048866364,9.3750789468,89
89828,176176,216317,0.7154539574000001,-2.8342983697,9.5054877785,90
89959,176188,216387,0.6867400861999999,-2.8486553053,9.5294160045,91
89992,176197,216372,0.7106683122,-2.9036902251,9.4444708022,92
90083,176201,216386,0.5563312545,-2.823530668,9.451649269999999,93
90273,176214,216370,0.7860422241,-2.9168507494,9.4887380203,94
90466,176212,216373,0.6891329087999999,-2.8271199019,9.468399028199999,95
90602,176241,216460,0.6879364975,-2.9216363945999997,9.468399028199999,96
90778,176220,216454,0.8398807326,-2.9180471607,9.487541608999999,97
90916,176274,216443,0.7274180704000001,-2.8067809098,9.4803631412,98
91075,176250,216412,0.6412764568,-2.8450660714,9.367900479,99
91205,176304,216416,0.7034898444000001,-2.7170500623000002,9.5246303593,100
91335,176299,216446,0.6616154488999999,-2.823530668,9.477970318599999,101
91446,176279,216437,0.7752745223999999,-2.7792634499,9.522237536699999,102
91544,176288,216432,0.6017948839,-2.7493531674,9.4588277378,103
91676,176299,216423,0.6640082715,-2.7278177639999996,9.4851487864,104
91813,176320,216420,0.6340979889999999,-2.8043880872,9.5330052384,105
91874,176286,216451,0.5790630692000001,-2.9156543381000004,9.3882394711,106
91655,176283,216434,0.5419743189,-2.8414768375,9.420542576199999,107
91116,176235,216395,0.6340979889999999,-2.7960132080999998,9.4588277378,108
90533,176188,216424,0.5647061336,-2.8259234905999997,9.4241318101,109
89943,176126,216354,0.6029912952,-2.8977081686,9.3499543095,110
89723,176100,216392,0.6675975054,-2.9084758702999998,9.367900479,111
89573,176064,216341,0.6508477471999999,-2.7290141752999997,9.4791667299,112
89597,176098,216330,0.6987041992,-2.7732813934,9.3667040677,113
89752,176134,216394,0.6831508522999999,-2.8689942974,9.487541608999999,114
89914,176111,216340,0.7130611348,-2.9934210726,9.463613383,115
90006,176118,216390,0.6484549246,-2.6775684894,9.5030949559,116
90029,176123,216401,0.5730810127,-2.8247270792999997,9.427721044,117
90041,176117,216385,0.5527420206,-2.8474588940000003,9.403792818,118
90087,176106,216376,0.6592226263,-2.9096722816000002,9.3774717694,119
90153,176130,216385,0.6041877065,-2.9814569596,9.4660062056,120
90249,176091,216358,0.7680960546,-2.7996024420000003,9.4731846734,121
90363,176128,216378,0.705882667,-2.8151557889,9.4181497536,122
90509,176139,216343,0.6508477471999999,-2.7326034091999998,9.468399028199999,123
90639,176149,216343,0.6400800455,-2.8199414341,9.5377908836,124
90759,176170,216341,0.7010970218,-2.8534409504999996,9.4301138666,125
90893,176167,216315,0.6520441585,-2.8929225234,9.5282195932,126
91013,176182,216327,0.6723831506,-2.8642086522,9.4444708022,127
91132,176180,216330,0.6747759731999999,-2.8283163132,9.468399028199999,128
91256,176215,216355,0.71784678,-2.8307091358,9.3607220112,129
91378,176197,216341,0.6795616184,-2.8977081686,9.3224368496,130
91501,176258,216382,0.7465606512,-2.87138712,9.439685157,131
91635,176258,216328,0.6448656907,-2.7960132080999998,9.497112899400001,132
91665,176278,216328,0.6520441585,-2.8606194183,9.5437729401,133
91306,176257,216292,0.7118647235000001,-2.8462624827,9.384650237199999,134
90698,176134,216291,0.5778666579,-2.9647072014,9.5294160045,135
90007,176116,216275,0.7154539574000001,-2.7912275628999996,9.3655076564,136
89653,176091,216241,0.6699903279999999,-2.8043880872,9.399007172800001,137
89421,176082,216233,0.7274180704000001,-2.8953153460000003,9.309276325299999,138
89244,176025,216214,0.8386843212999999,-2.8534409504999996,9.4313102779,139
89292,176056,216208,0.5443671415,-2.7218357075,9.415756931,140
89446,176049,216252,0.8195417405,-2.9168507494,9.4731846734,141
89619,176053,216248,0.6807580296999999,-2.8857440556,9.5461657627,142
89750,176102,216267,0.6915257314000001,-2.8809584104000003,9.4372923344,143
89831,176109,216280,0.6711867393,-2.9503502657999996,9.3726861242,144
89891,176113,216280,0.5395814963,-2.9359933301999996,9.3882394711,145
89979,176138,216243,0.6999006105000001,-2.9862426048,9.562915520899999,146
90104,176139,216327,0.7334001269,-2.7230321187999995,9.3774717694,147
90267,176132,216279,0.6460621019999999,-2.9264220398,9.456434915200001,148
90451,176177,216260,0.7549355303,-3.0017959517,9.3655076564,149
90628,176186,216311,0.6269195211999999,-2.7529424013,9.468399028199999,150
90777,176217,216306,0.729810893,-2.8079773211,9.4133641084,151
90990,176219,216304,0.6113661743,-2.883351233,9.3702933016,152
91111,176209,216291,0.7286144817,-2.8905297008,9.4325066892,153
91136,176222,216328,0.5539384319,-2.7493531674,9.5198447141,154
91364,176281,216288,0.6269195211999999,-2.9694928465999997,9.4815595525,155
91468,176281,216302,0.5694917788,-2.9300112737000004,9.5078806011,156
91624,176287,216300,0.7513462964000001,-2.9048866364,9.427721044,157
91754,176290,216273,0.6891329087999999,-2.8989045799,9.3822574146,158
91950,176306,216300,0.8243273857,-2.7864419177,9.5162554802,159
91938,176348,216345,0.6269195211999999,-2.9982067177999996,9.4983093107,160
91655,176306,216330,0.8171489179,-2.8737799425999997,9.4767739073,161
91086,176237,216283,0.6616154488999999,-2.8283163132,9.4624169717,162
90441,176181,216279,0.6987041992,-3.0329026454999997,9.4133641084,163
89982,176161,216265,0.8027919822999999,-2.8905297008,9.403792818,164
89691,176130,216264,0.5706881900999999,-2.7110680058,9.4803631412,165
89542,176123,216257,0.729810893,-2.8163522002,9.3583291886,166
89570,176100,216250,0.6317051664,-2.9120651042,9.4528456813,167
89719,176149,216305,0.7621139981,-2.8438696600999998,9.4588277378,168
89891,176164,216326,0.6580262149999999,-2.8211378454,9.5437729401,169
90042,176180,216340,0.6604190376,-2.8079773211,9.4013999954,170
89974,176140,216322,0.7334001269,-2.8785655878,9.5437729401,171
90150,176146,216315,0.6245266986,-2.8570301844,9.4707918508,172
90226,176188,216359,0.6065805291,-2.8414768375,9.3750789468,173
90400,176174,216349,0.6915257314000001,-2.8546373618,9.6012006825,174
90495,176204,216339,0.7956135145,-2.8139593776000003,9.535398061,175
90654,176190,216371,0.6747759731999999,-2.8127629663000002,9.4013999954,176
90806,176188,216355,0.6819544409999999,-2.8342983697,9.4325066892,177
90975,176252,216369,0.7190431913,-2.883351233,9.3870430598,178
91121,176217,216371,0.7621139981,-2.7996024420000003,9.4863451977,179
91271,176212,216377,0.7070790783,-2.8414768375,9.3870430598,180
91413,176252,216351,0.6699903279999999,-2.8594230069999997,9.518648302799999,181
91527,176271,216391,0.8470592004,-2.8857440556,9.410971285799999,182
91643,176272,216388,0.6675975054,-2.8055844984999996,9.4229353988,183
91797,176264,216374,0.6771687957999999,-2.6775684894,9.391828705,184
91877,176287,216376,0.7513462964000001,-2.9659036127,9.5306124158,185
91982,176282,216378,0.765703232,-2.7792634499,9.5461657627,186
92051,176337,216337,0.6053841178,-2.9527430884,9.499505722,187
92054,176294,216414,0.7980063370999999,-2.8666014748,9.3631148338,188
91633,176263,216387,0.6197410534,-2.9048866364,9.475577496,189
91022,176194,216356,0.5682953675,-2.7744778047,9.4719882621,190
90483,176156,216308,0.5228317381,-2.9108686929000003,9.4576313265,191
90093,176091,216330,0.7142575461,-2.8905297008,9.535398061,192
89860,176100,216288,0.8315058535,-2.7242285301,9.5557370531,193
89745,176051,216276,0.6915257314000001,-2.7816562725,9.475577496,194
89797,176080,216270,0.741775006,-2.7816562725,9.420542576199999,195
89918,176089,216241,0.6245266986,-2.9503502657999996,9.4121676971,196
90021,176047,216276,0.6520441585,-2.8881368781999996,9.4133641084,197
90065,176031,216240,0.6340979889999999,-2.8163522002,9.4935236655,198
90060,176084,216269,0.6675975054,-2.9252256285000002,9.451649269999999,199
90089,176058,216250,0.6675975054,-2.9252256285000002,9.451649269999999,200
90187,176060,216249,0.6675975054,-2.9252256285000002,9.451649269999999,201
90304,176087,216257,0.8207381518,-2.9958138952,9.3655076564,202
90439,176103,216233,0.6352944003,-2.8642086522,9.4695954395,203
90598,176152,216294,0.7573283529,-2.9874390161,9.3894358824,204
90757,176106,216279,0.6771687957999999,-2.8139593776000003,9.4181497536,205
90903,176155,216281,0.7668996433,-2.8414768375,9.4839523751,206
91038,176167,216267,0.7788637562999999,-2.7912275628999996,9.4253282214,207
91191,176183,216280,0.7034898444000001,-2.9264220398,9.4420779796,208
91308,176214,216261,0.6891329087999999,-2.8390840148999996,9.427721044,209
91419,176202,216214,0.5970092387,-2.8474588940000003,9.495916488099999,210
91570,176254,216283,0.5970092387,-2.8474588940000003,9.495916488099999,211
91703,176231,216281,0.5970092387,-2.8474588940000003,9.495916488099999,212
91811,176251,216230,0.5970092387,-2.8474588940000003,9.495916488099999,213
91936,176255,216255,0.5970092387,-2.8474588940000003,9.495916488099999,214
91888,176284,216266,0.5970092387,-2.8474588940000003,9.495916488099999,215
91467,176246,216248,0.5970092387,-2.8474588940000003,9.495916488099999,216
90818,176186,216218,0.5970092387,-2.8474588940000003,9.495916488099999,217
90226,176126,216185,0.5970092387,-2.8474588940000003,9.495916488099999,218
89803,176099,216160,0.5970092387,-2.8474588940000003,9.495916488099999,219
89539,176050,216150,0.5970092387,-2.8474588940000003,9.495916488099999,220
89429,176040,216167,0.5970092387,-2.8474588940000003,9.495916488099999,221
89479,176055,216157,0.5970092387,-2.8474588940000003,9.495916488099999,222
89643,176071,216206,0.5970092387,-2.8474588940000003,9.495916488099999,223
89786,176070,216222,0.5970092387,-2.8474588940000003,9.495916488099999,224
89892,176095,216177,0.5970092387,-2.8474588940000003,9.495916488099999,225
89951,176124,216200,0.5970092387,-2.8474588940000003,9.495916488099999,226
90005,176126,216233,0.5970092387,-2.8474588940000003,9.495916488099999,227
90111,176151,216231,0.5970092387,-2.8474588940000003,9.495916488099999,228
90240,176170,216235,0.5970092387,-2.8474588940000003,9.495916488099999,229
90420,176168,216234,0.5970092387,-2.8474588940000003,9.495916488099999,230
90579,176164,216219,0.5970092387,-2.8474588940000003,9.495916488099999,231
90745,176166,216275,0.5970092387,-2.8474588940000003,9.495916488099999,232
90918,176225,216223,0.5970092387,-2.8474588940000003,9.495916488099999,233
91061,176187,216246,0.5970092387,-2.8474588940000003,9.495916488099999,234
91218,176246,216250,0.5970092387,-2.8474588940000003,9.495916488099999,235
91347,176269,216235,0.5970092387,-2.8474588940000003,9.495916488099999,236
91460,176286,216264,0.5970092387,-2.8474588940000003,9.495916488099999,237
91585,176292,216237,0.5970092387,-2.8474588940000003,9.495916488099999,238
91730,176286,216244,0.5970092387,-2.8474588940000003,9.495916488099999,239
91849,176317,216259,0.5970092387,-2.8474588940000003,9.495916488099999,240
91982,176341,216252,0.5970092387,-2.8474588940000003,9.495916488099999,241
92016,176327,216266,0.5970092387,-2.8474588940000003,9.495916488099999,242
91675,176278,216250,0.5970092387,-2.8474588940000003,9.495916488099999,243
91083,176236,216227,0.5970092387,-2.8474588940000003,9.495916488099999,244
90487,176195,216216,0.5970092387,-2.8474588940000003,9.495916488099999,245
90064,176128,216176,0.5970092387,-2.8474588940000003,9.495916488099999,246
89797,176142,216196,0.6795616184,-2.8917261120999997,9.4325066892,247
89657,176120,216218,0.6795616184,-2.8917261120999997,9.4325066892,248
89700,176097,216217,0.6795616184,-2.8917261120999997,9.4325066892,249
89870,176145,216252,0.6795616184,-2.8917261120999997,9.4325066892,250
90004,176139,216229,0.6795616184,-2.8917261120999997,9.4325066892,251
90126,176135,216296,0.6795616184,-2.8917261120999997,9.4325066892,252
90199,176183,216270,0.6795616184,-2.8917261120999997,9.4325066892,253
90258,176167,216270,0.7070790783,-2.8785655878,9.427721044,254
90345,176190,216319,0.7070790783,-2.8785655878,9.427721044,255
90449,176151,216293,0.6951149653,-2.7409782883,9.5270231819,256
90591,176173,216301,0.7848458128,-2.9240292172,9.4492564474,257
90752,176200,216347,0.6173482308,-2.9503502657999996,9.4719882621,258
90915,176208,216309,0.7106683122,-2.7912275628999996,9.4719882621,259
91086,176210,216329,0.7477570625,-2.9611179675,9.5413801175,260
91214,176247,216322,0.7106683122,-2.9383861528,9.5389872949,261
91366,176208,216346,0.6125625856,-2.9024938138,9.3942215276,262
91513,176235,216324,0.5826523031,-2.8211378454,9.5018985446,263
91603,176221,216332,0.5216353268,-2.8642086522,9.475577496,264
91711,176225,216345,0.6891329087999999,-2.9826533709,9.509077012399999,265
91825,176277,216319,0.7118647235000001,-2.8929225234,9.420542576199999,266
91929,176248,216311,0.6771687957999999,-2.6584259086,9.5772724565,267
92050,176274,216279,0.6675975054,-2.7780670386,9.499505722,268
92098,176293,216339,0.7202396026000001,-2.7337998205,9.463613383,269
91916,176233,216302,0.7166503687,-2.7182464736,9.4002035841,270
91395,176202,216293,0.7513462964000001,-2.8115665549999997,9.3894358824,271
90790,176117,216245,0.7106683122,-3.0376882907,9.4085784632,272
90230,176058,216213,0.6855436748999999,-2.8522445392,9.410971285799999,273
89865,176047,216198,0.7381857721,-2.7337998205,9.5509514079,274
89701,176034,216230,0.6891329087999999,-2.7780670386,9.4181497536,275
89642,176011,216187,0.6376872229,-2.8881368781999996,9.391828705,276
89733,176020,216197,0.6376872229,-2.8881368781999996,9.391828705,277
89880,176054,216214,0.6376872229,-2.8881368781999996,9.391828705,278
89965,176053,216235,0.6484549246,-3.0137600647,9.4348995118,279
90018,176031,216208,0.7345965382,-2.8175486115,9.4707918508,280
90059,176061,216192,0.6735795618999999,-2.9706892578999997,9.495916488099999,281
90120,176073,216188,0.6807580296999999,-2.9479574432,9.456434915200001,282
90198,176056,216180,0.5874379483000001,-2.7457639335,9.5078806011,283
90391,176085,216214,0.5850451257,-2.8570301844,9.4061856406,284
90517,176106,216193,0.6843472636,-2.8127629663000002,9.4660062056,285
90679,176166,216236,0.6879364975,-2.9467610319,9.464809794299999,286
90848,176132,216182,0.765703232,-2.9551359109999997,9.4588277378,287
90974,176142,216209,0.765703232,-2.9551359109999997,9.4588277378,288
91136,176189,216267,0.765703232,-2.9551359109999997,9.4588277378,289
91253,176213,216197,0.765703232,-2.9551359109999997,9.4588277378,290
91390,176227,216224,0.765703232,-2.9551359109999997,9.4588277378,291
91502,176202,216224,0.765703232,-2.9551359109999997,9.4588277378,292
91621,176249,216186,0.765703232,-2.9551359109999997,9.4588277378,293
91740,176263,216237,0.765703232,-2.9551359109999997,9.4588277378,294
91874,176282,216226,0.765703232,-2.9551359109999997,9.4588277378,295
91943,176266,216242,0.765703232,-2.9551359109999997,9.4588277378,296
91694,176263,216233,0.765703232,-2.9551359109999997,9.4588277378,297
91115,176219,216206,0.765703232,-2.9551359109999997,9.4588277378,298
90477,176126,216149,0.765703232,-2.9551359109999997,9.4588277378,299
89988,176083,216168,0.765703232,-2.9551359109999997,9.4588277378,300
89633,176115,216117,0.765703232,-2.9551359109999997,9.4588277378,301
89443,176072,216143,0.765703232,-2.9551359109999997,9.4588277378,302
89426,176103,216153,0.765703232,-2.9551359109999997,9.4588277378,303
89561,176082,216169,0.765703232,-2.9551359109999997,9.4588277378,304
89697,176087,216145,0.7621139981,-2.9419753867,9.5054877785,305
89837,176119,216164,0.7621139981,-2.9419753867,9.5054877785,306
89880,176112,216190,0.7621139981,-2.9419753867,9.5054877785,307
89932,176094,216170,0.7920242806,-2.8091737324,9.4899344316,308
90103,176145,216204,0.7082754896000001,-2.7720849821,9.4935236655,309
90266,176162,216193,0.8362914987,-2.9718856692,9.4253282214,310
90412,176150,216202,0.7788637562999999,-2.9144579268,9.5342016497,311
90591,176220,216206,0.6245266986,-2.8737799425999997,9.463613383,312
90749,176231,216237,0.6604190376,-2.8426732488,9.547362174,313
90922,176214,216225,0.6891329087999999,-2.9467610319,9.4492564474,314
91076,176244,216267,0.7740781111,-2.8462624827,9.4061856406,315
91198,176257,216272,0.6819544409999999,-2.8666014748,9.3822574146,316
91334,176274,216274,0.6149554081999999,-2.9431717980000003,9.463613383,317
91467,176289,216252,0.7752745223999999,-2.8594230069999997,9.4301138666,318
91607,176304,216256,0.6137589969,-2.7589244578,9.5365944723,319
91755,176318,216280,0.6305087550999999,-2.8773691765,9.6394858441,320
91893,176339,216298,0.7932206919,-2.8869404668999996,9.518648302799999,321
91983,176356,216288,0.8673981925,-2.9108686929000003,9.509077012399999,322
91704,176305,216294,0.6915257314000001,-2.8426732488,9.3415794304,323
91147,176250,216270,0.6400800455,-2.8211378454,9.420542576199999,324
90518,176142,216209,0.6137589969,-2.8689942974,9.4085784632,325
90039,176104,216218,0.6795616184,-2.8929225234,9.4791667299,326
89731,176080,216232,0.7932206919,-2.8151557889,9.4301138666,327
89560,176061,216190,0.7070790783,-2.8737799425999997,9.549754996599999,328
89571,176062,216211,0.6652046827999999,-2.7936203855,9.4791667299,329
89715,176092,216230,0.6185446421,-2.9228328059,9.3643112451,330
89889,176135,216236,0.586241537,-2.8283163132,9.5365944723,331
89998,176148,216223,0.586241537,-2.8283163132,9.5365944723,332
90075,176125,216252,0.586241537,-2.8283163132,9.5365944723,333
90138,176140,216250,0.586241537,-2.8283163132,9.5365944723,334
90204,176169,216257,0.586241537,-2.8283163132,9.5365944723,335
90317,176135,216276,0.586241537,-2.8283163132,9.5365944723,336
90452,176148,216271,0.586241537,-2.8283163132,9.5365944723,337
90596,176175,216313,0.586241537,-2.8283163132,9.5365944723,338
90771,176175,216272,0.586241537,-2.8283163132,9.5365944723,339
90921,176190,216279,0.586241537,-2.8283163132,9.5365944723,340
91079,176172,216325,0.586241537,-2.8283163132,9.5365944723,341
91228,176207,216309,0.586241537,-2.8283163132,9.5365944723,342
91356,176218,216312,0.586241537,-2.8283163132,9.5365944723,343
91472,176223,216271,0.586241537,-2.8283163132,9.5365944723,344
91573,176221,216323,0.586241537,-2.8283163132,9.5365944723,345
91657,176216,216333,0.586241537,-2.8283163132,9.5365944723,346
91762,176213,216319,0.586241537,-2.8283163132,9.5365944723,347
91853,176231,216304,0.586241537,-2.8283163132,9.5365944723,348
91887,176237,216316,0.586241537,-2.8283163132,9.5365944723,349
91658,176224,216292,0.586241537,-2.8283163132,9.5365944723,350
91085,176137,216243,0.586241537,-2.8283163132,9.5365944723,351
90463,176100,216224,0.586241537,-2.8283163132,9.5365944723,352
89949,176031,216207,0.586241537,-2.8283163132,9.5365944723,353
89651,176006,216179,0.586241537,-2.8283163132,9.5365944723,354
89489,176004,216173,0.586241537,-2.8283163132,9.5365944723,355
89510,176010,216161,0.586241537,-2.8283163132,9.5365944723,356
89646,176031,216208,0.586241537,-2.8283163132,9.5365944723,357
89803,176027,216167,0.586241537,-2.8283163132,9.5365944723,358
89899,176044,216206,0.586241537,-2.8283163132,9.5365944723,359
89942,176063,216231,0.586241537,-2.8283163132,9.5365944723,360
89999,176083,216183,0.586241537,-2.8283163132,9.5365944723,361
90077,176086,216210,0.586241537,-2.8283163132,9.5365944723,362
90194,176080,216194,0.586241537,-2.8283163132,9.5365944723,363
90325,176093,216208,0.586241537,-2.8283163132,9.5365944723,364
90484,176129,216195,0.586241537,-2.8283163132,9.5365944723,365
90660,176140,216247,0.586241537,-2.8283163132,9.5365944723,366
90823,176156,216213,0.586241537,-2.8283163132,9.5365944723,367
90969,176177,216210,0.586241537,-2.8283163132,9.5365944723,368
91107,176188,216220,0.586241537,-2.8283163132,9.5365944723,369
91242,176176,216239,0.586241537,-2.8283163132,9.5365944723,370
91372,176209,216220,0.586241537,-2.8283163132,9.5365944723,371
91497,176241,216238,0.586241537,-2.8283163132,9.5365944723,372
91702,176298,216282,0.7393821834000001,-2.7972096194,9.5413801175,373
91823,176296,216266,0.7393821834000001,-2.7972096194,9.5413801175,374
91952,176305,216277,0.7393821834000001,-2.7972096194,9.5413801175,375
92036,176299,216257,0.7393821834000001,-2.7972096194,9.5413801175,376
91822,176261,216301,0.7393821834000001,-2.7972096194,9.5413801175,377
91295,176231,216255,0.7393821834000001,-2.7972096194,9.5413801175,378
90668,176156,216219,0.7393821834000001,-2.7972096194,9.5413801175,379
90171,176109,216202,0.7393821834000001,-2.7972096194,9.5413801175,380
89822,176101,216183,0.7393821834000001,-2.7972096194,9.5413801175,381
89649,176071,216214,0.7393821834000001,-2.7972096194,9.5413801175,382
89629,176057,216204,0.7393821834000001,-2.7972096194,9.5413801175,383
89764,176073,216248,0.7393821834000001,-2.7972096194,9.5413801175,384
89949,176104,216215,0.7393821834000001,-2.7972096194,9.5413801175,385
90049,176135,216276,0.7393821834000001,-2.7972096194,9.5413801175,386
90114,176091,216234,0.7393821834000001,-2.7972096194,9.5413801175,387
90176,176094,216238,0.7393821834000001,-2.7972096194,9.5413801175,388
90245,176113,216264,0.7393821834000001,-2.7972096194,9.5413801175,389
90349,176112,216249,0.7393821834000001,-2.7972096194,9.5413801175,390
90480,176146,216263,0.7393821834000001,-2.7972096194,9.5413801175,391
90635,176147,216296,0.7393821834000001,-2.7972096194,9.5413801175,392
90799,176149,216327,0.7393821834000001,-2.7972096194,9.5413801175,393
90962,176173,216259,0.7393821834000001,-2.7972096194,9.5413801175,394
91074,176171,216302,0.7393821834000001,-2.7972096194,9.5413801175,395
91189,176142,216273,0.7393821834000001,-2.7972096194,9.5413801175,396
91277,176154,216279,0.7393821834000001,-2.7972096194,9.5413801175,397
91334,176191,216301,0.7393821834000001,-2.7972096194,9.5413801175,398
91400,176187,216223,0.7393821834000001,-2.7972096194,9.5413801175,399
91468,176189,216257,0.7393821834000001,-2.7972096194,9.5413801175,400
91566,176171,216254,0.7393821834000001,-2.7972096194,9.5413801175,401
91654,176203,216235,0.7393821834000001,-2.7972096194,9.5413801175,402
91689,176191,216179,0.7393821834000001,-2.7972096194,9.5413801175,403
91451,176159,216219,0.7393821834000001,-2.7972096194,9.5413801175,404
90881,176121,216190,0.7393821834000001,-2.7972096194,9.5413801175,405
90256,176084,216162,0.7393821834000001,-2.7972096194,9.5413801175,406
89781,176017,216113,0.7393821834000001,-2.7972096194,9.5413801175,407
89474,175988,216131,0.7393821834000001,-2.7972096194,9.5413801175,408
89326,175981,216088,0.7393821834000001,-2.7972096194,9.5413801175,409
89340,175997,216086,0.7393821834000001,-2.7972096194,9.5413801175,410
89495,175978,216157,0.7393821834000001,-2.7972096194,9.5413801175,411
89631,176025,216165,0.7393821834000001,-2.7972096194,9.5413801175,412
89781,176050,216162,0.7393821834000001,-2.7972096194,9.5413801175,413
89849,176055,216172,0.7393821834000001,-2.7972096194,9.5413801175,414
89821,176021,216215,0.7202396026000001,-2.9204399833,9.5246303593,415
89933,176027,216222,0.7202396026000001,-2.9204399833,9.5246303593,416
90049,176042,216225,0.7202396026000001,-2.9204399833,9.5246303593,417
90189,176059,216215,0.7202396026000001,-2.9204399833,9.5246303593,418
90365,176045,216211,0.7202396026000001,-2.9204399833,9.5246303593,419
90522,176091,216231,0.7202396026000001,-2.9204399833,9.5246303593,420
90687,176102,216220,0.7202396026000001,-2.9204399833,9.5246303593,421
90812,176106,216273,0.7202396026000001,-2.9204399833,9.5246303593,422
90969,176153,216232,0.7202396026000001,-2.9204399833,9.5246303593,423
91086,176110,216227,0.7202396026000001,-2.9204399833,9.5246303593,424
91181,176130,216235,0.7202396026000001,-2.9204399833,9.5246303593,425
91306,176173,216231,0.7202396026000001,-2.9204399833,9.5246303593,426
91439,176159,216204,0.7202396026000001,-2.9204399833,9.5246303593,427
91550,176179,216231,0.7202396026000001,-2.9204399833,9.5246303593,428
91672,176193,216242,0.7202396026000001,-2.9204399833,9.5246303593,429
91677,176235,216221,0.7202396026000001,-2.9204399833,9.5246303593,430
91289,176142,216216,0.7202396026000001,-2.9204399833,9.5246303593,431
90624,176124,216154,0.7202396026000001,-2.9204399833,9.5246303593,432
90009,176055,216154,0.7202396026000001,-2.9204399833,9.5246303593,433
89553,175972,216124,0.7202396026000001,-2.9204399833,9.5246303593,434
89273,176000,216141,0.7202396026000001,-2.9204399833,9.5246303593,435
89140,175981,216131,0.7202396026000001,-2.9204399833,9.5246303593,436
89167,175971,216140,0.7202396026000001,-2.9204399833,9.5246303593,437
89355,175983,216143,0.7202396026000001,-2.9204399833,9.5246303593,438
89499,175997,216187,0.7202396026000001,-2.9204399833,9.5246303593,439
89607,176024,216142,0.7202396026000001,-2.9204399833,9.5246303593,440
89662,176001,216149,0.7202396026000001,-2.9204399833,9.5246303593,441
89731,176017,216201,0.7202396026000001,-2.9204399833,9.5246303593,442
89809,176037,216217,0.7202396026000001,-2.9204399833,9.5246303593,443
89919,176082,216198,0.7202396026000001,-2.9204399833,9.5246303593,444
90073,176094,216248,0.7202396026000001,-2.9204399833,9.5246303593,445
90253,176116,216187,0.7202396026000001,-2.9204399833,9.5246303593,446
90436,176127,216242,0.7202396026000001,-2.9204399833,9.5246303593,447
90577,176133,216199,0.7202396026000001,-2.9204399833,9.5246303593,448
90746,176192,216223,0.7202396026000001,-2.9204399833,9.5246303593,449
90874,176150,216237,0.7202396026000001,-2.9204399833,9.5246303593,450
91022,176193,216214,0.7202396026000001,-2.9204399833,9.5246303593,451
91137,176204,216228,0.7202396026000001,-2.9204399833,9.5246303593,452
91286,176230,216272,0.7202396026000001,-2.9204399833,9.5246303593,453
91419,176245,216229,0.7202396026000001,-2.9204399833,9.5246303593,454
91528,176259,216231,0.7202396026000001,-2.9204399833,9.5246303593,455
91687,176269,216246,0.7202396026000001,-2.9204399833,9.5246303593,456
89770,176077,216237,0.7585247642,-2.8091737324,9.477970318599999,457
89860,176065,216249,0.7585247642,-2.8091737324,9.477970318599999,458
89932,176062,216263,0.7585247642,-2.8091737324,9.477970318599999,459
90005,176072,216248,0.7585247642,-2.8091737324,9.477970318599999,460
90080,176097,216285,0.7585247642,-2.8091737324,9.477970318599999,461
90229,176126,216251,0.7585247642,-2.8091737324,9.477970318599999,462
90361,176110,216282,0.7585247642,-2.8091737324,9.477970318599999,463
90543,176122,216305,0.7585247642,-2.8091737324,9.477970318599999,464
90708,176180,216273,0.7585247642,-2.8091737324,9.477970318599999,465
90888,176154,216294,0.610169763,-2.9024938138,9.456434915200001,466
91006,176150,216255,0.610169763,-2.9024938138,9.456434915200001,467
91131,176182,216265,0.610169763,-2.9024938138,9.456434915200001,468
91265,176198,216322,0.610169763,-2.9024938138,9.456434915200001,469
91397,176183,216285,0.610169763,-2.9024938138,9.456434915200001,470
91504,176174,216290,0.610169763,-2.9024938138,9.456434915200001,471
91610,176181,216273,0.610169763,-2.9024938138,9.456434915200001,472
91742,176212,216313,0.610169763,-2.9024938138,9.456434915200001,473
91854,176216,216309,0.610169763,-2.9024938138,9.456434915200001,474
91870,176189,216295,0.610169763,-2.9024938138,9.456434915200001,475
91574,176168,216277,0.610169763,-2.9024938138,9.456434915200001,476
90982,176100,216244,0.610169763,-2.9024938138,9.456434915200001,477
90350,176055,216179,0.610169763,-2.9024938138,9.456434915200001,478
89848,175988,216176,0.610169763,-2.9024938138,9.456434915200001,479
89521,175964,216139,0.610169763,-2.9024938138,9.456434915200001,480
89377,175956,216189,0.610169763,-2.9024938138,9.456434915200001,481
89394,175971,216158,0.610169763,-2.9024938138,9.456434915200001,482
89542,175975,216143,0.610169763,-2.9024938138,9.456434915200001,483
89679,176029,216167,0.610169763,-2.9024938138,9.456434915200001,484
89779,175990,216189,0.610169763,-2.9024938138,9.456434915200001,485
89829,176009,216215,0.610169763,-2.9024938138,9.456434915200001,486
89851,176006,216187,0.610169763,-2.9024938138,9.456434915200001,487
89960,176023,216202,0.610169763,-2.9024938138,9.456434915200001,488
90074,176062,216204,0.610169763,-2.9024938138,9.456434915200001,489
90223,176046,216168,0.610169763,-2.9024938138,9.456434915200001,490
90380,176064,216216,0.610169763,-2.9024938138,9.456434915200001,491
90548,176101,216218,0.610169763,-2.9024938138,9.456434915200001,492
90723,176099,216205,0.610169763,-2.9024938138,9.456434915200001,493
90862,176135,216218,0.610169763,-2.9024938138,9.456434915200001,494
91011,176147,216233,0.610169763,-2.9024938138,9.456434915200001,495
91154,176156,216222,0.610169763,-2.9024938138,9.456434915200001,496
91277,176173,216202,0.610169763,-2.9024938138,9.456434915200001,497
91424,176174,216185,0.610169763,-2.9024938138,9.456434915200001,498
91530,176189,216239,0.610169763,-2.9024938138,9.456434915200001,499
91657,176201,216213,0.610169763,-2.9024938138,9.456434915200001,500
91798,176232,216236,0.610169763,-2.9024938138,9.456434915200001,501
91873,176249,216211,0.6807580296999999,-2.8905297008,9.427721044,502
91593,176201,216183,0.6807580296999999,-2.8905297008,9.427721044,503
91012,176162,216217,0.6807580296999999,-2.8905297008,9.427721044,504
90337,176089,216162,0.6807580296999999,-2.8905297008,9.427721044,505
89829,176039,216181,0.6807580296999999,-2.8905297008,9.427721044,506
89523,176041,216130,0.6807580296999999,-2.8905297008,9.427721044,507
89354,175996,216129,0.6807580296999999,-2.8905297008,9.427721044,508
89344,176017,216143,0.6807580296999999,-2.8905297008,9.427721044,509
89479,176045,216155,0.6807580296999999,-2.8905297008,9.427721044,510
89657,176029,216160,0.6807580296999999,-2.8905297008,9.427721044,511
89772,176046,216153,0.6807580296999999,-2.8905297008,9.427721044,512
89826,176092,216137,0.6807580296999999,-2.8905297008,9.427721044,513
89909,176090,216198,0.6807580296999999,-2.8905297008,9.427721044,514
90005,176081,216215,0.6807580296999999,-2.8905297008,9.427721044,515
90131,176093,216180,0.6807580296999999,-2.8905297008,9.427721044,516
90310,176171,216225,0.6807580296999999,-2.8905297008,9.427721044,517
90479,176170,216184,0.6807580296999999,-2.8905297008,9.427721044,518
90660,176151,216228,0.6807580296999999,-2.8905297008,9.427721044,519
90837,176187,216237,0.6807580296999999,-2.8905297008,9.427721044,520
91014,176173,216303,0.6807580296999999,-2.8905297008,9.427721044,521
91146,176173,216261,0.6807580296999999,-2.8905297008,9.427721044,522
91266,176228,216288,0.6807580296999999,-2.8905297008,9.427721044,523
91394,176222,216272,0.6807580296999999,-2.8905297008,9.427721044,524
91522,176219,216303,0.6807580296999999,-2.8905297008,9.427721044,525
91647,176228,216258,0.6807580296999999,-2.8905297008,9.427721044,526
91756,176226,216254,0.6807580296999999,-2.8905297008,9.427721044,527
91875,176265,216256,0.6807580296999999,-2.8905297008,9.427721044,528
92000,176255,216296,0.6807580296999999,-2.8905297008,9.427721044,529
91945,176242,216277,0.6807580296999999,-2.8905297008,9.427721044,530
91515,176211,216309,0.6807580296999999,-2.8905297008,9.427721044,531
90879,176163,216276,0.6807580296999999,-2.8905297008,9.427721044,532
90327,176090,216230,0.6807580296999999,-2.8905297008,9.427721044,533
89939,176068,216213,0.6807580296999999,-2.8905297008,9.427721044,534
89681,176034,216195,0.6807580296999999,-2.8905297008,9.427721044,535
89589,176032,216258,0.6807580296999999,-2.8905297008,9.427721044,536
89680,176062,216215,0.6807580296999999,-2.8905297008,9.427721044,537
89856,176054,216215,0.6807580296999999,-2.8905297008,9.427721044,538
89975,176057,216244,0.6807580296999999,-2.8905297008,9.427721044,539
90079,176089,216288,0.6807580296999999,-2.8905297008,9.427721044,540
90137,176073,216257,0.6807580296999999,-2.8905297008,9.427721044,541
90181,176085,216278,0.6807580296999999,-2.8905297008,9.427721044,542
90248,176078,216268,0.6807580296999999,-2.8905297008,9.427721044,543
91108,176202,216280,0.610169763,-2.8582265956999997,9.5030949559,544
91248,176217,216334,0.610169763,-2.8582265956999997,9.5030949559,545
91383,176228,216314,0.610169763,-2.8582265956999997,9.5030949559,546
91493,176215,216285,0.610169763,-2.8582265956999997,9.5030949559,547
91599,176218,216301,0.610169763,-2.8582265956999997,9.5030949559,548
91709,176214,216293,0.610169763,-2.8582265956999997,9.5030949559,549
91827,176234,216356,0.610169763,-2.8582265956999997,9.5030949559,550
91959,176246,216327,0.610169763,-2.8582265956999997,9.5030949559,551
92022,176272,216321,0.610169763,-2.8582265956999997,9.5030949559,552
91872,176207,216325,0.610169763,-2.8582265956999997,9.5030949559,553
91355,176148,216291,0.610169763,-2.8582265956999997,9.5030949559,554
90703,176106,216276,0.610169763,-2.8582265956999997,9.5030949559,555
90195,176052,216255,0.610169763,-2.8582265956999997,9.5030949559,556
89849,176042,216254,0.610169763,-2.8582265956999997,9.5030949559,557
89663,175984,216234,0.610169763,-2.8582265956999997,9.5030949559,558
89650,176016,216235,0.610169763,-2.8582265956999997,9.5030949559,559
89770,176040,216245,0.610169763,-2.8582265956999997,9.5030949559,560
89938,176050,216270,0.610169763,-2.8582265956999997,9.5030949559,561
90049,176054,216279,0.610169763,-2.8582265956999997,9.5030949559,562
90083,176059,216249,0.610169763,-2.8582265956999997,9.5030949559,563
90136,176092,216286,0.610169763,-2.8582265956999997,9.5030949559,564
90178,176056,216274,0.610169763,-2.8582265956999997,9.5030949559,565
90256,176053,216297,0.610169763,-2.8582265956999997,9.5030949559,566
90361,176073,216292,0.610169763,-2.8582265956999997,9.5030949559,567
90472,176097,216244,0.610169763,-2.8582265956999997,9.5030949559,568
90590,176094,216276,0.610169763,-2.8582265956999997,9.5030949559,569
90697,176048,216279,0.610169763,-2.8582265956999997,9.5030949559,570
90799,176058,216261,0.610169763,-2.8582265956999997,9.5030949559,571
90904,176108,216219,0.610169763,-2.8582265956999997,9.5030949559,572
91021,176111,216259,0.610169763,-2.8582265956999997,9.5030949559,573
91102,176113,216246,0.610169763,-2.8582265956999997,9.5030949559,574
91206,176104,216241,0.610169763,-2.8582265956999997,9.5030949559,575
91315,176130,216274,0.610169763,-2.8582265956999997,9.5030949559,576
91418,176135,216237,0.610169763,-2.8582265956999997,9.5030949559,577
91528,176151,216209,0.610169763,-2.8582265956999997,9.5030949559,578
91614,176180,216215,0.610169763,-2.8582265956999997,9.5030949559,579
91443,176161,216201,0.610169763,-2.8582265956999997,9.5030949559,580
90887,176079,216206,0.610169763,-2.8582265956999997,9.5030949559,581
90243,176037,216169,0.610169763,-2.8582265956999997,9.5030949559,582
89733,175993,216120,0.610169763,-2.8582265956999997,9.5030949559,583
89368,175932,216166,0.610169763,-2.8582265956999997,9.5030949559,584
89167,175968,216159,0.610169763,-2.8582265956999997,9.5030949559,585
91934,176250,216321,0.7429714173,-2.8881368781999996,9.4899344316,586
91921,176225,216314,0.7429714173,-2.8881368781999996,9.4899344316,587
91541,176187,216307,0.7429714173,-2.8881368781999996,9.4899344316,588
90954,176135,216278,0.7429714173,-2.8881368781999996,9.4899344316,589
90368,176059,216243,0.7429714173,-2.8881368781999996,9.4899344316,590
89948,176043,216224,0.7429714173,-2.8881368781999996,9.4899344316,591
89677,176018,216220,0.7429714173,-2.8881368781999996,9.4899344316,592
89571,176004,216223,0.7429714173,-2.8881368781999996,9.4899344316,593
89615,176018,216191,0.7429714173,-2.8881368781999996,9.4899344316,594
89739,176005,216203,0.7429714173,-2.8881368781999996,9.4899344316,595
89836,176007,216229,0.7429714173,-2.8881368781999996,9.4899344316,596
89842,176003,216196,0.7429714173,-2.8881368781999996,9.4899344316,597
89886,175995,216207,0.7429714173,-2.8881368781999996,9.4899344316,598
89902,175968,216240,0.7429714173,-2.8881368781999996,9.4899344316,599
89962,176029,216185,0.7429714173,-2.8881368781999996,9.4899344316,600
90079,176022,216185,0.7429714173,-2.8881368781999996,9.4899344316,601
90209,176043,216258,0.7429714173,-2.8881368781999996,9.4899344316,602
90360,176083,216198,0.7429714173,-2.8881368781999996,9.4899344316,603
90507,176054,216190,0.7429714173,-2.8881368781999996,9.4899344316,604
90678,176070,216222,0.7429714173,-2.8881368781999996,9.4899344316,605
90810,176093,216202,0.7429714173,-2.8881368781999996,9.4899344316,606
90911,176076,216185,0.7429714173,-2.8881368781999996,9.4899344316,607
91062,176119,216233,0.7429714173,-2.8881368781999996,9.4899344316,608
91177,176128,216204,0.7429714173,-2.8881368781999996,9.4899344316,609
91308,176142,216205,0.7429714173,-2.8881368781999996,9.4899344316,610
91422,176137,216182,0.7429714173,-2.8881368781999996,9.4899344316,611
91535,176156,216208,0.7429714173,-2.8881368781999996,9.4899344316,612
91665,176227,216257,0.7429714173,-2.8881368781999996,9.4899344316,613
91651,176199,216211,0.7429714173,-2.8881368781999996,9.4899344316,614
91274,176173,216208,0.7429714173,-2.8881368781999996,9.4899344316,615
90628,176093,216162,0.7429714173,-2.8881368781999996,9.4899344316,616
90015,176044,216146,0.7429714173,-2.8881368781999996,9.4899344316,617
89559,176007,216117,0.7429714173,-2.8881368781999996,9.4899344316,618
89259,175959,216115,0.7429714173,-2.8881368781999996,9.4899344316,619
89123,175945,216117,0.7429714173,-2.8881368781999996,9.4899344316,620
89178,175987,216096,0.7429714173,-2.8881368781999996,9.4899344316,621
89339,175994,216092,0.7429714173,-2.8881368781999996,9.4899344316,622
89498,176016,216126,0.7429714173,-2.8881368781999996,9.4899344316,623
89609,176037,216137,0.7429714173,-2.8881368781999996,9.4899344316,624
89660,176008,216131,0.7429714173,-2.8881368781999996,9.4899344316,625
89743,176042,216174,0.7429714173,-2.8881368781999996,9.4899344316,626
89852,176069,216170,0.7429714173,-2.8881368781999996,9.4899344316,627
90483,176129,216181,0.622133876,-2.8642086522,9.4588277378,628
90659,176139,216165,0.622133876,-2.8642086522,9.4588277378,629
90803,176143,216211,0.622133876,-2.8642086522,9.4588277378,630
90967,176160,216180,0.622133876,-2.8642086522,9.4588277378,631
91082,176169,216230,0.622133876,-2.8642086522,9.4588277378,632
91199,176184,216194,0.622133876,-2.8642086522,9.4588277378,633
91360,176194,216186,0.622133876,-2.8642086522,9.4588277378,634
91479,176240,216207,0.622133876,-2.8642086522,9.4588277378,635
91620,176266,216199,0.622133876,-2.8642086522,9.4588277378,636
91735,176240,216181,0.622133876,-2.8642086522,9.4588277378,637
91813,176268,216213,0.622133876,-2.8642086522,9.4588277378,638
91605,176218,216202,0.622133876,-2.8642086522,9.4588277378,639
90990,176173,216175,0.622133876,-2.8642086522,9.4588277378,640
90321,176105,216152,0.622133876,-2.8642086522,9.4588277378,641
89825,176062,216131,0.622133876,-2.8642086522,9.4588277378,642
89487,176023,216121,0.622133876,-2.8642086522,9.4588277378,643
89313,176030,216103,0.622133876,-2.8642086522,9.4588277378,644
89300,176014,216119,0.622133876,-2.8642086522,9.4588277378,645
89461,176060,216116,0.622133876,-2.8642086522,9.4588277378,646
89667,176068,216139,0.622133876,-2.8642086522,9.4588277378,647
89800,176098,216190,0.622133876,-2.8642086522,9.4588277378,648
89879,176084,216174,0.622133876,-2.8642086522,9.4588277378,649
89944,176084,216199,0.622133876,-2.8642086522,9.4588277378,650
90035,176092,216190,0.622133876,-2.8642086522,9.4588277378,651
90129,176114,216199,0.622133876,-2.8642086522,9.4588277378,652
90285,176118,216233,0.622133876,-2.8642086522,9.4588277378,653
90427,176106,216190,0.622133876,-2.8642086522,9.4588277378,654
90599,176143,216243,0.622133876,-2.8642086522,9.4588277378,655
90779,176190,216239,0.622133876,-2.8642086522,9.4588277378,656
90936,176155,216253,0.622133876,-2.8642086522,9.4588277378,657
91090,176186,216263,0.622133876,-2.8642086522,9.4588277378,658
91206,176167,216252,0.622133876,-2.8642086522,9.4588277378,659
91330,176189,216308,0.7154539574000001,-2.9898318387,9.475577496,660
91456,176240,216266,0.7154539574000001,-2.9898318387,9.475577496,661
91595,176229,216291,0.7154539574000001,-2.9898318387,9.475577496,662
91677,176208,216286,0.7154539574000001,-2.9898318387,9.475577496,663
91814,176258,216253,0.7154539574000001,-2.9898318387,9.475577496,664
91932,176250,216282,0.7154539574000001,-2.9898318387,9.475577496,665
91851,176232,216267,0.7154539574000001,-2.9898318387,9.475577496,666
91426,176209,216263,0.7154539574000001,-2.9898318387,9.475577496,667
90825,176138,216226,0.7154539574000001,-2.9898318387,9.475577496,668
90285,176075,216164,0.7154539574000001,-2.9898318387,9.475577496,669
89934,176026,216192,0.7154539574000001,-2.9898318387,9.475577496,670
89701,176043,216162,0.7154539574000001,-2.9898318387,9.475577496,671
89625,176040,216174,0.7154539574000001,-2.9898318387,9.475577496,672
89763,176013,216180,0.7154539574000001,-2.9898318387,9.475577496,673
89901,176038,216182,0.7154539574000001,-2.9898318387,9.475577496,674
89995,176038,216183,0.7154539574000001,-2.9898318387,9.475577496,675
90001,176041,216196,0.7154539574000001,-2.9898318387,9.475577496,676
89998,176011,216179,0.7154539574000001,-2.9898318387,9.475577496,677
90015,176045,216162,0.7154539574000001,-2.9898318387,9.475577496,678
90071,175992,216203,0.7154539574000001,-2.9898318387,9.475577496,679
90166,176035,216155,0.7154539574000001,-2.9898318387,9.475577496,680
90279,176020,216169,0.7154539574000001,-2.9898318387,9.475577496,681
90427,176082,216140,0.7154539574000001,-2.9898318387,9.475577496,682
90571,176086,216172,0.7154539574000001,-2.9898318387,9.475577496,683
90725,176094,216205,0.7154539574000001,-2.9898318387,9.475577496,684
90841,176087,216158,0.6281159325,-2.7852455064000003,9.4061856406,685
90972,176136,216159,0.6281159325,-2.7852455064000003,9.4061856406,686
91081,176098,216168,0.6281159325,-2.7852455064000003,9.4061856406,687
91200,176097,216172,0.6281159325,-2.7852455064000003,9.4061856406,688
91335,176143,216170,0.6281159325,-2.7852455064000003,9.4061856406,689
91439,176167,216194,0.6281159325,-2.7852455064000003,9.4061856406,690
91583,176174,216175,0.6281159325,-2.7852455064000003,9.4061856406,691
91651,176180,216157,0.6281159325,-2.7852455064000003,9.4061856406,692
91487,176188,216149,0.6281159325,-2.7852455064000003,9.4061856406,693
90928,176106,216149,0.6281159325,-2.7852455064000003,9.4061856406,694
90258,176057,216114,0.6281159325,-2.7852455064000003,9.4061856406,695
89725,175990,216050,0.6281159325,-2.7852455064000003,9.4061856406,696
89359,175958,216082,0.6281159325,-2.7852455064000003,9.4061856406,697
89149,175948,216072,0.6281159325,-2.7852455064000003,9.4061856406,698
89113,175963,216032,0.6281159325,-2.7852455064000003,9.4061856406,699
89234,175953,216081,0.6281159325,-2.7852455064000003,9.4061856406,700
89409,175995,216151,0.6281159325,-2.7852455064000003,9.4061856406,701
89559,176019,216081,0.6281159325,-2.7852455064000003,9.4061856406,702
89641,176017,216128,0.6281159325,-2.7852455064000003,9.4061856406,703
89723,176034,216119,0.6281159325,-2.7852455064000003,9.4061856406,704
89780,175993,216130,0.6281159325,-2.7852455064000003,9.4061856406,705
89896,176077,216138,0.6281159325,-2.7852455064000003,9.4061856406,706
90034,176058,216153,0.6281159325,-2.7852455064000003,9.4061856406,707
90184,176047,216153,0.6281159325,-2.7852455064000003,9.4061856406,708
90360,176083,216157,0.6281159325,-2.7852455064000003,9.4061856406,709
90555,176116,216210,0.6281159325,-2.7852455064000003,9.4061856406,710
90709,176098,216132,0.6281159325,-2.7852455064000003,9.4061856406,711
90840,176132,216203,0.6281159325,-2.7852455064000003,9.4061856406,712
90985,176171,216178,0.6281159325,-2.7852455064000003,9.4061856406,713
91091,176170,216175,0.6281159325,-2.7852455064000003,9.4061856406,714
91229,176172,216185,0.6281159325,-2.7852455064000003,9.4061856406,715
91349,176204,216171,0.6281159325,-2.7852455064000003,9.4061856406,716
91471,176233,216183,0.6281159325,-2.7852455064000003,9.4061856406,717
91608,176213,216174,0.6281159325,-2.7852455064000003,9.4061856406,718
91723,176249,216224,0.6281159325,-2.7852455064000003,9.4061856406,719
91669,176246,216176,0.6281159325,-2.7852455064000003,9.4061856406,720
91213,176177,216171,0.6281159325,-2.7852455064000003,9.4061856406,721
90527,176146,216143,0.6281159325,-2.7852455064000003,9.4061856406,722
89931,176049,216131,0.6281159325,-2.7852455064000003,9.4061856406,723
89504,176011,216121,0.6281159325,-2.7852455064000003,9.4061856406,724
89253,176031,216097,0.6281159325,-2.7852455064000003,9.4061856406,725
89175,175999,216086,0.6281159325,-2.7852455064000003,9.4061856406,726
89730,176076,216195,0.6927221427000001,-2.8115665549999997,9.5748796339,727
89796,176045,216181,0.6927221427000001,-2.8115665549999997,9.5748796339,728
89865,176067,216204,0.6927221427000001,-2.8115665549999997,9.5748796339,729
89968,176061,216196,0.6927221427000001,-2.8115665549999997,9.5748796339,730
90090,176127,216240,0.6927221427000001,-2.8115665549999997,9.5748796339,731
90248,176121,216244,0.6927221427000001,-2.8115665549999997,9.5748796339,732
90402,176105,216273,0.6927221427000001,-2.8115665549999997,9.5748796339,733
90588,176128,216263,0.6927221427000001,-2.8115665549999997,9.5748796339,734
90748,176112,216241,0.6927221427000001,-2.8115665549999997,9.5748796339,735
90891,176132,216268,0.6927221427000001,-2.8115665549999997,9.5748796339,736
91038,176140,216263,0.6927221427000001,-2.8115665549999997,9.5748796339,737
91171,176183,216283,0.6927221427000001,-2.8115665549999997,9.5748796339,738
91275,176190,216282,0.6927221427000001,-2.8115665549999997,9.5748796339,739
91389,176166,216306,0.6927221427000001,-2.8115665549999997,9.5748796339,740
91546,176195,216279,0.6927221427000001,-2.8115665549999997,9.5748796339,741
91672,176180,216294,0.6927221427000001,-2.8115665549999997,9.5748796339,742
91807,176207,216293,0.6927221427000001,-2.8115665549999997,9.5748796339,743
91828,176198,216292,0.6927221427000001,-2.8115665549999997,9.5748796339,744
91579,176178,216244,0.6927221427000001,-2.8115665549999997,9.5748796339,745
90999,176124,216274,0.6927221427000001,-2.8115665549999997,9.5748796339,746
90399,176089,216248,0.6927221427000001,-2.8115665549999997,9.5748796339,747
89969,176045,216217,0.6927221427000001,-2.8115665549999997,9.5748796339,748
89694,176002,216255,0.6927221427000001,-2.8115665549999997,9.5748796339,749
89560,175996,216210,0.6927221427000001,-2.8115665549999997,9.5748796339,750
89606,176008,216215,0.6927221427000001,-2.8115665549999997,9.5748796339,751
89748,175992,216234,0.6927221427000001,-2.8115665549999997,9.5748796339,752
89848,176018,216251,0.6927221427000001,-2.8115665549999997,9.5748796339,753
89903,176015,216221,0.6927221427000001,-2.8115665549999997,9.5748796339,754
89910,175988,216242,0.6927221427000001,-2.8115665549999997,9.5748796339,755
89936,175962,216276,0.6927221427000001,-2.8115665549999997,9.5748796339,756
89978,175996,216227,0.6927221427000001,-2.8115665549999997,9.5748796339,757
90089,175972,216223,0.6927221427000001,-2.8115665549999997,9.5748796339,758
90213,176015,216210,0.6927221427000001,-2.8115665549999997,9.5748796339,759
90363,176015,216205,0.6927221427000001,-2.8115665549999997,9.5748796339,760
90532,176038,216241,0.6927221427000001,-2.8115665549999997,9.5748796339,761
90676,176046,216236,0.6927221427000001,-2.8115665549999997,9.5748796339,762
90808,176064,216211,0.6927221427000001,-2.8115665549999997,9.5748796339,763
90969,176082,216239,0.6927221427000001,-2.8115665549999997,9.5748796339,764
91094,176115,216227,0.6927221427000001,-2.8115665549999997,9.5748796339,765
91224,176081,216226,0.6927221427000001,-2.8115665549999997,9.5748796339,766
91342,176134,216228,0.6927221427000001,-2.8115665549999997,9.5748796339,767
91474,176122,216258,0.6927221427000001,-2.8115665549999997,9.5748796339,768
90984,176167,216408,0.6747759731999999,-2.9635107901000004,9.5724868113,769
91112,176145,216368,0.6747759731999999,-2.9635107901000004,9.5724868113,770
91231,176173,216382,0.6747759731999999,-2.9635107901000004,9.5724868113,771
91331,176122,216368,0.6747759731999999,-2.9635107901000004,9.5724868113,772
91463,176163,216385,0.6747759731999999,-2.9635107901000004,9.5724868113,773
91587,176192,216342,0.6747759731999999,-2.9635107901000004,9.5724868113,774
91726,176185,216348,0.6747759731999999,-2.9635107901000004,9.5724868113,775
91809,176233,216342,0.6747759731999999,-2.9635107901000004,9.5724868113,776
91919,176247,216374,0.6747759731999999,-2.9635107901000004,9.5724868113,777
91887,176189,216402,0.6747759731999999,-2.9635107901000004,9.5724868113,778
91454,176146,216364,0.6747759731999999,-2.9635107901000004,9.5724868113,779
90843,176125,216341,0.6747759731999999,-2.9635107901000004,9.5724868113,780
90287,176027,216302,0.6747759731999999,-2.9635107901000004,9.5724868113,781
89878,176007,216294,0.6747759731999999,-2.9635107901000004,9.5724868113,782
89625,176011,216262,0.6747759731999999,-2.9635107901000004,9.5724868113,783
89516,175917,216269,0.6747759731999999,-2.9635107901000004,9.5724868113,784
89565,175955,216283,0.6747759731999999,-2.9635107901000004,9.5724868113,785
89687,175964,216302,0.6747759731999999,-2.9635107901000004,9.5724868113,786
89780,175976,216293,0.6747759731999999,-2.9635107901000004,9.5724868113,787
89802,175989,216268,0.6747759731999999,-2.9635107901000004,9.5724868113,788
89835,175985,216297,0.6747759731999999,-2.9635107901000004,9.5724868113,789
89863,175989,216227,0.6747759731999999,-2.9635107901000004,9.5724868113,790
89941,176007,216276,0.6747759731999999,-2.9635107901000004,9.5724868113,791
90066,176010,216262,0.6747759731999999,-2.9635107901000004,9.5724868113,792
90203,176007,216300,0.6747759731999999,-2.9635107901000004,9.5724868113,793
90365,176043,216323,0.6747759731999999,-2.9635107901000004,9.5724868113,794
90519,176073,216289,0.6747759731999999,-2.9635107901000004,9.5724868113,795
90678,176076,216297,0.6747759731999999,-2.9635107901000004,9.5724868113,796
90820,176088,216286,0.6747759731999999,-2.9635107901000004,9.5724868113,797
90939,176059,216299,0.6747759731999999,-2.9635107901000004,9.5724868113,798
91067,176090,216288,0.6747759731999999,-2.9635107901000004,9.5724868113,799
91200,176104,216276,0.6747759731999999,-2.9635107901000004,9.5724868113,800
91319,176127,216307,0.6747759731999999,-2.9635107901000004,9.5724868113,801
91426,176146,216256,0.6747759731999999,-2.9635107901000004,9.5724868113,802
91561,176151,216283,0.6747759731999999,-2.9635107901000004,9.5724868113,803
91660,176179,216284,0.6747759731999999,-2.9635107901000004,9.5724868113,804
91591,176172,216276,0.6747759731999999,-2.9635107901000004,9.5724868113,805
91126,176152,216247,0.6747759731999999,-2.9635107901000004,9.5724868113,806
90452,176076,216215,0.6747759731999999,-2.9635107901000004,9.5724868113,807
89855,176005,216216,0.6747759731999999,-2.9635107901000004,9.5724868113,808
89451,175980,216154,0.6747759731999999,-2.9635107901000004,9.5724868113,809
89165,175960,216192,0.6747759731999999,-2.9635107901000004,9.5724868113,810
89480,175992,216224,0.6855436748999999,-2.8689942974,9.439685157,811
89550,176002,216239,0.6855436748999999,-2.8689942974,9.439685157,812
89607,176026,216238,0.6855436748999999,-2.8689942974,9.439685157,813
89665,176002,216263,0.6855436748999999,-2.8689942974,9.439685157,814
89784,176043,216209,0.6855436748999999,-2.8689942974,9.439685157,815
89913,176020,216254,0.6855436748999999,-2.8689942974,9.439685157,816
90065,176049,216241,0.6855436748999999,-2.8689942974,9.439685157,817
90246,176100,216278,0.6855436748999999,-2.8689942974,9.439685157,818
90422,176102,216290,0.6855436748999999,-2.8689942974,9.439685157,819
90574,176126,216256,0.6855436748999999,-2.8689942974,9.439685157,820
90728,176120,216306,0.6855436748999999,-2.8689942974,9.439685157,821
90889,176184,216306,0.6855436748999999,-2.8689942974,9.439685157,822
91044,176163,216283,0.6855436748999999,-2.8689942974,9.439685157,823
91169,176159,216320,0.6855436748999999,-2.8689942974,9.439685157,824
91324,176192,216311,0.6855436748999999,-2.8689942974,9.439685157,825
91465,176207,216302,0.6855436748999999,-2.8689942974,9.439685157,826
91605,176222,216325,0.6855436748999999,-2.8689942974,9.439685157,827
91756,176238,216344,0.6855436748999999,-2.8689942974,9.439685157,828
91817,176236,216378,0.6855436748999999,-2.8689942974,9.439685157,829
91584,176205,216326,0.6855436748999999,-2.8689942974,9.439685157,830
91000,176159,216323,0.6855436748999999,-2.8689942974,9.439685157,831
90324,176064,216290,0.6855436748999999,-2.8689942974,9.439685157,832
89838,176039,216266,0.6855436748999999,-2.8689942974,9.439685157,833
89488,176054,216265,0.6855436748999999,-2.8689942974,9.439685157,834
89303,176009,216273,0.6855436748999999,-2.8689942974,9.439685157,835
89300,175997,216276,0.6855436748999999,-2.8689942974,9.439685157,836
89477,175999,216309,0.6855436748999999,-2.8689942974,9.439685157,837
89638,176024,216320,0.6855436748999999,-2.8689942974,9.439685157,838
89756,176055,216305,0.6855436748999999,-2.8689942974,9.439685157,839
89837,176054,216295,0.6855436748999999,-2.8689942974,9.439685157,840
89873,176020,216347,0.6855436748999999,-2.8689942974,9.439685157,841
89938,176061,216323,0.6855436748999999,-2.8689942974,9.439685157,842
90051,176050,216306,0.6855436748999999,-2.8689942974,9.439685157,843
90188,176064,216290,0.6855436748999999,-2.8689942974,9.439685157,844
90340,176089,216340,0.6855436748999999,-2.8689942974,9.439685157,845
90472,176107,216353,0.6855436748999999,-2.8689942974,9.439685157,846
90620,176126,216376,0.6855436748999999,-2.8689942974,9.439685157,847
90750,176108,216335,0.6855436748999999,-2.8689942974,9.439685157,848
90857,176121,216342,0.6855436748999999,-2.8689942974,9.439685157,849
90936,176111,216331,0.6855436748999999,-2.8689942974,9.439685157,850
91006,176076,216327,0.6855436748999999,-2.8689942974,9.439685157,851
91073,176064,216326,0.6855436748999999,-2.8689942974,9.439685157,852
91266,176164,216319,0.6819544409999999,-2.9036902251,9.4803631412,853
91387,176188,216304,0.6819544409999999,-2.9036902251,9.4803631412,854
91521,176172,216327,0.6819544409999999,-2.9036902251,9.4803631412,855
91635,176222,216381,0.6819544409999999,-2.9036902251,9.4803631412,856
91761,176214,216359,0.6819544409999999,-2.9036902251,9.4803631412,857
91861,176199,216288,0.6819544409999999,-2.9036902251,9.4803631412,858
91852,176228,216341,0.6819544409999999,-2.9036902251,9.4803631412,859
91472,176167,216328,0.6819544409999999,-2.9036902251,9.4803631412,860
90854,176118,216299,0.6819544409999999,-2.9036902251,9.4803631412,861
90278,176046,216285,0.6819544409999999,-2.9036902251,9.4803631412,862
89847,175984,216315,0.6819544409999999,-2.9036902251,9.4803631412,863
89577,176000,216248,0.6819544409999999,-2.9036902251,9.4803631412,864
89497,175970,216264,0.6819544409999999,-2.9036902251,9.4803631412,865
89554,175999,216231,0.6819544409999999,-2.9036902251,9.4803631412,866
89677,175965,216252,0.6819544409999999,-2.9036902251,9.4803631412,867
89776,175970,216260,0.6819544409999999,-2.9036902251,9.4803631412,868
89810,175990,216240,0.6819544409999999,-2.9036902251,9.4803631412,869
89762,175989,216263,0.6819544409999999,-2.9036902251,9.4803631412,870
89790,175982,216252,0.6819544409999999,-2.9036902251,9.4803631412,871
89842,175974,216232,0.6819544409999999,-2.9036902251,9.4803631412,872
89921,175991,216216,0.6819544409999999,-2.9036902251,9.4803631412,873
90031,175992,216224,0.6819544409999999,-2.9036902251,9.4803631412,874
90186,176014,216237,0.6819544409999999,-2.9036902251,9.4803631412,875
90348,176014,216255,0.6819544409999999,-2.9036902251,9.4803631412,876
90495,176002,216226,0.6819544409999999,-2.9036902251,9.4803631412,877
90621,176024,216206,0.6819544409999999,-2.9036902251,9.4803631412,878
90756,176070,216238,0.6819544409999999,-2.9036902251,9.4803631412,879
90881,176076,216232,0.6819544409999999,-2.9036902251,9.4803631412,880
91017,176058,216230,0.6819544409999999,-2.9036902251,9.4803631412,881
91145,176120,216232,0.6819544409999999,-2.9036902251,9.4803631412,882
91282,176134,216208,0.6819544409999999,-2.9036902251,9.4803631412,883
91417,176113,216257,0.6819544409999999,-2.9036902251,9.4803631412,884
91556,176172,216226,0.6819544409999999,-2.9036902251,9.4803631412,885
91621,176153,216219,0.6819544409999999,-2.9036902251,9.4803631412,886
91384,176135,216243,0.6819544409999999,-2.9036902251,9.4803631412,887
90789,176074,216200,0.6819544409999999,-2.9036902251,9.4803631412,888
90155,176023,216172,0.6819544409999999,-2.9036902251,9.4803631412,889
89639,175997,216127,0.6819544409999999,-2.9036902251,9.4803631412,890
89266,175956,216147,0.6819544409999999,-2.9036902251,9.4803631412,891
89079,175928,216104,0.6819544409999999,-2.9036902251,9.4803631412,892
89051,175958,216104,0.6819544409999999,-2.9036902251,9.4803631412,893
89177,175939,216142,0.6819544409999999,-2.9036902251,9.4803631412,894
90051,176018,216197,0.7836494015,-2.8594230069999997,9.5509514079,895
89639,175987,216156,0.7836494015,-2.8594230069999997,9.5509514079,896
89410,175957,216153,0.7836494015,-2.8594230069999997,9.5509514079,897
89302,175950,216119,0.7836494015,-2.8594230069999997,9.5509514079,898
89376,175942,216145,0.7836494015,-2.8594230069999997,9.5509514079,899
89501,175955,216175,0.7836494015,-2.8594230069999997,9.5509514079,900
89600,175951,216148,0.7836494015,-2.8594230069999997,9.5509514079,901
89637,175957,216108,0.7836494015,-2.8594230069999997,9.5509514079,902
89634,175948,216142,0.7836494015,-2.8594230069999997,9.5509514079,903
89672,175962,216143,0.7836494015,-2.8594230069999997,9.5509514079,904
89742,175938,216142,0.7836494015,-2.8594230069999997,9.5509514079,905
89855,175947,216138,0.7836494015,-2.8594230069999997,9.5509514079,906
90028,175960,216168,0.7836494015,-2.8594230069999997,9.5509514079,907
90169,175993,216143,0.7836494015,-2.8594230069999997,9.5509514079,908
90333,175994,216150,0.7836494015,-2.8594230069999997,9.5509514079,909
90503,176071,216150,0.7836494015,-2.8594230069999997,9.5509514079,910
90641,176063,216145,0.7836494015,-2.8594230069999997,9.5509514079,911
90781,176041,216169,0.7836494015,-2.8594230069999997,9.5509514079,912
90888,176059,216122,0.7836494015,-2.8594230069999997,9.5509514079,913
91020,176077,216184,0.7836494015,-2.8594230069999997,9.5509514079,914
91146,176082,216151,0.7836494015,-2.8594230069999997,9.5509514079,915
91281,176142,216126,0.7836494015,-2.8594230069999997,9.5509514079,916
91400,176118,216155,0.7836494015,-2.8594230069999997,9.5509514079,917
91522,176130,216144,0.7836494015,-2.8594230069999997,9.5509514079,918
91494,176144,216189,0.7836494015,-2.8594230069999997,9.5509514079,919
91054,176099,216140,0.7836494015,-2.8594230069999997,9.5509514079,920
90396,176042,216108,0.7836494015,-2.8594230069999997,9.5509514079,921
89774,175991,216127,0.7836494015,-2.8594230069999997,9.5509514079,922
89354,175910,216080,0.7836494015,-2.8594230069999997,9.5509514079,923
89117,175927,216042,0.7836494015,-2.8594230069999997,9.5509514079,924
89012,175907,216068,0.7836494015,-2.8594230069999997,9.5509514079,925
89070,175942,216068,0.7836494015,-2.8594230069999997,9.5509514079,926
89238,175944,216037,0.7836494015,-2.8594230069999997,9.5509514079,927
89395,175981,216099,0.7836494015,-2.8594230069999997,9.5509514079,928
89488,175982,216073,0.7836494015,-2.8594230069999997,9.5509514079,929
89542,175983,216112,0.7836494015,-2.8594230069999997,9.5509514079,930
89612,175974,216064,0.7836494015,-2.8594230069999997,9.5509514079,931
89682,175995,216095,0.7836494015,-2.8594230069999997,9.5509514079,932
89828,176041,216097,0.7836494015,-2.8594230069999997,9.5509514079,933
89974,176023,216140,0.7836494015,-2.8594230069999997,9.5509514079,934
90135,176059,216117,0.7836494015,-2.8594230069999997,9.5509514079,935
90314,176058,216149,0.7836494015,-2.8594230069999997,9.5509514079,936
89347,175935,216137,0.5682953675,-2.9048866364,9.4803631412,937
89429,175940,216111,0.5682953675,-2.9048866364,9.4803631412,938
89540,175950,216086,0.5682953675,-2.9048866364,9.4803631412,939
89707,175980,216129,0.5682953675,-2.9048866364,9.4803631412,940
89865,175995,216104,0.5682953675,-2.9048866364,9.4803631412,941
90035,176019,216114,0.5682953675,-2.9048866364,9.4803631412,942
90186,176017,216121,0.5682953675,-2.9048866364,9.4803631412,943
90349,176030,216159,0.5682953675,-2.9048866364,9.4803631412,944
90491,176063,216192,0.5682953675,-2.9048866364,9.4803631412,945
90650,176028,216123,0.5682953675,-2.9048866364,9.4803631412,946
90764,176075,216125,0.5682953675,-2.9048866364,9.4803631412,947
90908,176080,216168,0.5682953675,-2.9048866364,9.4803631412,948
91044,176083,216175,0.5682953675,-2.9048866364,9.4803631412,949
91163,176110,216132,0.5682953675,-2.9048866364,9.4803631412,950
91310,176133,216109,0.5682953675,-2.9048866364,9.4803631412,951
91414,176146,216156,0.6245266986,-2.9826533709,9.5270231819,952
91300,176146,216131,0.6245266986,-2.9826533709,9.5270231819,953
90789,176060,216084,0.6245266986,-2.9826533709,9.5270231819,954
90129,176007,216087,0.6245266986,-2.9826533709,9.5270231819,955
89567,175990,216059,0.6245266986,-2.9826533709,9.5270231819,956
89195,175932,216028,0.6245266986,-2.9826533709,9.5270231819,957
88960,175930,216074,0.6245266986,-2.9826533709,9.5270231819,958
88910,175928,216084,0.6245266986,-2.9826533709,9.5270231819,959
89006,175941,216105,0.6245266986,-2.9826533709,9.5270231819,960
89201,175944,216103,0.6245266986,-2.9826533709,9.5270231819,961
89354,175955,216132,0.6245266986,-2.9826533709,9.5270231819,962
89456,175953,216107,0.6245266986,-2.9826533709,9.5270231819,963
89538,175985,216148,0.6245266986,-2.9826533709,9.5270231819,964
89623,176007,216177,0.6245266986,-2.9826533709,9.5270231819,965
89768,176002,216167,0.6245266986,-2.9826533709,9.5270231819,966
89911,176026,216164,0.6245266986,-2.9826533709,9.5270231819,967
90094,176067,216205,0.6245266986,-2.9826533709,9.5270231819,968
90292,176073,216200,0.6245266986,-2.9826533709,9.5270231819,969
90457,176083,216213,0.6245266986,-2.9826533709,9.5270231819,970
90649,176120,216228,0.6245266986,-2.9826533709,9.5270231819,971
90812,176095,216249,0.6245266986,-2.9826533709,9.5270231819,972
90952,176122,216223,0.6245266986,-2.9826533709,9.5270231819,973
91071,176131,216218,0.6245266986,-2.9826533709,9.5270231819,974
91186,176162,216227,0.6245266986,-2.9826533709,9.5270231819,975
91345,176147,216263,0.6245266986,-2.9826533709,9.5270231819,976
91465,176166,216259,0.6245266986,-2.9826533709,9.5270231819,977
91588,176151,216249,0.6245266986,-2.9826533709,9.5270231819,978
91656,176192,216243,0.6245266986,-2.9826533709,9.5270231819,979
91566,176138,216266,0.6245266986,-2.9826533709,9.5270231819,980
91071,176117,216268,0.6245266986,-2.9826533709,9.5270231819,981
90455,176051,216205,0.6245266986,-2.9826533709,9.5270231819,982
89935,176020,216191,0.6245266986,-2.9826533709,9.5270231819,983
89578,175982,216161,0.6245266986,-2.9826533709,9.5270231819,984
89384,175961,216148,0.6245266986,-2.9826533709,9.5270231819,985
89329,175943,216197,0.6245266986,-2.9826533709,9.5270231819,986
89457,175993,216210,0.6245266986,-2.9826533709,9.5270231819,987
89651,175971,216208,0.6580262149999999,-2.8462624827,9.4133641084,988
89753,175980,216229,0.6580262149999999,-2.8462624827,9.4133641084,989
89822,176018,216236,0.6580262149999999,-2.8462624827,9.4133641084,990
89859,176011,216190,0.6580262149999999,-2.8462624827,9.4133641084,991
89908,175973,216249,0.6580262149999999,-2.8462624827,9.4133641084,992
90003,176011,216237,0.6580262149999999,-2.8462624827,9.4133641084,993
90111,175987,216212,0.6580262149999999,-2.8462624827,9.4133641084,994
90217,176016,216259,0.6580262149999999,-2.8462624827,9.4133641084,995
90330,176025,216183,0.6580262149999999,-2.8462624827,9.4133641084,996
90457,176030,216244,0.6580262149999999,-2.8462624827,9.4133641084,997
90572,176023,216185,0.6580262149999999,-2.8462624827,9.4133641084,998
90667,176046,216182,0.6580262149999999,-2.8462624827,9.4133641084,999
90772,176058,216195,0.6580262149999999,-2.8462624827,9.4133641084,1000
90858,176016,216206,0.6580262149999999,-2.8462624827,9.4133641084,1001
90934,176043,216211,0.6580262149999999,-2.8462624827,9.4133641084,1002
91048,176024,216181,0.6580262149999999,-2.8462624827,9.4133641084,1003
91170,176080,216150,0.6580262149999999,-2.8462624827,9.4133641084,1004
91282,176055,216179,0.6580262149999999,-2.8462624827,9.4133641084,1005
91316,176072,216153,0.6580262149999999,-2.8462624827,9.4133641084,1006
91011,176076,216156,0.6580262149999999,-2.8462624827,9.4133641084,1007
90381,176035,216131,0.6580262149999999,-2.8462624827,9.4133641084,1008
89792,175912,216119,0.6580262149999999,-2.8462624827,9.4133641084,1009
89364,175898,216114,0.6580262149999999,-2.8462624827,9.4133641084,1010
89076,175887,216059,0.6580262149999999,-2.8462624827,9.4133641084,1011
88905,175857,216085,0.6580262149999999,-2.8462624827,9.4133641084,1012
88984,175852,216110,0.6580262149999999,-2.8462624827,9.4133641084,1013
89122,175885,216124,0.6580262149999999,-2.8462624827,9.4133641084,1014
89299,175911,216096,0.6580262149999999,-2.8462624827,9.4133641084,1015
89411,175950,216126,0.6580262149999999,-2.8462624827,9.4133641084,1016
89492,175970,216117,0.6580262149999999,-2.8462624827,9.4133641084,1017
89586,175975,216157,0.6580262149999999,-2.8462624827,9.4133641084,1018
89658,175970,216105,0.6580262149999999,-2.8462624827,9.4133641084,1019
89805,175978,216161,0.6580262149999999,-2.8462624827,9.4133641084,1020
89952,175977,216145,0.6580262149999999,-2.8462624827,9.4133641084,1021
90132,175989,216145,0.6580262149999999,-2.8462624827,9.4133641084,1022
90287,176041,216157,0.6580262149999999,-2.8462624827,9.4133641084,1023
90488,176047,216193,0.6580262149999999,-2.8462624827,9.4133641084,1024
90630,176063,216157,0.6580262149999999,-2.8462624827,9.4133641084,1025
90781,176079,216158,0.6580262149999999,-2.8462624827,9.4133641084,1026
90932,176103,216172,0.6580262149999999,-2.8462624827,9.4133641084,1027
91049,176104,216192,0.6580262149999999,-2.8462624827,9.4133641084,1028
91187,176136,216173,0.6580262149999999,-2.8462624827,9.4133641084,1029
89059,175944,216114,0.6269195211999999,-2.8630122409,9.4313102779,1030
89134,175929,216121,0.6269195211999999,-2.8630122409,9.4313102779,1031
89325,175984,216130,0.6269195211999999,-2.8630122409,9.4313102779,1032
89477,176001,216137,0.6269195211999999,-2.8630122409,9.4313102779,1033
89576,175993,216205,0.6269195211999999,-2.8630122409,9.4313102779,1034
89660,175989,216177,0.6269195211999999,-2.8630122409,9.4313102779,1035
89700,176017,216232,0.6269195211999999,-2.8630122409,9.4313102779,1036
89796,175993,216222,0.6269195211999999,-2.8630122409,9.4313102779,1037
89911,176011,216223,0.6269195211999999,-2.8630122409,9.4313102779,1038
90078,176022,216202,0.6269195211999999,-2.8630122409,9.4313102779,1039
90238,176047,216231,0.6269195211999999,-2.8630122409,9.4313102779,1040
90407,176090,216252,0.6269195211999999,-2.8630122409,9.4313102779,1041
90567,176086,216267,0.6269195211999999,-2.8630122409,9.4313102779,1042
90700,176078,216268,0.6269195211999999,-2.8630122409,9.4313102779,1043
90822,176079,216248,0.6269195211999999,-2.8630122409,9.4313102779,1044
90934,176101,216271,0.6269195211999999,-2.8630122409,9.4313102779,1045
91062,176106,216259,0.6269195211999999,-2.8630122409,9.4313102779,1046
91186,176135,216268,0.6269195211999999,-2.8630122409,9.4313102779,1047
91304,176120,216259,0.6269195211999999,-2.8630122409,9.4313102779,1048
91417,176138,216260,0.6269195211999999,-2.8630122409,9.4313102779,1049
91538,176149,216288,0.6269195211999999,-2.8630122409,9.4313102779,1050
91525,176136,216292,0.6269195211999999,-2.8630122409,9.4313102779,1051
91182,176117,216264,0.6269195211999999,-2.8630122409,9.4313102779,1052
90555,176045,216239,0.6269195211999999,-2.8630122409,9.4313102779,1053
89970,176001,216225,0.6269195211999999,-2.8630122409,9.4313102779,1054
89557,175964,216173,0.6269195211999999,-2.8630122409,9.4313102779,1055
89274,175920,216189,0.6269195211999999,-2.8630122409,9.4313102779,1056
89143,175914,216192,0.6269195211999999,-2.8630122409,9.4313102779,1057
89211,175916,216166,0.6269195211999999,-2.8630122409,9.4313102779,1058
89370,175918,216190,0.6269195211999999,-2.8630122409,9.4313102779,1059
89474,175920,216198,0.6269195211999999,-2.8630122409,9.4313102779,1060
89508,175948,216156,0.6269195211999999,-2.8630122409,9.4313102779,1061
89503,175930,216183,0.6269195211999999,-2.8630122409,9.4313102779,1062
89513,175924,216192,0.6269195211999999,-2.8630122409,9.4313102779,1063
89599,175950,216164,0.6269195211999999,-2.8630122409,9.4313102779,1064
89669,175925,216164,0.6269195211999999,-2.8630122409,9.4313102779,1065
89797,175917,216200,0.6269195211999999,-2.8630122409,9.4313102779,1066
89942,175943,216172,0.6269195211999999,-2.8630122409,9.4313102779,1067
90117,175954,216158,0.6269195211999999,-2.8630122409,9.4313102779,1068
90229,175960,216176,0.6269195211999999,-2.8630122409,9.4313102779,1069
90386,176025,216187,0.6269195211999999,-2.8630122409,9.4313102779,1070
90526,176009,216180,0.6269195211999999,-2.8630122409,9.4313102779,1071
91061,176091,216222,0.6484549246,-2.7529424013,9.4229353988,1072
91199,176074,216248,0.6484549246,-2.7529424013,9.4229353988,1073
91301,176083,216199,0.6484549246,-2.7529424013,9.4229353988,1074
91323,176080,216248,0.6484549246,-2.7529424013,9.4229353988,1075
91014,176036,216211,0.6484549246,-2.7529424013,9.4229353988,1076
90373,175986,216194,0.6484549246,-2.7529424013,9.4229353988,1077
89737,175944,216132,0.6484549246,-2.7529424013,9.4229353988,1078
89285,175901,216128,0.6484549246,-2.7529424013,9.4229353988,1079
89011,175861,216111,0.6484549246,-2.7529424013,9.4229353988,1080
88859,175899,216090,0.6484549246,-2.7529424013,9.4229353988,1081
88896,175829,216102,0.6484549246,-2.7529424013,9.4229353988,1082
89074,175913,216163,0.6484549246,-2.7529424013,9.4229353988,1083
89254,175900,216153,0.6484549246,-2.7529424013,9.4229353988,1084
89345,175922,216145,0.6484549246,-2.7529424013,9.4229353988,1085
89434,175944,216152,0.6484549246,-2.7529424013,9.4229353988,1086
89489,175971,216203,0.6484549246,-2.7529424013,9.4229353988,1087
89583,175973,216210,0.6484549246,-2.7529424013,9.4229353988,1088
89702,175946,216185,0.6484549246,-2.7529424013,9.4229353988,1089
89874,176019,216191,0.6484549246,-2.7529424013,9.4229353988,1090
90041,176006,216229,0.6484549246,-2.7529424013,9.4229353988,1091
90227,176060,216218,0.6484549246,-2.7529424013,9.4229353988,1092
90403,176057,216205,0.6484549246,-2.7529424013,9.4229353988,1093
90573,176073,216229,0.6484549246,-2.7529424013,9.4229353988,1094
90685,176094,216232,0.6484549246,-2.7529424013,9.4229353988,1095
90846,176112,216257,0.6484549246,-2.7529424013,9.4229353988,1096
90965,176127,216205,0.6484549246,-2.7529424013,9.4229353988,1097
91100,176113,216227,0.6484549246,-2.7529424013,9.4229353988,1098
91226,176141,216236,0.6484549246,-2.7529424013,9.4229353988,1099
91367,176148,216225,0.6484549246,-2.7529424013,9.4229353988,1100
91495,176164,216219,0.6484549246,-2.7529424013,9.4229353988,1101
91540,176182,216246,0.6484549246,-2.7529424013,9.4229353988,1102
91245,176134,216259,0.6484549246,-2.7529424013,9.4229353988,1103
90589,176094,216156,0.6484549246,-2.7529424013,9.4229353988,1104
89933,176032,216149,0.6484549246,-2.7529424013,9.4229353988,1105
89417,176032,216176,0.6484549246,-2.7529424013,9.4229353988,1106
89097,175951,216117,0.6484549246,-2.7529424013,9.4229353988,1107
88908,175919,216119,0.6484549246,-2.7529424013,9.4229353988,1108
88919,175930,216166,0.6484549246,-2.7529424013,9.4229353988,1109
89104,175957,216200,0.6484549246,-2.7529424013,9.4229353988,1110
89282,176023,216225,0.6484549246,-2.7529424013,9.4229353988,1111
89436,176005,216239,0.6484549246,-2.7529424013,9.4229353988,1112
89520,175995,216237,0.6484549246,-2.7529424013,9.4229353988,1113
91582,176145,216297,0.7680960546,-2.6835505459,9.5054877785,1114
91147,176137,216309,0.7680960546,-2.6835505459,9.5054877785,1115
90480,176041,216263,0.7680960546,-2.6835505459,9.5054877785,1116
89947,175977,216245,0.7680960546,-2.6835505459,9.5054877785,1117
89544,175969,216241,0.7680960546,-2.6835505459,9.5054877785,1118
89289,175934,216221,0.7680960546,-2.6835505459,9.5054877785,1119
89214,175923,216187,0.7680960546,-2.6835505459,9.5054877785,1120
89310,175899,216238,0.7680960546,-2.6835505459,9.5054877785,1121
89452,175925,216211,0.7680960546,-2.6835505459,9.5054877785,1122
89540,175961,216233,0.7680960546,-2.6835505459,9.5054877785,1123
89579,175955,216240,0.7680960546,-2.6835505459,9.5054877785,1124
89591,175933,216208,0.7680960546,-2.6835505459,9.5054877785,1125
89657,175956,216236,0.7680960546,-2.6835505459,9.5054877785,1126
89748,175935,216225,0.7680960546,-2.6835505459,9.5054877785,1127
89884,175936,216223,0.7680960546,-2.6835505459,9.5054877785,1128
90074,175992,216228,0.7680960546,-2.6835505459,9.5054877785,1129
90224,176012,216226,0.7680960546,-2.6835505459,9.5054877785,1130
90401,176021,216258,0.7680960546,-2.6835505459,9.5054877785,1131
90564,176020,216219,0.7680960546,-2.6835505459,9.5054877785,1132
90705,176041,216255,0.7680960546,-2.6835505459,9.5054877785,1133
90842,176081,216244,0.7680960546,-2.6835505459,9.5054877785,1134
90978,176081,216231,0.7680960546,-2.6835505459,9.5054877785,1135
91109,176099,216237,0.7680960546,-2.6835505459,9.5054877785,1136
91243,176104,216232,0.7680960546,-2.6835505459,9.5054877785,1137
91388,176127,216231,0.7680960546,-2.6835505459,9.5054877785,1138
91502,176167,216230,0.7680960546,-2.6835505459,9.5054877785,1139
91621,176153,216221,0.7680960546,-2.6835505459,9.5054877785,1140
91556,176130,216225,0.7680960546,-2.6835505459,9.5054877785,1141
91065,176139,216212,0.7680960546,-2.6835505459,9.5054877785,1142
90392,176036,216170,0.7680960546,-2.6835505459,9.5054877785,1143
89840,176021,216139,0.7680960546,-2.6835505459,9.5054877785,1144
89438,175952,216152,0.7680960546,-2.6835505459,9.5054877785,1145
89180,175947,216146,0.7680960546,-2.6835505459,9.5054877785,1146
89076,175930,216110,0.7680960546,-2.6835505459,9.5054877785,1147
89163,175938,216171,0.7680960546,-2.6835505459,9.5054877785,1148
89358,175950,216197,0.7680960546,-2.6835505459,9.5054877785,1149
89500,176000,216185,0.7680960546,-2.6835505459,9.5054877785,1150
89604,175994,216194,0.7680960546,-2.6835505459,9.5054877785,1151
89674,175979,216213,0.5994020613,-2.9455646206,9.4229353988,1152
89726,176030,216213,0.5994020613,-2.9455646206,9.4229353988,1153
89841,176003,216200,0.5994020613,-2.9455646206,9.4229353988,1154
89982,176031,216193,0.5994020613,-2.9455646206,9.4229353988,1155
90173,176045,216189,0.5994020613,-2.9455646206,9.4229353988,1156
90322,176056,216210,0.5994020613,-2.9455646206,9.4229353988,1157
90496,176064,216221,0.5994020613,-2.9455646206,9.4229353988,1158
90663,176121,216255,0.5994020613,-2.9455646206,9.4229353988,1159
90811,176137,216279,0.5994020613,-2.9455646206,9.4229353988,1160
90997,176134,216263,0.5994020613,-2.9455646206,9.4229353988,1161
91131,176210,216253,0.5994020613,-2.9455646206,9.4229353988,1162
91273,176168,216287,0.5994020613,-2.9455646206,9.4229353988,1163
91407,176181,216253,0.5994020613,-2.9455646206,9.4229353988,1164
91566,176210,216277,0.5994020613,-2.9455646206,9.4229353988,1165
91691,176223,216263,0.5994020613,-2.9455646206,9.4229353988,1166
91820,176213,216292,0.5994020613,-2.9455646206,9.4229353988,1167
91855,176223,216295,0.5994020613,-2.9455646206,9.4229353988,1168
91517,176175,216295,0.5994020613,-2.9455646206,9.4229353988,1169
90889,176125,216248,0.5994020613,-2.9455646206,9.4229353988,1170
90278,176049,216239,0.5994020613,-2.9455646206,9.4229353988,1171
89815,176010,216204,0.5994020613,-2.9455646206,9.4229353988,1172
89494,175969,216219,0.5994020613,-2.9455646206,9.4229353988,1173
89347,175989,216242,0.5994020613,-2.9455646206,9.4229353988,1174
89376,175976,216227,0.5994020613,-2.9455646206,9.4229353988,1175
89525,175979,216253,0.5994020613,-2.9455646206,9.4229353988,1176
89689,176037,216242,0.5994020613,-2.9455646206,9.4229353988,1177
89795,176029,216240,0.5994020613,-2.9455646206,9.4229353988,1178
89857,176022,216266,0.5994020613,-2.9455646206,9.4229353988,1179
89897,176040,216282,0.5994020613,-2.9455646206,9.4229353988,1180
89976,176044,216285,0.5994020613,-2.9455646206,9.4229353988,1181
90103,176050,216266,0.5994020613,-2.9455646206,9.4229353988,1182
90248,176052,216270,0.5994020613,-2.9455646206,9.4229353988,1183
90407,176072,216304,0.5994020613,-2.9455646206,9.4229353988,1184
90537,176078,216283,0.5994020613,-2.9455646206,9.4229353988,1185
90710,176072,216271,0.5994020613,-2.9455646206,9.4229353988,1186
90841,176100,216331,0.5994020613,-2.9455646206,9.4229353988,1187
90964,176073,216278,0.5994020613,-2.9455646206,9.4229353988,1188
91082,176141,216243,0.5994020613,-2.9455646206,9.4229353988,1189
91169,176087,216234,0.5994020613,-2.9455646206,9.4229353988,1190
91227,176104,216255,0.5994020613,-2.9455646206,9.4229353988,1191
91305,176103,216244,0.5994020613,-2.9455646206,9.4229353988,1192
91372,176092,216269,0.5994020613,-2.9455646206,9.4229353988,1193
89223,175932,216128,0.7429714173,-2.8905297008,9.4337031005,1194
89385,175944,216142,0.7429714173,-2.8905297008,9.4337031005,1195
89464,175972,216178,0.7429714173,-2.8905297008,9.4337031005,1196
89547,175967,216157,0.7429714173,-2.8905297008,9.4337031005,1197
89610,175935,216136,0.7429714173,-2.8905297008,9.4337031005,1198
89705,175984,216164,0.7429714173,-2.8905297008,9.4337031005,1199
89847,175986,216215,0.7429714173,-2.8905297008,9.4337031005,1200
89997,175990,216181,0.7429714173,-2.8905297008,9.4337031005,1201
90170,176009,216195,0.7429714173,-2.8905297008,9.4337031005,1202
90355,176044,216208,0.7429714173,-2.8905297008,9.4337031005,1203
90519,176057,216184,0.7429714173,-2.8905297008,9.4337031005,1204
90674,176080,216196,0.7429714173,-2.8905297008,9.4337031005,1205
90806,176097,216204,0.7429714173,-2.8905297008,9.4337031005,1206
90955,176115,216177,0.7429714173,-2.8905297008,9.4337031005,1207
91069,176098,216210,0.7429714173,-2.8905297008,9.4337031005,1208
91220,176137,216219,0.7429714173,-2.8905297008,9.4337031005,1209
91339,176157,216192,0.7429714173,-2.8905297008,9.4337031005,1210
91492,176151,216194,0.7429714173,-2.8905297008,9.4337031005,1211
91614,176174,216196,0.7429714173,-2.8905297008,9.4337031005,1212
91723,176193,216208,0.7429714173,-2.8905297008,9.4337031005,1213
91620,176140,216218,0.7429714173,-2.8905297008,9.4337031005,1214
91111,176104,216196,0.7429714173,-2.8905297008,9.4337031005,1215
90415,176061,216125,0.7429714173,-2.8905297008,9.4337031005,1216
89847,176028,216099,0.7429714173,-2.8905297008,9.4337031005,1217
89446,175986,216118,0.7429714173,-2.8905297008,9.4337031005,1218
89187,175992,216107,0.7429714173,-2.8905297008,9.4337031005,1219
89106,175962,216111,0.7429714173,-2.8905297008,9.4337031005,1220
89217,175982,216140,0.7429714173,-2.8905297008,9.4337031005,1221
89423,176004,216145,0.7429714173,-2.8905297008,9.4337031005,1222
89597,176019,216181,0.7429714173,-2.8905297008,9.4337031005,1223
89691,176026,216175,0.7429714173,-2.8905297008,9.4337031005,1224
89768,176046,216222,0.7429714173,-2.8905297008,9.4337031005,1225
89855,176046,216203,0.7429714173,-2.8905297008,9.4337031005,1226
89966,176054,216234,0.7429714173,-2.8905297008,9.4337031005,1227
90128,176076,216212,0.7429714173,-2.8905297008,9.4337031005,1228
90276,176041,216243,0.7429714173,-2.8905297008,9.4337031005,1229
90443,176081,216243,0.7429714173,-2.8905297008,9.4337031005,1230
90609,176109,216240,0.7429714173,-2.8905297008,9.4337031005,1231
90778,176113,216247,0.7429714173,-2.8905297008,9.4337031005,1232
90915,176118,216281,0.7429714173,-2.8905297008,9.4337031005,1233
91054,176142,216265,0.7429714173,-2.8905297008,9.4337031005,1234
91202,176142,216237,0.7429714173,-2.8905297008,9.4337031005,1235
89629,175951,216253,0.7022934331,-2.9204399833,9.5413801175,1236
89632,175981,216238,0.7022934331,-2.9204399833,9.5413801175,1237
89774,175990,216241,0.7022934331,-2.9204399833,9.5413801175,1238
89928,175988,216255,0.7022934331,-2.9204399833,9.5413801175,1239
90020,176001,216272,0.7022934331,-2.9204399833,9.5413801175,1240
90046,176001,216258,0.7022934331,-2.9204399833,9.5413801175,1241
90054,176000,216265,0.7022934331,-2.9204399833,9.5413801175,1242
90091,176013,216244,0.7022934331,-2.9204399833,9.5413801175,1243
90147,175998,216279,0.7022934331,-2.9204399833,9.5413801175,1244
90267,175996,216271,0.7022934331,-2.9204399833,9.5413801175,1245
90361,176011,216242,0.7022934331,-2.9204399833,9.5413801175,1246
90478,176022,216261,0.7022934331,-2.9204399833,9.5413801175,1247
90613,176039,216245,0.7022934331,-2.9204399833,9.5413801175,1248
90752,176020,216255,0.7022934331,-2.9204399833,9.5413801175,1249
90867,176056,216243,0.7022934331,-2.9204399833,9.5413801175,1250
90989,176060,216264,0.7022934331,-2.9204399833,9.5413801175,1251
91103,176112,216256,0.7022934331,-2.9204399833,9.5413801175,1252
91212,176083,216244,0.7022934331,-2.9204399833,9.5413801175,1253
91327,176086,216245,0.7022934331,-2.9204399833,9.5413801175,1254
91447,176113,216216,0.7022934331,-2.9204399833,9.5413801175,1255
91567,176089,216209,0.7022934331,-2.9204399833,9.5413801175,1256
91656,176127,216267,0.7022934331,-2.9204399833,9.5413801175,1257
91484,176118,216244,0.7022934331,-2.9204399833,9.5413801175,1258
90951,176079,216227,0.7022934331,-2.9204399833,9.5413801175,1259
90312,175984,216199,0.7022934331,-2.9204399833,9.5413801175,1260
89795,175971,216170,0.7022934331,-2.9204399833,9.5413801175,1261
89438,175912,216178,0.7022934331,-2.9204399833,9.5413801175,1262
89232,175916,216156,0.7022934331,-2.9204399833,9.5413801175,1263
89172,175917,216164,0.7022934331,-2.9204399833,9.5413801175,1264
89305,175939,216207,0.7022934331,-2.9204399833,9.5413801175,1265
89466,175950,216190,0.7022934331,-2.9204399833,9.5413801175,1266
89594,175960,216206,0.7022934331,-2.9204399833,9.5413801175,1267
89665,175953,216243,0.7022934331,-2.9204399833,9.5413801175,1268
89736,175980,216219,0.7022934331,-2.9204399833,9.5413801175,1269
89811,176006,216239,0.7022934331,-2.9204399833,9.5413801175,1270
89923,176006,216231,0.7022934331,-2.9204399833,9.5413801175,1271
90079,176037,216270,0.7022934331,-2.9204399833,9.5413801175,1272
90237,176039,216288,0.7022934331,-2.9204399833,9.5413801175,1273
90425,176064,216256,0.7022934331,-2.9204399833,9.5413801175,1274
90586,176086,216258,0.7022934331,-2.9204399833,9.5413801175,1275
90761,176085,216263,0.7022934331,-2.9204399833,9.5413801175,1276
90907,176107,216265,0.7022934331,-2.9204399833,9.5413801175,1277
91717,176158,216334,0.5706881900999999,-2.8809584104000003,9.4121676971,1278
91715,176168,216293,0.5706881900999999,-2.8809584104000003,9.4121676971,1279
91364,176113,216314,0.5706881900999999,-2.8809584104000003,9.4121676971,1280
90751,176075,216272,0.5706881900999999,-2.8809584104000003,9.4121676971,1281
90118,176015,216278,0.5706881900999999,-2.8809584104000003,9.4121676971,1282
89661,175991,216259,0.5706881900999999,-2.8809584104000003,9.4121676971,1283
89361,175941,216270,0.5706881900999999,-2.8809584104000003,9.4121676971,1284
89210,175980,216203,0.5706881900999999,-2.8809584104000003,9.4121676971,1285
89255,175972,216237,0.5706881900999999,-2.8809584104000003,9.4121676971,1286
89409,175977,216238,0.5706881900999999,-2.8809584104000003,9.4121676971,1287
89569,175982,216256,0.5706881900999999,-2.8809584104000003,9.4121676971,1288
89665,175971,216309,0.5706881900999999,-2.8809584104000003,9.4121676971,1289
89735,176012,216303,0.5706881900999999,-2.8809584104000003,9.4121676971,1290
89791,176020,216308,0.5706881900999999,-2.8809584104000003,9.4121676971,1291
89883,176035,216309,0.5706881900999999,-2.8809584104000003,9.4121676971,1292
90018,176046,216304,0.5706881900999999,-2.8809584104000003,9.4121676971,1293
90134,176071,216322,0.5706881900999999,-2.8809584104000003,9.4121676971,1294
90321,176067,216278,0.5706881900999999,-2.8809584104000003,9.4121676971,1295
90500,176111,216274,0.5706881900999999,-2.8809584104000003,9.4121676971,1296
90669,176126,216333,0.5706881900999999,-2.8809584104000003,9.4121676971,1297
90810,176116,216299,0.5706881900999999,-2.8809584104000003,9.4121676971,1298
90945,176106,216315,0.5706881900999999,-2.8809584104000003,9.4121676971,1299
91090,176150,216325,0.5706881900999999,-2.8809584104000003,9.4121676971,1300
91231,176180,216323,0.5706881900999999,-2.8809584104000003,9.4121676971,1301
91347,176181,216320,0.5706881900999999,-2.8809584104000003,9.4121676971,1302
91490,176220,216361,0.5706881900999999,-2.8809584104000003,9.4121676971,1303
91627,176222,216359,0.5706881900999999,-2.8809584104000003,9.4121676971,1304
91761,176252,216347,0.5706881900999999,-2.8809584104000003,9.4121676971,1305
91698,176264,216358,0.5706881900999999,-2.8809584104000003,9.4121676971,1306
91243,176149,216367,0.5706881900999999,-2.8809584104000003,9.4121676971,1307
90616,176112,216328,0.5706881900999999,-2.8809584104000003,9.4121676971,1308
90083,176046,216292,0.5706881900999999,-2.8809584104000003,9.4121676971,1309
89691,175990,216323,0.5706881900999999,-2.8809584104000003,9.4121676971,1310
89449,175996,216264,0.5706881900999999,-2.8809584104000003,9.4121676971,1311
89371,175997,216318,0.5706881900999999,-2.8809584104000003,9.4121676971,1312
89471,175982,216324,0.5706881900999999,-2.8809584104000003,9.4121676971,1313
89662,176033,216345,0.5706881900999999,-2.8809584104000003,9.4121676971,1314
89780,176058,216375,0.5706881900999999,-2.8809584104000003,9.4121676971,1315
89884,176054,216346,0.5706881900999999,-2.8809584104000003,9.4121676971,1316
89923,176035,216335,0.5706881900999999,-2.8809584104000003,9.4121676971,1317
89994,176023,216341,0.5706881900999999,-2.8809584104000003,9.4121676971,1318
90071,176074,216374,0.5706881900999999,-2.8809584104000003,9.4121676971,1319
91580,176173,216440,0.7633104094,-2.9336005076,9.399007172800001,1320
91701,176182,216415,0.7633104094,-2.9336005076,9.399007172800001,1321
91765,176207,216438,0.7633104094,-2.9336005076,9.399007172800001,1322
91620,176129,216391,0.7633104094,-2.9336005076,9.399007172800001,1323
91095,176087,216377,0.7633104094,-2.9336005076,9.399007172800001,1324
90455,176037,216347,0.7633104094,-2.9336005076,9.399007172800001,1325
89924,175962,216310,0.7633104094,-2.9336005076,9.399007172800001,1326
89545,175936,216286,0.7633104094,-2.9336005076,9.399007172800001,1327
89342,175913,216290,0.7633104094,-2.9336005076,9.399007172800001,1328
89276,175881,216306,0.7633104094,-2.9336005076,9.399007172800001,1329
89410,175898,216322,0.7633104094,-2.9336005076,9.399007172800001,1330
89554,175933,216275,0.7633104094,-2.9336005076,9.399007172800001,1331
89660,175947,216277,0.7633104094,-2.9336005076,9.399007172800001,1332
89733,175944,216279,0.7633104094,-2.9336005076,9.399007172800001,1333
89769,175946,216314,0.7633104094,-2.9336005076,9.399007172800001,1334
89848,175982,216304,0.7633104094,-2.9336005076,9.399007172800001,1335
89982,175994,216318,0.7633104094,-2.9336005076,9.399007172800001,1336
90110,176025,216333,0.7633104094,-2.9336005076,9.399007172800001,1337
90286,176006,216333,0.7633104094,-2.9336005076,9.399007172800001,1338
90451,176038,216320,0.7633104094,-2.9336005076,9.399007172800001,1339
90645,176036,216379,0.7633104094,-2.9336005076,9.399007172800001,1340
90795,176078,216314,0.7633104094,-2.9336005076,9.399007172800001,1341
90948,176080,216307,0.7633104094,-2.9336005076,9.399007172800001,1342
91087,176147,216326,0.7633104094,-2.9336005076,9.399007172800001,1343
91197,176118,216312,0.7633104094,-2.9336005076,9.399007172800001,1344
91350,176130,216333,0.7633104094,-2.9336005076,9.399007172800001,1345
91467,176149,216324,0.7633104094,-2.9336005076,9.399007172800001,1346
91590,176170,216355,0.7633104094,-2.9336005076,9.399007172800001,1347
91733,176179,216348,0.7633104094,-2.9336005076,9.399007172800001,1348
91728,176202,216315,0.7633104094,-2.9336005076,9.399007172800001,1349
91420,176140,216309,0.7633104094,-2.9336005076,9.399007172800001,1350
90791,176039,216296,0.7633104094,-2.9336005076,9.399007172800001,1351
90164,176069,216296,0.7633104094,-2.9336005076,9.399007172800001,1352
89694,175987,216272,0.7633104094,-2.9336005076,9.399007172800001,1353
89396,175955,216266,0.7633104094,-2.9336005076,9.399007172800001,1354
89224,175960,216270,0.7633104094,-2.9336005076,9.399007172800001,1355
89238,175987,216265,0.7633104094,-2.9336005076,9.399007172800001,1356
89401,175985,216293,0.7633104094,-2.9336005076,9.399007172800001,1357
89554,175973,216288,0.7633104094,-2.9336005076,9.399007172800001,1358
89672,176023,216304,0.7633104094,-2.9336005076,9.399007172800001,1359
89736,176025,216337,0.7633104094,-2.9336005076,9.399007172800001,1360
89789,176026,216297,0.7633104094,-2.9336005076,9.399007172800001,1361
90355,176019,216214,0.8578269021,-2.8139593776000003,9.4301138666,1362
90506,176041,216257,0.8578269021,-2.8139593776000003,9.4301138666,1363
90673,176087,216257,0.8578269021,-2.8139593776000003,9.4301138666,1364
90820,176093,216235,0.8578269021,-2.8139593776000003,9.4301138666,1365
90972,176118,216265,0.8578269021,-2.8139593776000003,9.4301138666,1366
91085,176112,216257,0.8578269021,-2.8139593776000003,9.4301138666,1367
91221,176152,216231,0.8578269021,-2.8139593776000003,9.4301138666,1368
91360,176164,216280,0.8578269021,-2.8139593776000003,9.4301138666,1369
91511,176195,216275,0.8578269021,-2.8139593776000003,9.4301138666,1370
91658,176180,216251,0.8578269021,-2.8139593776000003,9.4301138666,1371
91766,176212,216314,0.8578269021,-2.8139593776000003,9.4301138666,1372
91706,176184,216291,0.8578269021,-2.8139593776000003,9.4301138666,1373
91289,176125,216286,0.8578269021,-2.8139593776000003,9.4301138666,1374
90651,176061,216213,0.8578269021,-2.8139593776000003,9.4301138666,1375
90072,176048,216212,0.8578269021,-2.8139593776000003,9.4301138666,1376
89676,175998,216215,0.8578269021,-2.8139593776000003,9.4301138666,1377
89417,175926,216217,0.8578269021,-2.8139593776000003,9.4301138666,1378
89322,175969,216237,0.8578269021,-2.8139593776000003,9.4301138666,1379
89398,175968,216257,0.8578269021,-2.8139593776000003,9.4301138666,1380
89574,175979,216232,0.8578269021,-2.8139593776000003,9.4301138666,1381
89715,175971,216208,0.8578269021,-2.8139593776000003,9.4301138666,1382
89828,176002,216231,0.8578269021,-2.8139593776000003,9.4301138666,1383
89848,176002,216260,0.8578269021,-2.8139593776000003,9.4301138666,1384
89927,176016,216293,0.8578269021,-2.8139593776000003,9.4301138666,1385
90009,175995,216275,0.8578269021,-2.8139593776000003,9.4301138666,1386
90125,176012,216281,0.8578269021,-2.8139593776000003,9.4301138666,1387
90263,176037,216247,0.8578269021,-2.8139593776000003,9.4301138666,1388
90421,176051,216313,0.8578269021,-2.8139593776000003,9.4301138666,1389
90583,176057,216308,0.8578269021,-2.8139593776000003,9.4301138666,1390
90733,176067,216268,0.8578269021,-2.8139593776000003,9.4301138666,1391
90883,176055,216340,0.8578269021,-2.8139593776000003,9.4301138666,1392
91031,176094,216285,0.8578269021,-2.8139593776000003,9.4301138666,1393
91136,176083,216294,0.8578269021,-2.8139593776000003,9.4301138666,1394
91268,176073,216280,0.8578269021,-2.8139593776000003,9.4301138666,1395
91376,176119,216253,0.8578269021,-2.8139593776000003,9.4301138666,1396
91494,176129,216305,0.8578269021,-2.8139593776000003,9.4301138666,1397
91609,176161,216291,0.8578269021,-2.8139593776000003,9.4301138666,1398
91692,176098,216291,0.8578269021,-2.8139593776000003,9.4301138666,1399
91554,176120,216271,0.8578269021,-2.8139593776000003,9.4301138666,1400
91101,176020,216256,0.8578269021,-2.8139593776000003,9.4301138666,1401
90444,176011,216254,0.8578269021,-2.8139593776000003,9.4301138666,1402
89887,175952,216200,0.8578269021,-2.8139593776000003,9.4301138666,1403
89357,175966,216211,0.7621139981,-2.7936203855,9.3906322937,1404
89460,175963,216219,0.7621139981,-2.7936203855,9.3906322937,1405
89581,175986,216246,0.7621139981,-2.7936203855,9.3906322937,1406
89748,175995,216253,0.7621139981,-2.7936203855,9.3906322937,1407
89906,176017,216292,0.7621139981,-2.7936203855,9.3906322937,1408
90098,176023,216293,0.7621139981,-2.7936203855,9.3906322937,1409
90267,176041,216308,0.7621139981,-2.7936203855,9.3906322937,1410
90438,176048,216287,0.7621139981,-2.7936203855,9.3906322937,1411
90594,176050,216277,0.7621139981,-2.7936203855,9.3906322937,1412
90724,176041,216320,0.7621139981,-2.7936203855,9.3906322937,1413
90843,176079,216318,0.7621139981,-2.7936203855,9.3906322937,1414
90957,176112,216333,0.7621139981,-2.7936203855,9.3906322937,1415
91096,176100,216314,0.7621139981,-2.7936203855,9.3906322937,1416
91207,176095,216293,0.7621139981,-2.7936203855,9.3906322937,1417
91341,176100,216306,0.7621139981,-2.7936203855,9.3906322937,1418
91443,176120,216338,0.7621139981,-2.7936203855,9.3906322937,1419
91364,176078,216351,0.7621139981,-2.7936203855,9.3906322937,1420
90892,176073,216285,0.7621139981,-2.7936203855,9.3906322937,1421
90267,176003,216266,0.7621139981,-2.7936203855,9.3906322937,1422
89717,175955,216269,0.7621139981,-2.7936203855,9.3906322937,1423
89347,175923,216249,0.7621139981,-2.7936203855,9.3906322937,1424
89118,175944,216231,0.7621139981,-2.7936203855,9.3906322937,1425
89047,175906,216237,0.7621139981,-2.7936203855,9.3906322937,1426
89187,175934,216224,0.7621139981,-2.7936203855,9.3906322937,1427
89373,175909,216276,0.7621139981,-2.7936203855,9.3906322937,1428
89503,175932,216280,0.7621139981,-2.7936203855,9.3906322937,1429
89535,175928,216277,0.7621139981,-2.7936203855,9.3906322937,1430
89546,175925,216295,0.7621139981,-2.7936203855,9.3906322937,1431
89601,175930,216269,0.7621139981,-2.7936203855,9.3906322937,1432
89646,175913,216271,0.7621139981,-2.7936203855,9.3906322937,1433
89753,175903,216265,0.7621139981,-2.7936203855,9.3906322937,1434
89866,175942,216278,0.7621139981,-2.7936203855,9.3906322937,1435
90003,175938,216289,0.7621139981,-2.7936203855,9.3906322937,1436
90139,175969,216216,0.7621139981,-2.7936203855,9.3906322937,1437
90285,175976,216261,0.7621139981,-2.7936203855,9.3906322937,1438
90418,175978,216240,0.7621139981,-2.7936203855,9.3906322937,1439
90541,176005,216255,0.7621139981,-2.7936203855,9.3906322937,1440
90646,175977,216242,0.7621139981,-2.7936203855,9.3906322937,1441
90760,176005,216237,0.7621139981,-2.7936203855,9.3906322937,1442
90887,176031,216220,0.7621139981,-2.7936203855,9.3906322937,1443
91007,176026,216249,0.7621139981,-2.7936203855,9.3906322937,1444
91129,176077,216271,0.7621139981,-2.7936203855,9.3906322937,1445
89743,175980,216313,0.6556333924,-2.8031916759,9.522237536699999,1446
89890,175984,216332,0.6556333924,-2.8031916759,9.522237536699999,1447
90058,175997,216339,0.6556333924,-2.8031916759,9.522237536699999,1448
90236,176019,216344,0.6556333924,-2.8031916759,9.522237536699999,1449
90387,176050,216343,0.6556333924,-2.8031916759,9.522237536699999,1450
90547,176080,216357,0.6556333924,-2.8031916759,9.522237536699999,1451
90708,176055,216336,0.6556333924,-2.8031916759,9.522237536699999,1452
90825,176070,216359,0.6556333924,-2.8031916759,9.522237536699999,1453
90968,176087,216332,0.6556333924,-2.8031916759,9.522237536699999,1454
91080,176090,216339,0.6556333924,-2.8031916759,9.522237536699999,1455
91195,176076,216365,0.6556333924,-2.8031916759,9.522237536699999,1456
91337,176073,216370,0.6556333924,-2.8031916759,9.522237536699999,1457
91459,176130,216364,0.6556333924,-2.8031916759,9.522237536699999,1458
91543,176114,216328,0.6556333924,-2.8031916759,9.522237536699999,1459
91481,176095,216368,0.6556333924,-2.8031916759,9.522237536699999,1460
90992,176050,216332,0.6556333924,-2.8031916759,9.522237536699999,1461
90352,175980,216293,0.6556333924,-2.8031916759,9.522237536699999,1462
89762,175917,216255,0.6556333924,-2.8031916759,9.522237536699999,1463
89355,175941,216232,0.6556333924,-2.8031916759,9.522237536699999,1464
89094,175842,216277,0.6556333924,-2.8031916759,9.522237536699999,1465
89021,175847,216217,0.6556333924,-2.8031916759,9.522237536699999,1466
89140,175863,216237,0.6556333924,-2.8031916759,9.522237536699999,1467
89276,175877,216231,0.6556333924,-2.8031916759,9.522237536699999,1468
89408,175891,216239,0.6556333924,-2.8031916759,9.522237536699999,1469
89463,175875,216268,0.6556333924,-2.8031916759,9.522237536699999,1470
89514,175868,216229,0.6556333924,-2.8031916759,9.522237536699999,1471
89589,175916,216233,0.6556333924,-2.8031916759,9.522237536699999,1472
89699,175923,216200,0.6556333924,-2.8031916759,9.522237536699999,1473
89836,175944,216234,0.6556333924,-2.8031916759,9.522237536699999,1474
90000,175937,216206,0.6556333924,-2.8031916759,9.522237536699999,1475
90162,175978,216253,0.6556333924,-2.8031916759,9.522237536699999,1476
90340,175975,216266,0.6556333924,-2.8031916759,9.522237536699999,1477
90502,175997,216238,0.6556333924,-2.8031916759,9.522237536699999,1478
90639,176008,216242,0.6556333924,-2.8031916759,9.522237536699999,1479
90782,176040,216284,0.6556333924,-2.8031916759,9.522237536699999,1480
90917,176059,216283,0.6556333924,-2.8031916759,9.522237536699999,1481
91047,176033,216241,0.6556333924,-2.8031916759,9.522237536699999,1482
91171,176062,216237,0.6556333924,-2.8031916759,9.522237536699999,1483
91297,176085,216233,0.6556333924,-2.8031916759,9.522237536699999,1484
91430,176128,216238,0.6556333924,-2.8031916759,9.522237536699999,1485
91501,176094,216293,0.6556333924,-2.8031916759,9.522237536699999,1486
91297,176079,216255,0.6556333924,-2.8031916759,9.522237536699999,1487
89759,175986,216233,0.6604190376,-2.7601208691,9.2973122123,1488
89928,175966,216283,0.6604190376,-2.7601208691,9.2973122123,1489
90103,176007,216238,0.6604190376,-2.7601208691,9.2973122123,1490
90256,175988,216267,0.6604190376,-2.7601208691,9.2973122123,1491
90404,175998,216273,0.6604190376,-2.7601208691,9.2973122123,1492
90576,176026,216237,0.6604190376,-2.7601208691,9.2973122123,1493
90712,176046,216276,0.6604190376,-2.7601208691,9.2973122123,1494
90844,176055,216256,0.6604190376,-2.7601208691,9.2973122123,1495
90988,176062,216279,0.6604190376,-2.7601208691,9.2973122123,1496
91115,176082,216280,0.6604190376,-2.7601208691,9.2973122123,1497
91250,176096,216288,0.6604190376,-2.7601208691,9.2973122123,1498
91403,176124,216287,0.6604190376,-2.7601208691,9.2973122123,1499
91484,176149,216283,0.6604190376,-2.7601208691,9.2973122123,1500
91296,176106,216285,0.6604190376,-2.7601208691,9.2973122123,1501
90745,176086,216285,0.6604190376,-2.7601208691,9.2973122123,1502
90055,175968,216260,0.6604190376,-2.7601208691,9.2973122123,1503
89523,175935,216179,0.6604190376,-2.7601208691,9.2973122123,1504
89175,175932,216207,0.6604190376,-2.7601208691,9.2973122123,1505
88957,175906,216247,0.6604190376,-2.7601208691,9.2973122123,1506
88949,175910,216246,0.6604190376,-2.7601208691,9.2973122123,1507
89097,175912,216245,0.6604190376,-2.7601208691,9.2973122123,1508
89297,175932,216274,0.6604190376,-2.7601208691,9.2973122123,1509
89441,175979,216295,0.6604190376,-2.7601208691,9.2973122123,1510
89521,175960,216286,0.6604190376,-2.7601208691,9.2973122123,1511
89585,176002,216297,0.6604190376,-2.7601208691,9.2973122123,1512
89682,175942,216348,0.6604190376,-2.7601208691,9.2973122123,1513
89793,175990,216323,0.6604190376,-2.7601208691,9.2973122123,1514
89922,175970,216362,0.6604190376,-2.7601208691,9.2973122123,1515
90076,176014,216344,0.6604190376,-2.7601208691,9.2973122123,1516
90266,176005,216353,0.6604190376,-2.7601208691,9.2973122123,1517
90436,176033,216363,0.6604190376,-2.7601208691,9.2973122123,1518
90591,176088,216366,0.6604190376,-2.7601208691,9.2973122123,1519
90728,176047,216343,0.6604190376,-2.7601208691,9.2973122123,1520
90867,176076,216367,0.6604190376,-2.7601208691,9.2973122123,1521
91000,176055,216352,0.6604190376,-2.7601208691,9.2973122123,1522
91111,176092,216372,0.6604190376,-2.7601208691,9.2973122123,1523
91233,176055,216385,0.6604190376,-2.7601208691,9.2973122123,1524
91357,176122,216373,0.6604190376,-2.7601208691,9.2973122123,1525
91500,176097,216370,0.6604190376,-2.7601208691,9.2973122123,1526
91607,176124,216363,0.6604190376,-2.7601208691,9.2973122123,1527
91531,176114,216387,0.6604190376,-2.7601208691,9.2973122123,1528
91042,176048,216355,0.6604190376,-2.7601208691,9.2973122123,1529
