green,red,IR,acc_x,acc_y,acc_z,sample_index
103191,178026,243058,7.7455667562,3.3810583338,-5.3587262127,1
103271,178070,243026,7.7718878047999995,3.361915753,-5.3910293178,2
103412,177948,243041,7.5780691741999995,3.3176485349,-5.446064237599999,3
103536,178055,243094,7.6881390138,3.326023414,-5.3204410510999995,4
103817,178069,243106,7.621139981,3.2889346637,-5.5094740364999994,5
104018,178084,243087,7.6761749007999995,3.5545379723,-5.4664032297,6
104197,178064,243083,7.7539416353,3.397808092,-5.363511857900001,7
104389,178151,243109,7.645068207,3.4289147858,-5.4364929472,8
104625,178158,243138,7.6761749007999995,3.4241291406,-5.417350366399999,9
104808,178171,243159,7.606783045399999,3.2805597846,-5.3778687935,10
104975,178168,243181,7.6582287313,3.3200413575,-5.5010991574000005,11
105189,178180,243174,7.6630143765,3.4767712378,-5.4209396003000005,12
105349,178147,243163,7.7706913935,3.4169506728,-5.491527867,13
105497,178173,243186,7.7012995381,3.397808092,-5.3850472612999996,14
105661,178209,243160,7.7072815945999995,3.3690942208,-5.4329037133,15
105796,178206,243180,7.6594251426,3.4719855926,-5.4819565766,16
105993,178226,243176,7.7383882884,3.3391839383,-5.3682975031,17
106220,178230,243175,7.692924659,3.3403803495999997,-5.4771709314,18
106317,178240,243161,7.746763167499999,3.3212377687999997,-5.4065826647,19
105674,178213,243132,7.6977103042,3.3355947043999996,-5.426921656799999,20
104269,178125,243041,7.746763167499999,3.3236305914,-5.389832906500001,21
103245,178094,242987,7.6893354250999995,3.3690942208,-5.4699924636,22
102713,178038,242953,7.6522466748,3.3834511564,-5.4029934308,23
102424,178046,242968,7.7419775223,3.3798619225,-5.417350366399999,24
102231,178014,242927,7.692924659,3.3367911156999996,-5.4819565766,25
102176,178015,242949,7.5218378431,3.2841490185,-5.3742795596,26
102329,178001,242937,7.6366933279,3.4301111971,-5.3970113743,27
102727,178017,243009,7.6498538522,3.4002009146,-5.4029934308,28
103053,178039,243068,7.746763167499999,3.3308090592,-5.4747781088,29
103189,178038,243064,7.6785677234,3.4851461168999998,-5.4137611324999995,30
103227,178049,243013,7.6785677234,3.2626136151000003,-5.3539405675,31
103296,178055,243038,7.4751778024,3.3738798660000002,-5.525027383399999,32
103457,178067,243020,7.708478005899999,3.445664544,-5.392225729100001,33
103660,178096,243038,7.7479595788,3.3128628897,-5.4101718986,34
103878,178162,243086,7.5481588917,3.4995030524999997,-5.4364929472,35
104109,178104,243069,7.6857461912,3.3547372851999997,-5.4747781088,36
104312,178121,243072,7.8029944985999995,3.2350961552,-5.4113683099,37
104544,178137,243121,7.6151579245,3.4420753101,-5.407779076,38
104733,178178,243143,7.5505517143,3.4277183745,-5.4604211732,39
104928,178187,243111,7.4691957459,3.4025937372,-5.4628139958,40
105091,178200,243131,7.708478005899999,3.4660035360999997,-5.491527867,41
105282,178269,243105,7.6977103042,3.4492537779,-5.446064237599999,42
105474,178231,243173,7.7706913935,3.3870403903,-5.4017970195,43
105672,178276,243160,7.6582287313,3.3870403903,-5.431707302,44
105834,178293,243211,7.5349983674,3.4516466004999997,-5.486742221799999,45
105975,178266,243168,7.6965138929000005,3.553341561,-5.3874400839,46
106216,178270,243174,7.622336392299999,3.3499516399999996,-5.407779076,47
106435,178286,243149,7.5948189324,3.4432717214,-5.484349399199999,48
106529,178310,243204,7.6426753844,3.4205399067,-5.4484570602,49
105889,178261,243155,7.6283184488,3.4827532943,-5.4807601652999995,50
104463,178170,243057,7.654639497399999,3.361915753,-5.4293144793999994,51
103429,178097,242995,7.5170521979,3.4372896648999998,-5.4388857698,52
102852,178060,242948,7.6869426025,3.4073793824000003,-5.4819565766,53
102577,178052,242900,7.556533770800001,3.4971102299,-5.363511857900001,54
102329,178034,242918,7.7276205867,3.4983066412,-5.4281180681,55
102356,178001,242928,7.7252277641000004,3.433700431,-5.3994041969,56
102504,178010,242932,7.6749784895,3.4420753101,-5.472385286200001,57
102887,178046,242998,7.5194450205,3.4588250683,-5.458028350599999,58
103208,178042,243001,7.6498538522,3.3427731722,-5.455635527999999,59
103322,178074,243003,7.6139615132000005,3.4169506728,-5.472385286200001,60
103321,178028,242956,7.6008009889000006,3.4073793824000003,-5.4281180681,61
103387,178034,243019,7.7060851833,3.314059301,-5.5345986738,62
103407,178051,242987,7.6869426025,3.3714870434,-5.4747781088,63
103691,178105,243001,7.7826555065,3.4719855926,-5.5178489156,64
103938,178101,242982,7.6713892556,3.3463624061,-5.4221360116,65
104167,178034,242981,7.65703232,3.3882368016,-5.4341001246000005,66
104402,178061,243027,7.6701928443,3.4121650276000004,-5.4532427054,67
104581,178110,242995,7.6893354250999995,3.4827532943,-5.5298130286000005,68
104721,178123,243039,7.708478005899999,3.421736318,-5.4628139958,69
104770,178155,242998,7.6271220375,3.3643085755999995,-5.4101718986,70
104995,178127,243035,7.7611201031,3.3834511564,-5.5010991574000005,71
105175,178131,243078,7.5864440533,3.3499516399999996,-5.4412785924,72
105389,178135,243060,7.6402825618,3.3667013982,-5.4329037133,73
105593,178191,243081,7.5768727629,3.3320054705,-5.4221360116,74
105726,178181,243062,7.584051230699999,3.3332018818,-5.5082776252,75
105853,178170,243098,7.6917282476999995,3.3475588174,-5.4185467777000005,76
105958,178203,243094,7.6319076827,3.5138599880999997,-5.4699924636,77
106168,178232,243008,7.6474610296,3.4564322457,-5.563312545,78
106286,178197,243044,7.635496916599999,3.3762726886,-5.376672382200001,79
105779,178059,243032,7.7994052647,3.3547372851999997,-5.4628139958,80
104466,178087,242925,7.7347990545,3.3236305914,-5.389832906500001,81
103331,178035,242885,7.6857461912,3.3834511564,-5.2917271799,82
102650,177978,242870,7.7395846997,3.3427731722,-5.486742221799999,83
102420,177988,242890,7.6845497799,3.4241291406,-5.4293144793999994,84
102213,177946,242833,7.735995465799999,3.3116664784,-5.4819565766,85
102166,177843,242876,7.6773713121,3.4719855926,-5.455635527999999,86
102291,177941,242878,7.679764134699999,3.4049865597999998,-5.5238309721,87
102692,177912,242844,7.7994052647,3.4013973259,-5.491527867,88
103088,177989,242938,7.5194450205,3.3296126479000003,-5.4532427054,89
103259,178033,242937,7.5290163108999995,3.4313076084,-5.4544391167,90
103349,177988,242929,7.749155990099999,3.3547372851999997,-5.486742221799999,91
103376,177963,242985,7.6893354250999995,3.4073793824000003,-5.50349198,92
103491,177987,242903,7.7264241754,3.4552358344000003,-5.4699924636,93
103780,177952,242930,7.7862447404,3.3918260355000003,-5.484349399199999,94
104000,177993,242984,7.7742806274,3.3667013982,-5.4101718986,95
104280,178042,242999,7.7024959494,3.3966116807,-5.4628139958,96
104518,178056,242989,7.6821569573,3.3403803495999997,-5.515456093,97
104718,178088,243018,7.6761749007999995,3.4193434953999997,-5.3491549223,98
104920,178047,243067,7.666603610399999,3.3882368016,-5.3910293178,99
105091,178059,243056,7.666603610399999,3.3762726886,-5.4903314557,100
105306,178102,243101,7.6905318364,3.3583265191000002,-5.4388857698,101
105525,178108,243073,7.7120672398000005,3.4157542615,-5.4939206895999995,102
105723,178111,243088,7.6091758679999995,3.3774690999,-5.4735816975,103
105910,178149,243123,7.5541409482,3.3332018818,-5.4388857698,104
106074,178110,243104,7.5960153436999995,3.4755748265,-5.395814963,105
106274,178178,243098,7.6905318364,3.4301111971,-5.4508498828,106
106440,178158,243123,7.6761749007999995,3.4444681327,-5.4891350444,107
106573,178161,243128,7.6917282476999995,3.4851461168999998,-5.5298130286000005,108
106777,178195,243162,7.621139981,3.3475588174,-5.4508498828,109
106992,178181,243108,7.6713892556,3.4229327293,-5.4963135121999995,110
107201,178173,243158,7.708478005899999,3.3332018818,-5.443671415,111
107069,178182,243130,7.637889739199999,3.4061829711000002,-5.3539405675,112
105946,178120,243105,7.6642107878,3.4504501892,-5.431707302,113
104533,178093,242993,7.6139615132000005,3.4169506728,-5.375475970899999,114
103800,178026,242948,7.637889739199999,3.4755748265,-5.363511857900001,115
103386,178022,242942,7.5625158273,3.4767712378,-5.479563754,116
103178,177995,242942,7.5960153436999995,3.3200413575,-5.3778687935,117
103119,177911,242942,7.621139981,3.4205399067,-5.3826544387,118
103185,178024,242962,7.621139981,3.5114671655,-5.4604211732,119
103527,178014,243012,7.7419775223,3.3810583338,-5.471188874899999,120
103925,178026,243022,7.5780691741999995,3.4408788988000003,-5.5226345608,121
104180,178064,243087,7.7276205867,3.2949167202,-5.4939206895999995,122
104321,178086,243072,7.7276205867,3.3475588174,-5.404189842099999,123
104335,178117,243083,7.7347990545,3.3367911156999996,-5.4388857698,124
104433,178112,243041,7.7036923607,3.4564322457,-5.277370244299999,125
104671,178150,243055,7.5996045776,3.3882368016,-5.4819565766,126
104881,178162,243101,7.6558359087,3.5162528107,-5.486742221799999,127
105141,178101,243149,7.6737820782,3.4552358344000003,-5.3491549223,128
105336,178140,243103,7.5601230047,3.3020951879999996,-5.4329037133,129
105640,178205,243164,7.6917282476999995,3.5796626096,-5.363511857900001,130
105847,178232,243214,7.6498538522,3.4301111971,-5.4604211732,131
105937,178241,243191,7.7276205867,3.4755748265,-5.5082776252,132
106193,178191,243202,7.6881390138,3.4660035360999997,-5.4412785924,133
106289,178301,243218,7.7946196195,3.4468609552999996,-5.4029934308,134
106562,178317,243184,7.612765101899999,3.4372896648999998,-5.491527867,135
106762,178351,243220,7.7012995381,3.4420753101,-5.458028350599999,136
106949,178291,243225,7.6965138929000005,3.314059301,-5.575276658,137
107163,178352,243238,7.539784012599999,3.3523444626,-5.486742221799999,138
107373,178384,243318,7.6366933279,3.4803604716999996,-5.5106704478,139
107561,178412,243274,7.645068207,3.4313076084,-5.4125647212,140
107768,178425,243318,7.6701928443,3.3774690999,-5.346762099699999,141
107942,178447,243304,7.5505517143,3.4995030524999997,-5.359922623999999,142
108136,178469,243279,7.6857461912,3.4420753101,-5.4604211732,143
108274,178451,243295,7.6701928443,3.4241291406,-5.4137611324999995,144
107769,178426,243255,7.5469624804,3.4313076084,-5.479563754,145
106393,178309,243161,7.5756763516,3.4145578502,-5.472385286200001,146
105228,178276,243129,7.6773713121,3.2877382523999996,-5.4233324229,147
104609,178228,243071,7.6761749007999995,3.337987527,-5.4747781088,148
104247,178207,243080,7.5996045776,3.3475588174,-5.455635527999999,149
104052,178189,243073,7.7994052647,3.3020951879999996,-5.515456093,150
103997,178192,243052,7.5385876013,3.3355947043999996,-5.4221360116,151
104101,178183,243124,7.6187471584,3.4360932536,-5.392225729100001,152
104417,178217,243083,7.7096744172000005,3.5497523270999998,-5.499902746099999,153
104649,178171,243114,7.6761749007999995,3.5138599880999997,-5.4771709314,154
104818,178206,243120,7.666603610399999,3.4660035360999997,-5.50349198,155
104827,178191,243122,7.514659375300001,3.4516466004999997,-5.5058848026,156
104911,178189,243104,7.5661050612,3.3200413575,-5.3934221404,157
105033,178277,243159,7.653443086099999,3.2853454298,-5.4006006081999995,158
105269,178291,243201,7.6749784895,3.4492537779,-5.3563333901,159
105426,178259,243170,7.7001031268,3.4552358344000003,-5.4747781088,160
105599,178260,243169,7.6713892556,3.3631121643,-5.5561340772,161
105796,178284,243204,7.6857461912,3.3702906320999997,-5.430510890700001,162
105996,178286,243207,7.7132636511,3.4552358344000003,-5.4484570602,163
106161,178275,243211,7.6654071991,3.3188449462,-5.4472606489,164
106340,178307,243175,7.7108708285,3.3786655112000004,-5.443671415,165
106458,178298,243215,7.5122665527,3.278166962,-5.3563333901,166
106610,178307,243216,7.6139615132000005,3.4552358344000003,-5.4496534715000005,167
106736,178338,243235,7.5385876013,3.3702906320999997,-5.4532427054,168
106942,178174,243194,7.5541409482,3.3834511564,-5.570491012800001,169
107028,178330,243256,7.5924261098,3.5066815203,-5.4747781088,170
107247,178334,243256,7.6079794567,3.3523444626,-5.4628139958,171
107396,178380,243223,7.6773713121,3.4301111971,-5.4293144793999994,172
107602,178365,243255,7.7276205867,3.4947174072999996,-5.5010991574000005,173
107794,178385,243330,7.5158557866,3.4803604716999996,-5.486742221799999,174
107603,178317,243241,7.7706913935,3.3236305914,-5.5226345608,175
106472,178285,243156,7.6630143765,3.5162528107,-5.392225729100001,176
105109,178241,243080,7.585247642000001,3.5258241011,-5.4616175845,177
104304,178176,243074,7.5924261098,3.4121650276000004,-5.4065826647,178
103811,178112,243019,7.6426753844,3.4492537779,-5.389832906500001,179
103516,178076,243033,7.624729214899999,3.3667013982,-5.472385286200001,180
103336,178004,242972,7.7012995381,3.4157542615,-5.4388857698,181
103264,178040,242973,7.597211754999999,3.3643085755999995,-5.4699924636,182
103518,178055,243035,7.6163543358,3.4911281734,-5.4137611324999995,183
103934,178067,243058,7.635496916599999,3.3690942208,-5.3682975031,184
104172,178093,243099,7.683353368600001,3.3212377687999997,-5.4508498828,185
104242,178118,243094,7.8017980873,3.5341989802,-5.455635527999999,186
104276,178091,243115,7.5326055448,3.3092736558,-5.4209396003000005,187
104249,178105,243056,7.6474610296,3.2793633733,-5.4149575438,188
104468,178121,243067,7.6055866341,3.3678978095,-5.472385286200001,189
104660,178059,243084,7.6821569573,3.3714870434,-5.4233324229,190
104855,178158,243126,7.7324062319,3.5138599880999997,-5.4951171009,191
105107,178148,243139,7.7036923607,3.4408788988000003,-5.4604211732,192
105318,178135,243140,7.746763167499999,3.3834511564,-5.472385286200001,193
105539,178225,243168,7.514659375300001,3.3332018818,-5.5106704478,194
105738,178179,243128,7.6498538522,3.4564322457,-5.3862436726,195
105917,178193,243170,7.7156564737,3.4121650276000004,-5.4484570602,196
106118,178254,243216,7.6905318364,3.3990045032999996,-5.5178489156,197
106290,178250,243220,7.6737820782,3.385843979,-5.417350366399999,198
106454,178255,243205,7.7706913935,3.4755748265,-5.4484570602,199
106634,178225,243198,7.7024959494,3.3774690999,-5.4640104071,200
106815,178240,243239,7.6103722793,3.445664544,-5.4125647212,201
107053,178264,243240,7.7132636511,3.3714870434,-5.4939206895999995,202
107214,178263,243225,7.6642107878,3.3810583338,-5.4819565766,203
106990,178186,243205,7.5673014725,3.3547372851999997,-5.4161539550999995,204
105740,178201,243121,7.65703232,3.3188449462,-5.5166525043000005,205
104360,178119,243082,7.6917282476999995,3.5700913192,-5.444867826299999,206
103702,178110,242998,7.5900332872,3.4432717214,-5.5106704478,207
103272,178041,243050,7.6402825618,3.4851461168999998,-5.3970113743,208
103065,178013,243005,7.6295148601000005,3.3224341800999997,-5.4604211732,209
102960,178030,242977,7.720442118899999,3.4887353508000003,-5.5142596817000005,210
103016,177960,243068,7.6031938115,3.3655049869,-5.443671415,211
103332,177971,243016,7.637889739199999,3.3726834547,-5.467599641,212
103695,178030,243093,7.6426753844,3.46959277,-5.4293144793999994,213
103904,177961,243070,7.6642107878,3.3930224468000003,-5.458028350599999,214
103942,178069,243084,7.6426753844,3.4313076084,-5.4221360116,215
104076,178133,243129,7.5780691741999995,3.4157542615,-5.407779076,216
104217,178109,243095,7.6319076827,3.4564322457,-5.3587262127,217
104356,178103,243102,7.7730842161,3.4002009146,-5.3706903257,218
104579,178009,243112,7.543373246500001,3.3499516399999996,-5.3659046805,219
104757,178100,243126,7.597211754999999,3.4049865597999998,-5.5621161337,220
105078,178088,243163,7.6235328036,3.3882368016,-5.6123654083000005,221
105369,178173,243166,7.6426753844,3.4049865597999998,-5.4017970195,222
105626,178172,243196,7.6199435697,3.6215370051,-5.528616617299999,223
105829,178190,243263,7.5804619967999995,3.46959277,-5.50349198,224
106016,178218,243270,7.556533770800001,3.397808092,-5.455635527999999,225
106229,178214,243275,7.645068207,3.5401810367,-5.4352965359,226
106360,178254,243262,7.6139615132000005,3.4121650276000004,-5.4628139958,227
106646,178183,243226,7.585247642000001,3.4301111971,-5.3802616161,228
106804,178246,243224,7.6941210703,3.3487552287,-5.430510890700001,229
106969,178287,243260,7.5541409482,3.2985059541,-5.443671415,230
107171,178290,243272,7.6163543358,3.3128628897,-5.5010991574000005,231
107291,178265,243259,7.5661050612,3.4636107135,-5.4472606489,232
106653,178245,243223,7.5278198996,3.3284162366,-5.4747781088,233
105267,178198,243163,7.549355303,3.4540394231000002,-5.3431728658,234
104304,178099,243133,7.6031938115,3.385843979,-5.4819565766,235
103752,178088,243036,7.7383882884,3.4432717214,-5.443671415,236
103409,178004,243043,7.597211754999999,3.4624143022,-5.4484570602,237
103280,178035,243019,7.6713892556,3.3930224468000003,-5.4341001246000005,238
103268,178015,243104,7.5158557866,3.5425738593,-5.5345986738,239
103460,177982,243076,7.6965138929000005,3.3846475676999996,-5.4065826647,240
103926,178019,243195,7.708478005899999,3.4121650276000004,-5.5178489156,241
104312,177970,243247,7.606783045399999,3.3092736558,-5.472385286200001,242
104478,178002,243190,7.6713892556,3.3355947043999996,-5.5202417382,243
104475,178069,243149,7.5924261098,3.4863425282,-5.4963135121999995,244
104393,178017,243139,7.6498538522,3.4432717214,-5.4568319393,245
104429,178022,243140,7.7443703449,3.4923245847,-5.4616175845,246
104574,178056,243209,7.7060851833,3.4480573666,-5.499902746099999,247
104873,178077,243192,7.573283529,3.3690942208,-5.467599641,248
105105,178154,243164,7.6630143765,3.314059301,-5.5106704478,249
105292,178166,243234,7.5469624804,3.3738798660000002,-5.5106704478,250
105513,178170,243173,7.6498538522,3.3044880106,-5.4544391167,251
105707,178182,243231,7.5517481256,3.4313076084,-5.5561340772,252
105895,178201,243243,7.4979096170999995,3.3762726886,-5.563312545,253
106080,178185,243267,7.633104094,3.4923245847,-5.479563754,254
106255,178250,243331,7.6654071991,3.3391839383,-5.4508498828,255
106446,178280,243297,7.637889739199999,3.4384860762,-5.3946185517,256
106621,178274,243317,7.6091758679999995,3.5365918028000003,-5.459224761900001,257
106822,178287,243322,7.5696942951,3.4360932536,-5.486742221799999,258
107014,178231,243326,7.653443086099999,3.4516466004999997,-5.5226345608,259
106946,178221,243313,7.5649086499,3.4121650276000004,-5.4257252455,260
105964,178191,243233,7.6486574409,3.4121650276000004,-5.3850472612999996,261
104551,178126,243178,7.6654071991,3.4755748265,-5.4939206895999995,262
103710,178057,243151,7.7659057483,3.5258241011,-5.486742221799999,263
103286,177996,243056,7.5924261098,3.4002009146,-5.5070812139,264
103016,178011,243036,7.6019974002,3.445664544,-5.539384319,265
102846,178023,243044,7.5637122386,3.4863425282,-5.50349198,266
102868,177968,243077,7.6809605460000006,3.4313076084,-5.4352965359,267
103142,177979,243093,7.654639497399999,3.3966116807,-5.4628139958,268
103531,178013,243118,7.597211754999999,3.3511480513,-5.5010991574000005,269
103772,178021,243114,7.7264241754,3.3308090592,-5.4652068183999996,270
103835,178042,243138,7.65703232,3.4899317621,-5.458028350599999,271
103866,178025,243117,7.683353368600001,3.3786655112000004,-5.4771709314,272
103959,178022,243136,7.5804619967999995,3.4636107135,-5.426921656799999,273
104160,178043,243130,7.4931239719,3.4157542615,-5.541777141600001,274
104320,178068,243148,7.6474610296,3.3643085755999995,-5.5369914964,275
104550,178061,243159,7.6941210703,3.4073793824000003,-5.4771709314,276
104750,178084,243210,7.667800021700001,3.4803604716999996,-5.4388857698,277
104963,178098,243200,7.6187471584,3.4073793824000003,-5.4771709314,278
105144,178102,243208,7.683353368600001,3.3391839383,-5.491527867,279
105330,178084,243207,7.668996433,3.4133614389,-5.426921656799999,280
105517,178130,243246,7.65703232,3.3798619225,-5.4412785924,281
105702,178167,243239,7.6307112714,3.4504501892,-5.458028350599999,282
105875,178200,243186,7.6283184488,3.4755748265,-5.3910293178,283
106011,178148,243252,7.622336392299999,3.3882368016,-5.426921656799999,284
106179,178189,243245,7.621139981,3.3762726886,-5.4987063348,285
106406,178102,243240,7.704888771999999,3.409772205,-5.513063270399999,286
106425,178193,243262,7.6749784895,3.4636107135,-5.4532427054,287
105508,178139,243199,7.488338326699999,3.421736318,-5.484349399199999,288
104137,178069,243135,7.6199435697,3.4193434953999997,-5.5645089563,289
103256,177998,243028,7.5541409482,3.4037901484999997,-5.4137611324999995,290
102791,177968,243002,7.5924261098,3.4480573666,-5.4640104071,291
102454,177959,242999,7.6594251426,3.4205399067,-5.4472606489,292
102331,177921,243006,7.637889739199999,3.4899317621,-5.4113683099,293
102351,177931,243049,7.585247642000001,3.4767712378,-5.5202417382,294
102653,177927,243085,7.6713892556,3.3762726886,-5.458028350599999,295
103065,177910,243076,7.716852885,3.4169506728,-5.334797986699999,296
103389,177930,243141,7.6642107878,3.3643085755999995,-5.4185467777000005,297
103482,177993,243095,7.639086150500001,3.4002009146,-5.4125647212,298
103579,177970,243093,7.570890706399999,3.409772205,-5.4771709314,299
103698,177945,243140,7.6713892556,3.5700913192,-5.515456093,300
103900,177957,243166,7.570890706399999,3.4791640604,-5.4484570602,301
104144,177931,243180,7.625925626199999,3.5353953915,-5.4412785924,302
104321,177977,243155,7.6402825618,3.4313076084,-5.4472606489,303
104485,177983,243160,7.573283529,3.4313076084,-5.444867826299999,304
104592,177974,243171,7.6019974002,3.4145578502,-5.404189842099999,305
104629,177996,243157,7.6235328036,3.5688949079,-5.4484570602,306
104625,177995,243140,7.6582287313,3.3702906320999997,-5.525027383399999,307
104789,178017,243151,7.4943203832,3.4061829711000002,-5.3946185517,308
104736,178030,243162,7.7144600624,3.4588250683,-5.3563333901,309
104937,178040,243175,7.6414789731,3.4839497056,-5.4747781088,310
105032,178070,243134,7.7347990545,3.3092736558,-5.3730831483,311
105171,178072,243140,7.4045895357,3.4277183745,-5.4807601652999995,312
105359,178080,243160,7.6343005053,3.4121650276000004,-5.491527867,313
105705,178102,243146,7.6917282476999995,3.3343982931,-5.4113683099,314
105779,178113,243181,7.606783045399999,3.5198420446,-5.4616175845,315
105012,178096,243117,7.6498538522,3.326023414,-5.443671415,316
103696,178035,243040,7.585247642000001,3.385843979,-5.446064237599999,317
102792,178039,243036,7.5984081663000005,3.4624143022,-5.472385286200001,318
102229,177984,242968,7.816155022899999,3.3068808331999997,-5.405386253400001,319
101942,177950,242904,7.819744256799999,3.3439695835000003,-5.4855458105,320
101744,177997,242940,7.6319076827,3.3499516399999996,-5.4089754873,321
101725,177934,242980,7.6761749007999995,3.3164521235999995,-5.4484570602,322
101954,177845,242953,7.6079794567,3.337987527,-5.4484570602,323
102322,177938,243042,7.6642107878,3.3272198253,-5.4699924636,324
102713,177950,243048,7.7922267969000005,3.3702906320999997,-5.3934221404,325
102830,177953,243015,7.5936225210999995,3.314059301,-5.458028350599999,326
102943,177959,243078,7.6713892556,3.3595229304,-5.3587262127,327
103030,177993,243030,7.6522466748,3.3906296242,-5.3012984703,328
103344,178005,243106,7.6821569573,3.4133614389,-5.431707302,329
103612,178003,243073,7.695317481599999,3.6095728921,-5.417350366399999,330
103891,178009,243111,7.7228349415,3.3439695835000003,-5.5728838354,331
104137,177964,243111,7.526623488299999,3.5234312785000004,-5.404189842099999,332
104347,178039,243165,7.6139615132000005,3.3475588174,-5.4364929472,333
104514,178064,243181,7.7347990545,3.3906296242,-5.4604211732,334
104842,178085,243177,7.6091758679999995,3.4253255519,-5.3671010918,335
105058,178084,243195,7.6809605460000006,3.4325040196999996,-5.4388857698,336
105243,178079,243212,7.6618179652,3.3547372851999997,-5.4412785924,337
105466,178177,243209,7.5696942951,3.4193434953999997,-5.4939206895999995,338
105661,178141,243171,7.728816998,3.3128628897,-5.4293144793999994,339
105832,178138,243265,7.7970124421,3.3930224468000003,-5.5094740364999994,340
106021,178150,243228,7.621139981,3.4624143022,-5.4735816975,341
106208,178195,243245,7.6713892556,3.2925238975999997,-5.419743189,342
106436,178201,243261,7.7312098206,3.2973095428,-5.426921656799999,343
106610,178219,243239,7.779066272600001,3.23031051,-5.4747781088,344
105904,178175,243208,7.6043902228,3.4660035360999997,-5.4747781088,345
104683,178111,243125,7.6462646183,3.337987527,-5.4616175845,346
103669,178043,243079,7.572087117700001,3.3738798660000002,-5.484349399199999,347
103094,178020,243007,7.6043902228,3.3762726886,-5.486742221799999,348
102775,178035,243060,7.5158557866,3.4360932536,-5.491527867,349
102642,178003,243079,7.5409804239,3.2949167202,-5.3611190353,350
102655,177948,243036,7.530212722199999,3.3834511564,-5.5070812139,351
102852,177965,243117,7.5828548194,3.4420753101,-5.359922623999999,352
103363,177950,243114,7.6426753844,3.3308090592,-5.3982077855999995,353
103676,178014,243154,7.7563344578999995,3.361915753,-5.4113683099,354
103806,178040,243157,7.530212722199999,3.4325040196999996,-5.4376893585,355
103827,178025,243186,7.459624455499999,3.4707891813,-5.491527867,356
103941,178035,243162,7.6809605460000006,3.433700431,-5.3371908093,357
104124,178001,243189,7.622336392299999,3.4600214796,-5.4245288342,358
104385,177953,243234,7.7551380466,3.4013973259,-5.4293144793999994,359
104584,178079,243238,7.6307112714,3.337987527,-5.4293144793999994,360
104917,178107,243242,7.721638530200001,3.4313076084,-5.5142596817000005,361
105110,178140,243259,7.573283529,3.457628657,-5.4604211732,362
105355,178163,243261,7.6019974002,3.4612178908999995,-5.4221360116,363
105522,178156,243266,7.4560352216,3.421736318,-5.4209396003000005,364
105738,178169,243250,7.6295148601000005,3.4073793824000003,-5.5740802467,365
105952,178145,243287,7.572087117700001,3.3451659948,-5.5465627868,366
106146,178143,243299,7.5625158273,3.2853454298,-5.4185467777000005,367
106266,178200,243301,7.6235328036,3.3966116807,-5.459224761900001,368
106322,178208,243281,7.5756763516,3.3631121643,-5.515456093,369
106601,178216,243258,7.6295148601000005,3.4193434953999997,-5.3778687935,370
106772,178239,243320,7.5912296985,3.3631121643,-5.4233324229,371
106981,178142,243320,7.5780691741999995,3.385843979,-5.446064237599999,372
106993,178245,243290,7.561319416,3.3702906320999997,-5.467599641,373
106131,178133,243208,7.7276205867,3.4049865597999998,-5.472385286200001,374
104722,178117,243169,7.679764134699999,3.3810583338,-5.4604211732,375
103798,178065,243106,7.6019974002,3.4325040196999996,-5.5058848026,376
103320,178008,243047,7.568497883799999,3.4983066412,-5.472385286200001,377
103005,177994,243037,7.6869426025,3.4516466004999997,-5.479563754,378
102867,177981,243027,7.733602643199999,3.3870403903,-5.5106704478,379
102887,177951,243066,7.6893354250999995,3.397808092,-5.4735816975,380
103108,177967,243105,7.585247642000001,3.3786655112000004,-5.5226345608,381
103518,178008,243149,7.6043902228,3.5246276898,-5.3730831483,382
103771,178066,243161,7.4668029232999995,3.3655049869,-5.484349399199999,383
103877,178060,243131,7.668996433,3.2386853891,-5.4388857698,384
103914,178044,243099,7.635496916599999,3.4420753101,-5.442475003699999,385
104020,178037,243143,7.651050263499999,3.5162528107,-5.3659046805,386
104174,178031,243149,7.5625158273,3.5222348672,-5.4209396003000005,387
104390,178018,243134,7.737191877099999,3.4145578502,-5.4412785924,388
104610,178049,243114,7.6749784895,3.5712877305000004,-5.487938633100001,389
104861,178091,243202,7.5948189324,3.3894332128999998,-5.4006006081999995,390
105074,178071,243168,7.7922267969000005,3.1274191382,-5.458028350599999,391
105294,178086,243161,7.5780691741999995,3.4301111971,-5.3671010918,392
105471,178139,243209,7.666603610399999,3.3571301077999998,-5.525027383399999,393
105633,178182,243253,7.654639497399999,3.4779676491,-5.50349198,394
105794,178165,243242,7.7383882884,3.421736318,-5.484349399199999,395
105975,178183,243230,7.6139615132000005,3.4731820039,-5.4484570602,396
106132,178223,243247,7.6701928443,3.3571301077999998,-5.5010991574000005,397
106299,178192,243214,7.6343005053,3.3212377687999997,-5.4604211732,398
106473,178222,243235,7.7192457076,3.3355947043999996,-5.4532427054,399
106667,178203,243227,7.668996433,3.3595229304,-5.5178489156,400
106893,178238,243255,7.6319076827,3.3212377687999997,-5.4699924636,401
107009,178231,243257,7.7515488127,3.2757741394,-5.541777141600001,402
107098,178224,243277,7.6594251426,3.5090743428999995,-5.3730831483,403
106242,178164,243189,7.637889739199999,3.3846475676999996,-5.363511857900001,404
104833,178086,243110,7.5661050612,3.5688949079,-5.4113683099,405
103881,178017,243084,7.612765101899999,3.4516466004999997,-5.3204410510999995,406
103350,178030,243045,7.6761749007999995,3.3714870434,-5.4149575438,407
103026,177964,242975,7.668996433,3.4193434953999997,-5.4652068183999996,408
102878,177956,242993,7.5756763516,3.3499516399999996,-5.467599641,409
102811,177946,243013,7.7575308692,3.3355947043999996,-5.431707302,410
103025,177939,242994,7.5888368759,3.4648071248,-5.4257252455,411
103427,177970,243119,7.639086150500001,3.4432717214,-5.4006006081999995,412
103710,178009,243114,7.635496916599999,3.4947174072999996,-5.4508498828,413
103813,178011,243107,7.6893354250999995,3.4121650276000004,-5.4329037133,414
103892,178011,243062,7.530212722199999,3.4803604716999996,-5.4149575438,415
104001,178000,243071,7.7108708285,3.4384860762,-5.430510890700001,416
104182,177940,243065,7.5924261098,3.3008987767,-5.4412785924,417
104313,178031,243144,7.612765101899999,3.4408788988000003,-5.4089754873,418
104587,178009,243164,7.7694949822,3.5353953915,-5.5082776252,419
104773,178058,243174,7.6008009889000006,3.397808092,-5.50349198,420
104996,178046,243170,7.7252277641000004,3.4408788988000003,-5.472385286200001,421
105190,178095,243185,7.5948189324,3.409772205,-5.4089754873,422
105379,178122,243198,7.5828548194,3.5186456333,-5.513063270399999,423
105497,178099,243216,7.6977103042,3.2889346637,-5.5345986738,424
105738,178116,243234,7.6893354250999995,3.3607193417,-5.389832906500001,425
105910,178100,243198,7.7539416353,3.4241291406,-5.479563754,426
106099,178143,243251,7.5804619967999995,3.2877382523999996,-5.426921656799999,427
106285,178104,243243,7.6486574409,3.3523444626,-5.4604211732,428
106451,178164,243242,7.7718878047999995,3.3882368016,-5.392225729100001,429
106612,178193,243225,7.5756763516,3.314059301,-5.541777141600001,430
106769,178217,243250,7.645068207,3.433700431,-5.4771709314,431
106893,178201,243210,7.645068207,3.4516466004999997,-5.4412785924,432
107082,178162,243258,7.7036923607,3.3894332128999998,-5.3778687935,433
107245,178246,243259,7.5996045776,3.4444681327,-5.3611190353,434
107005,178185,243188,7.5314091335,3.4468609552999996,-5.4137611324999995,435
105828,178112,243143,7.7096744172000005,3.3810583338,-5.4891350444,436
104505,178073,243058,7.7563344578999995,3.4301111971,-5.553741254599999,437
103748,177926,243046,7.635496916599999,3.3355947043999996,-5.3970113743,438
103263,177975,243010,7.6139615132000005,3.3954152694,-5.4747781088,439
103009,177965,242989,7.633104094,3.2291140987,-5.4388857698,440
102970,177942,243026,7.6402825618,3.5162528107,-5.539384319,441
103035,177970,242987,7.6414789731,3.397808092,-5.4113683099,442
103322,177944,243065,7.6941210703,3.3236305914,-5.4388857698,443
103688,178000,243092,7.6055866341,3.5449666819,-5.4987063348,444
103915,178014,243086,7.635496916599999,3.3966116807,-5.515456093,445
104032,178009,243096,7.7324062319,3.4444681327,-5.4831529879,446
104096,178015,243101,7.6713892556,3.3930224468000003,-5.4544391167,447
104202,178028,243090,7.6618179652,3.4504501892,-5.50349198,448
104365,178015,243138,7.606783045399999,3.3403803495999997,-5.4951171009,449
104540,178055,243099,7.6941210703,3.4839497056,-5.4101718986,450
104785,178056,243178,7.5661050612,3.3032915993,-5.479563754,451
105039,178094,243152,7.8017980873,3.3547372851999997,-5.458028350599999,452
105257,178106,243190,7.7108708285,3.4875389395,-5.4987063348,453
105488,178105,243197,7.6486574409,3.3834511564,-5.4101718986,454
105676,178085,243203,7.6187471584,3.4013973259,-5.4628139958,455
105882,178152,243216,7.4333034069,3.4193434953999997,-5.4341001246000005,456
106089,178152,243224,7.5924261098,3.4396824875,-5.566901778899999,457
106267,178179,243240,7.8077801438000005,3.4085757937,-5.4903314557,458
106454,178122,243261,7.6618179652,3.3080772444999997,-5.4329037133,459
106635,178257,243236,7.7156564737,3.5018958750999998,-5.5214381495,460
106878,178237,243336,7.6426753844,3.3403803495999997,-5.405386253400001,461
107032,178214,243271,7.5098737301,3.337987527,-5.5728838354,462
107238,178269,243246,7.5637122386,3.3415767608999998,-5.4341001246000005,463
107465,178265,243256,7.645068207,3.3882368016,-5.38385085,464
107694,178242,243321,7.597211754999999,3.4384860762,-5.5657053676,465
107916,178289,243311,7.5960153436999995,3.2470602682000003,-5.4341001246000005,466
107857,178264,243337,7.635496916599999,3.3439695835000003,-5.5369914964,467
106953,178251,243256,7.5589265934,3.4313076084,-5.484349399199999,468
105489,178119,243177,7.6785677234,3.4803604716999996,-5.513063270399999,469
104550,178082,243107,7.637889739199999,3.3954152694,-5.5322058512000005,470
104170,178079,243079,7.6857461912,3.4325040196999996,-5.515456093,471
103898,178085,243089,7.5481588917,3.2829526072,-5.388636495199999,472
103750,178045,243089,7.6881390138,3.290131075,-5.479563754,473
103724,178031,243073,7.6187471584,3.3284162366,-5.484349399199999,474
103958,177949,243097,7.6881390138,3.3415767608999998,-5.4891350444,475
104200,178097,243140,7.6426753844,3.3667013982,-5.4508498828,476
104428,178089,243161,7.645068207,3.4408788988000003,-5.458028350599999,477
104460,178098,243153,7.5673014725,3.4624143022,-5.4699924636,478
104490,178122,243119,7.7156564737,3.2985059541,-5.4771709314,479
104535,178152,243190,7.7826555065,3.4205399067,-5.5178489156,480
104737,178140,243195,7.6402825618,3.2853454298,-5.5106704478,481
104906,178132,243166,7.6618179652,3.3595229304,-5.3874400839,482
105099,178133,243178,7.667800021700001,3.5042886977,-5.5489556094,483
105323,178150,243195,7.6977103042,3.4420753101,-5.3419764545,484
105492,178163,243210,7.8699935314,3.3834511564,-5.4161539550999995,485
105709,178164,243205,7.5242306657,3.4660035360999997,-5.334797986699999,486
105870,178190,243220,7.858029418399999,3.4516466004999997,-5.4807601652999995,487
106040,178148,243189,7.5948189324,3.3439695835000003,-5.491527867,488
106179,178202,243245,7.6941210703,3.4899317621,-5.5082776252,489
106377,178253,243243,7.5122665527,3.3798619225,-5.5740802467,490
106560,178229,243233,7.7012995381,3.4301111971,-5.5082776252,491
106739,178252,243278,7.6414789731,3.4360932536,-5.4089754873,492
106838,178198,243225,7.6235328036,3.3762726886,-5.3730831483,493
106975,178152,243252,7.7240313528,3.2614172038,-5.3946185517,494
107168,178241,243195,7.6139615132000005,3.3655049869,-5.4699924636,495
107349,178252,243269,7.525427077,3.2709884942,-5.472385286200001,496
107240,178244,243245,7.6366933279,3.4229327293,-5.4819565766,497
106191,178188,243189,7.5086773188,3.3810583338,-5.3587262127,498
104863,178095,243089,7.695317481599999,3.4612178908999995,-5.553741254599999,499
104049,178036,243086,7.7599236918,3.4420753101,-5.4735816975,500
103608,177997,243005,7.6163543358,3.4085757937,-5.4699924636,501
103282,178003,243038,7.8065837325,3.4360932536,-5.426921656799999,502
103141,177998,243022,7.5828548194,3.3391839383,-5.467599641,503
103141,177967,243052,7.6414789731,3.4109686163,-5.4628139958,504
103380,177974,243050,7.637889739199999,3.3547372851999997,-5.4364929472,505
103748,177978,243084,7.667800021700001,3.2853454298,-5.3706903257,506
103981,177992,243068,7.4847490928,3.3966116807,-5.3276195189,507
104062,178029,243087,7.625925626199999,3.5365918028000003,-5.5489556094,508
104082,177980,243113,7.668996433,3.4600214796,-5.479563754,509
104194,177933,243069,7.8927253461,3.3523444626,-5.5058848026,510
104396,178034,243077,7.4787670363,3.4169506728,-5.3742795596,511
104546,178060,243127,7.6857461912,3.3655049869,-5.430510890700001,512
104785,178097,243142,7.7395846997,3.4025937372,-5.455635527999999,513
105016,178076,243142,7.5900332872,3.4971102299,-5.4125647212,514
105214,178089,243157,7.6941210703,3.4660035360999997,-5.50349198,515
105402,178106,243150,7.6881390138,3.4600214796,-5.446064237599999,516
105594,178099,243201,7.6008009889000006,3.4145578502,-5.5082776252,517
105796,178159,243164,7.6091758679999995,3.4002009146,-5.3862436726,518
105981,178133,243204,7.4691957459,3.361915753,-5.513063270399999,519
106122,178159,243248,7.635496916599999,3.3690942208,-5.395814963,520
106282,178179,243178,7.728816998,3.4432717214,-5.4747781088,521
106454,178171,243188,7.5326055448,3.3786655112000004,-5.3982077855999995,522
106630,178188,243189,7.6307112714,3.5234312785000004,-5.563312545,523
106774,178253,243241,7.6139615132000005,3.3954152694,-5.5573304885,524
106936,178210,243234,7.718049296299999,3.4827532943,-5.4939206895999995,525
107140,178259,243249,7.6594251426,3.3906296242,-5.4245288342,526
107341,178233,243240,7.7060851833,3.3990045032999996,-5.3539405675,527
107034,178232,243224,7.6522466748,3.3906296242,-5.5334022625,528
105820,178139,243119,7.7443703449,3.3762726886,-5.4341001246000005,529
104522,178042,243047,7.6917282476999995,3.4480573666,-5.4257252455,530
103757,178013,243045,7.5481588917,3.3906296242,-5.513063270399999,531
103365,177950,243004,7.7431739336,3.3272198253,-5.467599641,532
103088,177922,242999,7.6642107878,3.4085757937,-5.4508498828,533
102966,177927,242991,7.6642107878,3.3499516399999996,-5.491527867,534
103004,177926,242992,7.6881390138,3.4396824875,-5.4520462941,535
103257,177906,243011,7.6737820782,3.3547372851999997,-5.513063270399999,536
103605,177949,243074,7.7659057483,3.5641092626999997,-5.446064237599999,537
103758,177921,243066,7.6917282476999995,3.3547372851999997,-5.4245288342,538
103811,177969,243041,7.7060851833,3.4265219632000004,-5.5441699642,539
103827,177939,243031,7.7898339743,3.3355947043999996,-5.419743189,540
103954,177945,243080,7.7012995381,3.4241291406,-5.458028350599999,541
104122,178002,243071,7.6977103042,3.3798619225,-5.419743189,542
104365,178006,243095,7.667800021700001,3.3667013982,-5.4221360116,543
104602,178036,243092,7.6594251426,3.3164521235999995,-5.4616175845,544
104803,177969,243158,7.7874411516999995,3.4073793824000003,-5.4508498828,545
104987,178071,243102,7.5218378431,3.337987527,-5.431707302,546
105196,178074,243137,7.5661050612,3.3631121643,-5.4819565766,547
105387,178096,243155,7.6642107878,3.4121650276000004,-5.4400821811,548
105605,178103,243156,7.606783045399999,3.409772205,-5.4412785924,549
105812,178104,243166,7.637889739199999,3.4528430117999998,-5.5094740364999994,550
106009,178132,243168,7.654639497399999,3.3092736558,-5.4759745201,551
106204,178153,243180,7.5661050612,3.4133614389,-5.4113683099,552
106406,178123,243218,7.7563344578999995,3.3631121643,-5.4747781088,553
106542,178153,243160,7.667800021700001,3.4145578502,-5.5202417382,554
106677,178175,243221,7.5637122386,3.4253255519,-5.4640104071,555
106929,178064,243217,7.5984081663000005,3.3738798660000002,-5.4735816975,556
107079,178209,243224,7.7096744172000005,3.2949167202,-5.5202417382,557
107314,178203,243216,7.5409804239,3.4002009146,-5.4484570602,558
107044,178221,243192,7.5673014725,3.445664544,-5.4963135121999995,559
105811,178086,243135,7.625925626199999,3.4085757937,-5.5298130286000005,560
104543,178056,243051,7.6283184488,3.3044880106,-5.4687960523,561
103960,178029,242975,7.511070141399999,3.3750762773,-5.4939206895999995,562
103531,177960,243006,7.637889739199999,3.5042886977,-5.4364929472,563
103279,177956,243008,7.6008009889000006,3.397808092,-5.541777141600001,564
103129,177895,242991,7.572087117700001,3.4384860762,-5.4161539550999995,565
103176,177936,243026,7.5601230047,3.5138599880999997,-5.3527441562,566
103481,177959,243080,7.6019974002,3.3882368016,-5.3730831483,567
103839,177947,243087,7.6486574409,3.2997023654,-5.4101718986,568
103993,177980,243088,7.570890706399999,3.4061829711000002,-5.4496534715000005,569
104020,177990,243077,7.5637122386,3.3954152694,-5.5369914964,570
104071,177991,243065,7.4811598589,3.4827532943,-5.486742221799999,571
104191,177998,243051,7.7096744172000005,3.3308090592,-5.459224761900001,572
104375,178030,243124,7.668996433,3.1776684127999997,-5.4472606489,573
104587,178027,243124,7.6019974002,3.3846475676999996,-5.484349399199999,574
104793,178052,243105,7.5637122386,3.3750762773,-5.5345986738,575
105004,178101,243117,7.5170521979,3.3547372851999997,-5.4185467777000005,576
105221,178080,243181,7.5828548194,3.4444681327,-5.4484570602,577
105400,178019,243195,7.785048329099999,3.3272198253,-5.5322058512000005,578
105522,178120,243167,7.6773713121,3.3248270027,-5.525027383399999,579
105736,178137,243192,7.6893354250999995,3.2853454298,-5.4747781088,580
105932,178119,243185,7.6713892556,3.4277183745,-5.4747781088,581
106093,178147,243236,7.667800021700001,3.4779676491,-5.5058848026,582
106269,178117,243187,7.6271220375,3.326023414,-5.5357950851,583
106440,178188,243215,7.5673014725,3.3571301077999998,-5.4891350444,584
106570,178159,243208,7.6594251426,3.4205399067,-5.5058848026,585
106769,178178,243240,7.6271220375,3.3918260355000003,-5.4161539550999995,586
106993,178202,243217,7.6737820782,3.337987527,-5.5884371823,587
106834,178224,243218,7.6163543358,3.3846475676999996,-5.5357950851,588
105775,178165,243152,7.764709337,3.4205399067,-5.4400821811,589
104406,178021,243034,7.667800021700001,3.3834511564,-5.3730831483,590
103596,177901,243034,7.6989067155,3.4612178908999995,-5.3730831483,591
103113,177914,242930,7.5924261098,3.3643085755999995,-5.5010991574000005,592
102786,177892,242960,7.7120672398000005,3.4205399067,-5.3826544387,593
102718,177864,242933,7.530212722199999,3.4624143022,-5.4341001246000005,594
102706,177855,243000,7.526623488299999,3.326023414,-5.4759745201,595
102950,177824,243030,7.6773713121,3.2877382523999996,-5.5226345608,596
103279,177902,243032,7.65703232,3.3547372851999997,-5.4544391167,597
103467,177878,242988,7.6857461912,3.3786655112000004,-5.4640104071,598
103622,177853,243054,7.6785677234,3.3954152694,-5.513063270399999,599
103683,177886,242987,7.6965138929000005,3.4133614389,-5.515456093,600
103787,177889,243012,7.6977103042,3.2638100264,-5.4807601652999995,601
103951,177924,243044,7.6785677234,3.3296126479000003,-5.4664032297,602
104149,177846,243053,7.6905318364,3.4253255519,-5.5010991574000005,603
104279,177957,243101,7.7455667562,3.2973095428,-5.375475970899999,604
104570,177959,243123,7.6115686905999995,3.3212377687999997,-5.4472606489,605
104768,177984,243096,7.7096744172000005,3.337987527,-5.389832906500001,606
104976,177997,243104,7.5996045776,3.4073793824000003,-5.4652068183999996,607
105158,178030,243122,7.7826555065,3.290131075,-5.4652068183999996,608
105321,178026,243150,7.6905318364,3.4145578502,-5.486742221799999,609
105525,178007,243176,7.6091758679999995,3.2877382523999996,-5.5058848026,610
105699,178045,243198,7.7814590952,3.3523444626,-5.479563754,611
105900,178079,243142,7.704888771999999,3.4013973259,-5.479563754,612
106072,178048,243177,7.606783045399999,3.4049865597999998,-5.3826544387,613
106257,178128,243211,7.5876404646,3.4360932536,-5.4747781088,614
106473,178111,243175,7.7706913935,3.3523444626,-5.5298130286000005,615
106652,178095,243177,7.5074809075,3.3834511564,-5.446064237599999,616
106763,178094,243218,7.6558359087,3.3954152694,-5.458028350599999,617
106043,178070,243153,7.695317481599999,3.3044880106,-5.431707302,618
104683,177979,243101,7.501498850999999,3.3774690999,-5.4484570602,619
103701,177901,242944,7.651050263499999,3.3367911156999996,-5.3742795596,620
103166,177835,242963,7.625925626199999,3.2865418411,-5.575276658,621
102857,177790,242951,7.5589265934,3.3643085755999995,-5.513063270399999,622
102688,177788,242910,7.5218378431,3.3571301077999998,-5.4759745201,623
102668,177762,242964,7.7096744172000005,3.3822547451,-5.4245288342,624
102850,177740,242948,7.5996045776,3.4121650276000004,-5.4819565766,625
103243,177779,242973,7.7922267969000005,3.4540394231000002,-5.3874400839,626
103476,177835,242997,7.651050263499999,3.5270205124,-5.50349198,627
103689,177806,242997,7.7419775223,3.3104700671000002,-5.491527867,628
103628,177822,242994,7.6486574409,3.4624143022,-5.4496534715000005,629
103829,177837,243017,7.653443086099999,3.4325040196999996,-5.4819565766,630
103968,177850,243016,7.7347990545,3.3595229304,-5.4819565766,631
104174,177855,243046,7.654639497399999,3.3403803495999997,-5.4568319393,632
104402,177871,243079,7.556533770800001,3.3308090592,-5.5525448433,633
104656,177918,243112,7.6163543358,3.4660035360999997,-5.472385286200001,634
104894,177961,243089,7.8077801438000005,3.3834511564,-5.458028350599999,635
105093,177987,243100,7.667800021700001,3.4049865597999998,-5.4388857698,636
105198,177980,243071,7.5517481256,3.457628657,-5.484349399199999,637
105485,177982,243181,7.6366933279,3.4564322457,-5.50349198,638
105572,178005,243141,7.750352401400001,3.3690942208,-5.442475003699999,639
105863,177936,243144,7.7395846997,3.2793633733,-5.5118668590999995,640
105962,178037,243154,7.6893354250999995,3.4803604716999996,-5.3970113743,641
106235,178041,243173,7.651050263499999,3.3918260355000003,-5.3706903257,642
106394,178079,243162,7.5601230047,3.3738798660000002,-5.50349198,643
106617,178094,243201,7.7120672398000005,3.4612178908999995,-5.5298130286000005,644
106725,178089,243186,7.6019974002,3.3547372851999997,-5.5202417382,645
106401,178074,243166,7.6366933279,3.3284162366,-5.4652068183999996,646
105191,178037,243048,7.622336392299999,3.3906296242,-5.472385286200001,647
104056,177889,242975,7.7563344578999995,3.46959277,-5.4388857698,648
103492,177928,242929,7.7120672398000005,3.3332018818,-5.5298130286000005,649
103154,177821,242915,7.7479595788,3.4612178908999995,-5.4364929472,650
102917,177773,242930,7.6079794567,3.3284162366,-5.4484570602,651
102858,177801,242956,7.6175507471,3.4731820039,-5.4819565766,652
102955,177762,242975,7.6307112714,3.409772205,-5.5441699642,653
103295,177785,242950,7.7718878047999995,3.3834511564,-5.5058848026,654
103544,177816,243005,7.6654071991,3.3451659948,-5.5357950851,655
103751,177831,243040,7.6642107878,3.3559336964999997,-5.458028350599999,656
103784,177730,243041,7.6151579245,3.3655049869,-5.4975099235,657
103811,177789,242976,7.5768727629,3.3212377687999997,-5.4963135121999995,658
103969,177838,243021,7.6917282476999995,3.3643085755999995,-5.4233324229,659
104150,177869,243033,7.7036923607,3.3559336964999997,-5.4221360116,660
104341,177865,243025,7.6414789731,3.3930224468000003,-5.5046883913,661
104580,177904,243075,7.704888771999999,3.4396824875,-5.3671010918,662
104771,177940,243066,7.6857461912,3.4133614389,-5.541777141600001,663
104982,177953,243093,7.7599236918,3.4492537779,-5.513063270399999,664
105133,177965,243113,7.7144600624,3.3966116807,-5.4855458105,665
105279,177960,243106,7.651050263499999,3.4037901484999997,-5.5298130286000005,666
105575,177963,243103,7.668996433,3.3810583338,-5.446064237599999,667
105723,177976,243143,7.8257263133,3.4002009146,-5.513063270399999,668
105886,177974,243162,7.740781111,3.4588250683,-5.553741254599999,669
106051,177998,243163,7.6498538522,3.4683963587,-5.4125647212,670
106283,178008,243157,7.7431739336,3.4002009146,-5.442475003699999,671
106413,177999,243166,7.7228349415,3.4205399067,-5.4939206895999995,672
106262,178011,243113,7.6773713121,3.3750762773,-5.3682975031,673
105113,177939,243025,7.6821569573,3.3343982931,-5.5082776252,674
103885,177814,242946,7.6402825618,3.3403803495999997,-5.4496534715000005,675
103169,177785,242930,7.7599236918,3.4301111971,-5.4987063348,676
102748,177779,242911,7.704888771999999,3.4325040196999996,-5.4747781088,677
102495,177735,242911,7.568497883799999,3.3212377687999997,-5.4388857698,678
102388,177672,242899,7.6821569573,3.5186456333,-5.4329037133,679
102417,177680,242942,7.6941210703,3.3236305914,-5.5058848026,680
102728,177694,242927,7.606783045399999,3.2997023654,-5.446064237599999,681
103154,177625,242943,7.6426753844,3.2793633733,-5.467599641,682
103368,177750,242960,7.6642107878,3.3116664784,-5.479563754,683
103438,177717,242981,7.720442118899999,3.4504501892,-5.4699924636,684
103518,177744,242990,7.718049296299999,3.3224341800999997,-5.4963135121999995,685
103650,177769,243011,7.5804619967999995,3.3451659948,-5.4747781088,686
103833,177785,243008,7.654639497399999,3.337987527,-5.4628139958,687
104061,177814,243042,7.6271220375,3.3798619225,-5.4245288342,688
104308,177830,243031,7.556533770800001,3.3786655112000004,-5.5082776252,689
104566,177734,243036,7.7060851833,3.4121650276000004,-5.4604211732,690
104766,177878,243098,7.7108708285,3.409772205,-5.4388857698,691
104976,177885,243056,7.6821569573,3.337987527,-5.5178489156,692
105173,177839,243123,7.8400832489,3.3678978095,-5.4137611324999995,693
105375,177879,243132,7.6307112714,3.3643085755999995,-5.5489556094,694
105587,177940,243163,7.6474610296,3.3188449462,-5.3970113743,695
105778,177937,243208,7.6881390138,3.4109686163,-5.5345986738,696
105949,177952,243138,7.6163543358,3.3786655112000004,-5.525027383399999,697
106131,177970,243161,7.6522466748,3.385843979,-5.4747781088,698
106340,177979,243145,7.5828548194,3.2925238975999997,-5.5597233111,699
106563,177993,243164,7.5900332872,3.4408788988000003,-5.467599641,700
106404,178003,243149,7.6414789731,3.2123643404999997,-5.4161539550999995,701
105314,177928,243111,7.735995465799999,3.2243284535,-5.389832906500001,702
104018,177796,242952,7.635496916599999,3.337987527,-5.4233324229,703
103261,177691,242941,7.6486574409,3.4253255519,-5.5082776252,704
102820,177720,242896,7.6498538522,3.3164521235999995,-5.4257252455,705
102554,177684,242885,7.597211754999999,3.3032915993,-5.458028350599999,706
102442,177670,242941,7.6474610296,3.4013973259,-5.407779076,707
102414,177685,242924,7.5744799403,3.4169506728,-5.446064237599999,708
102815,177648,242909,7.633104094,3.2769705507,-5.4233324229,709
103224,177690,242991,7.6881390138,3.4145578502,-5.484349399199999,710
103357,177726,242965,7.5326055448,3.3882368016,-5.4400821811,711
103544,177716,243010,7.7994052647,3.4145578502,-5.5680981902,712
103623,177703,242977,7.7575308692,3.3954152694,-5.4963135121999995,713
103723,177724,243003,7.6486574409,3.3702906320999997,-5.5010991574000005,714
103923,177773,243049,7.704888771999999,3.3092736558,-5.4376893585,715
104161,177769,243004,7.77667345,3.3822547451,-5.392225729100001,716
104339,177777,243098,7.7060851833,3.3571301077999998,-5.4137611324999995,717
104626,177829,243077,7.7838519178,3.397808092,-5.570491012800001,718
104848,177835,243104,7.654639497399999,3.3894332128999998,-5.4388857698,719
105049,177850,243121,7.7060851833,3.3523444626,-5.487938633100001,720
105239,177887,243093,7.561319416,3.4229327293,-5.444867826299999,721
105441,177883,243140,7.606783045399999,3.4360932536,-5.479563754,722
105643,177891,243173,7.621139981,3.3786655112000004,-5.4209396003000005,723
105858,177938,243148,7.7060851833,3.3236305914,-5.431707302,724
106078,177833,243158,7.5122665527,3.3463624061,-5.4819565766,725
106168,177958,243177,7.5409804239,3.1872397032,-5.5178489156,726
106404,177917,243189,7.5481588917,3.3894332128999998,-5.4891350444,727
106605,177946,243212,7.5625158273,3.4911281734,-5.5082776252,728
106834,178016,243197,7.6977103042,3.4049865597999998,-5.5082776252,729
106992,178015,243163,7.5828548194,3.3583265191000002,-5.4341001246000005,730
106592,177973,243183,7.5601230047,3.4229327293,-5.4149575438,731
105245,177901,243058,7.6486574409,3.4504501892,-5.50349198,732
104086,177816,242990,7.6594251426,3.4002009146,-5.4628139958,733
103478,177650,242919,7.6606215538999995,3.3810583338,-5.459224761900001,734
103067,177730,242928,7.654639497399999,3.3092736558,-5.4652068183999996,735
102875,177701,242866,7.6043902228,3.3990045032999996,-5.5573304885,736
102814,177654,242967,7.625925626199999,3.3451659948,-5.4783673427,737
102925,177669,242987,7.5637122386,3.3571301077999998,-5.4735816975,738
103296,177629,242946,7.543373246500001,3.2362925665,-5.4065826647,739
103637,177717,243012,7.637889739199999,3.3643085755999995,-5.4149575438,740
103765,177716,242979,7.6031938115,3.3308090592,-5.4137611324999995,741
103936,177725,243008,7.683353368600001,3.2841490185,-5.4532427054,742
103954,177770,242990,7.6821569573,3.493520996,-5.4221360116,743
104171,177750,242995,7.6582287313,3.3152557123,-5.4652068183999996,744
104377,177787,243063,7.6785677234,3.23031051,-5.3874400839,745
104640,177846,243076,7.6019974002,3.3415767608999998,-5.5010991574000005,746
104866,177838,243061,7.625925626199999,3.3870403903,-5.4341001246000005,747
105131,177752,243091,7.6307112714,3.3571301077999998,-5.4161539550999995,748
105379,177899,243129,7.637889739199999,3.4133614389,-5.4927242783,749
105558,177916,243121,7.7240313528,3.3966116807,-5.4759745201,750
105808,177969,243168,7.6019974002,3.3894332128999998,-5.5812587145,751
105957,177935,243174,7.763512925700001,3.3212377687999997,-5.472385286200001,752
106187,177907,243159,7.5589265934,3.266202849,-5.426921656799999,753
106352,177964,243186,7.6175507471,3.3535408739,-5.3970113743,754
106616,178011,243193,7.6235328036,3.4528430117999998,-5.487938633100001,755
106803,177982,243208,7.495516794499999,3.4325040196999996,-5.4185467777000005,756
107014,177962,243184,7.666603610399999,3.3164521235999995,-5.499902746099999,757
107172,178032,243200,7.6654071991,3.4468609552999996,-5.4221360116,758
107341,178044,243192,7.6941210703,3.3439695835000003,-5.4089754873,759
107593,178058,243187,7.5804619967999995,3.4205399067,-5.4735816975,760
107338,178050,243189,7.6869426025,3.46959277,-5.4699924636,761
106224,177916,243128,7.6713892556,3.3667013982,-5.525027383399999,762
104855,177877,243013,7.7012995381,3.3427731722,-5.4891350444,763
104097,177844,242977,7.6486574409,3.3822547451,-5.4352965359,764
103745,177787,242965,7.7096744172000005,3.2733813167999997,-5.5106704478,765
103494,177774,242956,7.6307112714,3.4325040196999996,-5.50349198,766
103379,177742,243008,7.7431739336,3.3930224468000003,-5.4963135121999995,767
103469,177757,242950,7.6115686905999995,3.3523444626,-5.5334022625,768
103809,177775,242991,7.7347990545,3.4540394231000002,-5.5609197224,769
104215,177789,243030,7.6139615132000005,3.4444681327,-5.5621161337,770
104370,177807,243034,7.720442118899999,3.4193434953999997,-5.404189842099999,771
104437,177818,243046,7.635496916599999,3.4121650276000004,-5.479563754,772
104502,177829,243011,7.6893354250999995,3.2733813167999997,-5.4831529879,773
104633,177835,243074,7.6737820782,3.3954152694,-5.419743189,774
104850,177820,243085,7.5948189324,3.5186456333,-5.5094740364999994,775
105072,177897,243086,7.5876404646,3.3332018818,-5.4544391167,776
105299,177869,243113,7.5912296985,3.4145578502,-5.5860443597,777
105465,177917,243112,7.5661050612,3.4648071248,-5.4855458105,778
105740,177943,243128,7.708478005899999,3.2685956716,-5.5345986738,779
105907,177946,243132,7.6522466748,3.278166962,-5.4532427054,780
106094,177962,243153,7.704888771999999,3.4002009146,-5.426921656799999,781
106270,177989,243153,7.633104094,3.3930224468000003,-5.4376893585,782
106463,178045,243182,7.6606215538999995,3.3439695835000003,-5.5800623032,783
106654,178017,243152,7.7036923607,3.3523444626,-5.4891350444,784
106796,178018,243189,7.6893354250999995,3.3607193417,-5.5980084727,785
106943,178048,243160,7.5828548194,3.3595229304,-5.50349198,786
107167,178045,243184,7.7324062319,3.3547372851999997,-5.4388857698,787
107353,178062,243202,7.7156564737,3.4540394231000002,-5.4747781088,788
107055,178080,243142,7.5816584081,3.4516466004999997,-5.486742221799999,789
105706,177948,243083,7.6965138929000005,3.4636107135,-5.4484570602,790
104417,177780,242992,7.5637122386,3.3870403903,-5.5322058512000005,791
103694,177820,242936,7.606783045399999,3.3320054705,-5.4484570602,792
103209,177746,242938,7.5960153436999995,3.361915753,-5.4400821811,793
102980,177739,242913,7.728816998,3.2458638569,-5.50349198,794
102826,177728,242902,7.5996045776,3.4169506728,-5.4089754873,795
102893,177706,242920,7.5637122386,3.3020951879999996,-5.4089754873,796
103220,177724,242966,7.6869426025,3.3882368016,-5.4819565766,797
103600,177743,243028,7.7132636511,3.3499516399999996,-5.4161539550999995,798
103762,177727,242961,7.597211754999999,3.3894332128999998,-5.446064237599999,799
103846,177749,243007,7.7036923607,3.3834511564,-5.4987063348,800
103897,177741,243012,7.6103722793,3.3714870434,-5.4496534715000005,801
103938,177751,243023,7.5098737301,3.4253255519,-5.4101718986,802
104226,177776,242997,7.624729214899999,3.3954152694,-5.431707302,803
104421,177784,243034,7.6977103042,3.4301111971,-5.5345986738,804
104665,177841,243082,7.7419775223,3.4301111971,-5.458028350599999,805
104926,177887,243090,7.716852885,3.4013973259,-5.515456093,806
105141,177919,243093,7.6175507471,3.4683963587,-5.4137611324999995,807
105344,177914,243109,7.6881390138,3.4396824875,-5.4376893585,808
105521,177933,243110,7.568497883799999,3.4157542615,-5.4963135121999995,809
105742,177937,243138,7.6474610296,3.3954152694,-5.479563754,810
105951,177916,243142,7.5589265934,3.4133614389,-5.455635527999999,811
106120,177939,243163,7.8376904263,3.4396824875,-5.3778687935,812
106282,177936,243149,7.621139981,3.4995030524999997,-5.513063270399999,813
106444,177991,243130,7.668996433,3.4037901484999997,-5.375475970899999,814
106630,178015,243118,7.6642107878,3.3547372851999997,-5.4939206895999995,815
106892,178009,243125,7.7587272805,3.3463624061,-5.539384319,816
106910,177954,243162,7.6163543358,3.4432717214,-5.5202417382,817
106097,177907,243095,7.637889739199999,3.3990045032999996,-5.3778687935,818
104641,177829,242994,7.6414789731,3.2925238975999997,-5.5788658919,819
103651,177754,242950,7.6917282476999995,3.3164521235999995,-5.5118668590999995,820
103084,177733,242881,7.621139981,3.361915753,-5.4963135121999995,821
102767,177707,242916,7.7060851833,3.4552358344000003,-5.5106704478,822
102521,177655,242915,7.7252277641000004,3.3427731722,-5.4891350444,823
102569,177672,242905,7.5996045776,3.4947174072999996,-5.4699924636,824
102783,177644,242909,7.5924261098,3.3954152694,-5.479563754,825
103218,177709,242978,7.7599236918,3.4504501892,-5.455635527999999,826
103528,177746,242991,7.6965138929000005,3.3726834547,-5.4209396003000005,827
103619,177718,242995,7.7563344578999995,3.3236305914,-5.443671415,828
103651,177723,242984,7.584051230699999,3.3056844219,-5.515456093,829
103778,177728,243056,7.621139981,3.4707891813,-5.4101718986,830
103938,177759,243029,7.5792655855,3.4779676491,-5.4185467777000005,831
104122,177715,243015,7.7132636511,3.3092736558,-5.459224761900001,832
104372,177835,243021,7.7228349415,3.2925238975999997,-5.6171510535,833
104648,177830,243064,7.692924659,3.2805597846,-5.484349399199999,834
104829,177832,243022,7.7958160308,3.314059301,-5.4412785924,835
104985,177882,243081,7.7898339743,3.5018958750999998,-5.471188874899999,836
105269,177815,243086,7.7312098206,3.4863425282,-5.50349198,837
105409,177858,243078,7.666603610399999,3.3451659948,-5.3336015753999995,838
105675,177943,243131,7.65703232,3.4588250683,-5.4137611324999995,839
105890,177883,243097,7.6199435697,3.4205399067,-5.4699924636,840
106048,177886,243105,7.844868894099999,3.409772205,-5.5106704478,841
106225,177929,243136,7.7563344578999995,3.3786655112000004,-5.4819565766,842
106406,177964,243097,7.539784012599999,3.2542387359999996,-5.4891350444,843
106573,177959,243159,7.7431739336,3.3954152694,-5.3790652048,844
106775,177981,243151,7.5577301821,3.314059301,-5.5609197224,845
106977,178021,243138,7.5924261098,3.3427731722,-5.4903314557,846
106959,177965,243124,7.6977103042,3.2638100264,-5.486742221799999,847
105977,177935,243083,7.6426753844,3.4265219632000004,-5.4628139958,848
104568,177814,242974,7.6295148601000005,3.3571301077999998,-5.419743189,849
103637,177727,242938,7.6713892556,3.3236305914,-5.5274202059999995,850
103125,177732,242867,7.6701928443,3.4372896648999998,-5.4699924636,851
102847,177690,242920,7.5696942951,3.2721849055,-5.4699924636,852
102697,177721,242896,7.6701928443,3.3415767608999998,-5.5142596817000005,853
102706,177644,242920,7.7060851833,3.3834511564,-5.471188874899999,854
102946,177548,242923,7.7515488127,3.3726834547,-5.479563754,855
103268,177679,242952,7.7862447404,3.3846475676999996,-5.4819565766,856
103665,177678,242987,7.6462646183,3.3595229304,-5.4759745201,857
103776,177724,242935,7.6701928443,3.337987527,-5.4987063348,858
103871,177740,242971,7.6654071991,3.3092736558,-5.388636495199999,859
103989,177722,242950,7.5828548194,3.3738798660000002,-5.5322058512000005,860
104187,177744,243007,7.7252277641000004,3.4504501892,-5.4699924636,861
104409,177832,242993,7.654639497399999,3.4109686163,-5.442475003699999,862
104690,177838,243000,7.5864440533,3.3487552287,-5.4364929472,863
104936,177838,243062,7.667800021700001,3.3643085755999995,-5.405386253400001,864
105192,177909,243025,7.720442118899999,3.3894332128999998,-5.4341001246000005,865
105401,177899,243076,7.6426753844,3.3439695835000003,-5.3802616161,866
105610,177890,243090,7.6642107878,3.4360932536,-5.395814963,867
105810,177865,243085,7.5780691741999995,3.3559336964999997,-5.4747781088,868
106002,177946,243099,7.6654071991,3.4372896648999998,-5.4017970195,869
106271,177987,243107,7.6295148601000005,3.3116664784,-5.5274202059999995,870
106433,177946,243124,7.5529445369,3.361915753,-5.4735816975,871
106636,177972,243131,7.8209406681,3.4420753101,-5.4771709314,872
106820,177973,243159,7.721638530200001,3.4265219632000004,-5.539384319,873
107018,177999,243112,7.6474610296,3.3822547451,-5.459224761900001,874
107240,178019,243156,7.7024959494,3.4241291406,-5.458028350599999,875
107472,178013,243163,7.7024959494,3.2805597846,-5.541777141600001,876
107647,178027,243157,7.5290163108999995,3.541377448,-5.4903314557,877
107238,178020,243080,7.7300134093,3.3643085755999995,-5.4628139958,878
105902,177844,243033,7.7144600624,3.3547372851999997,-5.443671415,879
104640,177849,242970,7.7706913935,3.3954152694,-5.4065826647,880
104047,177763,242923,7.7001031268,3.2721849055,-5.4807601652999995,881
103680,177806,242898,7.7132636511,3.2925238975999997,-5.442475003699999,882
103460,177795,242893,7.7970124421,3.4528430117999998,-5.4783673427,883
103408,177728,242907,7.6091758679999995,3.3044880106,-5.467599641,884
103551,177710,242924,7.5589265934,3.4037901484999997,-5.472385286200001,885
103950,177735,242940,7.6307112714,3.4193434953999997,-5.4017970195,886
104303,177737,242953,7.5948189324,3.3834511564,-5.4939206895999995,887
104402,177755,242997,7.5218378431,3.314059301,-5.5010991574000005,888
104393,177773,242958,7.6402825618,3.4743784152000003,-5.4209396003000005,889
104590,177812,242989,7.5003024396999995,3.2566315586,-5.4604211732,890
104765,177785,242977,7.6019974002,3.2997023654,-5.5226345608,891
104984,177792,243003,7.6091758679999995,3.337987527,-5.442475003699999,892
105247,177846,243045,7.5481588917,3.3834511564,-5.4604211732,893
105466,177909,243012,7.6498538522,3.4013973259,-5.4616175845,894
105672,177902,243066,7.7072815945999995,3.4061829711000002,-5.4604211732,895
105801,177892,243086,7.7132636511,3.4289147858,-5.442475003699999,896
106014,177949,243074,7.7682985709,3.3571301077999998,-5.3850472612999996,897
106279,177937,243098,7.5469624804,3.3020951879999996,-5.4137611324999995,898
106416,177962,243069,7.5936225210999995,3.3930224468000003,-5.4568319393,899
106668,177976,243081,7.625925626199999,3.3750762773,-5.539384319,900
106880,177888,243152,7.6426753844,3.4049865597999998,-5.442475003699999,901
107044,178026,243103,7.555337359499999,3.5090743428999995,-5.4137611324999995,902
107227,178066,243116,7.7024959494,3.3834511564,-5.5058848026,903
107383,178057,243099,7.6414789731,3.3678978095,-5.5274202059999995,904
107584,178051,243115,7.7898339743,3.3846475676999996,-5.5274202059999995,905
107781,178058,243138,7.645068207,3.4229327293,-5.4257252455,906
107568,178039,243110,7.5637122386,3.3559336964999997,-5.4161539550999995,907
106417,177970,243051,7.716852885,3.4923245847,-5.4329037133,908
105004,177871,242941,7.6474610296,3.421736318,-5.431707302,909
104153,177714,242893,7.6737820782,3.1645078885,-5.513063270399999,910
103606,177768,242850,7.6522466748,3.4887353508000003,-5.446064237599999,911
103380,177740,242831,7.6319076827,3.4396824875,-5.404189842099999,912
103216,177705,242879,7.7300134093,3.4205399067,-5.513063270399999,913
103249,177675,242900,7.6091758679999995,3.3092736558,-5.4352965359,914
103563,177699,242934,7.6295148601000005,3.3451659948,-5.566901778899999,915
103928,177771,242886,7.6343005053,3.3667013982,-5.4819565766,916
104187,177762,242924,7.6019974002,3.4468609552999996,-5.443671415,917
104243,177749,242963,7.6426753844,3.421736318,-5.3826544387,918
104301,177731,242950,7.6175507471,3.3786655112000004,-5.50349198,919
104361,177768,242946,7.5900332872,3.3320054705,-5.4376893585,920
104573,177764,242946,7.666603610399999,3.3487552287,-5.4221360116,921
104822,177852,242955,7.635496916599999,3.4779676491,-5.525027383399999,922
105096,177863,243002,7.7838519178,3.3355947043999996,-5.443671415,923
105288,177840,243042,7.5924261098,3.3690942208,-5.459224761900001,924
105520,177888,243068,7.6654071991,3.2255248647999997,-5.4484570602,925
105722,177937,243088,7.5996045776,3.4372896648999998,-5.5525448433,926
105900,177866,243041,7.7324062319,3.3212377687999997,-5.4747781088,927
106095,177899,243071,7.667800021700001,3.3523444626,-5.5142596817000005,928
106286,177922,243099,7.624729214899999,3.433700431,-5.3850472612999996,929
106462,177953,243106,7.6893354250999995,3.3475588174,-5.4029934308,930
106649,177920,243123,7.7144600624,3.3571301077999998,-5.4364929472,931
106829,177950,243145,7.6713892556,3.3595229304,-5.491527867,932
106998,177971,243112,7.6115686905999995,3.3774690999,-5.4233324229,933
107193,177960,243079,7.718049296299999,3.433700431,-5.3994041969,934
107397,178014,243138,7.5649086499,3.3499516399999996,-5.5334022625,935
107169,177972,243106,7.7240313528,3.4289147858,-5.3946185517,936
105927,177900,242995,7.5577301821,3.3595229304,-5.4939206895999995,937
104552,177796,242944,7.7156564737,3.421736318,-5.479563754,938
103778,177729,242888,7.6426753844,3.3116664784,-5.443671415,939
103347,177716,242911,7.6283184488,3.361915753,-5.417350366399999,940
102984,177697,242829,7.584051230699999,3.3583265191000002,-5.404189842099999,941
102864,177653,242860,7.5876404646,3.4384860762,-5.4352965359,942
102986,177622,242858,7.606783045399999,3.4229327293,-5.446064237599999,943
103283,177645,242847,7.777869861299999,3.3200413575,-5.4831529879,944
103701,177677,242883,7.7563344578999995,3.3571301077999998,-5.444867826299999,945
103878,177703,242888,7.6522466748,3.4073793824000003,-5.4891350444,946
104048,177742,242899,7.7120672398000005,3.3990045032999996,-5.3826544387,947
104065,177708,242934,7.6737820782,3.5042886977,-5.3982077855999995,948
104183,177702,242896,7.6749784895,3.4169506728,-5.5728838354,949
104382,177741,242889,7.6869426025,3.457628657,-5.4125647212,950
104584,177716,242902,7.6295148601000005,3.3080772444999997,-5.4532427054,951
104806,177780,242959,7.556533770800001,3.3930224468000003,-5.4819565766,952
105070,177842,242999,7.6701928443,3.3391839383,-5.5178489156,953
105315,177832,243021,7.5912296985,3.4013973259,-5.4412785924,954
105512,177850,243014,7.7611201031,3.4133614389,-5.5082776252,955
105677,177836,243037,7.6103722793,3.3990045032999996,-5.4771709314,956
105890,177868,243024,7.543373246500001,3.3906296242,-5.4747781088,957
106059,177857,243040,7.6761749007999995,3.4528430117999998,-5.443671415,958
106227,177918,243046,7.7120672398000005,3.4002009146,-5.4209396003000005,959
106371,177960,243083,7.621139981,3.3499516399999996,-5.5369914964,960
106647,177947,243069,7.625925626199999,3.3403803495999997,-5.5178489156,961
106875,177978,243054,7.6402825618,3.4325040196999996,-5.4352965359,962
107040,177985,243113,7.667800021700001,3.4133614389,-5.4819565766,963
107294,178001,243098,7.5601230047,3.409772205,-5.472385286200001,964
107234,178004,243070,7.7012995381,3.4109686163,-5.3706903257,965
106232,177938,243017,7.7611201031,3.5162528107,-5.513063270399999,966
104813,177827,242871,7.6295148601000005,3.3906296242,-5.5609197224,967
103935,177773,242874,7.720442118899999,3.4492537779,-5.484349399199999,968
103493,177741,242826,7.5912296985,3.4145578502,-5.5322058512000005,969
103108,177708,242808,7.7096744172000005,3.3702906320999997,-5.4891350444,970
103122,177682,242901,7.708478005899999,3.3332018818,-5.5369914964,971
103108,177676,242878,7.635496916599999,3.5282169237,-5.4496534715000005,972
103409,177632,242800,7.488338326699999,3.4983066412,-5.5058848026,973
103867,177725,242897,7.7192457076,3.3032915993,-5.3994041969,974
104113,177729,242925,7.5625158273,3.1716863562999995,-5.4532427054,975
104212,177730,242899,7.6091758679999995,3.4707891813,-5.486742221799999,976
104281,177739,242912,7.8269227246,3.3798619225,-5.431707302,977
104436,177758,242899,7.763512925700001,3.3391839383,-5.4963135121999995,978
104527,177773,242926,7.6713892556,3.4612178908999995,-5.5070812139,979
104859,177876,242951,7.6115686905999995,3.3810583338,-5.4520462941,980
105164,177858,242987,7.5828548194,3.3164521235999995,-5.4819565766,981
105371,177858,242964,7.65703232,3.3762726886,-5.4699924636,982
105608,177838,242988,7.666603610399999,3.4683963587,-5.4652068183999996,983
105766,177907,243022,7.704888771999999,3.4420753101,-5.4604211732,984
105902,177906,243029,7.597211754999999,3.3523444626,-5.491527867,985
106197,177941,243042,7.6187471584,3.4241291406,-5.5058848026,986
106396,177869,243043,7.7539416353,3.4552358344000003,-5.4987063348,987
106602,177981,243056,7.5445696578,3.4516466004999997,-5.467599641,988
106825,177991,243063,7.666603610399999,3.3643085755999995,-5.458028350599999,989
107035,178017,243046,7.6079794567,3.3906296242,-5.4065826647,990
107223,178027,243056,7.6498538522,3.4995030524999997,-5.5178489156,991
107463,178025,243048,7.6151579245,3.4002009146,-5.4017970195,992
107714,178059,243070,7.542176835199999,3.4612178908999995,-5.4400821811,993
107216,178017,243022,7.5349983674,3.3702906320999997,-5.407779076,994
105833,177916,242966,7.7252277641000004,3.3559336964999997,-5.4987063348,995
104517,177881,242874,7.692924659,3.3236305914,-5.4747781088,996
103964,177798,242835,7.7730842161,3.3786655112000004,-5.551348432,997
103620,177793,242793,7.6857461912,3.3403803495999997,-5.539384319,998
103439,177751,242796,7.5577301821,3.4420753101,-5.431707302,999
103363,177750,242816,7.7300134093,3.4049865597999998,-5.539384319,1000
103526,177738,242834,7.5888368759,3.314059301,-5.4161539550999995,1001
103918,177730,242875,7.6462646183,3.3451659948,-5.4747781088,1002
104255,177725,242861,7.7970124421,3.5330025689,-5.4281180681,1003
104314,177798,242887,7.6498538522,3.3092736558,-5.5082776252,1004
104364,177833,242867,7.7060851833,3.4109686163,-5.455635527999999,1005
104447,177803,242830,7.568497883799999,3.3631121643,-5.419743189,1006
104578,177767,242874,7.5996045776,3.5258241011,-5.513063270399999,1007
104760,177845,242914,7.5529445369,3.3786655112000004,-5.4987063348,1008
105018,177855,242914,7.6486574409,3.3487552287,-5.635097223,1009
105240,177921,242962,7.637889739199999,3.3547372851999997,-5.487938633100001,1010
105478,177904,242992,7.6606215538999995,3.3667013982,-5.5465627868,1011
105670,177947,242926,7.6618179652,3.3786655112000004,-5.4771709314,1012
105882,177953,242968,7.6462646183,3.3547372851999997,-5.4293144793999994,1013
106041,178021,242979,7.5326055448,3.3930224468000003,-5.4544391167,1014
106214,177968,242980,7.621139981,3.3786655112000004,-5.551348432,1015
106315,177989,243001,7.6821569573,3.2949167202,-5.525027383399999,1016
106417,177997,243005,7.6115686905999995,3.3990045032999996,-5.4783673427,1017
106684,178023,242973,7.8257263133,3.5090743428999995,-5.3826544387,1018
106860,178011,242943,7.6857461912,3.3236305914,-5.540580730299999,1019
107047,178000,242992,7.6761749007999995,3.3762726886,-5.486742221799999,1020
106510,177987,242939,7.6187471584,3.3726834547,-5.525027383399999,1021
105051,177842,242798,7.4931239719,3.4875389395,-5.4101718986,1022
103778,177856,242769,7.7946196195,3.3128628897,-5.4819565766,1023
103178,177747,242708,7.6977103042,3.4157542615,-5.4652068183999996,1024
102790,177690,242659,7.485945504099999,3.3308090592,-5.4412785924,1025
102531,177697,242705,7.6187471584,3.4109686163,-5.5657053676,1026
102438,177676,242691,7.6654071991,3.4851461168999998,-5.551348432,1027
102551,177643,242731,7.7228349415,3.397808092,-5.3419764545,1028
102965,177575,242752,7.6043902228,3.4444681327,-5.551348432,1029
103317,177687,242798,7.6462646183,3.2973095428,-5.5441699642,1030
103478,177715,242784,7.7001031268,3.3667013982,-5.5010991574000005,1031
103543,177741,242775,7.6139615132000005,3.4073793824000003,-5.541777141600001,1032
103637,177751,242774,7.5541409482,3.3236305914,-5.4783673427,1033
103801,177729,242755,7.5038916736,3.4013973259,-5.5226345608,1034
104008,177742,242775,7.6474610296,3.3044880106,-5.6075797630999995,1035
104237,177743,242779,7.4715885685,3.3056844219,-5.4496534715000005,1036
104430,177815,242794,7.5948189324,3.4707891813,-5.4341001246000005,1037
104688,177804,242851,7.7730842161,3.4767712378,-5.4364929472,1038
104927,177816,242851,7.624729214899999,3.2566315586,-5.455635527999999,1039
105132,177831,242863,7.5960153436999995,3.4121650276000004,-5.553741254599999,1040
105317,177851,242913,7.6115686905999995,3.4301111971,-5.331208752799999,1041
105511,177888,242899,7.6869426025,3.4540394231000002,-5.446064237599999,1042
105692,177843,242915,7.7802626839,3.3499516399999996,-5.4652068183999996,1043
105904,177919,242902,7.526623488299999,3.3116664784,-5.388636495199999,1044
106048,177895,242871,7.7120672398000005,3.3846475676999996,-5.4472606489,1045
106136,177935,242901,7.7036923607,3.3332018818,-5.3850472612999996,1046
106440,177928,242944,7.637889739199999,3.4301111971,-5.5226345608,1047
106589,177927,242900,7.733602643199999,3.3595229304,-5.4520462941,1048
106094,177906,242880,7.6785677234,3.3774690999,-5.426921656799999,1049
104693,177845,242766,7.6402825618,3.3475588174,-5.5609197224,1050
103487,177668,242676,7.692924659,3.3595229304,-5.4927242783,1051
102810,177701,242624,7.704888771999999,3.3475588174,-5.472385286200001,1052
102488,177674,242660,7.7096744172000005,3.4277183745,-5.4472606489,1053
102227,177617,242612,7.668996433,3.3128628897,-5.486742221799999,1054
102149,177601,242588,7.5637122386,3.3068808331999997,-5.443671415,1055
102272,177555,242632,7.6043902228,3.46959277,-5.4699924636,1056
102718,177636,242678,7.6498538522,3.3308090592,-5.472385286200001,1057
103041,177629,242692,7.7934232082,3.4205399067,-5.5716874241,1058
103225,177627,242686,7.7228349415,3.4600214796,-5.4245288342,1059
103243,177651,242701,7.612765101899999,3.3176485349,-5.4628139958,1060
103278,177701,242740,7.7228349415,3.2949167202,-5.5178489156,1061
103530,177694,242693,7.6235328036,3.3583265191000002,-5.5800623032,1062
103732,177701,242714,7.683353368600001,3.3547372851999997,-5.528616617299999,1063
104021,177756,242726,7.5445696578,3.3427731722,-5.4496534715000005,1064
104210,177770,242818,7.530212722199999,3.4719855926,-5.479563754,1065
104455,177756,242758,7.6307112714,3.4540394231000002,-5.5142596817000005,1066
104651,177807,242768,7.775477038699999,3.4205399067,-5.3778687935,1067
104855,177818,242838,7.716852885,3.3068808331999997,-5.5489556094,1068
105053,177849,242851,7.5469624804,3.3595229304,-5.405386253400001,1069
105263,177854,242816,7.5948189324,3.3332018818,-5.5274202059999995,1070
105465,177869,242820,7.621139981,3.3415767608999998,-5.3970113743,1071
105694,177916,242860,7.621139981,3.3822547451,-5.5980084727,1072
105869,177906,242878,7.5900332872,3.2949167202,-5.446064237599999,1073
105954,177949,242873,7.718049296299999,3.3786655112000004,-5.4209396003000005,1074
106303,177948,242893,7.6008009889000006,3.3762726886,-5.5369914964,1075
106527,177979,242836,7.735995465799999,3.3738798660000002,-5.4293144793999994,1076
106486,178002,242874,7.6115686905999995,3.3882368016,-5.5082776252,1077
105380,177877,242803,7.6941210703,3.4767712378,-5.3682975031,1078
104003,177843,242662,7.666603610399999,3.3714870434,-5.484349399199999,1079
103185,177775,242619,7.6857461912,3.3762726886,-5.4137611324999995,1080
102780,177709,242627,7.5661050612,3.1238299043,-5.3910293178,1081
102508,177671,242613,7.5936225210999995,3.3499516399999996,-5.4951171009,1082
102312,177703,242592,7.6295148601000005,3.2997023654,-5.455635527999999,1083
102477,177663,242657,7.7120672398000005,3.278166962,-5.458028350599999,1084
102834,177673,242722,7.5876404646,3.3320054705,-5.553741254599999,1085
103264,177696,242709,7.6785677234,3.3786655112000004,-5.5274202059999995,1086
103483,177722,242714,7.7431739336,3.3236305914,-5.553741254599999,1087
103605,177728,242718,7.5673014725,3.4803604716999996,-5.5226345608,1088
103682,177742,242719,7.5780691741999995,3.433700431,-5.5106704478,1089
103839,177756,242756,7.6402825618,3.3726834547,-5.4293144793999994,1090
104045,177802,242733,7.6366933279,3.4516466004999997,-5.5082776252,1091
104310,177846,242787,7.746763167499999,3.3930224468000003,-5.5274202059999995,1092
104568,177840,242750,7.6187471584,3.4121650276000004,-5.513063270399999,1093
104817,177865,242772,7.668996433,3.4588250683,-5.539384319,1094
105022,177915,242832,7.6175507471,3.4289147858,-5.5369914964,1095
105236,177863,242802,7.6283184488,3.3607193417,-5.5298130286000005,1096
105433,177947,242826,7.5996045776,3.3810583338,-5.4400821811,1097
105671,177997,242872,7.6091758679999995,3.3643085755999995,-5.5070812139,1098
105927,178008,242855,7.5780691741999995,3.4253255519,-5.3946185517,1099
106136,178040,242877,7.5445696578,3.3308090592,-5.4783673427,1100
106361,178048,242890,7.6917282476999995,3.385843979,-5.4329037133,1101
106600,178065,242915,7.844868894099999,3.3595229304,-5.605186940499999,1102
106827,178096,242929,7.7575308692,3.3056844219,-5.5226345608,1103
107029,178121,242967,7.624729214899999,3.5868410774,-5.4699924636,1104
106613,178086,242924,7.6103722793,3.4133614389,-5.5334022625,1105
105387,178038,242774,7.8077801438000005,3.4851461168999998,-5.4699924636,1106
104157,177920,242723,7.6151579245,3.3702906320999997,-5.5597233111,1107
103545,177876,242735,7.6283184488,3.3248270027,-5.444867826299999,1108
103257,177888,242655,7.6163543358,3.2973095428,-5.5334022625,1109
102954,177817,242697,7.5242306657,3.4205399067,-5.587240771,1110
102857,177726,242649,7.5457660691,3.4564322457,-5.5680981902,1111
102964,177765,242650,7.501498850999999,3.361915753,-5.3802616161,1112
103369,177800,242710,7.5182486092000005,3.3738798660000002,-5.5788658919,1113
103713,177819,242709,7.622336392299999,3.4325040196999996,-5.513063270399999,1114
103873,177826,242705,7.5996045776,3.4145578502,-5.5046883913,1115
103931,177841,242730,7.749155990099999,3.3822547451,-5.4221360116,1116
104027,177892,242754,7.5960153436999995,3.3523444626,-5.4664032297,1117
104154,177887,242734,7.624729214899999,3.4265219632000004,-5.491527867,1118
104325,177886,242743,7.654639497399999,3.3523444626,-5.5680981902,1119
104540,177900,242751,7.7012995381,3.4121650276000004,-5.459224761900001,1120
104809,177875,242780,7.7443703449,3.4408788988000003,-5.5226345608,1121
105051,177950,242797,7.5230342544,3.4205399067,-5.4819565766,1122
105245,177968,242825,7.4811598589,3.5102707542,-5.4831529879,1123
105318,177971,242816,7.651050263499999,3.3678978095,-5.4400821811,1124
105592,177986,242848,7.6307112714,3.3308090592,-5.4963135121999995,1125
105788,178006,242852,7.5900332872,3.3308090592,-5.525027383399999,1126
105965,177975,242859,7.561319416,3.4432717214,-5.472385286200001,1127
106130,177930,242865,7.7012995381,3.2446674455999998,-5.4807601652999995,1128
106257,178030,242827,7.6008009889000006,3.2578279699,-5.4508498828,1129
106444,178063,242875,7.637889739199999,3.3954152694,-5.3682975031,1130
106695,178014,242866,7.6474610296,3.3236305914,-5.5226345608,1131
106136,177999,242832,7.7240313528,3.4157542615,-5.5226345608,1132
104697,177866,242739,7.6845497799,3.397808092,-5.486742221799999,1133
103491,177850,242645,7.6498538522,3.3547372851999997,-5.513063270399999,1134
102825,177778,242598,7.6594251426,3.4037901484999997,-5.4699924636,1135
102345,177768,242592,7.7324062319,3.3236305914,-5.455635527999999,1136
102211,177749,242510,7.6115686905999995,3.3092736558,-5.4388857698,1137
102139,177714,242584,7.7515488127,3.3272198253,-5.4388857698,1138
102231,177644,242566,7.6749784895,3.4037901484999997,-5.525027383399999,1139
102581,177721,242582,7.7096744172000005,3.3643085755999995,-5.467599641,1140
102988,177740,242613,7.5900332872,3.314059301,-5.5202417382,1141
103142,177833,242618,7.585247642000001,3.2745777280999997,-5.6147582309,1142
103195,177765,242612,7.7120672398000005,3.4540394231000002,-5.4137611324999995,1143
103238,177777,242615,7.6821569573,3.3116664784,-5.5369914964,1144
103477,177759,242589,7.6941210703,3.2997023654,-5.491527867,1145
103665,177777,242639,7.804190909899999,3.2542387359999996,-5.5178489156,1146
103900,177789,242618,7.844868894099999,3.2829526072,-5.491527867,1147
104146,177745,242663,7.692924659,3.3128628897,-5.599204884000001,1148
104369,177844,242683,7.7659057483,3.4073793824000003,-5.50349198,1149
104586,177872,242760,7.621139981,3.4612178908999995,-5.4604211732,1150
104827,177882,242702,7.8185478454999995,3.4133614389,-5.426921656799999,1151
105013,177909,242727,7.6630143765,3.3954152694,-5.3970113743,1152
105178,177894,242746,7.692924659,3.2350961552,-5.554937665900001,1153
105314,177973,242730,7.6474610296,3.3690942208,-5.5226345608,1154
105556,177932,242777,7.6498538522,3.2877382523999996,-5.471188874899999,1155
105718,177959,242781,7.8221370794,3.4564322457,-5.3706903257,1156
105887,177969,242796,7.633104094,3.3152557123,-5.4532427054,1157
106069,177972,242773,7.6845497799,3.3475588174,-5.4376893585,1158
106265,177979,242766,7.7264241754,3.4660035360999997,-5.5058848026,1159
106391,178034,242752,7.7706913935,3.5138599880999997,-5.486742221799999,1160
105597,177934,242740,7.539784012599999,3.3714870434,-5.539384319,1161
104064,177890,242621,7.7001031268,3.3499516399999996,-5.491527867,1162
102872,177799,242559,7.525427077,3.3726834547,-5.4652068183999996,1163
102354,177773,242557,7.633104094,3.3714870434,-5.458028350599999,1164
101935,177710,242494,7.7395846997,3.4013973259,-5.459224761900001,1165
101687,177687,242474,7.612765101899999,3.4947174072999996,-5.4640104071,1166
101635,177650,242484,7.8029944985999995,3.4540394231000002,-5.525027383399999,1167
101807,177565,242499,7.6402825618,3.2362925665,-5.467599641,1168
102148,177695,242549,7.6594251426,3.4348968423,-5.4987063348,1169
102537,177722,242556,7.708478005899999,3.2961131315000003,-5.4819565766,1170
102644,177718,242563,7.7826555065,3.2626136151000003,-5.443671415,1171
102723,177719,242540,7.6905318364,3.314059301,-5.3491549223,1172
102799,177720,242541,7.5948189324,3.3690942208,-5.4568319393,1173
102985,177740,242548,7.6809605460000006,3.2733813167999997,-5.4771709314,1174
103180,177768,242607,7.5517481256,3.3954152694,-5.446064237599999,1175
103356,177763,242579,7.668996433,3.3667013982,-5.4137611324999995,1176
103671,177813,242636,7.6857461912,3.3188449462,-5.539384319,1177
103900,177724,242599,7.5804619967999995,3.2757741394,-5.5070812139,1178
104162,177853,242580,7.8376904263,3.3643085755999995,-5.4364929472,1179
104321,177835,242608,7.5170521979,3.3966116807,-5.4903314557,1180
104529,177858,242626,7.6522466748,3.4109686163,-5.4352965359,1181
104640,177883,242613,7.6881390138,3.4683963587,-5.4831529879,1182
104925,177900,242634,7.6713892556,3.3403803495999997,-5.4364929472,1183
105166,177919,242663,7.7264241754,3.4420753101,-5.491527867,1184
105347,177952,242679,7.6139615132000005,3.2685956716,-5.4699924636,1185
105492,177972,242647,7.6187471584,3.4277183745,-5.404189842099999,1186
105819,177999,242678,7.6402825618,3.3523444626,-5.459224761900001,1187
106041,178032,242700,7.6307112714,3.3846475676999996,-5.4604211732,1188
105760,178017,242625,7.5984081663000005,3.4325040196999996,-5.539384319,1189
104488,177917,242569,7.633104094,3.4384860762,-5.4544391167,1190
103228,177898,242523,7.746763167499999,3.2949167202,-5.5082776252,1191
102629,177838,242455,7.621139981,3.2973095428,-5.575276658,1192
102337,177816,242440,7.6115686905999995,3.4803604716999996,-5.5010991574000005,1193
102170,177824,242426,7.6558359087,3.2949167202,-5.417350366399999,1194
102210,177834,242504,7.6307112714,3.385843979,-5.4233324229,1195
102389,177844,242440,7.6139615132000005,3.4037901484999997,-5.4640104071,1196
102830,177849,242479,7.6187471584,3.3008987767,-5.4652068183999996,1197
103244,177835,242514,7.5086773188,3.2829526072,-5.5585268998,1198
103439,177912,242495,7.6163543358,3.1956145822999997,-5.4376893585,1199
103512,177841,242563,7.777869861299999,3.3930224468000003,-5.5441699642,1200
103621,177863,242535,7.530212722199999,3.3655049869,-5.5561340772,1201
103853,177903,242538,7.6295148601000005,3.2829526072,-5.513063270399999,1202
104089,177949,242575,7.7455667562,3.3966116807,-5.4963135121999995,1203
104375,178004,242556,7.7132636511,3.4348968423,-5.4388857698,1204
104692,177950,242559,7.6761749007999995,3.2291140987,-5.4293144793999994,1205
104943,177995,242590,7.5804619967999995,3.4229327293,-5.4891350444,1206
105203,178013,242590,7.5888368759,3.3882368016,-5.5178489156,1207
105437,178001,242595,7.653443086099999,3.4636107135,-5.4604211732,1208
105706,178061,242590,7.6594251426,3.2841490185,-5.491527867,1209
105949,178032,242637,7.6654071991,3.2709884942,-5.515456093,1210
106163,178038,242594,7.6905318364,3.4624143022,-5.4137611324999995,1211
106385,178096,242567,7.6019974002,3.385843979,-5.6063833518,1212
106615,178098,242611,7.6821569573,3.3643085755999995,-5.491527867,1213
106881,178100,242658,7.7563344578999995,3.4013973259,-5.4520462941,1214
107099,178109,242574,7.7252277641000004,3.3044880106,-5.5058848026,1215
106780,178099,242563,7.495516794499999,3.2291140987,-5.5058848026,1216
105610,178071,242544,7.5361947787,3.2853454298,-5.5202417382,1217
104591,177980,242378,7.633104094,3.170489945,-5.4939206895999995,1218
104116,178001,242410,7.6307112714,3.3894332128999998,-5.5489556094,1219
103905,177997,242355,7.53739119,3.4516466004999997,-5.4747781088,1220
103786,177960,242344,7.5589265934,3.2973095428,-5.587240771,1221
103814,177940,242377,7.621139981,3.3212377687999997,-5.5082776252,1222
104038,177933,242334,7.6271220375,3.3332018818,-5.4472606489,1223
104494,177993,242360,7.7096744172000005,3.2805597846,-5.5345986738,1224
104906,177928,242419,7.654639497399999,3.3882368016,-5.4939206895999995,1225
105049,177983,242421,7.5924261098,3.2566315586,-5.5585268998,1226
105093,177992,242392,7.6654071991,3.2829526072,-5.5058848026,1227
105266,177961,242397,7.6031938115,3.2650064377,-5.4137611324999995,1228
105416,178008,242402,7.5218378431,3.3296126479000003,-5.5202417382,1229
105641,177967,242413,7.7347990545,3.4731820039,-5.4652068183999996,1230
105883,178047,242368,7.6642107878,3.3870403903,-5.515456093,1231
106152,177883,242373,7.7012995381,3.541377448,-5.4281180681,1232
106418,178033,242397,7.555337359499999,3.3116664784,-5.458028350599999,1233
106660,178003,242416,7.6498538522,3.3906296242,-5.491527867,1234
106869,178048,242395,7.7443703449,3.4540394231000002,-5.431707302,1235
107096,178011,242390,7.561319416,3.4444681327,-5.4544391167,1236
107346,178031,242388,7.737191877099999,3.397808092,-5.5585268998,1237
107566,178065,242377,7.6163543358,3.3786655112000004,-5.4520462941,1238
107772,178082,242385,7.683353368600001,3.3044880106,-5.4747781088,1239
107958,178108,242388,7.692924659,3.337987527,-5.4329037133,1240
108164,178109,242414,7.7419775223,3.3738798660000002,-5.4604211732,1241
108391,178132,242414,7.8173514342,3.3822547451,-5.4819565766,1242
108630,178119,242374,7.7994052647,3.3678978095,-5.5142596817000005,1243
108511,178113,242353,7.5876404646,3.2721849055,-5.4771709314,1244
107552,178080,242313,7.6043902228,3.4396824875,-5.3515477449,1245
106461,177947,242241,7.6857461912,3.4181470840999997,-5.513063270399999,1246
105811,178035,242221,7.572087117700001,3.3164521235999995,-5.4329037133,1247
105472,177982,242118,7.561319416,3.3308090592,-5.5716874241,1248
105392,177983,242139,7.6187471584,3.3810583338,-5.4819565766,1249
105408,177987,242196,7.6139615132000005,3.361915753,-5.419743189,1250
105453,177959,242147,7.5505517143,3.421736318,-5.4699924636,1251
105773,177904,242126,7.6977103042,3.3942188581,-5.467599641,1252
106134,177994,242122,7.556533770800001,3.3667013982,-5.3682975031,1253
106291,177991,242167,7.6402825618,3.3415767608999998,-5.4400821811,1254
106474,178014,242120,7.495516794499999,3.4109686163,-5.525027383399999,1255
106557,178003,242159,7.8173514342,3.3966116807,-5.376672382200001,1256
106620,177997,242159,7.6642107878,3.4480573666,-5.442475003699999,1257
106793,177926,242136,7.6366933279,3.4360932536,-5.4341001246000005,1258
106919,178044,242138,7.7252277641000004,3.4145578502,-5.5298130286000005,1259
107074,178034,242162,7.489534738000001,3.3032915993,-5.4496534715000005,1260
107422,178078,242201,7.6749784895,3.4013973259,-5.4508498828,1261
107600,178018,242152,7.6283184488,3.4229327293,-5.484349399199999,1262
107792,178042,242146,7.7228349415,3.4325040196999996,-5.5680981902,1263
107968,178013,242171,7.7120672398000005,3.3308090592,-5.392225729100001,1264
108106,178098,242154,7.625925626199999,3.2925238975999997,-5.5058848026,1265
108287,178064,242145,7.6582287313,3.4396824875,-5.4281180681,1266
108480,178098,242176,7.5828548194,3.3571301077999998,-5.4951171009,1267
108613,178063,242151,7.6618179652,3.4013973259,-5.5010991574000005,1268
108779,178148,242148,7.6019974002,3.4360932536,-5.471188874899999,1269
108976,178137,242146,7.6989067155,3.3523444626,-5.388636495199999,1270
109136,178123,242136,7.7659057483,3.3068808331999997,-5.455635527999999,1271
109182,178117,242101,7.6402825618,3.3667013982,-5.5776694806,1272
108518,178084,242092,7.7240313528,3.3212377687999997,-5.4699924636,1273
107244,178057,242024,7.7024959494,3.421736318,-5.5202417382,1274
106241,177984,241919,7.5349983674,3.3906296242,-5.4221360116,1275
105629,177962,241920,7.6869426025,3.3188449462,-5.458028350599999,1276
105194,177901,241903,7.6079794567,3.3786655112000004,-5.430510890700001,1277
104830,177947,241882,7.740781111,3.4516466004999997,-5.491527867,1278
104793,177947,241858,7.5062844962,3.4073793824000003,-5.5238309721,1279
104925,177892,241845,7.585247642000001,3.3164521235999995,-5.5106704478,1280
105242,177950,241887,7.6079794567,3.3403803495999997,-5.417350366399999,1281
105385,177958,241887,7.6271220375,3.5485559157999997,-5.4017970195,1282
105502,177945,241899,7.7012995381,3.3332018818,-5.4604211732,1283
105480,177879,241885,7.737191877099999,3.3403803495999997,-5.491527867,1284
105516,177993,241927,7.692924659,3.4301111971,-5.5178489156,1285
105658,178003,241892,7.6905318364,3.4408788988000003,-5.419743189,1286
105808,177889,241904,7.561319416,3.4277183745,-5.4759745201,1287
105982,177956,241912,7.5924261098,3.3511480513,-5.4329037133,1288
106174,178025,241894,7.5589265934,3.3678978095,-5.4496534715000005,1289
106346,178036,241956,7.5960153436999995,3.2913274863,-5.5202417382,1290
106504,178070,241904,7.6139615132000005,3.3762726886,-5.443671415,1291
106643,178010,241932,7.653443086099999,3.3846475676999996,-5.5058848026,1292
106756,178046,241938,7.7108708285,3.3427731722,-5.563312545,1293
106896,178082,241937,7.561319416,3.2578279699,-5.5609197224,1294
107108,178050,241930,7.5960153436999995,3.3427731722,-5.5106704478,1295
107270,178140,241942,7.7419775223,3.421736318,-5.5776694806,1296
107436,178116,241968,7.6486574409,3.2147571631,-5.4771709314,1297
107559,178142,241954,7.5445696578,3.3559336964999997,-5.486742221799999,1298
107763,178108,241967,7.7611201031,3.4528430117999998,-5.5010991574000005,1299
107936,178185,241990,7.6462646183,3.3212377687999997,-5.5010991574000005,1300
108145,178168,241964,7.5924261098,3.2566315586,-5.4604211732,1301
108003,178164,241976,7.7587272805,3.4348968423,-5.4687960523,1302
106914,178012,241889,7.8017980873,3.385843979,-5.5226345608,1303
105437,178033,241789,7.7395846997,3.3571301077999998,-5.4604211732,1304
104475,178019,241778,7.654639497399999,3.4133614389,-5.575276658,1305
103943,178013,241734,7.666603610399999,3.2650064377,-5.4640104071,1306
103559,177950,241724,7.556533770800001,3.326023414,-5.455635527999999,1307
103371,177957,241718,7.7192457076,3.2817561959000003,-5.4735816975,1308
103372,177967,241714,7.6139615132000005,3.2973095428,-5.5334022625,1309
103667,177939,241725,7.7300134093,3.3786655112000004,-5.5345986738,1310
104025,177958,241751,7.718049296299999,3.3726834547,-5.5609197224,1311
104173,177947,241795,7.7024959494,3.3547372851999997,-5.4640104071,1312
104218,177945,241813,7.5828548194,3.4037901484999997,-5.5058848026,1313
104279,177978,241794,7.708478005899999,3.3044880106,-5.4939206895999995,1314
104346,177972,241754,7.573283529,3.2291140987,-5.4891350444,1315
104510,177954,241829,7.7395846997,3.4253255519,-5.484349399199999,1316
104722,177950,241771,7.6965138929000005,3.3523444626,-5.5022955687,1317
104958,178008,241835,7.746763167499999,3.3236305914,-5.5345986738,1318
105175,178031,241850,7.6881390138,3.4660035360999997,-5.541777141600001,1319
105412,178033,241880,7.5912296985,3.433700431,-5.4520462941,1320
105575,178095,241875,7.606783045399999,3.3427731722,-5.4687960523,1321
105816,178057,241857,7.639086150500001,3.361915753,-5.4987063348,1322
105935,178039,241877,7.6438717957,3.3332018818,-5.5848479484,1323
106115,178024,241868,7.6642107878,3.2554351473,-5.4771709314,1324
106227,178071,241882,7.5948189324,3.4947174072999996,-5.455635527999999,1325
106382,178088,241875,7.637889739199999,3.4492537779,-5.484349399199999,1326
106602,178065,241901,7.6713892556,3.4755748265,-5.4221360116,1327
106706,178073,241933,7.728816998,3.4995030524999997,-5.491527867,1328
107001,178104,241886,7.679764134699999,3.4109686163,-5.4532427054,1329
106971,178081,241899,7.5756763516,3.3284162366,-5.50349198,1330
105948,177984,241797,7.637889739199999,3.290131075,-5.4652068183999996,1331
104545,177981,241756,7.637889739199999,3.385843979,-5.4017970195,1332
103649,178006,241716,7.6402825618,3.4157542615,-5.5058848026,1333
103172,177958,241660,7.6486574409,3.4420753101,-5.4735816975,1334
102895,177864,241697,7.785048329099999,3.4313076084,-5.5106704478,1335
102735,177859,241716,7.7802626839,3.3212377687999997,-5.5226345608,1336
102704,177883,241726,7.6965138929000005,3.3690942208,-5.5728838354,1337
103096,177863,241748,7.6582287313,3.3439695835000003,-5.472385286200001,1338
103545,177868,241778,7.7276205867,3.3451659948,-5.4233324229,1339
103855,177887,241805,7.6905318364,3.2506495021,-5.4544391167,1340
103943,177896,241803,7.585247642000001,3.4253255519,-5.4747781088,1341
104010,177928,241786,7.6474610296,3.4085757937,-5.472385286200001,1342
104026,177928,241834,7.720442118899999,3.4636107135,-5.541777141600001,1343
104284,177917,241825,7.6642107878,3.3523444626,-5.417350366399999,1344
104529,177969,241828,7.7563344578999995,3.3942188581,-5.50349198,1345
104774,177969,241889,7.6654071991,3.3523444626,-5.5178489156,1346
105040,177975,241820,7.6881390138,3.290131075,-5.4604211732,1347
105278,177979,241877,7.6055866341,3.3690942208,-5.4699924636,1348
105485,177970,241902,7.6474610296,3.2853454298,-5.458028350599999,1349
105685,177958,241845,7.5218378431,3.2494530908,-5.4412785924,1350
105842,177989,241928,7.5828548194,3.314059301,-5.4508498828,1351
106058,178061,241922,7.7108708285,3.4145578502,-5.50349198,1352
106168,177997,241951,7.7276205867,3.3559336964999997,-5.6099725857,1353
106463,178008,241944,7.6713892556,3.3738798660000002,-5.525027383399999,1354
106700,178083,241923,7.737191877099999,3.3427731722,-5.479563754,1355
106825,178037,241940,7.6977103042,3.3499516399999996,-5.525027383399999,1356
106964,178057,241985,7.7802626839,3.2853454298,-5.4987063348,1357
107123,178093,241974,7.6175507471,3.5102707542,-5.4293144793999994,1358
107312,178065,241933,7.5792655855,3.3212377687999997,-5.4819565766,1359
106704,178056,241974,7.749155990099999,3.3523444626,-5.4137611324999995,1360
105344,177987,241869,7.666603610399999,3.4540394231000002,-5.50349198,1361
104364,177950,241802,7.874779176600001,3.4540394231000002,-5.479563754,1362
103869,177889,241807,7.6725856669,3.3738798660000002,-5.5010991574000005,1363
103611,177879,241798,7.718049296299999,3.5186456333,-5.4963135121999995,1364
103510,177897,241763,7.6618179652,3.3702906320999997,-5.479563754,1365
103482,177850,241776,7.5996045776,3.4755748265,-5.4484570602,1366
103717,177870,241822,7.637889739199999,3.4468609552999996,-5.515456093,1367
104102,177878,241865,7.6845497799,3.3415767608999998,-5.458028350599999,1368
104494,177900,241872,7.5361947787,3.3918260355000003,-5.4687960523,1369
104611,177886,241910,7.692924659,3.4002009146,-5.5716874241,1370
104683,177830,241908,7.6498538522,3.3224341800999997,-5.4807601652999995,1371
104801,177946,241959,7.721638530200001,3.3116664784,-5.4664032297,1372
104923,177912,241957,7.708478005899999,3.4229327293,-5.3826544387,1373
105159,177841,241940,7.6977103042,3.3535408739,-5.392225729100001,1374
105334,177928,241965,7.5338019561000005,3.3786655112000004,-5.4065826647,1375
105588,177932,241976,7.6426753844,3.2554351473,-5.5465627868,1376
105808,177940,241962,7.5936225210999995,3.4181470840999997,-5.5178489156,1377
106057,177981,241977,7.5924261098,3.3966116807,-5.4604211732,1378
106270,177917,241989,7.6235328036,3.3056844219,-5.443671415,1379
106466,177983,242014,7.5876404646,3.4468609552999996,-5.4125647212,1380
106668,178008,242035,7.549355303,3.3080772444999997,-5.4771709314,1381
106858,178004,242046,7.6773713121,3.3834511564,-5.4341001246000005,1382
107061,178003,242009,7.6091758679999995,3.3188449462,-5.4281180681,1383
107270,178050,242065,7.6199435697,3.3020951879999996,-5.472385286200001,1384
107442,178067,242075,7.612765101899999,3.3631121643,-5.430510890700001,1385
107601,178048,242068,7.7228349415,3.1310083721,-5.4472606489,1386
107791,177985,242092,7.6989067155,3.4205399067,-5.5561340772,1387
107940,178107,242083,7.6079794567,3.3020951879999996,-5.570491012800001,1388
108207,178106,242087,7.6139615132000005,3.2243284535,-5.528616617299999,1389
107831,178082,242073,7.667800021700001,3.3750762773,-5.4520462941,1390
106521,178058,242008,7.8113693777,3.3690942208,-5.4628139958,1391
105354,177995,241941,7.5900332872,3.4169506728,-5.50349198,1392
104868,177920,241973,7.5601230047,3.4791640604,-5.4699924636,1393
104500,177910,241890,7.5948189324,3.4229327293,-5.4412785924,1394
104305,177913,241902,7.6713892556,3.4002009146,-5.50349198,1395
104271,177906,241875,7.612765101899999,3.2841490185,-5.3874400839,1396
104394,177906,241967,7.6522466748,3.3571301077999998,-5.4520462941,1397
104712,177942,241931,7.6187471584,3.2889346637,-5.443671415,1398
105023,177928,242015,7.7096744172000005,3.3343982931,-5.4400821811,1399
105194,177898,242005,7.6893354250999995,3.2099715178999997,-5.458028350599999,1400
105246,177911,241993,7.6043902228,3.3272198253,-5.5980084727,1401
105308,177939,242023,7.666603610399999,3.4253255519,-5.513063270399999,1402
105459,177854,242047,7.6307112714,3.3451659948,-5.4520462941,1403
105654,177945,242096,7.621139981,3.3966116807,-5.467599641,1404
105782,177934,242098,7.750352401400001,3.2219356309,-5.472385286200001,1405
106126,177938,242084,7.5469624804,3.2626136151000003,-5.5322058512000005,1406
106337,177953,242072,7.6139615132000005,3.2745777280999997,-5.3874400839,1407
106571,178032,242116,7.65703232,3.3092736558,-5.4652068183999996,1408
106778,178031,242127,7.584051230699999,3.3355947043999996,-5.5465627868,1409
106947,178000,242127,7.6498538522,3.4133614389,-5.5465627868,1410
107144,178025,242154,7.6163543358,3.3296126479000003,-5.5357950851,1411
107329,178060,242143,7.5481588917,3.3942188581,-5.4652068183999996,1412
107520,178081,242206,7.720442118899999,3.4420753101,-5.539384319,1413
107700,178115,242233,7.570890706399999,3.3272198253,-5.4628139958,1414
107896,178096,242194,7.7024959494,3.3870403903,-5.491527867,1415
108112,178082,242230,7.4907311493,3.3571301077999998,-5.4616175845,1416
108303,178132,242223,7.7383882884,3.2805597846,-5.484349399199999,1417
108471,178123,242283,7.4991060284,3.3092736558,-5.3970113743,1418
108540,178162,242238,7.7862447404,3.3236305914,-5.5070812139,1419
107783,178098,242175,7.667800021700001,3.3834511564,-5.583651537100001,1420
106318,178084,242138,7.6989067155,3.3212377687999997,-5.4568319393,1421
105278,178012,242072,7.5900332872,3.3475588174,-5.486742221799999,1422
104678,177946,242034,7.6426753844,3.2841490185,-5.4939206895999995,1423
104319,177957,242002,7.6498538522,3.3451659948,-5.5298130286000005,1424
104058,177934,242026,7.6701928443,3.3571301077999998,-5.5298130286000005,1425
103973,177901,242072,7.633104094,3.337987527,-5.553741254599999,1426
104164,177909,242045,7.6809605460000006,3.2877382523999996,-5.5345986738,1427
104512,177875,242088,7.8520473619,3.3499516399999996,-5.446064237599999,1428
104711,177899,242122,7.5314091335,3.3906296242,-5.4484570602,1429
104744,177939,242139,7.6737820782,3.3427731722,-5.540580730299999,1430
104774,177928,242114,7.6941210703,3.3667013982,-5.4544391167,1431
104817,177935,242140,7.6773713121,3.3690942208,-5.5106704478,1432
104947,177890,242183,7.6821569573,3.2721849055,-5.4987063348,1433
105157,177942,242179,7.7192457076,3.4827532943,-5.4281180681,1434
105371,177851,242168,7.6809605460000006,3.3499516399999996,-5.4329037133,1435
105618,177927,242186,7.6307112714,3.2949167202,-5.4293144793999994,1436
105802,177951,242170,7.6486574409,3.3810583338,-5.569294601499999,1437
105997,177953,242182,7.572087117700001,3.2769705507,-5.50349198,1438
106152,177971,242237,7.6486574409,3.3966116807,-5.4412785924,1439
106344,177985,242231,7.568497883799999,3.4037901484999997,-5.4233324229,1440
106508,177997,242249,7.621139981,3.3726834547,-5.426921656799999,1441
106673,178014,242273,7.7539416353,3.3044880106,-5.4472606489,1442
106812,177977,242301,7.6079794567,3.266202849,-5.458028350599999,1443
107004,178016,242279,7.621139981,3.2458638569,-5.458028350599999,1444
107138,178038,242274,7.7001031268,3.3068808331999997,-5.4113683099,1445
107311,178068,242271,7.6474610296,3.3212377687999997,-5.4831529879,1446
107508,178036,242292,7.6642107878,3.3750762773,-5.4017970195,1447
107515,178056,242325,7.6642107878,3.3678978095,-5.4412785924,1448
106837,177999,242230,7.5026952623000005,3.3236305914,-5.4975099235,1449
105359,177868,242155,7.749155990099999,3.3798619225,-5.4699924636,1450
104175,177897,242128,7.7096744172000005,3.4193434953999997,-5.4137611324999995,1451
103596,177835,242054,7.651050263499999,3.3762726886,-5.5058848026,1452
103215,177801,242063,7.6402825618,3.3236305914,-5.525027383399999,1453
102974,177785,242087,7.65703232,3.3092736558,-5.5728838354,1454
102889,177780,242086,7.6761749007999995,3.3487552287,-5.479563754,1455
103022,177783,242117,7.7156564737,3.4791640604,-5.4376893585,1456
103422,177831,242120,7.633104094,3.3176485349,-5.472385286200001,1457
103717,177818,242179,7.6977103042,3.3451659948,-5.4771709314,1458
103806,177799,242182,7.7060851833,3.3798619225,-5.4089754873,1459
103799,177769,242213,7.6486574409,3.3930224468000003,-5.4496534715000005,1460
103969,177801,242182,7.5601230047,3.3499516399999996,-5.486742221799999,1461
103989,177808,242191,7.622336392299999,3.4348968423,-5.4699924636,1462
104332,177865,242229,7.635496916599999,3.4133614389,-5.4771709314,1463
104427,177839,242223,7.5385876013,3.3990045032999996,-5.5680981902,1464
104791,177845,242293,7.6773713121,3.4085757937,-5.491527867,1465
104972,177888,242264,7.7156564737,3.46959277,-5.4652068183999996,1466
105210,177865,242283,7.8017980873,3.337987527,-5.467599641,1467
105370,177896,242358,7.718049296299999,3.2602207924999997,-5.4747781088,1468
105480,177900,242308,7.6594251426,3.409772205,-5.4963135121999995,1469
105763,177934,242349,7.7443703449,3.4229327293,-5.491527867,1470
105956,177959,242346,7.6725856669,3.3523444626,-5.4472606489,1471
106130,177919,242328,7.585247642000001,3.2410782117,-5.4891350444,1472
106332,177937,242372,7.7240313528,3.3475588174,-5.4819565766,1473
106542,177967,242390,7.7982088534,3.3571301077999998,-5.4185467777000005,1474
106707,178002,242417,7.6139615132000005,3.421736318,-5.458028350599999,1475
106856,177966,242387,7.704888771999999,3.4025937372,-5.4532427054,1476
107027,177993,242429,7.5445696578,3.3631121643,-5.5178489156,1477
107178,178035,242378,7.6115686905999995,3.3451659948,-5.484349399199999,1478
107394,178041,242384,7.735995465799999,3.4253255519,-5.513063270399999,1479
107408,178016,242395,7.6893354250999995,3.3104700671000002,-5.551348432,1480
106515,177956,242388,7.7228349415,3.3714870434,-5.575276658,1481
105051,177904,242285,7.6295148601000005,3.4564322457,-5.5561340772,1482
104070,177861,242210,7.5589265934,3.4229327293,-5.5058848026,1483
103572,177833,242228,7.6043902228,3.4061829711000002,-5.5322058512000005,1484
103209,177785,242201,7.6187471584,3.3164521235999995,-5.4376893585,1485
103018,177749,242274,7.635496916599999,3.2578279699,-5.4652068183999996,1486
103004,177729,242260,7.7515488127,3.2997023654,-5.3730831483,1487
103203,177716,242308,7.633104094,3.3750762773,-5.444867826299999,1488
103615,177792,242303,7.6175507471,3.3559336964999997,-5.4472606489,1489
103876,177774,242327,7.7228349415,3.3068808331999997,-5.5202417382,1490
103945,177774,242287,7.728816998,3.3164521235999995,-5.479563754,1491
103953,177751,242359,7.6139615132000005,3.314059301,-5.4891350444,1492
104141,177775,242355,7.585247642000001,3.3655049869,-5.515456093,1493
104284,177803,242334,7.7252277641000004,3.3403803495999997,-5.5369914964,1494
104516,177792,242344,7.7192457076,3.4025937372,-5.4819565766,1495
104746,177828,242389,7.637889739199999,3.2590243811999997,-5.4532427054,1496
104973,177874,242394,7.6426753844,3.3667013982,-5.551348432,1497
105215,177889,242399,7.572087117700001,3.2925238975999997,-5.430510890700001,1498
105425,177860,242448,7.6785677234,3.2697920829,-5.50349198,1499
105588,177867,242446,7.7156564737,3.3427731722,-5.4699924636,1500
105797,177882,242462,7.5589265934,3.4384860762,-5.4017970195,1501
106054,177917,242523,7.5768727629,3.2997023654,-5.4388857698,1502
106192,177911,242506,7.597211754999999,3.4002009146,-5.4628139958,1503
106409,177888,242551,7.872386354,3.2877382523999996,-5.3850472612999996,1504
106555,177954,242507,7.6785677234,3.421736318,-5.4699924636,1505
106800,177941,242543,7.6701928443,3.3690942208,-5.472385286200001,1506
106889,177995,242553,7.6115686905999995,3.4121650276000004,-5.479563754,1507
107177,177914,242581,7.7347990545,3.3714870434,-5.455635527999999,1508
107311,177984,242533,7.6055866341,3.3643085755999995,-5.484349399199999,1509
107442,177992,242528,7.6319076827,3.4660035360999997,-5.4939206895999995,1510
107673,178014,242548,7.7060851833,3.4241291406,-5.479563754,1511
107878,178033,242605,7.7240313528,3.3104700671000002,-5.4939206895999995,1512
108150,178066,242613,7.7347990545,3.3738798660000002,-5.5106704478,1513
107998,178015,242575,7.7264241754,3.2949167202,-5.4388857698,1514
106881,177999,242591,7.695317481599999,3.3284162366,-5.459224761900001,1515
105515,177901,242444,7.5469624804,3.2997023654,-5.4568319393,1516
104733,177802,242394,7.6761749007999995,3.3678978095,-5.4341001246000005,1517
104227,177836,242397,7.749155990099999,3.326023414,-5.472385286200001,1518
