green,red,IR,acc_x,acc_y,acc_z,sample_index
75677,153661,205495,-3.7674991837,-7.829315547199999,5.4113683099,1
75762,153759,205516,-3.6993037396,-7.944171031999999,5.2534420183,2
75850,153675,205491,-3.6705898684,-7.7970124421,5.2965128251,3
75844,153677,205495,-3.6083764808,-7.77667345,5.1110690735999995,4
75594,153561,205467,-3.684946804,-7.8341011924,5.3024948815999995,5
75174,153611,205441,-3.7854453531999996,-7.7898339743,5.3587262127,6
74758,153531,205410,-3.6658042232,-7.7958160308,5.2594240748,7
74438,153540,205424,-3.5282169237,-7.7862447404,5.3024948815999995,8
74242,153457,205399,-3.732803256,-7.7862447404,5.3539405675,9
74142,153536,205394,-3.7375889012,-7.8257263133,5.2450671392,10
74182,153533,205374,-3.8560336199000003,-7.7587272805,5.2977092364,11
74295,153550,205412,-3.6574293441,-7.8149586116,5.3551369788,12
74459,153552,205404,-3.7232319655999997,-7.77667345,5.1876393968,13
74570,153568,205452,-3.7710884175999997,-7.695317481599999,5.2546384296,14
74659,153586,205435,-3.7232319655999997,-7.6008009889000006,5.2414779053,15
74711,153582,205415,-3.6705898684,-7.8101729664,5.306084115499999,16
74777,153616,205447,-3.8177484582999996,-7.8472617167,5.2259245584,17
74868,153568,205461,-3.6993037396,-7.5876404646,5.264209719999999,18
74959,153626,205469,-3.6945180944,-7.8053873212000005,5.2450671392,19
75116,153607,205493,-3.7005001509,-7.848458128,5.2558348409,20
75172,153631,205468,-3.6430724085,-7.8472617167,5.2594240748,21
75275,153692,205480,-3.6239298277,-7.7252277641000004,5.2307102036,22
75399,153663,205498,-3.6466616424,-7.7347990545,5.2211389132,23
75506,153678,205468,-3.780659708,-7.9298140964,5.240281494,24
75599,153684,205479,-3.7184463204,-7.733602643199999,5.344369277099999,25
75702,153711,205508,-3.6885360378999996,-7.7682985709,5.3072805268000005,26
75794,153719,205499,-3.9230326527000003,-7.7814590952,5.363511857900001,27
75897,153721,205481,-3.6335011181000003,-7.7252277641000004,5.2259245584,28
75993,153715,205482,-3.6418759972,-7.886743289599999,5.1218367753,29
75955,153704,205481,-3.5473595045,-7.7587272805,5.2127640341,30
75690,153671,205456,-3.684946804,-7.7682985709,5.2677989539,31
75179,153658,205456,-3.7028929734999996,-7.8113693777,5.192425042,32
74828,153607,205413,-3.7232319655999997,-7.6582287313,5.2821558895,33
74458,153585,205407,-3.5760733757,-7.621139981,5.197210687199999,34
74372,153555,205424,-3.6705898684,-7.6630143765,5.2965128251,35
74298,153587,205382,-3.8189448695999997,-7.7718878047999995,5.2594240748,36
74346,153572,205407,-3.5617164401,-7.8149586116,5.248656373099999,37
74495,153635,205421,-3.5581272062,-7.8759755879,5.3503513336,38
74636,153601,205434,-3.6753755136,-7.9764741371,5.2259245584,39
74764,153622,205444,-3.7758740628,-7.8376904263,5.2450671392,40
74819,153634,205447,-3.7615171272,-7.7240313528,5.292923591199999,41
74910,153640,205438,-3.6179477712,-7.728816998,5.2594240748,42
74980,153629,205450,-3.8512479747,-7.7252277641000004,5.2019963324,43
75047,153638,205474,-3.7040893848,-7.8089765551,5.2977092364,44
75148,153665,205464,-3.7088750299999997,-7.7012995381,5.3012984703,45
75252,153629,205470,-3.637090352,-7.728816998,5.3539405675,46
75332,153677,205494,-3.6622149893000002,-7.896314579999999,5.334797986699999,47
75440,153669,205464,-3.8321053939,-7.816155022899999,5.197210687199999,48
75555,153598,205461,-3.6203405937999995,-7.6725856669,5.1888358081,49
75641,153750,205459,-3.7615171272,-7.8664042975,5.2785666556,50
75742,153714,205512,-3.7387853125,-7.8017980873,5.2546384296,51
75837,153757,205511,-3.8129628130999995,-7.7156564737,5.2917271799,52
75935,153737,205464,-3.6586257553999997,-7.7826555065,5.288137946,53
76022,153735,205479,-3.7088750299999997,-7.704888771999999,5.2546384296,54
76126,153743,205492,-3.6945180944,-7.8388868376,5.216353268,55
76192,153668,205482,-3.6574293441,-7.7814590952,5.240281494,56
76109,153726,205417,-3.780659708,-7.7587272805,5.264209719999999,57
75752,153682,205464,-3.684946804,-7.8341011924,5.216353268,58
75321,153640,205415,-3.6514472876,-7.749155990099999,5.2498527844,59
74953,153617,205382,-3.5952159565,-7.9011002251999995,5.2737810104,60
74697,153597,205345,-3.7232319655999997,-7.6821569573,5.2019963324,61
74598,153616,205380,-3.6670006345,-7.8341011924,5.288137946,62
74553,153605,205370,-3.6000016017000003,-7.829315547199999,5.335994398,63
74651,153680,205418,-3.7100714413,-7.6151579245,5.0931229041,64
74789,153637,205420,-3.613162126,-7.7587272805,5.3682975031,65
74920,153654,205378,-3.7375889012,-7.7671021596,5.240281494,66
75046,153657,205429,-3.6514472876,-7.8424760715,5.2498527844,67
75121,153582,205451,-3.7555350706999997,-7.800601675999999,5.2737810104,68
75173,153684,205423,-3.6466616424,-7.848458128,5.216353268,69
75245,153651,205454,-3.7842489418999996,-7.752745224,5.288137946,70
75346,153706,205419,-3.684946804,-7.7539416353,5.2689953652,71
75439,153701,205397,-3.6801611588,-7.8568330071,5.3012984703,72
75536,153698,205432,-3.7088750299999997,-7.7874411516999995,5.277370244299999,73
75653,153736,205413,-3.7938202323,-7.8101729664,5.219942501899999,74
75778,153702,205474,-3.7902309983999998,-7.6821569573,5.2546384296,75
75878,153706,205489,-3.6035908356,-7.819744256799999,5.2917271799,76
75980,153726,205424,-3.7938202323,-7.832904781100001,5.315655405899999,77
76081,153720,205465,-3.6047872469,-7.819744256799999,5.306084115499999,78
76180,153726,205466,-3.6801611588,-7.7347990545,5.235495848799999,79
76343,153754,205443,-3.8045879339999997,-7.9334033303,5.2833523008,80
76387,153741,205437,-3.6418759972,-7.6785677234,5.2785666556,81
76480,153740,205484,-3.7375889012,-7.6582287313,5.359922623999999,82
76558,153774,205453,-3.9003008379999997,-7.7060851833,5.264209719999999,83
76509,153755,205429,-3.6538401101999995,-7.752745224,5.2115676228000005,84
76230,153724,205419,-3.5234312785000004,-7.861618652300001,5.2594240748,85
75827,153675,205415,-3.5952159565,-7.8113693777,5.292923591199999,86
75459,153592,205367,-3.6897324492,-7.7718878047999995,5.235495848799999,87
75193,153617,205313,-3.732803256,-7.7587272805,5.2821558895,88
75013,153602,205326,-3.6957145057000003,-7.7958160308,5.3300123415,89
75012,153580,205327,-3.6646078119,-7.7012995381,5.3012984703,90
75141,153629,205328,-3.7316068447,-7.9465638546,5.264209719999999,91
75234,153641,205336,-3.6801611588,-7.752745224,5.1792645177,92
75352,153654,205364,-3.7375889012,-7.777869861299999,5.315655405899999,93
75469,153608,205369,-3.6239298277,-7.8341011924,5.2737810104,94
75520,153672,205383,-3.6610185779999997,-7.8436724828,5.2115676228000005,95
75605,153674,205352,-3.6610185779999997,-7.77667345,5.2067819775999995,96
75665,153681,205397,-3.7950166436,-7.8436724828,5.3826544387,97
75743,153680,205413,-3.7615171272,-7.8185478454999995,5.306084115499999,98
75875,153688,205395,-3.7651063610999995,-7.824529902,5.288137946,99
75955,153663,205414,-3.8177484582999996,-7.7108708285,5.2917271799,100
76055,153682,205374,-3.6753755136,-7.819744256799999,5.3682975031,101
76148,153680,205403,-3.6191441825000004,-7.8819576444,5.2917271799,102
76253,153725,205382,-3.7220355542999997,-7.7539416353,5.1840501629,103
76350,153728,205437,-3.7615171272,-7.7718878047999995,5.2211389132,104
76435,153788,205407,-3.6382867633,-7.8149586116,5.2175496793,105
76546,153736,205394,-3.6897324492,-7.763512925700001,5.1589255256,106
76634,153748,205429,-3.6526436989,-7.7060851833,5.2833523008,107
76729,153759,205421,-3.7746776515,-7.667800021700001,5.264209719999999,108
76807,153760,205365,-3.6239298277,-7.777869861299999,5.216353268,109
76867,153748,205382,-3.6275190616,-7.6761749007999995,5.2067819775999995,110
76674,153695,205354,-3.7746776515,-7.7814590952,5.2259245584,111
76351,153646,205344,-3.6047872469,-7.8376904263,5.2689953652,112
75963,153645,205323,-3.6323047068,-7.7970124421,5.216353268,113
75660,153620,205330,-3.7040893848,-7.6917282476999995,5.1505506465,114
75466,153595,205289,-3.5665020853000002,-7.8520473619,5.2498527844,115
75410,153620,205305,-3.5521451497000003,-7.7252277641000004,5.197210687199999,116
75437,153623,205275,-3.7519458368,-7.8388868376,5.264209719999999,117
75518,153632,205329,-3.6287154729,-7.8388868376,5.2115676228000005,118
75660,153663,205339,-3.5102707542,-7.7240313528,5.288137946,119
75778,153683,205329,-3.684946804,-7.7431739336,5.2319066149,120
75821,153588,205328,-3.8225341035,-7.800601675999999,5.155336291699999,121
75902,153677,205355,-3.6861432153,-7.800601675999999,5.2307102036,122
75968,153681,205329,-3.7148570865,-7.832904781100001,5.2833523008,123
76019,153572,205334,-3.7902309983999998,-7.752745224,5.1505506465,124
76098,153727,205394,-3.6095728921,-7.7958160308,5.2115676228000005,125
76194,153710,205375,-3.5904303113,-7.848458128,5.197210687199999,126
76287,153712,205361,-3.6191441825000004,-7.749155990099999,5.3012984703,127
76391,153742,205358,-3.7244283769,-7.7431739336,5.1589255256,128
76486,153744,205389,-3.7902309983999998,-7.7958160308,5.182853751600001,129
76581,153720,205384,-3.7220355542999997,-7.7718878047999995,5.264209719999999,130
76651,153733,205357,-3.6753755136,-7.8711899427,5.2977092364,131
76732,153789,205336,-3.7292140221,-7.6821569573,5.2151568567,132
76829,153754,205348,-3.7842489418999996,-7.9944203065999995,5.292923591199999,133
76904,153771,205336,-3.6801611588,-7.791030385599999,5.363511857900001,134
76993,153761,205316,-3.7567314819999997,-7.763512925700001,5.3730831483,135
77049,153762,205371,-3.7375889012,-7.7718878047999995,5.1840501629,136
76948,153735,205336,-3.7148570865,-7.7862447404,5.2785666556,137
76628,153686,205280,-3.5760733757,-7.861618652300001,5.2534420183,138
76220,153664,205258,-3.7519458368,-7.7060851833,5.292923591199999,139
75856,153614,205242,-3.8321053939,-7.77667345,5.3575298014,140
75582,153602,205271,-3.6658042232,-7.800601675999999,5.2965128251,141
75438,153586,205276,-3.684946804,-7.763512925700001,5.2450671392,142
75369,153595,205243,-3.7220355542999997,-7.824529902,5.2917271799,143
75403,153616,205268,-3.7423745464,-7.708478005899999,5.1732824612,144
75500,153602,205271,-3.7184463204,-7.8640114749,5.2259245584,145
75601,153605,205267,-3.780659708,-7.8341011924,5.2450671392,146
75659,153642,205310,-3.6801611588,-7.752745224,5.248656373099999,147
75695,153679,205308,-3.7076786186999997,-7.8149586116,5.2534420183,148
75752,153655,205298,-3.8189448695999997,-7.824529902,5.4006006081999995,149
75845,153652,205335,-3.5808590209,-7.7730842161,5.1876393968,150
75895,153663,205304,-3.5425738593,-7.8771719992,5.3072805268000005,151
75948,153696,205320,-3.7339996673,-7.7252277641000004,5.3024948815999995,152
76042,153693,205345,-3.5605200288,-7.704888771999999,5.2917271799,153
76129,153696,205380,-3.7674991837,-7.8149586116,5.359922623999999,154
76230,153725,205328,-3.7567314819999997,-7.6821569573,5.1732824612,155
76321,153732,205352,-3.6574293441,-7.7814590952,5.2594240748,156
76419,153757,205388,-3.7698920062999997,-7.728816998,5.3108697607,157
76508,153635,205358,-3.8081771679,-7.829315547199999,5.2450671392,158
76583,153783,205329,-3.6897324492,-7.957331556300001,5.3395836319,159
76680,153747,205328,-3.7268211995,-7.7814590952,5.3395836319,160
76794,153790,205372,-3.7471601916,-7.8137622003,5.1493542352,161
76863,153745,205382,-3.7663027724,-7.8436724828,5.2307102036,162
76862,153770,205371,-3.6287154729,-7.6486574409,5.1876393968,163
76688,153740,205302,-3.5282169237,-7.824529902,5.1649075821,164
76330,153701,205301,-3.7471601916,-7.872386354,5.264209719999999,165
75922,153664,205318,-3.7040893848,-7.8628150636,5.3395836319,166
75584,153646,205276,-3.5952159565,-7.8771719992,5.155336291699999,167
75363,153641,205315,-3.7950166436,-7.7108708285,5.1876393968,168
75230,153681,205309,-3.7615171272,-7.8101729664,5.4017970195,169
75195,153641,205257,-3.7040893848,-7.9094751043,5.2438707279,170
75277,153687,205286,-3.7710884175999997,-7.7431739336,5.2450671392,171
75397,153632,205316,-3.7950166436,-7.8209406681,5.2259245584,172
75498,153687,205328,-3.6993037396,-7.8053873212000005,5.430510890700001,173
75575,153684,205300,-3.6526436989,-7.704888771999999,5.140979356100001,174
75624,153690,205336,-3.6993037396,-7.8101729664,5.2965128251,175
75683,153703,205339,-3.7651063610999995,-7.7312098206,5.2450671392,176
75759,153732,205339,-3.8237305148,-7.7431739336,5.1361937109,177
75829,153717,205330,-3.6466616424,-7.7060851833,5.335994398,178
75907,153712,205330,-3.6466616424,-7.7108708285,5.2007999211,179
76005,153737,205360,-3.7088750299999997,-7.7252277641000004,5.3264231076,180
76083,153778,205365,-3.7519458368,-7.9094751043,5.334797986699999,181
76199,153766,205369,-3.5952159565,-7.8053873212000005,5.2785666556,182
76295,153785,205360,-3.6526436989,-7.886743289599999,5.344369277099999,183
76396,153787,205380,-3.6430724085,-7.7922267969000005,5.2019963324,184
76463,153787,205403,-3.5916267225999996,-7.6630143765,5.2965128251,185
76557,153812,205386,-3.6897324492,-7.861618652300001,5.3072805268000005,186
76655,153799,205355,-3.7615171272,-7.7575308692,5.2307102036,187
76743,153816,205349,-3.7710884175999997,-7.8999038139,5.2869415346999995,188
76828,153808,205404,-3.5234312785000004,-7.824529902,5.2869415346999995,189
76897,153823,205391,-3.6335011181000003,-7.6809605460000006,5.235495848799999,190
76845,153839,205370,-3.5940195452,-7.858029418399999,5.2211389132,191
76594,153782,205366,-3.732803256,-7.7443703449,5.216353268,192
76181,153748,205313,-3.6813575701,-7.9621172015,5.3826544387,193
75794,153725,205324,-3.6705898684,-7.872386354,5.288137946,194
75506,153646,205306,-3.6526436989,-7.6869426025,5.2067819775999995,195
75327,153694,205320,-3.6466616424,-7.7539416353,5.2630133087,196
75239,153670,205296,-3.7232319655999997,-7.763512925700001,5.334797986699999,197
75282,153717,205299,-3.7423745464,-7.7395846997,5.2546384296,198
75398,153714,205369,-3.6275190616,-7.7539416353,5.3168518172,199
75514,153724,205367,-3.6047872469,-7.8544401845,5.334797986699999,200
75605,153730,205344,-3.6753755136,-7.7443703449,5.3647082692,201
75685,153747,205382,-3.732803256,-7.824529902,5.3874400839,202
75706,153724,205371,-3.6095728921,-7.7347990545,5.3204410510999995,203
75770,153736,205363,-3.6801611588,-7.7958160308,5.2630133087,204
75834,153708,205415,-3.6000016017000003,-7.6594251426,5.2259245584,205
75911,153747,205378,-3.7615171272,-8.0327054682,5.2450671392,206
75990,153786,205379,-3.7663027724,-7.800601675999999,5.2055855663,207
76102,153791,205408,-3.6335011181000003,-7.6343005053,5.2259245584,208
76193,153779,205375,-3.7280176108,-7.8664042975,5.216353268,209
76280,153813,205389,-3.7698920062999997,-7.7431739336,5.1780681064,210
76397,153823,205425,-3.7746776515,-7.7443703449,5.2785666556,211
76528,153832,205391,-3.7339996673,-7.7347990545,5.2689953652,212
76556,153799,205397,-3.5102707542,-7.7958160308,5.3204410510999995,213
76633,153819,205398,-3.7375889012,-7.7671021596,5.2785666556,214
76734,153815,205393,-3.6825539814000003,-7.7383882884,5.292923591199999,215
76808,153834,205414,-3.6000016017000003,-7.791030385599999,5.419743189,216
76892,153864,205455,-3.732803256,-7.7300134093,5.288137946,217
76947,153844,205423,-3.6658042232,-7.77667345,5.306084115499999,218
76899,153819,205432,-3.7280176108,-7.7730842161,5.2546384296,219
76607,153787,205393,-3.6957145057000003,-7.8281191359,5.1649075821,220
76199,153750,205346,-3.6526436989,-7.819744256799999,5.331208752799999,221
75831,153680,205319,-3.8404802730000003,-7.7096744172000005,5.1637111708,222
75542,153678,205291,-3.7339996673,-7.7898339743,5.277370244299999,223
75397,153648,205357,-3.6658042232,-7.890332523500001,5.2366922601,224
75335,153695,205344,-3.7603207159,-7.749155990099999,5.2977092364,225
75375,153700,205319,-3.5282169237,-7.720442118899999,5.3108697607,226
75508,153742,205353,-3.7052857961,-7.8149586116,5.2869415346999995,227
75608,153752,205359,-3.7268211995,-7.8436724828,5.264209719999999,228
75692,153713,205351,-3.6717862797,-7.7431739336,5.288137946,229
75731,153726,205371,-3.7375889012,-7.777869861299999,5.2594240748,230
75778,153760,205390,-3.5246276898,-7.77667345,5.2115676228000005,231
75834,153733,205377,-3.7028929734999996,-7.7431739336,5.248656373099999,232
75889,153739,205394,-3.7603207159,-7.8101729664,5.3204410510999995,233
75960,153741,205387,-3.8225341035,-7.824529902,5.2677989539,234
76046,153763,205399,-3.6227334164,-7.829315547199999,5.2127640341,235
76129,153800,205424,-3.8093735792,-7.8388868376,5.1780681064,236
76250,153774,205403,-3.6514472876,-7.7395846997,5.2211389132,237
76303,153786,205385,-3.5796626096,-7.7874411516999995,5.1493542352,238
76384,153843,205435,-3.4384860762,-7.8436724828,5.2498527844,239
76471,153767,205379,-3.6478580537000003,-7.720442118899999,5.1302116544,240
76540,153808,205430,-3.637090352,-7.8017980873,5.3168518172,241
76628,153816,205424,-3.6586257553999997,-7.7730842161,5.1888358081,242
76701,153790,205394,-3.8703905555,-7.7718878047999995,5.362315446599999,243
76790,153859,205406,-3.5892339,-7.8819576444,5.2917271799,244
76860,153809,205415,-3.6287154729,-7.8520473619,5.2917271799,245
76893,153808,205382,-3.6765719249,-7.7814590952,5.240281494,246
76804,153771,205373,-3.6993037396,-7.791030385599999,5.235495848799999,247
76517,153756,205393,-3.6418759972,-7.872386354,5.2821558895,248
76117,153681,205320,-3.6753755136,-7.8341011924,5.277370244299999,249
75753,153684,205304,-3.7040893848,-7.8113693777,5.2677989539,250
75499,153663,205293,-3.7088750299999997,-7.7862447404,5.4017970195,251
75362,153694,205335,-3.684946804,-7.8209406681,5.169693227300001,252
75287,153639,205317,-3.6430724085,-7.762316514399999,5.2821558895,253
75325,153666,205326,-3.6670006345,-7.829315547199999,5.2450671392,254
75442,153690,205357,-3.6035908356,-7.8017980873,5.1732824612,255
75521,153677,205341,-3.7280176108,-7.8101729664,5.3826544387,256
75600,153619,205360,-3.7770704741,-7.7096744172000005,5.292923591199999,257
75659,153680,205362,-3.6179477712,-7.8676007087999995,5.3778687935,258
75699,153709,205334,-3.732803256,-7.886743289599999,5.2211389132,259
75748,153686,205397,-3.7040893848,-7.7706913935,5.1493542352,260
75813,153719,205333,-3.5904303113,-7.7192457076,5.2019963324,261
75886,153724,205376,-3.4899317621,-7.848458128,5.2546384296,262
75893,153730,205399,-3.5270205124,-7.7012995381,5.2259245584,263
76041,153727,205367,-3.7794632967,-7.6821569573,5.331208752799999,264
76124,153659,205402,-3.7998022888,-7.7575308692,5.235495848799999,265
76204,153765,205397,-3.7232319655999997,-7.8915289348,5.2067819775999995,266
76296,153722,205387,-3.6095728921,-7.824529902,5.306084115499999,267
76321,153738,205387,-3.6753755136,-7.785048329099999,5.3730831483,268
76436,153737,205387,-3.7280176108,-7.7252277641000004,5.216353268,269
76503,153745,205380,-3.6478580537000003,-7.8759755879,5.2067819775999995,270
76599,153743,205403,-3.6083764808,-7.8759755879,5.2917271799,271
76672,153774,205379,-3.7040893848,-7.832904781100001,5.288137946,272
76700,153756,205408,-3.6323047068,-7.8281191359,5.2737810104,273
76545,153726,205367,-3.5485559157999997,-7.8089765551,5.3300123415,274
76208,153708,205352,-3.7746776515,-7.8053873212000005,5.248656373099999,275
75811,153641,205332,-3.7172499091,-7.6869426025,5.2414779053,276
75461,153681,205306,-3.7088750299999997,-7.872386354,5.306084115499999,277
75212,153620,205298,-3.6670006345,-7.7587272805,5.2785666556,278
75087,153572,205293,-3.6993037396,-7.791030385599999,5.288137946,279
75069,153608,205314,-3.6897324492,-7.9621172015,5.2689953652,280
75118,153594,205328,-3.6610185779999997,-7.7144600624,5.2259245584,281
75212,153641,205333,-3.7423745464,-7.7994052647,5.335994398,282
75307,153669,205320,-3.6095728921,-7.7479595788,5.2498527844,283
75377,153590,205359,-3.7076786186999997,-7.635496916599999,5.1589255256,284
75420,153658,205345,-3.7663027724,-7.7946196195,5.235495848799999,285
75453,153643,205358,-3.7316068447,-7.7958160308,5.292923591199999,286
75553,153678,205329,-3.6753755136,-7.819744256799999,5.2259245584,287
75575,153619,205335,-3.7794632967,-7.6151579245,5.3264231076,288
75616,153655,205336,-3.6705898684,-7.8065837325,5.2965128251,289
75684,153661,205363,-3.6861432153,-7.8711899427,5.240281494,290
75764,153712,205381,-3.7363924898999996,-7.7922267969000005,5.2785666556,291
75832,153616,205365,-3.6287154729,-7.832904781100001,5.2414779053,292
75882,153679,205377,-3.7674991837,-7.6869426025,5.334797986699999,293
75940,153676,205340,-3.8033915226999997,-7.749155990099999,5.182853751600001,294
76064,153699,205367,-3.8081771679,-7.77667345,5.2115676228000005,295
76093,153645,205363,-3.6478580537000003,-7.733602643199999,5.3826544387,296
76166,153699,205387,-3.5294133349999997,-7.8341011924,5.264209719999999,297
76246,153662,205361,-3.732803256,-7.7347990545,5.2271209697000005,298
76271,153683,205375,-3.6801611588,-7.9046894591,5.240281494,299
76159,153701,205366,-3.6753755136,-7.6821569573,5.2965128251,300
75802,153631,205356,-3.6933216830999998,-7.752745224,5.277370244299999,301
75409,153587,205319,-3.6610185779999997,-7.7874411516999995,5.279763066899999,302
75065,153580,205256,-3.7088750299999997,-7.819744256799999,5.2175496793,303
74830,153558,205285,-3.8129628130999995,-7.7682985709,5.169693227300001,304
74687,153565,205316,-3.6478580537000003,-7.728816998,5.2450671392,305
74642,153561,205293,-3.7902309983999998,-7.7383882884,5.2977092364,306
74694,153516,205298,-3.7938202323,-7.7395846997,5.2821558895,307
74826,153584,205337,-3.6478580537000003,-7.8879397009000005,5.2785666556,308
74911,153620,205339,-3.613162126,-7.7970124421,5.3778687935,309
74977,153607,205349,-3.5521451497000003,-7.829315547199999,5.3072805268000005,310
75039,153629,205364,-3.6239298277,-7.8436724828,5.2019963324,311
75105,153626,205359,-3.7698920062999997,-7.7826555065,5.216353268,312
75160,153628,205410,-3.7651063610999995,-7.6486574409,5.235495848799999,313
75234,153562,205386,-3.6191441825000004,-7.752745224,5.3587262127,314
75328,153614,205411,-3.8811582571999996,-7.6821569573,5.2079783889,315
75438,153676,205393,-3.7615171272,-7.7300134093,5.2019963324,316
75534,153675,205394,-3.8177484582999996,-7.8281191359,5.2689953652,317
75638,153693,205418,-3.6035908356,-7.8520473619,5.3204410510999995,318
75741,153636,205417,-3.7184463204,-7.8819576444,5.3252266963,319
75838,153689,205462,-3.8273197486999995,-7.752745224,5.4257252455,320
75928,153712,205405,-3.7710884175999997,-7.7395846997,5.3072805268000005,321
76016,153727,205420,-3.8033915226999997,-7.6582287313,5.2689953652,322
76113,153721,205427,-3.6765719249,-7.762316514399999,5.2115676228000005,323
76213,153713,205462,-3.7663027724,-7.8101729664,5.2307102036,324
76296,153743,205441,-3.6765719249,-7.886743289599999,5.168496815999999,325
76317,153741,205426,-3.7902309983999998,-7.8149586116,5.3300123415,326
76127,153670,205416,-3.6670006345,-7.7347990545,5.2450671392,327
75756,153665,205356,-3.8045879339999997,-7.8532437732,5.334797986699999,328
75355,153631,205380,-3.8273197486999995,-7.829315547199999,5.219942501899999,329
74985,153596,205332,-3.7136606752,-7.800601675999999,5.1840501629,330
74827,153588,205324,-3.6753755136,-7.8376904263,5.2977092364,331
74694,153572,205355,-3.6622149893000002,-7.7874411516999995,5.359922623999999,332
74676,153537,205344,-3.6335011181000003,-7.6725856669,5.264209719999999,333
74760,153625,205368,-3.732803256,-7.7862447404,5.2259245584,334
74899,153654,205378,-3.6705898684,-7.816155022899999,5.292923591199999,335
75012,153646,205369,-3.7902309983999998,-7.9477602659,5.2546384296,336
75088,153687,205461,-3.7603207159,-7.6917282476999995,5.264209719999999,337
75146,153651,205406,-3.6717862797,-7.6881390138,5.2079783889,338
75212,153669,205414,-3.6861432153,-7.9058858704,5.3204410510999995,339
75280,153637,205442,-3.6562329328,-7.7443703449,5.235495848799999,340
75361,153683,205417,-3.6705898684,-7.7060851833,5.2450671392,341
75465,153661,205449,-3.7375889012,-7.8065837325,5.2917271799,342
75563,153679,205434,-3.7567314819999997,-7.733602643199999,5.155336291699999,343
75650,153695,205449,-3.6693934571,-7.7455667562,5.2833523008,344
75786,153726,205480,-3.6239298277,-7.8532437732,5.2689953652,345
75879,153676,205462,-3.6323047068,-7.7587272805,5.344369277099999,346
75963,153738,205464,-3.7471601916,-7.8676007087999995,5.321637462399999,347
76054,153726,205487,-3.8129628130999995,-8.0243305891,5.2689953652,348
76137,153659,205472,-3.5330025689,-7.8233334907000005,5.3024948815999995,349
76230,153756,205442,-3.7842489418999996,-7.957331556300001,5.306084115499999,350
76318,153785,205474,-3.6945180944,-7.7922267969000005,5.1744788725,351
76422,153762,205479,-3.7710884175999997,-7.7958160308,5.3168518172,352
76475,153772,205500,-3.5712877305000004,-7.7012995381,5.2546384296,353
76406,153779,205450,-3.6574293441,-7.8053873212000005,5.2689953652,354
76114,153715,205439,-3.7746776515,-7.7814590952,5.197210687199999,355
75713,153652,205420,-3.6909288605,-7.8137622003,5.306084115499999,356
75322,153650,205407,-3.6658042232,-7.6869426025,5.2869415346999995,357
75046,153643,205352,-3.7459637803,-7.9908310727,5.2785666556,358
74912,153620,205378,-3.7316068447,-7.8855468783,5.3204410510999995,359
74851,153611,205396,-3.6945180944,-7.7922267969000005,5.2498527844,360
74898,153625,205384,-3.7196427317,-7.791030385599999,5.3790652048,361
75032,153630,205389,-3.6861432153,-7.7730842161,5.288137946,362
75143,153652,205439,-3.8416766843000003,-7.8424760715,5.2821558895,363
75242,153658,205419,-3.6059836581999996,-7.7958160308,5.3072805268000005,364
75301,153596,205500,-3.5904303113,-7.7994052647,5.315655405899999,365
75366,153706,205464,-3.6430724085,-7.7395846997,5.3204410510999995,366
75421,153723,205443,-3.8799618459,-7.7012995381,5.240281494,367
75512,153674,205476,-3.6897324492,-7.8807612331,5.312066172,368
75591,153741,205428,-3.7280176108,-7.6869426025,5.1876393968,369
75679,153658,205468,-3.7148570865,-7.7383882884,5.2498527844,370
75777,153716,205494,-3.7088750299999997,-7.791030385599999,5.3862436726,371
75888,153759,205487,-3.8416766843000003,-7.8424760715,5.2833523008,372
75992,153753,205502,-3.7411781350999997,-7.8388868376,5.2019963324,373
76086,153803,205492,-3.6382867633,-7.7539416353,5.4640104071,374
76185,153740,205511,-3.5892339,-7.7431739336,5.4149575438,375
76291,153729,205535,-3.6335011181000003,-7.8951181687,5.2833523008,376
76355,153767,205488,-3.6562329328,-7.6917282476999995,5.2594240748,377
76456,153791,205477,-3.5665020853000002,-7.7587272805,5.2307102036,378
76539,153792,205536,-3.637090352,-7.7814590952,5.2917271799,379
76626,153708,205509,-3.7184463204,-7.8388868376,5.288137946,380
76664,153775,205509,-3.8428730956,-7.8807612331,5.363511857900001,381
76479,153751,205462,-3.5665020853000002,-7.8185478454999995,5.331208752799999,382
76107,153703,205425,-3.5629128513999997,-7.8017980873,5.3072805268000005,383
75679,153652,205389,-3.8081771679,-7.7096744172000005,5.235495848799999,384
75334,153653,205368,-3.7280176108,-7.8388868376,5.2067819775999995,385
75144,153630,205390,-3.6323047068,-7.7682985709,5.2689953652,386
75025,153631,205402,-3.5437702705999996,-7.858029418399999,5.3395836319,387
75013,153642,205416,-3.7280176108,-7.848458128,5.2498527844,388
75115,153567,205434,-3.7244283769,-7.7958160308,5.3252266963,389
75241,153685,205440,-3.5856446661000003,-7.749155990099999,5.2594240748,390
75341,153692,205432,-3.8093735792,-7.956135144999999,5.2067819775999995,391
75417,153696,205464,-3.7040893848,-7.6773713121,5.2295137923,392
75477,153721,205481,-3.6753755136,-7.720442118899999,5.321637462399999,393
75540,153681,205457,-3.6861432153,-7.7252277641000004,5.292923591199999,394
75599,153633,205468,-3.5808590209,-7.7431739336,5.1840501629,395
75667,153699,205452,-3.5569307949000004,-7.824529902,5.2067819775999995,396
75759,153739,205497,-3.6562329328,-7.8388868376,5.2115676228000005,397
75860,153713,205456,-3.637090352,-7.8676007087999995,5.3503513336,398
75957,153724,205463,-3.7136606752,-7.8676007087999995,5.2247281471,399
76063,153724,205502,-3.6430724085,-7.7814590952,5.2079783889,400
76162,153745,205479,-3.5569307949000004,-7.8520473619,5.321637462399999,401
76267,153751,205495,-3.6945180944,-7.920242806,5.2965128251,402
76346,153713,205474,-3.6466616424,-7.7682985709,5.2307102036,403
76432,153747,205469,-3.7423745464,-7.8568330071,5.4113683099,404
76502,153775,205475,-3.8237305148,-7.7874411516999995,5.240281494,405
76599,153726,205517,-3.7519458368,-7.7383882884,5.3682975031,406
76678,153793,205483,-3.6717862797,-7.749155990099999,5.3204410510999995,407
76789,153784,205497,-3.7986058774999996,-7.8053873212000005,5.2115676228000005,408
76705,153733,205452,-3.5904303113,-7.7575308692,5.2115676228000005,409
76438,153723,205438,-3.5198420446,-7.720442118899999,5.2019963324,410
76035,153679,205452,-3.7758740628,-7.7347990545,5.210371211499999,411
75636,153642,205401,-3.732803256,-7.7970124421,5.2689953652,412
75329,153609,205395,-3.8380874503999998,-7.8532437732,5.288137946,413
75138,153508,205378,-3.5952159565,-7.858029418399999,5.2546384296,414
75063,153608,205394,-3.7531422481,-7.8628150636,5.1637111708,415
75076,153637,205396,-3.6239298277,-7.7144600624,5.3012984703,416
75171,153648,205417,-3.6897324492,-7.7347990545,5.288137946,417
75325,153633,205375,-3.6658042232,-7.7718878047999995,5.3826544387,418
75405,153646,205384,-3.6897324492,-7.7958160308,5.2785666556,419
75456,153646,205434,-3.6287154729,-7.861618652300001,5.3682975031,420
75523,153693,205429,-3.5605200288,-7.7682985709,5.2438707279,421
75578,153652,205461,-3.5581272062,-7.6917282476999995,5.3300123415,422
75642,153626,205437,-3.5724841418,-7.8053873212000005,5.2833523008,423
75726,153684,205469,-3.6717862797,-7.7156564737,5.3874400839,424
75810,153685,205446,-3.6418759972,-7.858029418399999,5.2965128251,425
75899,153608,205487,-3.5569307949000004,-7.932206919,5.2594240748,426
76013,153693,205462,-3.7794632967,-7.7587272805,5.2211389132,427
76106,153677,205446,-3.7519458368,-7.6917282476999995,5.2917271799,428
76195,153704,205436,-3.7483566029,-7.7718878047999995,5.2594240748,429
76295,153706,205438,-3.8237305148,-7.8951181687,5.3012984703,430
76360,153710,205435,-3.6227334164,-7.763512925700001,5.2965128251,431
76441,153701,205428,-3.6047872469,-7.7575308692,5.2115676228000005,432
76531,153727,205440,-3.505485109,-7.6773713121,5.2307102036,433
76616,153787,205488,-3.7052857961,-7.683353368600001,5.3587262127,434
76665,153741,205454,-3.7567314819999997,-7.8568330071,5.2546384296,435
76597,153738,205439,-3.6622149893000002,-7.8676007087999995,5.2677989539,436
76268,153589,205405,-3.6717862797,-7.8065837325,5.216353268,437
75868,153629,205418,-3.7842489418999996,-7.7395846997,5.182853751600001,438
75474,153613,205379,-3.6705898684,-7.8065837325,5.334797986699999,439
75201,153571,205334,-3.8476587407999996,-7.7383882884,5.321637462399999,440
75047,153565,205304,-3.8368910391,-7.7862447404,5.2785666556,441
74998,153557,205381,-3.6993037396,-7.7718878047999995,5.3300123415,442
75015,153568,205391,-3.6382867633,-7.9106715156,5.3072805268000005,443
75147,153598,205431,-3.684946804,-7.8149586116,5.2737810104,444
75254,153611,205383,-3.7615171272,-7.8053873212000005,5.2546384296,445
75334,153626,205385,-3.7088750299999997,-7.749155990099999,5.288137946,446
75386,153622,205415,-3.7483566029,-7.7958160308,5.3108697607,447
75440,153666,205403,-3.7375889012,-7.6965138929000005,5.3072805268000005,448
75502,153626,205404,-3.6909288605,-7.777869861299999,5.3072805268000005,449
75560,153648,205421,-3.7052857961,-7.7252277641000004,5.2977092364,450
75642,153652,205454,-3.6562329328,-7.8759755879,5.2917271799,451
75723,153639,205413,-3.7040893848,-7.6725856669,5.2223353244999995,452
75836,153658,205446,-3.5952159565,-7.7718878047999995,5.2498527844,453
75915,153679,205430,-3.637090352,-7.8388868376,5.2833523008,454
75973,153679,205455,-3.6610185779999997,-7.733602643199999,5.3072805268000005,455
76061,153713,205414,-3.7088750299999997,-7.752745224,5.2917271799,456
76122,153673,205448,-3.6897324492,-7.7001031268,5.3024948815999995,457
76214,153679,205435,-3.6382867633,-7.7252277641000004,5.2737810104,458
76272,153718,205416,-3.8045879339999997,-7.858029418399999,5.2737810104,459
76337,153667,205454,-3.6430724085,-7.7730842161,5.2630133087,460
76394,153672,205426,-3.6753755136,-7.7347990545,5.2259245584,461
76356,153664,205416,-3.7339996673,-7.7479595788,5.2271209697000005,462
76110,153628,205399,-3.6705898684,-7.858029418399999,5.3252266963,463
75727,153613,205338,-3.6909288605,-7.8341011924,5.1876393968,464
75262,153559,205354,-3.7268211995,-7.7826555065,5.321637462399999,465
74946,153545,205343,-3.7316068447,-7.7958160308,5.331208752799999,466
74725,153519,205373,-3.6083764808,-7.6163543358,5.306084115499999,467
74644,153498,205377,-3.5569307949000004,-7.6809605460000006,5.4113683099,468
74720,153559,205340,-3.7698920062999997,-7.800601675999999,5.3108697607,469
74776,153527,205382,-3.5856446661000003,-7.7300134093,5.277370244299999,470
74906,153580,205399,-3.5617164401,-7.819744256799999,5.240281494,471
75001,153579,205416,-3.7615171272,-7.8388868376,5.216353268,472
75076,153599,205389,-3.6753755136,-7.8664042975,5.2594240748,473
75158,153609,205386,-3.6622149893000002,-7.645068207,5.2977092364,474
75219,153648,205415,-3.6658042232,-7.6917282476999995,5.2307102036,475
75287,153621,205413,-3.6418759972,-7.858029418399999,5.2869415346999995,476
75384,153631,205411,-3.8847474911,-7.6965138929000005,5.2977092364,477
75475,153694,205427,-3.6239298277,-7.8053873212000005,5.3108697607,478
75584,153657,205467,-3.6897324492,-7.728816998,5.1876393968,479
75700,153644,205426,-3.732803256,-7.7395846997,5.288137946,480
75800,153681,205444,-3.5892339,-7.77667345,5.102694194500001,481
75877,153668,205507,-3.7746776515,-7.8341011924,5.2977092364,482
76036,153704,205444,-3.6945180944,-7.8065837325,5.240281494,483
76072,153682,205445,-3.6239298277,-7.7730842161,5.2546384296,484
76183,153751,205440,-3.6753755136,-7.8149586116,5.334797986699999,485
76272,153649,205477,-3.7663027724,-7.7922267969000005,5.2534420183,486
76378,153738,205444,-3.8596228538,-7.7060851833,5.2630133087,487
76476,153713,205453,-3.7698920062999997,-7.7946196195,5.312066172,488
76350,153692,205439,-3.6323047068,-7.7862447404,5.2977092364,489
76031,153668,205427,-3.6610185779999997,-7.8137622003,5.2450671392,490
75602,153633,205418,-3.6610185779999997,-7.7431739336,5.2546384296,491
75217,153620,205357,-3.6526436989,-7.8436724828,5.3168518172,492
74945,153586,205333,-3.5856446661000003,-7.7156564737,5.2498527844,493
74764,153552,205341,-3.6466616424,-7.6474610296,5.168496815999999,494
74721,153592,205405,-3.6143585373000002,-7.791030385599999,5.2677989539,495
74780,153575,205394,-3.5952159565,-7.8101729664,5.2211389132,496
74926,153606,205429,-3.7663027724,-7.7575308692,5.2833523008,497
75048,153607,205436,-3.6382867633,-7.886743289599999,5.1936214533,498
75139,153633,205474,-3.7746776515,-7.7682985709,5.2546384296,499
75219,153623,205437,-3.6622149893000002,-7.858029418399999,5.2450671392,500
75270,153653,205464,-3.7268211995,-7.6821569573,5.2342994375,501
75337,153647,205455,-3.7950166436,-7.7682985709,5.359922623999999,502
75413,153689,205435,-3.780659708,-7.8101729664,5.239085082699999,503
75493,153683,205476,-3.7507494254999996,-7.7144600624,5.166103993399999,504
75574,153689,205474,-3.7292140221,-7.8819576444,5.2498527844,505
75692,153688,205482,-3.7136606752,-7.7383882884,5.2630133087,506
75802,153704,205488,-3.7088750299999997,-7.7814590952,5.288137946,507
75901,153753,205489,-3.6765719249,-7.7826555065,5.2259245584,508
76000,153737,205508,-3.6095728921,-7.8101729664,5.1780681064,509
76103,153748,205490,-3.6909288605,-7.6869426025,5.3778687935,510
76197,153734,205456,-3.6562329328,-7.7096744172000005,5.182853751600001,511
76284,153741,205527,-3.6047872469,-7.791030385599999,5.2833523008,512
76414,153767,205496,-3.7854453531999996,-7.8855468783,5.2067819775999995,513
76452,153762,205530,-3.6753755136,-7.704888771999999,5.264209719999999,514
76553,153792,205489,-3.7471601916,-7.7730842161,5.2977092364,515
76549,153760,205496,-3.7938202323,-7.8376904263,5.1649075821,516
76308,153750,205502,-3.6239298277,-7.7958160308,5.3264231076,517
75930,153687,205434,-3.7040893848,-7.8807612331,5.3024948815999995,518
75501,153671,205438,-3.8273197486999995,-7.8185478454999995,5.168496815999999,519
75187,153620,205414,-3.6705898684,-7.8388868376,5.1840501629,520
74990,153598,205444,-3.7998022888,-7.5780691741999995,5.1254260092,521
74877,153523,205426,-3.6478580537000003,-7.7539416353,5.2019963324,522
74911,153654,205467,-3.7746776515,-7.762316514399999,5.1936214533,523
75011,153648,205444,-3.7387853125,-7.7730842161,5.2785666556,524
75148,153661,205465,-3.6801611588,-7.819744256799999,5.2067819775999995,525
75276,153652,205501,-3.780659708,-7.7814590952,5.2977092364,526
75337,153674,205465,-3.6705898684,-7.9142607494999995,5.169693227300001,527
75415,153675,205500,-3.7268211995,-7.733602643199999,5.2689953652,528
75413,153687,205512,-3.6670006345,-7.7575308692,5.2689953652,529
75527,153696,205538,-3.637090352,-7.844868894099999,5.2498527844,530
75603,153710,205479,-3.8033915226999997,-7.861618652300001,5.3168518172,531
75720,153727,205515,-3.7375889012,-7.77667345,5.2079783889,532
75821,153713,205522,-3.7555350706999997,-7.7587272805,5.240281494,533
75933,153744,205506,-3.5856446661000003,-7.7252277641000004,5.2594240748,534
76065,153753,205492,-3.5880374887,-7.704888771999999,5.2546384296,535
76121,153754,205510,-3.7710884175999997,-7.6773713121,5.3168518172,536
76214,153761,205523,-3.7184463204,-7.8771719992,5.216353268,537
76323,153763,205528,-3.5844482548,-7.7814590952,5.2677989539,538
76347,153767,205542,-3.684946804,-7.824529902,5.306084115499999,539
76490,153773,205513,-3.6993037396,-7.7958160308,5.2259245584,540
76576,153777,205532,-3.6143585373000002,-7.749155990099999,5.3587262127,541
76684,153793,205539,-3.7028929734999996,-7.832904781100001,5.1218367753,542
76770,153812,205549,-3.7184463204,-7.8520473619,5.2307102036,543
76763,153756,205539,-3.6035908356,-7.7587272805,5.3252266963,544
76538,153764,205492,-3.6562329328,-7.7012995381,5.392225729100001,545
76120,153682,205475,-3.7519458368,-7.7443703449,5.2450671392,546
75711,153645,205424,-3.457628657,-7.7730842161,5.235495848799999,547
75394,153647,205432,-3.7591243046000002,-7.8352976037,5.1541398804,548
75173,153655,205428,-3.7280176108,-7.8472617167,5.3168518172,549
75088,153596,205458,-3.4564322457,-7.7682985709,5.1876393968,550
75081,153619,205464,-3.7375889012,-7.763512925700001,5.2677989539,551
75181,153677,205421,-3.6945180944,-7.8388868376,5.168496815999999,552
75312,153607,205472,-3.7040893848,-7.8532437732,5.3072805268000005,553
75399,153693,205462,-3.5940195452,-7.7347990545,5.235495848799999,554
75464,153706,205473,-3.6574293441,-7.6725856669,5.1876393968,555
75509,153684,205463,-3.7292140221,-7.819744256799999,5.264209719999999,556
75574,153673,205489,-3.780659708,-7.848458128,5.1732824612,557
75631,153699,205481,-3.8033915226999997,-7.7826555065,5.2785666556,558
75729,153626,205489,-3.7232319655999997,-7.667800021700001,5.2067819775999995,559
75795,153692,205456,-3.7507494254999996,-7.915457160799999,5.2869415346999995,560
75891,153685,205486,-3.6981073283,-7.7958160308,5.2115676228000005,561
75973,153711,205494,-3.8129628130999995,-7.8101729664,5.235495848799999,562
76063,153707,205471,-3.7136606752,-7.7587272805,5.288137946,563
76154,153710,205497,-3.6993037396,-7.804190909899999,5.2737810104,564
76228,153719,205486,-3.7184463204,-7.7970124421,5.2546384296,565
76322,153719,205488,-3.7280176108,-7.8053873212000005,5.2211389132,566
76400,153720,205504,-3.6239298277,-7.6773713121,5.2067819775999995,567
76476,153758,205471,-3.6993037396,-7.7192457076,5.1649075821,568
76559,153748,205487,-3.7459637803,-7.763512925700001,5.216353268,569
76638,153654,205468,-3.6885360378999996,-7.6295148601000005,5.197210687199999,570
76658,153786,205477,-3.7100714413,-7.6594251426,5.3491549223,571
76513,153700,205444,-3.732803256,-7.728816998,5.2594240748,572
76165,153665,205458,-3.7471601916,-7.848458128,5.2917271799,573
75731,153652,205405,-3.5904303113,-7.8628150636,5.240281494,574
75368,153601,205381,-3.6945180944,-7.819744256799999,5.292923591199999,575
75120,153597,205362,-3.7615171272,-7.7395846997,5.2307102036,576
74993,153603,205377,-3.6658042232,-7.7539416353,5.2019963324,577
74962,153603,205386,-3.6945180944,-7.6773713121,5.2067819775999995,578
75031,153573,205421,-3.7567314819999997,-7.829315547199999,5.197210687199999,579
75158,153616,205391,-3.6993037396,-7.8951181687,5.306084115499999,580
75275,153616,205415,-3.6861432153,-7.8376904263,5.2737810104,581
75347,153679,205450,-3.7184463204,-7.8496545393,5.4113683099,582
75402,153619,205429,-3.6287154729,-7.8053873212000005,5.264209719999999,583
75451,153637,205448,-3.6358939407,-7.7814590952,5.192425042,584
75510,153638,205430,-3.6143585373000002,-7.8185478454999995,5.197210687199999,585
75575,153660,205465,-3.5150563993999997,-7.7300134093,5.2689953652,586
75644,153669,205442,-3.6179477712,-7.873582765299999,5.1876393968,587
75744,153667,205486,-3.6945180944,-7.8436724828,5.1732824612,588
75817,153708,205444,-3.6143585373000002,-7.8149586116,5.2079783889,589
75908,153683,205454,-3.8512479747,-7.7347990545,5.2498527844,590
75989,153699,205479,-3.6957145057000003,-7.7347990545,5.2821558895,591
76068,153665,205487,-3.7710884175999997,-7.7718878047999995,5.3264231076,592
76142,153678,205451,-3.6753755136,-7.844868894099999,5.3252266963,593
76197,153714,205445,-3.6562329328,-7.7479595788,5.2067819775999995,594
76198,153656,205437,-3.7232319655999997,-7.7539416353,5.3491549223,595
76332,153689,205454,-3.6382867633,-7.7395846997,5.264209719999999,596
76394,153702,205461,-3.7902309983999998,-7.7862447404,5.3024948815999995,597
76389,153693,205397,-3.6801611588,-7.7300134093,5.288137946,598
76216,153668,205433,-3.4983066412,-7.8017980873,5.240281494,599
75830,153653,205411,-3.6993037396,-7.6785677234,5.2689953652,600
75313,153585,205415,-3.6801611588,-7.9214392173,5.277370244299999,601
75012,153559,205369,-3.6957145057000003,-7.7958160308,5.334797986699999,602
74775,153508,205373,-3.6179477712,-7.7060851833,5.2079783889,603
74657,153535,205327,-3.8656049103,-7.7383882884,5.312066172,604
74598,153551,205394,-3.7567314819999997,-7.8341011924,5.235495848799999,605
74688,153575,205350,-3.6035908356,-7.829315547199999,5.2630133087,606
74820,153565,205406,-3.6705898684,-7.777869861299999,5.3491549223,607
74937,153610,205419,-3.6765719249,-7.942974620699999,5.2223353244999995,608
75000,153589,205464,-3.6418759972,-7.9106715156,5.239085082699999,609
75044,153614,205443,-3.7615171272,-7.7671021596,5.288137946,610
75116,153596,205422,-3.637090352,-7.7240313528,5.155336291699999,611
75193,153618,205478,-3.7531422481,-7.8388868376,5.2594240748,612
75289,153676,205435,-3.7938202323,-7.8376904263,5.240281494,613
75375,153646,205445,-3.7710884175999997,-7.7922267969000005,5.240281494,614
75463,153628,205458,-3.7375889012,-7.800601675999999,5.169693227300001,615
75578,153685,205472,-3.7375889012,-7.6869426025,5.2259245584,616
75660,153666,205504,-3.6047872469,-7.858029418399999,5.182853751600001,617
75804,153683,205470,-3.7088750299999997,-7.791030385599999,5.3778687935,618
75879,153707,205482,-3.6478580537000003,-7.800601675999999,5.2977092364,619
76000,153653,205492,-3.6526436989,-7.752745224,5.292923591199999,620
76091,153711,205508,-3.5282169237,-7.6773713121,5.240281494,621
76201,153726,205460,-3.6622149893000002,-7.635496916599999,5.321637462399999,622
76283,153728,205521,-3.6753755136,-7.824529902,5.3539405675,623
76398,153739,205490,-3.6885360378999996,-7.8305119585,5.2534420183,624
76429,153731,205513,-3.6801611588,-7.8819576444,5.3024948815999995,625
76279,153741,205463,-3.6897324492,-7.7012995381,5.139782944799999,626
75912,153648,205469,-3.7280176108,-7.848458128,5.3778687935,627
75465,153628,205400,-3.6191441825000004,-7.844868894099999,5.306084115499999,628
75096,153597,205420,-3.6394831745999996,-7.844868894099999,5.3252266963,629
74870,153594,205440,-3.6478580537000003,-7.6582287313,5.4017970195,630
74750,153609,205410,-3.6610185779999997,-7.8137622003,5.2115676228000005,631
74728,153590,205396,-3.5808590209,-7.6965138929000005,5.2833523008,632
74785,153617,205413,-3.6658042232,-7.8640114749,5.2582276635,633
74936,153622,205478,-3.8273197486999995,-7.8664042975,5.3072805268000005,634
75048,153636,205421,-3.6323047068,-7.8532437732,5.2546384296,635
75141,153638,205461,-3.7316068447,-7.819744256799999,5.1266224204999995,636
75198,153654,205473,-3.82851616,-7.728816998,5.2833523008,637
75259,153671,205468,-3.6765719249,-7.8807612331,5.2546384296,638
75329,153645,205498,-3.6765719249,-7.8711899427,5.2737810104,639
75434,153660,205518,-3.7615171272,-7.752745224,5.334797986699999,640
75495,153710,205472,-3.6610185779999997,-7.8341011924,5.235495848799999,641
75607,153653,205524,-3.7411781350999997,-7.7395846997,5.3168518172,642
75706,153768,205557,-3.6059836581999996,-7.8352976037,5.235495848799999,643
75820,153717,205518,-3.780659708,-7.8436724828,5.288137946,644
75918,153775,205515,-3.7758740628,-7.819744256799999,5.3204410510999995,645
76021,153716,205507,-3.7555350706999997,-7.8149586116,5.264209719999999,646
76117,153760,205529,-3.6993037396,-7.7443703449,5.2965128251,647
76191,153750,205502,-3.7040893848,-7.7443703449,5.3407800432,648
76279,153749,205527,-3.7746776515,-7.848458128,5.2594240748,649
76378,153753,205517,-3.6658042232,-7.7108708285,5.321637462399999,650
76471,153789,205501,-3.7615171272,-7.7814590952,5.288137946,651
76534,153769,205490,-3.732803256,-7.7970124421,5.2785666556,652
76477,153785,205529,-3.8512479747,-7.7587272805,5.2785666556,653
76179,153736,205507,-3.6717862797,-7.7060851833,5.3072805268000005,654
75742,153694,205427,-3.7567314819999997,-7.7383882884,5.2450671392,655
75351,153628,205454,-3.6897324492,-7.872386354,5.2259245584,656
75053,153667,205444,-3.7244283769,-7.7108708285,5.1780681064,657
74881,153594,205425,-3.684946804,-7.9190463947000005,5.2211389132,658
74803,153632,205416,-3.6287154729,-7.7479595788,5.1840501629,659
74831,153655,205454,-3.6610185779999997,-7.6582287313,5.288137946,660
74975,153674,205466,-3.637090352,-7.6630143765,5.2677989539,661
75101,153659,205445,-3.7459637803,-7.7479595788,5.334797986699999,662
75210,153681,205480,-3.7674991837,-7.7108708285,5.2594240748,663
75264,153667,205504,-3.6801611588,-7.6917282476999995,5.2534420183,664
75322,153672,205474,-3.684946804,-7.7587272805,5.192425042,665
75380,153725,205478,-3.6658042232,-7.7922267969000005,5.3072805268000005,666
75441,153711,205483,-3.7483566029,-7.5816584081,5.312066172,667
75529,153715,205495,-3.8129628130999995,-7.6917282476999995,5.2594240748,668
75620,153619,205527,-3.8189448695999997,-7.749155990099999,5.2319066149,669
75710,153720,205497,-3.6035908356,-7.791030385599999,5.1637111708,670
75837,153689,205476,-3.732803256,-7.728816998,5.2965128251,671
75934,153740,205481,-3.7184463204,-7.7108708285,5.3024948815999995,672
76017,153717,205497,-3.7698920062999997,-7.6402825618,5.3778687935,673
76085,153746,205509,-3.6945180944,-7.8209406681,5.2785666556,674
76191,153766,205531,-3.7567314819999997,-7.7443703449,5.2594240748,675
76278,153756,205518,-3.6945180944,-7.848458128,5.3539405675,676
76372,153793,205529,-3.732803256,-7.7539416353,5.306084115499999,677
76443,153783,205536,-3.8081771679,-7.8149586116,5.235495848799999,678
76561,153764,205499,-3.7998022888,-7.695317481599999,5.2737810104,679
76507,153754,205475,-3.7902309983999998,-7.8532437732,5.1732824612,680
76266,153744,205442,-3.7052857961,-7.848458128,5.2737810104,681
75848,153689,205464,-3.7136606752,-7.7144600624,5.2737810104,682
75434,153670,205425,-3.6035908356,-7.8436724828,5.2785666556,683
75117,153627,205411,-3.6143585373000002,-7.7970124421,5.3826544387,684
74913,153627,205386,-3.6335011181000003,-7.8113693777,5.334797986699999,685
74795,153622,205389,-3.7567314819999997,-7.6103722793,5.2725845991,686
74826,153637,205388,-3.7615171272,-7.8341011924,5.2821558895,687
74944,153621,205411,-3.7088750299999997,-7.8640114749,5.2307102036,688
75067,153625,205377,-3.7938202323,-7.8676007087999995,5.2223353244999995,689
75157,153665,205445,-3.6909288605,-7.7575308692,5.2498527844,690
75228,153637,205441,-3.7375889012,-7.7539416353,5.2211389132,691
75215,153642,205376,-3.4719855926,-7.8341011924,5.3252266963,692
75319,153725,205425,-3.6765719249,-7.7300134093,5.3455656884,693
75353,153672,205406,-3.8093735792,-7.7575308692,5.239085082699999,694
75467,153676,205423,-3.7363924898999996,-7.8376904263,5.3300123415,695
75551,153666,205452,-3.7603207159,-7.7575308692,5.3730831483,696
75638,153588,205455,-3.6574293441,-7.9011002251999995,5.306084115499999,697
75747,153732,205426,-3.7040893848,-7.824529902,5.1361937109,698
75846,153683,205438,-3.5569307949000004,-7.7970124421,5.2594240748,699
75932,153686,205389,-3.8787654346,-7.7060851833,5.3300123415,700
76016,153688,205424,-3.6897324492,-7.7240313528,5.2689953652,701
76102,153686,205427,-3.7316068447,-7.6019974002,5.2307102036,702
76179,153697,205441,-3.7471601916,-7.6821569573,5.3168518172,703
76250,153708,205416,-3.7854453531999996,-7.8233334907000005,5.240281494,704
76303,153712,205428,-3.6514472876,-7.829315547199999,5.3587262127,705
76269,153761,205401,-3.6514472876,-7.7347990545,5.235495848799999,706
75994,153648,205375,-3.7184463204,-7.7252277641000004,5.3778687935,707
75573,153635,205326,-3.5916267225999996,-7.928617685100001,5.2498527844,708
75157,153608,205323,-3.6610185779999997,-7.728816998,5.2833523008,709
74868,153549,205323,-3.5282169237,-7.7347990545,5.277370244299999,710
74671,153565,205314,-3.6107693033999997,-7.9298140964,5.235495848799999,711
74594,153544,205317,-3.8751762007000004,-7.7587272805,5.2821558895,712
74632,153601,205347,-3.6143585373000002,-7.8341011924,5.2546384296,713
74769,153583,205349,-3.8141592244,-7.7671021596,5.335994398,714
74890,153601,205335,-3.6514472876,-7.6199435697,5.2019963324,715
75003,153583,205320,-3.6993037396,-7.749155990099999,5.288137946,716
75071,153530,205337,-3.7519458368,-7.8532437732,5.2127640341,717
75133,153648,205337,-3.8416766843000003,-7.925028451199999,5.3204410510999995,718
75209,153593,205373,-3.7172499091,-7.7826555065,5.182853751600001,719
75272,153619,205342,-3.6945180944,-7.9058858704,5.219942501899999,720
75361,153640,205346,-3.8177484582999996,-7.8101729664,5.216353268,721
75457,153660,205360,-3.6610185779999997,-7.8915289348,5.2965128251,722
75519,153647,205344,-3.7663027724,-7.7718878047999995,5.2211389132,723
75622,153622,205361,-3.6047872469,-7.762316514399999,5.2965128251,724
75716,153655,205339,-3.6993037396,-7.8388868376,5.2498527844,725
75803,153638,205327,-3.6717862797,-7.6773713121,5.3252266963,726
75885,153661,205350,-3.5581272062,-7.8676007087999995,5.3539405675,727
75972,153659,205366,-3.7519458368,-7.8915289348,5.2019963324,728
76063,153669,205357,-3.780659708,-7.6869426025,5.2450671392,729
76142,153692,205332,-3.6813575701,-7.752745224,5.2869415346999995,730
76165,153702,205369,-3.684946804,-7.816155022899999,5.216353268,731
75973,153653,205316,-3.6670006345,-7.7671021596,5.334797986699999,732
75556,153589,205283,-3.7280176108,-7.7814590952,5.2127640341,733
75076,153533,205247,-3.7040893848,-7.7108708285,5.292923591199999,734
74674,153482,205252,-3.6765719249,-7.6857461912,5.2019963324,735
74461,153466,205169,-3.7615171272,-7.8053873212000005,5.2965128251,736
74284,153456,205223,-3.8368910391,-7.7264241754,5.359922623999999,737
74234,153507,205222,-3.6382867633,-7.8017980873,5.2833523008,738
74334,153476,205240,-3.8033915226999997,-7.7443703449,5.2462635505,739
74470,153508,205270,-3.6897324492,-7.8017980873,5.2630133087,740
74588,153500,205275,-3.8129628130999995,-7.8233334907000005,5.3072805268000005,741
74657,153535,205249,-3.7663027724,-7.777869861299999,5.2307102036,742
74704,153523,205290,-3.7902309983999998,-7.8532437732,5.2833523008,743
74766,153569,205262,-3.8081771679,-7.819744256799999,5.240281494,744
74844,153548,205278,-3.6323047068,-7.7431739336,5.210371211499999,745
74924,153544,205259,-3.7603207159,-7.8053873212000005,5.240281494,746
75021,153620,205283,-3.7375889012,-7.819744256799999,5.2785666556,747
75134,153550,205263,-3.6323047068,-7.8149586116,5.2821558895,748
75254,153591,205324,-3.6705898684,-7.858029418399999,5.264209719999999,749
75353,153580,205323,-3.5521451497000003,-7.928617685100001,5.2271209697000005,750
75509,153582,205297,-3.6335011181000003,-7.716852885,5.2917271799,751
75556,153619,205284,-3.6897324492,-7.8209406681,5.2307102036,752
75633,153634,205286,-3.6000016017000003,-7.7671021596,5.2594240748,753
75774,153653,205333,-3.5940195452,-7.8137622003,5.3108697607,754
75864,153574,205308,-3.6574293441,-7.8101729664,5.2977092364,755
75987,153632,205321,-3.5856446661000003,-7.77667345,5.2869415346999995,756
75991,153632,205304,-3.7148570865,-7.763512925700001,5.240281494,757
75746,153592,205305,-3.5270205124,-7.800601675999999,5.3252266963,758
75313,153539,205276,-3.7555350706999997,-7.7958160308,5.2594240748,759
74914,153522,205248,-3.6993037396,-7.920242806,5.240281494,760
74570,153517,205250,-3.5676984966,-7.7958160308,5.216353268,761
74392,153471,205228,-3.6275190616,-7.7347990545,5.306084115499999,762
74314,153535,205230,-3.7746776515,-7.9046894591,5.1876393968,763
74355,153538,205214,-3.8464623295,-7.6438717957,5.264209719999999,764
74498,153513,205288,-3.6993037396,-7.752745224,5.3491549223,765
74678,153560,205259,-3.7292140221,-7.6917282476999995,5.2259245584,766
74849,153589,205297,-3.6179477712,-7.7479595788,5.1457650013,767
74935,153599,205275,-3.6658042232,-7.791030385599999,5.2450671392,768
75020,153646,205308,-3.5808590209,-7.848458128,5.3072805268000005,769
75106,153572,205320,-3.6227334164,-7.7431739336,5.306084115499999,770
75211,153601,205329,-3.6897324492,-7.7862447404,5.2259245584,771
75316,153655,205310,-3.7280176108,-7.8999038139,5.3252266963,772
75421,153634,205292,-3.8333018051999996,-7.9106715156,5.2737810104,773
75537,153689,205345,-3.6801611588,-7.8017980873,5.3491549223,774
75683,153661,205343,-3.7280176108,-7.7156564737,5.2115676228000005,775
75780,153678,205358,-3.8464623295,-7.7575308692,5.192425042,776
75898,153651,205317,-3.7890345870999997,-7.8388868376,5.3970113743,777
76001,153704,205349,-3.732803256,-7.8149586116,5.288137946,778
76129,153618,205338,-3.5796626096,-7.7898339743,5.235495848799999,779
76219,153756,205353,-3.6335011181000003,-7.6905318364,5.3072805268000005,780
76334,153735,205341,-3.6095728921,-7.7252277641000004,5.2725845991,781
76448,153732,205341,-3.6873396266,-7.8472617167,5.2833523008,782
76514,153749,205319,-3.5952159565,-7.7671021596,5.264209719999999,783
76414,153773,205336,-3.7280176108,-7.6881390138,5.2833523008,784
76075,153672,205309,-3.5330025689,-7.800601675999999,5.1732824612,785
75655,153651,205272,-3.6083764808,-7.8053873212000005,5.1385865335,786
75287,153605,205232,-3.7136606752,-7.7539416353,5.2307102036,787
75113,153614,205256,-3.4648071248,-7.8915289348,5.2067819775999995,788
74961,153576,205265,-3.8416766843000003,-7.728816998,5.251049195699999,789
74969,153598,205266,-3.6526436989,-7.6402825618,5.1744788725,790
75064,153647,205311,-3.7663027724,-7.800601675999999,5.2498527844,791
75259,153642,205288,-3.6191441825000004,-7.6582287313,5.3730831483,792
75423,153673,205332,-3.6239298277,-7.7706913935,5.3072805268000005,793
75538,153687,205331,-3.5389846254,-7.6773713121,5.2689953652,794
75632,153694,205313,-3.7459637803,-7.819744256799999,5.2833523008,795
75712,153672,205326,-3.6418759972,-7.8209406681,5.2175496793,796
75798,153711,205297,-3.6897324492,-7.7383882884,5.240281494,797
75903,153681,205339,-3.6239298277,-7.7671021596,5.3874400839,798
76014,153718,205342,-3.6526436989,-7.6594251426,5.3024948815999995,799
76149,153732,205332,-3.7710884175999997,-7.704888771999999,5.2534420183,800
76249,153736,205365,-3.7040893848,-7.7240313528,5.344369277099999,801
76376,153757,205302,-3.5665020853000002,-7.824529902,5.2307102036,802
76477,153768,205317,-3.8033915226999997,-7.6582287313,5.2594240748,803
76646,153773,205317,-3.5844482548,-7.8628150636,5.2977092364,804
76695,153686,205341,-3.5665020853000002,-7.8209406681,5.288137946,805
76800,153820,205328,-3.732803256,-7.7814590952,5.2259245584,806
76915,153815,205330,-3.5712877305000004,-7.7958160308,5.2737810104,807
77027,153719,205351,-3.7519458368,-7.8532437732,5.2630133087,808
77139,153843,205357,-3.7244283769,-7.6761749007999995,5.240281494,809
77228,153799,205318,-3.6430724085,-7.7862447404,5.2594240748,810
77130,153795,205319,-3.5952159565,-7.848458128,5.2546384296,811
76827,153781,205282,-3.5150563993999997,-7.886743289599999,5.2031927437,812
76420,153726,205246,-3.6179477712,-7.6103722793,5.288137946,813
76078,153723,205256,-3.5808590209,-7.8065837325,5.2450671392,814
75871,153695,205253,-3.6526436989,-7.7431739336,5.2067819775999995,815
75761,153693,205260,-3.6670006345,-7.7024959494,5.197210687199999,816
75769,153679,205279,-3.7854453531999996,-7.7347990545,5.3252266963,817
75865,153625,205230,-3.684946804,-7.9298140964,5.312066172,818
76027,153749,205254,-3.7651063610999995,-7.7156564737,5.168496815999999,819
76196,153739,205304,-3.6323047068,-7.848458128,5.3539405675,820
76315,153774,205273,-3.6801611588,-7.6630143765,5.2917271799,821
76370,153772,205264,-3.6670006345,-7.7539416353,5.3874400839,822
76432,153744,205312,-3.7196427317,-7.800601675999999,5.1302116544,823
76512,153778,205285,-3.7232319655999997,-7.9238320399,5.3264231076,824
76603,153809,205269,-3.7375889012,-7.7060851833,5.1649075821,825
76706,153789,205313,-3.6634114006,-7.6965138929000005,5.2785666556,826
76819,153793,205281,-3.7184463204,-7.872386354,5.235495848799999,827
76927,153789,205327,-3.7519458368,-7.7551380466,5.264209719999999,828
77032,153772,205286,-3.601198013,-7.791030385599999,5.2785666556,829
77162,153849,205271,-3.6514472876,-7.8053873212000005,5.2965128251,830
77257,153827,205295,-3.6813575701,-7.6821569573,5.1876393968,831
77345,153807,205285,-3.5808590209,-7.9190463947000005,5.2594240748,832
77439,153737,205265,-3.8321053939,-7.8388868376,5.240281494,833
77488,153832,205308,-3.7615171272,-7.7443703449,5.3300123415,834
77636,153884,205264,-3.6227334164,-7.8305119585,5.3407800432,835
77722,153836,205280,-3.7052857961,-7.668996433,5.2833523008,836
77793,153843,205281,-3.6897324492,-7.7659057483,5.3730831483,837
77805,153873,205279,-3.6430724085,-7.8388868376,5.3407800432,838
77596,153806,205211,-3.6430724085,-7.8819576444,5.197210687199999,839
77207,153772,205227,-3.6861432153,-7.8436724828,5.3455656884,840
76803,153726,205193,-3.6993037396,-7.7958160308,5.2594240748,841
76492,153714,205173,-3.7519458368,-7.6821569573,5.2977092364,842
76290,153731,205185,-3.5952159565,-7.7874411516999995,5.2067819775999995,843
76210,153693,205194,-3.6705898684,-7.8568330071,5.1732824612,844
76209,153699,205180,-3.7040893848,-7.819744256799999,5.2307102036,845
76342,153736,205170,-3.7280176108,-7.639086150500001,5.1888358081,846
76461,153710,205217,-3.6478580537000003,-7.7108708285,5.140979356100001,847
76448,153743,205169,-3.7100714413,-7.8532437732,5.312066172,848
76606,153744,205199,-3.8847474911,-7.8424760715,5.277370244299999,849
76658,153734,205208,-3.6095728921,-7.7671021596,5.2725845991,850
76715,153740,205179,-3.5377882141000003,-7.8819576444,5.240281494,851
76746,153669,205200,-3.7519458368,-7.7347990545,5.216353268,852
76806,153742,205188,-3.6801611588,-7.7108708285,5.3970113743,853
76884,153763,205190,-3.6514472876,-7.9190463947000005,5.2450671392,854
76988,153730,205164,-3.7184463204,-7.9046894591,5.4017970195,855
77050,153784,205183,-3.8141592244,-7.832904781100001,5.2498527844,856
77137,153764,205184,-3.8141592244,-7.9142607494999995,5.197210687199999,857
77229,153847,205186,-3.7555350706999997,-7.77667345,5.2689953652,858
77293,153773,205172,-3.7938202323,-7.720442118899999,5.240281494,859
77370,153824,205164,-3.7842489418999996,-7.7958160308,5.240281494,860
77439,153790,205141,-3.5234312785000004,-7.5864440533,5.197210687199999,861
77502,153788,205162,-3.7663027724,-7.6773713121,5.2785666556,862
77579,153812,205174,-3.6993037396,-7.7718878047999995,5.248656373099999,863
77666,153821,205151,-3.7938202323,-7.6821569573,5.216353268,864
77660,153784,205106,-3.6813575701,-7.7682985709,5.2965128251,865
77469,153822,205133,-3.5940195452,-7.9011002251999995,5.392225729100001,866
77078,153710,205134,-3.6993037396,-7.8352976037,5.2630133087,867
76607,153656,205050,-3.7375889012,-7.695317481599999,5.3395836319,868
76232,153627,205034,-3.6227334164,-7.8113693777,5.277370244299999,869
75983,153633,205007,-3.6897324492,-7.7587272805,5.3300123415,870
75882,153586,205028,-3.5856446661000003,-7.750352401400001,5.2307102036,871
75811,153616,205048,-3.7902309983999998,-7.6917282476999995,5.2869415346999995,872
75885,153564,205059,-3.8177484582999996,-7.775477038699999,5.240281494,873
76014,153644,205049,-3.6418759972,-7.8017980873,5.0548377425,874
76120,153640,205056,-3.7842489418999996,-7.920242806,5.292923591199999,875
76152,153673,205042,-3.6885360378999996,-7.7252277641000004,5.2259245584,876
76203,153677,205053,-3.6059836581999996,-7.8400832489,5.2725845991,877
76257,153652,205023,-3.5425738593,-7.7730842161,5.2917271799,878
76305,153662,205024,-3.5521451497000003,-7.7252277641000004,5.335994398,879
76355,153653,205041,-3.6957145057000003,-7.791030385599999,5.1314080657000005,880
76431,153649,205065,-3.5952159565,-7.942974620699999,5.2737810104,881
76504,153690,205028,-3.7088750299999997,-7.8628150636,5.1876393968,882
76596,153685,205048,-3.6382867633,-7.7539416353,5.315655405899999,883
76684,153692,205065,-3.6574293441,-7.8568330071,5.216353268,884
76753,153696,205063,-3.7052857961,-7.7060851833,5.235495848799999,885
76823,153694,205045,-3.6275190616,-7.7671021596,5.2055855663,886
76892,153639,205030,-3.6945180944,-7.7156564737,5.216353268,887
76954,153686,205015,-3.6035908356,-7.942974620699999,5.1780681064,888
77072,153697,205052,-3.7076786186999997,-7.7443703449,5.2450671392,889
77110,153675,205069,-3.7184463204,-7.9776705484,5.1014977832,890
77142,153728,205038,-3.6574293441,-7.8257263133,5.1780681064,891
77096,153684,204979,-3.6574293441,-7.8711899427,5.3395836319,892
76892,153629,205001,-3.7423745464,-7.7862447404,5.182853751600001,893
76441,153603,204960,-3.6801611588,-7.8388868376,5.1589255256,894
75968,153556,204898,-3.82851616,-7.7479595788,5.264209719999999,895
75552,153498,204888,-3.6550365215,-7.7395846997,5.197210687199999,896
75281,153474,204888,-3.6753755136,-7.6486574409,5.2630133087,897
75114,153455,204870,-3.6335011181000003,-7.896314579999999,5.2534420183,898
75077,153491,204889,-3.7471601916,-7.915457160799999,5.248656373099999,899
75175,153507,204924,-3.780659708,-7.7730842161,5.2821558895,900
75234,153533,204907,-3.6993037396,-7.7575308692,5.1744788725,901
75393,153594,204934,-3.7890345870999997,-7.7096744172000005,5.2211389132,902
75448,153551,204939,-3.637090352,-7.791030385599999,5.240281494,903
75540,153545,204947,-3.6478580537000003,-7.7479595788,5.197210687199999,904
75529,153522,204936,-3.732803256,-7.7252277641000004,5.2115676228000005,905
75598,153595,204981,-3.7519458368,-7.7515488127,5.240281494,906
75655,153581,204962,-3.7136606752,-7.762316514399999,5.315655405899999,907
75759,153547,204965,-3.6622149893000002,-7.6008009889000006,5.192425042,908
75847,153560,204980,-3.7854453531999996,-7.6139615132000005,5.182853751600001,909
75952,153596,204932,-3.5904303113,-7.8855468783,5.216353268,910
76043,153619,204982,-3.8033915226999997,-7.8400832489,5.3300123415,911
76134,153598,204959,-3.6658042232,-7.762316514399999,5.192425042,912
76220,153649,204965,-3.7950166436,-7.800601675999999,5.3252266963,913
76306,153544,204967,-3.684946804,-7.7347990545,5.2211389132,914
76375,153692,204954,-3.5904303113,-7.77667345,5.306084115499999,915
76466,153630,204981,-3.6418759972,-7.752745224,5.2977092364,916
76539,153591,204985,-3.7555350706999997,-7.886743289599999,5.2785666556,917
76629,153663,205009,-3.7555350706999997,-7.7970124421,5.334797986699999,918
76652,153657,204955,-3.5856446661000003,-7.7156564737,5.3395836319,919
76437,153615,204937,-3.7040893848,-7.872386354,5.2450671392,920
76011,153572,204919,-3.6765719249,-7.7347990545,5.2785666556,921
75532,153560,204879,-3.7232319655999997,-7.752745224,5.1457650013,922
75159,153491,204854,-3.7507494254999996,-7.7108708285,5.2785666556,923
74895,153469,204853,-3.7998022888,-7.8341011924,5.192425042,924
74780,153504,204903,-3.6861432153,-7.6869426025,5.240281494,925
74764,153540,204894,-3.5617164401,-7.8472617167,5.3395836319,926
74880,153459,204927,-3.6885360378999996,-7.9345997416,5.2450671392,927
75047,153551,204921,-3.6717862797,-7.9142607494999995,5.3491549223,928
75194,153587,204943,-3.6945180944,-7.8149586116,5.2977092364,929
75293,153547,204965,-3.7280176108,-7.7862447404,5.3012984703,930
75338,153554,204977,-3.7567314819999997,-7.9058858704,5.335994398,931
75398,153599,204949,-3.7651063610999995,-7.9046894591,5.3395836319,932
75465,153608,204979,-3.6658042232,-7.7060851833,5.2833523008,933
75549,153574,204953,-3.6897324492,-7.77667345,5.2019963324,934
75633,153578,205001,-3.7471601916,-7.7252277641000004,5.3778687935,935
75756,153610,204970,-3.8560336199000003,-7.848458128,5.4017970195,936
75873,153610,204978,-3.6705898684,-7.7443703449,5.264209719999999,937
75970,153672,204987,-3.5006994637999997,-7.6785677234,5.169693227300001,938
76081,153619,204992,-3.6239298277,-7.6965138929000005,5.2546384296,939
76193,153653,205001,-3.7387853125,-7.7108708285,5.1744788725,940
76276,153657,204992,-3.6047872469,-7.7575308692,5.3168518172,941
76366,153651,204985,-3.5665020853000002,-7.890332523500001,5.197210687199999,942
76456,153576,204973,-3.7184463204,-7.8089765551,5.306084115499999,943
76532,153701,205010,-3.7005001509,-7.829315547199999,5.1302116544,944
76657,153714,205012,-3.7184463204,-7.6917282476999995,5.240281494,945
76751,153579,205009,-3.6801611588,-7.77667345,5.277370244299999,946
76785,153677,204981,-3.8428730956,-7.7479595788,5.312066172,947
76605,153536,204954,-3.7651063610999995,-7.824529902,5.1266224204999995,948
76206,153652,204933,-3.6753755136,-7.7108708285,5.3300123415,949
75755,153548,204920,-3.7268211995,-7.7718878047999995,5.288137946,950
75394,153575,204932,-3.6861432153,-7.932206919,5.4017970195,951
75202,153500,204896,-3.637090352,-7.6199435697,5.1876393968,952
75085,153517,204874,-3.6335011181000003,-7.762316514399999,5.331208752799999,953
75082,153533,204902,-3.6945180944,-7.7443703449,5.2737810104,954
75202,153542,204915,-3.6610185779999997,-7.8783684105,5.2450671392,955
75356,153581,204956,-3.6897324492,-7.7862447404,5.3192446398,956
75505,153568,204947,-3.6813575701,-7.8089765551,5.2546384296,957
75597,153602,204933,-3.6035908356,-7.8520473619,5.292923591199999,958
75671,153597,204970,-3.6813575701,-7.791030385599999,5.248656373099999,959
75736,153638,204973,-3.7722848289,-7.858029418399999,5.2821558895,960
75823,153627,204951,-3.780659708,-7.7659057483,5.1589255256,961
75919,153618,204978,-3.7088750299999997,-7.7479595788,5.192425042,962
76029,153552,204955,-3.5748769644,-7.8472617167,5.2977092364,963
76107,153650,205009,-3.7088750299999997,-7.829315547199999,5.2833523008,964
76227,153646,204987,-3.8524443859999997,-7.6103722793,5.240281494,965
76320,153597,205021,-3.7136606752,-7.6785677234,5.3682975031,966
76420,153674,204968,-3.732803256,-7.8137622003,5.2725845991,967
76530,153693,205001,-3.505485109,-7.8436724828,5.248656373099999,968
76626,153671,204975,-3.7136606752,-7.733602643199999,5.3072805268000005,969
76719,153688,204999,-3.7902309983999998,-7.800601675999999,5.288137946,970
76816,153610,204987,-3.7531422481,-7.800601675999999,5.240281494,971
76908,153684,205004,-3.6430724085,-7.7395846997,5.1840501629,972
76992,153691,204965,-3.6191441825000004,-7.8101729664,5.2689953652,973
77073,153723,204969,-3.565305674,-7.8149586116,5.2965128251,974
77166,153749,204978,-3.8572300312,-7.762316514399999,5.2606204861,975
77187,153719,204970,-3.7950166436,-7.7383882884,5.2833523008,976
76981,153674,204941,-3.6526436989,-7.667800021700001,5.2175496793,977
76603,153628,204896,-3.5808590209,-7.829315547199999,5.2307102036,978
76199,153577,204901,-3.6275190616,-7.8388868376,5.3024948815999995,979
75885,153581,204886,-3.7232319655999997,-7.6737820782,5.235495848799999,980
75697,153545,204875,-3.6945180944,-7.819744256799999,5.2115676228000005,981
75603,153606,204862,-3.7232319655999997,-7.8017980873,5.2295137923,982
75613,153582,204905,-3.7471601916,-7.8544401845,5.1840501629,983
75730,153585,204876,-3.7902309983999998,-7.5912296985,5.306084115499999,984
75870,153592,204917,-3.6083764808,-7.7443703449,5.3072805268000005,985
75989,153620,204942,-3.8512479747,-7.8436724828,5.334797986699999,986
76071,153620,204900,-3.6753755136,-7.752745224,5.2259245584,987
76128,153620,204931,-3.5952159565,-7.8436724828,5.235495848799999,988
76190,153658,204933,-3.6418759972,-7.8101729664,5.2785666556,989
76261,153614,204934,-3.7435709577,-7.9190463947000005,5.2546384296,990
76328,153635,204913,-3.5808590209,-7.804190909899999,5.2067819775999995,991
76417,153650,204947,-3.7136606752,-7.8628150636,5.344369277099999,992
76502,153569,204960,-3.7280176108,-7.762316514399999,5.2450671392,993
76607,153682,204910,-3.5808590209,-7.7539416353,5.331208752799999,994
76712,153642,204918,-3.6705898684,-7.8436724828,5.292923591199999,995
76811,153682,204941,-3.6993037396,-7.819744256799999,5.292923591199999,996
76899,153666,204947,-3.7770704741,-7.9046894591,5.334797986699999,997
76984,153672,204936,-3.7005001509,-7.7826555065,5.0823552024,998
77056,153660,204912,-3.7519458368,-7.8149586116,5.312066172,999
77130,153691,204932,-3.7375889012,-7.9046894591,5.2450671392,1000
77212,153698,204919,-3.7196427317,-7.6055866341,5.235495848799999,1001
77291,153694,204958,-3.7280176108,-7.7539416353,5.4209396003000005,1002
77375,153731,204906,-3.5665020853000002,-7.7958160308,5.2019963324,1003
77432,153699,204914,-3.7435709577,-7.791030385599999,5.277370244299999,1004
77408,153666,204922,-3.6897324492,-7.8149586116,5.3072805268000005,1005
77189,153646,204875,-3.7519458368,-7.8436724828,5.2785666556,1006
76799,153603,204869,-3.7842489418999996,-7.7970124421,5.312066172,1007
76366,153566,204828,-3.6466616424,-7.8676007087999995,5.292923591199999,1008
76079,153532,204806,-3.7746776515,-7.6869426025,5.292923591199999,1009
75804,153509,204748,-3.7698920062999997,-7.6821569573,5.182853751600001,1010
75680,153498,204782,-3.6239298277,-7.800601675999999,5.3072805268000005,1011
75658,153516,204798,-3.7040893848,-7.704888771999999,5.264209719999999,1012
75744,153535,204837,-3.637090352,-7.6295148601000005,5.2259245584,1013
75845,153537,204834,-3.6179477712,-7.791030385599999,5.3395836319,1014
75934,153471,204856,-3.6574293441,-7.8855468783,5.1637111708,1015
76007,153535,204843,-3.7040893848,-7.746763167499999,5.1876393968,1016
76021,153580,204850,-3.6765719249,-7.8149586116,5.3204410510999995,1017
76071,153512,204816,-3.6897324492,-7.8532437732,5.2546384296,1018
76112,153559,204788,-3.7363924898999996,-7.6630143765,5.3264231076,1019
76181,153580,204822,-3.6574293441,-7.77667345,5.2737810104,1020
76256,153578,204835,-3.6897324492,-7.7970124421,5.2307102036,1021
76313,153601,204851,-3.6622149893000002,-7.7252277641000004,5.331208752799999,1022
76403,153533,204817,-3.5808590209,-7.6965138929000005,5.331208752799999,1023
76505,153565,204820,-3.8811582571999996,-7.77667345,5.2067819775999995,1024
76564,153590,204857,-3.6143585373000002,-7.6917282476999995,5.197210687199999,1025
76649,153642,204859,-3.6382867633,-7.8532437732,5.2450671392,1026
76718,153546,204849,-3.7040893848,-7.928617685100001,5.1936214533,1027
76778,153616,204830,-3.780659708,-7.7718878047999995,5.2869415346999995,1028
76854,153599,204841,-3.6095728921,-7.8185478454999995,5.3491549223,1029
76932,153642,204874,-3.6945180944,-7.7228349415,5.2271209697000005,1030
76998,153588,204827,-3.7423745464,-7.8149586116,5.2534420183,1031
77027,153610,204842,-3.7698920062999997,-7.8771719992,5.3108697607,1032
76972,153614,204791,-3.6191441825000004,-7.7874411516999995,5.2917271799,1033
76653,153557,204786,-3.7136606752,-7.8759755879,5.2977092364,1034
76236,153489,204780,-3.684946804,-7.8496545393,5.2534420183,1035
75789,153472,204734,-3.6466616424,-7.8149586116,5.2019963324,1036
75460,153456,204675,-3.8177484582999996,-7.7383882884,5.2689953652,1037
75252,153342,204739,-3.7184463204,-7.7060851833,5.3814580274,1038
75153,153478,204761,-3.6670006345,-7.8089765551,5.2115676228000005,1039
75170,153439,204740,-3.6287154729,-7.791030385599999,5.3395836319,1040
75296,153449,204765,-3.7663027724,-7.7814590952,5.3300123415,1041
75367,153464,204760,-3.7722848289,-7.777869861299999,5.2067819775999995,1042
75422,153490,204781,-3.6143585373000002,-7.829315547199999,5.288137946,1043
75458,153510,204764,-3.5341989802,-7.8819576444,5.3778687935,1044
75503,153467,204776,-3.6897324492,-7.896314579999999,5.2725845991,1045
75484,153451,204748,-3.7986058774999996,-7.858029418399999,5.2917271799,1046
75572,153485,204780,-3.7507494254999996,-7.7252277641000004,5.315655405899999,1047
75646,153487,204853,-3.7232319655999997,-7.7539416353,5.3300123415,1048
75696,153468,204763,-3.7375889012,-7.8341011924,5.2689953652,1049
75765,153525,204854,-3.7244283769,-7.8388868376,5.3407800432,1050
75828,153486,204787,-3.6179477712,-7.704888771999999,5.3024948815999995,1051
75909,153508,204786,-3.7088750299999997,-7.7383882884,5.306084115499999,1052
75994,153532,204819,-3.7746776515,-7.704888771999999,5.2594240748,1053
76047,153489,204772,-3.6000016017000003,-7.9058858704,5.2725845991,1054
76127,153532,204819,-3.8596228538,-7.7096744172000005,5.2342994375,1055
76188,153541,204793,-3.8273197486999995,-7.7970124421,5.3300123415,1056
76279,153505,204805,-3.6909288605,-7.6881390138,5.2737810104,1057
76361,153564,204821,-3.7423745464,-7.9334033303,5.2115676228000005,1058
76409,153549,204797,-3.4959138186,-7.7671021596,5.363511857900001,1059
76324,153535,204774,-3.732803256,-7.858029418399999,5.2211389132,1060
75986,153406,204767,-3.6000016017000003,-7.9058858704,5.2259245584,1061
75531,153431,204749,-3.7136606752,-7.7383882884,5.2689953652,1062
75104,153395,204740,-3.6861432153,-7.7300134093,5.235495848799999,1063
74824,153428,204709,-3.7232319655999997,-7.7192457076,5.235495848799999,1064
74648,153368,204766,-3.7088750299999997,-7.7431739336,5.235495848799999,1065
74551,153396,204741,-3.6993037396,-7.7682985709,5.344369277099999,1066
74584,153416,204757,-3.732803256,-7.7108708285,5.2833523008,1067
74727,153420,204798,-3.7040893848,-7.7192457076,5.1732824612,1068
74856,153381,204844,-3.7423745464,-7.6965138929000005,5.363511857900001,1069
74952,153419,204839,-3.7280176108,-7.7347990545,5.248656373099999,1070
75003,153427,204817,-3.7651063610999995,-7.7575308692,5.3072805268000005,1071
75071,153481,204853,-3.8608192651000004,-7.7706913935,5.2821558895,1072
75124,153473,204818,-3.7196427317,-7.695317481599999,5.2175496793,1073
75206,153451,204873,-3.6945180944,-7.8544401845,5.139782944799999,1074
75284,153531,204836,-3.7842489418999996,-7.8628150636,5.197210687199999,1075
75375,153474,204893,-3.7722848289,-7.829315547199999,5.2259245584,1076
75492,153487,204854,-3.8608192651000004,-7.785048329099999,5.3072805268000005,1077
75610,153499,204863,-3.6717862797,-7.8053873212000005,5.2582276635,1078
75705,153550,204881,-3.5808590209,-7.8532437732,5.2019963324,1079
75811,153561,204916,-3.7088750299999997,-7.800601675999999,5.2450671392,1080
75904,153503,204894,-3.5676984966,-7.7060851833,5.3024948815999995,1081
76000,153583,204912,-3.7136606752,-7.8017980873,5.3168518172,1082
76077,153549,204904,-3.565305674,-7.7814590952,5.292923591199999,1083
76162,153552,204903,-3.6047872469,-7.777869861299999,5.2833523008,1084
76253,153585,204927,-3.7375889012,-7.752745224,5.334797986699999,1085
76350,153579,204928,-3.5425738593,-7.7252277641000004,5.2833523008,1086
76388,153622,204910,-3.5712877305000004,-7.829315547199999,5.277370244299999,1087
76271,153558,204902,-3.6335011181000003,-7.819744256799999,5.216353268,1088
75904,153591,204902,-3.6789647475,-7.7814590952,5.2594240748,1089
75489,153482,204857,-3.7280176108,-7.7814590952,5.392225729100001,1090
75067,153420,204858,-3.6801611588,-7.800601675999999,5.3455656884,1091
74827,153432,204837,-3.5904303113,-7.7443703449,5.2498527844,1092
74657,153425,204813,-3.5581272062,-7.6295148601000005,5.182853751600001,1093
74622,153451,204853,-3.6478580537000003,-7.7814590952,5.240281494,1094
74697,153420,204883,-3.6861432153,-7.8388868376,5.192425042,1095
74840,153546,204903,-3.6418759972,-7.8101729664,5.3587262127,1096
74974,153503,204911,-3.5820554322,-7.7108708285,5.2917271799,1097
75078,153488,204899,-3.6000016017000003,-7.8065837325,5.2953164138,1098
75152,153548,204926,-3.5665020853000002,-7.819744256799999,5.3168518172,1099
75223,153477,204917,-3.7459637803,-7.6773713121,5.2211389132,1100
75279,153520,204955,-3.6514472876,-7.639086150500001,5.169693227300001,1101
75359,153528,204977,-3.6897324492,-7.7970124421,5.4257252455,1102
75452,153521,204957,-3.6717862797,-7.8281191359,5.3168518172,1103
75564,153520,204935,-3.6897324492,-7.7730842161,5.2259245584,1104
75671,153541,204924,-3.5138599880999997,-7.9752777258,5.264209719999999,1105
75776,153571,204971,-3.7710884175999997,-7.7060851833,5.216353268,1106
75890,153579,205004,-3.6670006345,-7.800601675999999,5.235495848799999,1107
75987,153583,204979,-3.6957145057000003,-7.6965138929000005,5.2366922601,1108
76085,153598,205022,-3.6191441825000004,-7.7551380466,5.264209719999999,1109
76180,153565,204991,-3.5760733757,-7.7479595788,5.2546384296,1110
76262,153589,205009,-3.6382867633,-7.7814590952,5.3264231076,1111
76389,153619,205026,-3.5234312785000004,-7.7862447404,5.2785666556,1112
76453,153641,204974,-3.6945180944,-7.7252277641000004,5.216353268,1113
76548,153640,205033,-3.6514472876,-7.7539416353,5.1840501629,1114
76622,153617,204987,-3.7040893848,-7.8436724828,5.334797986699999,1115
76605,153628,205012,-3.7363924898999996,-7.7958160308,5.3395836319,1116
76264,153601,204970,-3.7136606752,-7.9142607494999995,5.1266224204999995,1117
75929,153542,204957,-3.7363924898999996,-7.7096744172000005,5.2737810104,1118
75530,153525,204919,-3.7758740628,-7.8915289348,5.3012984703,1119
75239,153516,204892,-3.732803256,-7.6773713121,5.235495848799999,1120
75074,153506,204881,-3.6000016017000003,-7.7958160308,5.264209719999999,1121
74995,153545,204897,-3.5808590209,-7.728816998,5.2498527844,1122
75013,153465,204971,-3.6705898684,-7.7958160308,5.1876393968,1123
75112,153520,204919,-3.684946804,-7.7156564737,5.312066172,1124
75272,153505,204969,-3.5808590209,-7.8676007087999995,5.2019963324,1125
75367,153541,204973,-3.8476587407999996,-7.653443086099999,5.3491549223,1126
75453,153452,204984,-3.7339996673,-7.7587272805,5.2630133087,1127
75521,153564,205015,-3.5856446661000003,-7.8436724828,5.2498527844,1128
75587,153520,204993,-3.7938202323,-7.8053873212000005,5.1266224204999995,1129
75666,153536,205044,-3.8452659182,-7.804190909899999,5.264209719999999,1130
75798,153561,205030,-3.5557343836,-7.9345997416,5.2546384296,1131
75838,153542,205045,-3.7854453531999996,-7.7718878047999995,5.2498527844,1132
75946,153582,205018,-3.6430724085,-7.8532437732,5.2869415346999995,1133
76056,153594,204992,-3.5521451497000003,-7.804190909899999,5.2917271799,1134
76159,153589,205052,-3.732803256,-7.896314579999999,5.2211389132,1135
76272,153664,205000,-3.7280176108,-7.8341011924,5.1876393968,1136
76333,153620,205037,-3.7232319655999997,-7.8376904263,5.3168518172,1137
76445,153616,205015,-3.6179477712,-7.896314579999999,5.3252266963,1138
76523,153631,205005,-3.637090352,-7.8771719992,5.288137946,1139
76621,153689,205098,-3.6993037396,-7.7862447404,5.3300123415,1140
76694,153667,205028,-3.7471601916,-7.7443703449,5.2833523008,1141
76834,153640,205050,-3.6909288605,-7.77667345,5.2785666556,1142
76883,153641,205097,-3.6705898684,-7.8472617167,5.2307102036,1143
76886,153635,205076,-3.5665020853000002,-7.6725856669,5.2211389132,1144
76668,153599,205035,-3.6957145057000003,-7.7240313528,5.2079783889,1145
76289,153562,204988,-3.732803256,-7.7264241754,5.192425042,1146
75892,153526,204978,-3.6622149893000002,-7.762316514399999,5.344369277099999,1147
75556,153512,204949,-3.7842489418999996,-7.7192457076,5.3072805268000005,1148
75369,153448,204930,-3.7758740628,-7.6821569573,5.2031927437,1149
75265,153491,204962,-3.6514472876,-7.7922267969000005,5.2211389132,1150
75255,153525,204949,-3.8572300312,-7.654639497399999,5.2917271799,1151
75357,153510,205003,-3.9038900719000003,-7.7575308692,5.288137946,1152
75496,153519,205010,-3.7603207159,-7.7479595788,5.331208752799999,1153
75588,153546,205037,-3.6323047068,-7.733602643199999,5.2055855663,1154
75642,153553,205033,-3.7052857961,-7.7575308692,5.2965128251,1155
75690,153570,205014,-3.6909288605,-7.848458128,5.2594240748,1156
75742,153543,205026,-3.5748769644,-7.7671021596,5.2630133087,1157
75791,153557,205030,-3.7950166436,-7.733602643199999,5.2833523008,1158
75843,153558,205042,-3.6693934571,-7.8819576444,5.2582276635,1159
75926,153572,205055,-3.7040893848,-7.858029418399999,5.198407098500001,1160
76061,153568,205071,-3.7232319655999997,-7.7862447404,5.2594240748,1161
76115,153563,205058,-3.7651063610999995,-7.858029418399999,5.2271209697000005,1162
76207,153608,205081,-3.5904303113,-7.6869426025,5.2905307686,1163
76273,153585,205051,-3.7040893848,-7.7958160308,5.2498527844,1164
76360,153586,205088,-3.5892339,-7.8855468783,5.2977092364,1165
76418,153599,205078,-3.6993037396,-7.858029418399999,5.3012984703,1166
76496,153592,205072,-3.7136606752,-7.7443703449,5.2211389132,1167
76585,153608,205055,-3.7507494254999996,-7.8341011924,5.3587262127,1168
76638,153603,205074,-3.613162126,-7.8532437732,5.3024948815999995,1169
76711,153611,205072,-3.8703905555,-7.8400832489,5.2546384296,1170
76762,153583,205036,-3.637090352,-7.7479595788,5.1720860499,1171
76678,153597,205028,-3.7088750299999997,-7.7814590952,5.306084115499999,1172
76376,153554,204991,-3.8177484582999996,-7.8400832489,5.2498527844,1173
75945,153522,205005,-3.7890345870999997,-7.7814590952,5.216353268,1174
75552,153459,204964,-3.6466616424,-7.7922267969000005,5.2307102036,1175
75291,153432,204969,-3.6993037396,-7.8185478454999995,5.2498527844,1176
75075,153416,204940,-3.6346975294,-7.791030385599999,5.2211389132,1177
74992,153434,204940,-3.5377882141000003,-7.872386354,5.2869415346999995,1178
75032,153443,204994,-3.732803256,-7.829315547199999,5.3539405675,1179
75126,153430,204978,-3.6227334164,-7.7300134093,5.2917271799,1180
75234,153488,204993,-3.6478580537000003,-7.844868894099999,5.335994398,1181
75322,153475,205008,-3.7423745464,-7.7192457076,5.395814963,1182
75360,153469,205047,-3.6526436989,-7.777869861299999,5.2438707279,1183
75413,153513,205018,-3.6143585373000002,-7.9190463947000005,5.2977092364,1184
75461,153489,205046,-3.7088750299999997,-7.928617685100001,5.335994398,1185
75520,153508,205033,-3.5425738593,-7.763512925700001,5.3024948815999995,1186
75605,153504,205063,-3.6514472876,-7.7192457076,5.1732824612,1187
75694,153508,205046,-3.6478580537000003,-7.7443703449,5.2594240748,1188
75751,153483,205013,-3.6897324492,-7.7551380466,5.1649075821,1189
75863,153594,205049,-3.6993037396,-7.9477602659,5.1744788725,1190
75949,153460,205040,-3.7555350706999997,-7.7539416353,5.3012984703,1191
76010,153531,205041,-3.7902309983999998,-7.7826555065,5.292923591199999,1192
76095,153559,205051,-3.6143585373000002,-7.8113693777,5.2594240748,1193
76177,153514,205067,-3.6945180944,-7.7012995381,5.312066172,1194
76242,153538,205052,-3.6562329328,-7.7814590952,5.2737810104,1195
76336,153557,205076,-3.6035908356,-7.740781111,5.2869415346999995,1196
76393,153440,205087,-3.6574293441,-7.8520473619,5.2689953652,1197
76410,153549,205041,-3.6095728921,-7.7192457076,5.2211389132,1198
76202,153551,205057,-3.6801611588,-7.728816998,5.3826544387,1199
75805,153469,205014,-3.6227334164,-7.7826555065,5.1876393968,1200
75378,153481,204979,-3.5844482548,-7.7479595788,5.1649075821,1201
75027,153379,204994,-3.6562329328,-7.8400832489,5.2689953652,1202
74770,153362,204969,-3.6813575701,-7.8149586116,5.168496815999999,1203
74636,153378,204958,-3.5808590209,-7.8711899427,5.264209719999999,1204
74604,153402,204975,-3.6562329328,-7.8819576444,5.2498527844,1205
74704,153394,204966,-3.6466616424,-7.824529902,5.2450671392,1206
74786,153382,205010,-3.7902309983999998,-7.7252277641000004,5.1912286306999995,1207
74873,153411,205052,-3.7363924898999996,-7.8053873212000005,5.3778687935,1208
74919,153389,205047,-3.7005001509,-7.858029418399999,5.2307102036,1209
74949,153318,205045,-3.7375889012,-7.7252277641000004,5.2582276635,1210
74981,153427,205042,-3.6562329328,-7.7060851833,5.192425042,1211
75026,153415,205043,-3.6155549486,-7.720442118899999,5.216353268,1212
75094,153448,205055,-3.6765719249,-7.733602643199999,5.1649075821,1213
75166,153391,205044,-3.7902309983999998,-7.8101729664,5.2319066149,1214
75261,153472,205068,-3.6670006345,-7.7395846997,5.288137946,1215
75365,153469,205085,-3.7663027724,-7.77667345,5.3204410510999995,1216
75441,153493,205107,-3.6430724085,-7.77667345,5.2175496793,1217
75532,153502,205104,-3.6765719249,-7.8759755879,5.216353268,1218
75623,153453,205073,-3.5521451497000003,-7.7958160308,5.3730831483,1219
75715,153504,205098,-3.6418759972,-7.8017980873,5.235495848799999,1220
75797,153501,205126,-3.7651063610999995,-7.6965138929000005,5.216353268,1221
75893,153519,205132,-3.6993037396,-7.720442118899999,5.2498527844,1222
75975,153522,205124,-3.8895331363000003,-7.7970124421,5.3072805268000005,1223
76019,153522,205120,-3.7172499091,-7.621139981,5.2211389132,1224
75909,153496,205081,-3.6430724085,-7.8819576444,5.2366922601,1225
75541,153417,205096,-3.5892339,-7.7730842161,5.2223353244999995,1226
75108,153390,205059,-3.684946804,-7.6821569573,5.315655405899999,1227
74745,153405,205028,-3.7148570865,-7.7958160308,5.2127640341,1228
74517,153376,205013,-3.6418759972,-7.746763167499999,5.2546384296,1229
74419,153392,205074,-3.6526436989,-7.7347990545,5.1876393968,1230
74307,153352,205054,-3.7040893848,-7.8711899427,5.3300123415,1231
74366,153368,205050,-3.7172499091,-7.7431739336,5.2019963324,1232
74522,153394,205116,-3.6047872469,-7.8771719992,5.334797986699999,1233
74642,153421,205128,-3.6993037396,-7.9190463947000005,5.2151568567,1234
74728,153456,205146,-3.7507494254999996,-7.6199435697,5.2582276635,1235
74775,153439,205144,-3.684946804,-7.7958160308,5.277370244299999,1236
74865,153451,205147,-3.7088750299999997,-7.8341011924,5.2031927437,1237
74928,153458,205139,-3.8297125713,-7.7012995381,5.2594240748,1238
75010,153460,205185,-3.5425738593,-7.775477038699999,5.2785666556,1239
75096,153511,205200,-3.5760733757,-7.7814590952,5.2271209697000005,1240
75208,153499,205156,-3.7100714413,-7.7575308692,5.3395836319,1241
75326,153485,205193,-3.7471601916,-7.9345997416,5.3168518172,1242
75422,153483,205203,-3.7663027724,-7.8400832489,5.2965128251,1243
75544,153523,205209,-3.7136606752,-7.9381889755,5.2295137923,1244
75628,153518,205228,-3.5377882141000003,-7.9106715156,5.2737810104,1245
75764,153546,205199,-3.6275190616,-7.9477602659,5.3024948815999995,1246
75801,153554,205227,-3.6107693033999997,-7.6989067155,5.235495848799999,1247
75914,153560,205204,-3.6813575701,-7.8053873212000005,5.2307102036,1248
75998,153566,205238,-3.6670006345,-7.6725856669,5.2917271799,1249
76112,153610,205242,-3.8464623295,-7.819744256799999,5.3874400839,1250
76150,153588,205195,-3.5964123677999997,-7.752745224,5.2450671392,1251
75998,153568,205225,-3.6000016017000003,-7.752745224,5.2307102036,1252
75627,153529,205169,-3.7986058774999996,-7.8053873212000005,5.240281494,1253
75195,153453,205144,-3.6323047068,-7.777869861299999,5.3300123415,1254
74859,153430,205102,-3.6981073283,-7.8101729664,5.2546384296,1255
74665,153410,205103,-3.7232319655999997,-7.9525459111,5.2307102036,1256
74491,153389,205137,-3.6945180944,-7.7192457076,5.2067819775999995,1257
74462,153424,205138,-3.6957145057000003,-7.7383882884,5.2450671392,1258
74541,153485,205188,-3.7375889012,-7.8951181687,5.235495848799999,1259
74715,153470,205152,-3.6514472876,-7.829315547199999,5.2211389132,1260
74793,153480,205177,-3.5294133349999997,-7.6618179652,5.3072805268000005,1261
74929,153478,205205,-3.6574293441,-7.7587272805,5.155336291699999,1262
75002,153505,205203,-3.6610185779999997,-7.9477602659,5.2737810104,1263
75047,153506,205191,-3.7100714413,-7.7922267969000005,5.2785666556,1264
75131,153520,205169,-3.5473595045,-7.7096744172000005,5.2498527844,1265
75222,153479,205216,-3.5868410774,-7.8089765551,5.2307102036,1266
75295,153476,205241,-3.6526436989,-7.7718878047999995,5.2366922601,1267
75397,153402,205234,-3.5712877305000004,-7.7814590952,5.2115676228000005,1268
75497,153579,205230,-3.8237305148,-7.8149586116,5.2462635505,1269
75624,153544,205258,-3.5856446661000003,-7.7718878047999995,5.3407800432,1270
75727,153553,205265,-3.7100714413,-7.7479595788,5.3814580274,1271
75817,153557,205244,-3.82851616,-7.8149586116,5.2450671392,1272
75912,153550,205235,-3.7184463204,-7.8149586116,5.2869415346999995,1273
76031,153550,205226,-3.6945180944,-7.704888771999999,5.264209719999999,1274
76129,153551,205235,-3.6909288605,-7.7252277641000004,5.2917271799,1275
76220,153618,205256,-3.6335011181000003,-7.645068207,5.3168518172,1276
76352,153618,205273,-3.6753755136,-7.777869861299999,5.288137946,1277
76368,153592,205229,-3.6239298277,-7.7718878047999995,5.2211389132,1278
76247,153549,205234,-3.7603207159,-7.824529902,5.2115676228000005,1279
75892,153560,205189,-3.6287154729,-7.9585279676,5.240281494,1280
75495,153491,205146,-3.5521451497000003,-7.77667345,5.277370244299999,1281
75176,153443,205153,-3.6753755136,-7.7431739336,5.1732824612,1282
74970,153456,205178,-3.6705898684,-7.8149586116,5.3204410510999995,1283
74882,153483,205140,-3.6095728921,-7.8149586116,5.315655405899999,1284
74906,153414,205132,-3.8368910391,-7.637889739199999,5.2833523008,1285
74998,153483,205161,-3.6035908356,-7.9477602659,5.235495848799999,1286
75157,153490,205194,-3.6562329328,-7.8855468783,5.216353268,1287
75327,153515,205195,-3.7040893848,-7.8759755879,5.2917271799,1288
75373,153508,205203,-3.6574293441,-7.695317481599999,5.3539405675,1289
75456,153525,205237,-3.6323047068,-7.8436724828,5.3587262127,1290
75523,153422,205197,-3.6837503927,-7.8053873212000005,5.2689953652,1291
75598,153582,205218,-3.6957145057000003,-7.824529902,5.1840501629,1292
75699,153570,205211,-3.6813575701,-7.8855468783,5.288137946,1293
75793,153609,205225,-3.732803256,-7.8676007087999995,5.3491549223,1294
75912,153520,205255,-3.7555350706999997,-7.7479595788,5.3072805268000005,1295
76014,153558,205273,-3.8177484582999996,-7.7539416353,5.240281494,1296
76137,153556,205190,-3.6000016017000003,-7.8113693777,5.240281494,1297
76256,153594,205228,-3.6179477712,-7.777869861299999,5.216353268,1298
76394,153599,205251,-3.6837503927,-7.7240313528,5.2689953652,1299
76454,153581,205234,-3.613162126,-7.7156564737,5.2869415346999995,1300
76556,153626,205259,-3.5952159565,-7.7575308692,5.2067819775999995,1301
76656,153645,205226,-3.8368910391,-7.7300134093,5.2175496793,1302
76779,153656,205211,-3.6993037396,-7.9621172015,5.2785666556,1303
76873,153637,205232,-3.8620156764,-7.8113693777,5.3168518172,1304
76940,153626,205230,-3.6909288605,-7.6821569573,5.288137946,1305
76830,153593,205204,-3.7316068447,-7.606783045399999,5.3168518172,1306
76523,153576,205178,-3.6945180944,-7.800601675999999,5.2211389132,1307
76131,153516,205150,-3.8524443859999997,-7.8436724828,5.2677989539,1308
75820,153499,205152,-3.7232319655999997,-7.8101729664,5.2031927437,1309
75603,153505,205135,-3.7339996673,-7.8424760715,5.182853751600001,1310
75514,153468,205112,-3.7507494254999996,-7.848458128,5.321637462399999,1311
75475,153466,205128,-3.8703905555,-7.6199435697,5.288137946,1312
75546,153414,205120,-3.6335011181000003,-7.8053873212000005,5.2498527844,1313
75691,153542,205136,-3.6191441825000004,-7.9381889755,5.288137946,1314
75811,153546,205180,-3.7363924898999996,-7.6630143765,5.264209719999999,1315
75889,153511,205180,-3.5892339,-7.8628150636,5.168496815999999,1316
75954,153566,205173,-3.7028929734999996,-7.791030385599999,5.2498527844,1317
76011,153546,205148,-3.82851616,-7.752745224,5.2223353244999995,1318
76082,153519,205147,-3.6658042232,-7.7240313528,5.1649075821,1319
76144,153509,205158,-3.6957145057000003,-7.7575308692,5.3264231076,1320
76300,153564,205172,-3.7124642639,-7.763512925700001,5.3168518172,1321
76324,153499,205176,-3.8656049103,-7.7479595788,5.2977092364,1322
76438,153540,205172,-3.613162126,-7.7958160308,5.312066172,1323
76552,153609,205161,-3.6705898684,-7.7539416353,5.2917271799,1324
76644,153474,205161,-3.6622149893000002,-7.7862447404,5.2546384296,1325
76727,153607,205122,-3.7184463204,-7.7958160308,5.140979356100001,1326
76819,153582,205159,-3.5844482548,-7.9477602659,5.344369277099999,1327
76896,153582,205189,-3.6143585373000002,-7.7479595788,5.2689953652,1328
76991,153623,205173,-3.6957145057000003,-7.7443703449,5.288137946,1329
77100,153602,205179,-3.7363924898999996,-7.791030385599999,5.3108697607,1330
77172,153617,205152,-3.6562329328,-7.7300134093,5.2115676228000005,1331
77138,153580,205145,-3.6993037396,-7.7587272805,5.2689953652,1332
76928,153563,205091,-3.6909288605,-7.832904781100001,5.3300123415,1333
76564,153524,205138,-3.8608192651000004,-7.6582287313,5.2259245584,1334
76200,153469,205070,-3.6275190616,-7.8352976037,5.235495848799999,1335
75893,153445,205087,-3.6813575701,-7.8759755879,5.1505506465,1336
75788,153426,205064,-3.6382867633,-7.8341011924,5.395814963,1337
75651,153470,205034,-3.6119657146999997,-7.8101729664,5.2677989539,1338
75679,153479,205064,-3.5760733757,-7.654639497399999,5.2115676228000005,1339
75789,153473,205094,-3.637090352,-7.819744256799999,5.3012984703,1340
75909,153534,205077,-3.7411781350999997,-7.667800021700001,5.1792645177,1341
75986,153478,205107,-3.5772697869999996,-7.7730842161,5.2737810104,1342
76044,153503,205098,-3.7770704741,-7.7060851833,5.1349972996,1343
76105,153502,205074,-3.6047872469,-7.896314579999999,5.1601219369,1344
76156,153497,205116,-3.5665020853000002,-7.819744256799999,5.1888358081,1345
76195,153538,205119,-3.6574293441,-7.8664042975,5.14456859,1346
76272,153512,205073,-3.7088750299999997,-7.7443703449,5.3204410510999995,1347
76352,153504,205081,-3.6753755136,-7.7443703449,5.2019963324,1348
76440,153541,205094,-3.7363924898999996,-7.7718878047999995,5.2630133087,1349
76529,153557,205079,-3.7196427317,-7.8233334907000005,5.2067819775999995,1350
76624,153557,205084,-3.6275190616,-7.8927253461,5.288137946,1351
76701,153537,205132,-3.6323047068,-7.7156564737,5.182853751600001,1352
76783,153535,205094,-3.6658042232,-7.77667345,5.1744788725,1353
76861,153569,205104,-3.7040893848,-7.7443703449,5.235495848799999,1354
76939,153567,205107,-3.7280176108,-7.8568330071,5.1792645177,1355
77002,153583,205079,-3.8033915226999997,-7.7192457076,5.248656373099999,1356
77083,153551,205099,-3.7232319655999997,-7.9812597822999996,5.14456859,1357
77038,153548,205085,-3.8368910391,-7.5876404646,5.3012984703,1358
76779,153470,205029,-3.6765719249,-7.8149586116,5.240281494,1359
76361,153485,205032,-3.4899317621,-7.8341011924,5.2737810104,1360
75941,153412,204943,-3.6945180944,-7.8759755879,5.235495848799999,1361
75620,153391,204993,-3.6382867633,-7.5912296985,5.2546384296,1362
75431,153388,204979,-3.6981073283,-7.7826555065,5.2833523008,1363
75313,153378,204952,-3.7136606752,-7.9011002251999995,5.3012984703,1364
75302,153406,204999,-3.7423745464,-7.7300134093,5.306084115499999,1365
75400,153376,204992,-3.7088750299999997,-7.77667345,5.2582276635,1366
75511,153422,204997,-3.7794632967,-7.8053873212000005,5.2917271799,1367
75590,153425,205008,-3.7854453531999996,-7.6773713121,5.1601219369,1368
75634,153449,205034,-3.7100714413,-7.7958160308,5.288137946,1369
75692,153443,204969,-3.7136606752,-7.7156564737,5.2127640341,1370
75742,153464,205012,-3.8368910391,-7.8472617167,5.2917271799,1371
75802,153482,205018,-3.7710884175999997,-7.7312098206,5.3108697607,1372
75879,153514,205015,-3.7555350706999997,-7.7898339743,5.2498527844,1373
75975,153469,205052,-3.6909288605,-7.7383882884,5.1876393968,1374
76060,153502,205061,-3.5904303113,-7.942974620699999,5.2307102036,1375
76201,153490,205048,-3.6909288605,-7.7144600624,5.216353268,1376
76285,153483,205077,-3.7890345870999997,-7.762316514399999,5.2462635505,1377
76371,153534,205047,-3.6000016017000003,-7.549355303,5.2462635505,1378
76460,153521,205066,-3.6670006345,-7.7587272805,5.3539405675,1379
76547,153527,205038,-3.7471601916,-7.791030385599999,5.2869415346999995,1380
76636,153482,205054,-3.5988051904000002,-7.7060851833,5.3778687935,1381
76734,153570,205042,-3.8273197486999995,-7.763512925700001,5.334797986699999,1382
76819,153567,205060,-3.7423745464,-7.7730842161,5.2833523008,1383
76868,153550,205075,-3.7100714413,-7.7001031268,5.198407098500001,1384
76723,153546,205056,-3.5856446661000003,-7.7730842161,5.288137946,1385
76378,153526,205057,-3.7184463204,-7.986045427500001,5.2498527844,1386
75917,153446,204990,-3.6909288605,-7.775477038699999,5.2115676228000005,1387
75559,153435,204996,-3.7519458368,-7.7539416353,5.3300123415,1388
75309,153440,204968,-3.5569307949000004,-7.848458128,5.2737810104,1389
75140,153440,204990,-3.7950166436,-7.704888771999999,5.264209719999999,1390
75093,153428,205011,-3.6765719249,-7.7802626839,5.2630133087,1391
75169,153463,205025,-3.6047872469,-7.890332523500001,5.1649075821,1392
75290,153466,204998,-3.7136606752,-7.8664042975,5.216353268,1393
75396,153494,205022,-3.7507494254999996,-7.8795648218,5.1218367753,1394
75469,153488,205009,-3.5904303113,-7.8101729664,5.277370244299999,1395
75529,153497,205049,-3.6610185779999997,-7.77667345,5.2546384296,1396
75579,153483,205019,-3.732803256,-7.7443703449,5.2558348409,1397
75656,153481,205049,-3.6287154729,-7.8101729664,5.2295137923,1398
75735,153533,205073,-3.8380874503999998,-7.7108708285,5.2067819775999995,1399
75828,153537,205031,-3.7292140221,-7.9334033303,5.2677989539,1400
75923,153531,205031,-3.6562329328,-7.7479595788,5.1876393968,1401
76041,153544,205057,-3.6741791022999997,-7.8436724828,5.312066172,1402
76125,153571,205109,-3.6239298277,-7.6917282476999995,5.3264231076,1403
76244,153549,205073,-3.6993037396,-7.6737820782,5.2067819775999995,1404
76348,153582,205098,-3.4995030524999997,-7.720442118899999,5.2259245584,1405
76450,153579,205111,-3.7411781350999997,-7.7814590952,5.2749774217,1406
76507,153592,205089,-3.6346975294,-7.858029418399999,5.3778687935,1407
76603,153615,205057,-3.8512479747,-7.7671021596,5.3300123415,1408
76622,153587,205087,-3.6000016017000003,-7.8352976037,5.240281494,1409
76793,153635,205099,-3.6981073283,-7.8101729664,5.235495848799999,1410
76872,153603,205065,-3.7088750299999997,-7.8532437732,5.288137946,1411
76833,153616,205052,-3.7052857961,-7.6737820782,5.288137946,1412
76604,153592,205034,-3.6107693033999997,-7.777869861299999,5.2869415346999995,1413
76173,153536,205006,-3.6430724085,-7.720442118899999,5.240281494,1414
75762,153489,204991,-3.7184463204,-7.858029418399999,5.3778687935,1415
75445,153463,205001,-3.7100714413,-7.749155990099999,5.235495848799999,1416
75260,153501,205003,-3.5772697869999996,-7.7671021596,5.2031927437,1417
75171,153441,205000,-3.7411781350999997,-7.8664042975,5.2498527844,1418
75194,153517,204997,-3.7471601916,-7.8436724828,5.3204410510999995,1419
75302,153470,205011,-3.6287154729,-7.7682985709,5.2785666556,1420
75453,153500,205051,-3.6861432153,-7.7347990545,5.240281494,1421
75540,153487,205030,-3.8177484582999996,-7.7156564737,5.2546384296,1422
75625,153504,205047,-3.6382867633,-7.7240313528,5.2917271799,1423
75696,153537,205025,-3.457628657,-7.763512925700001,5.2450671392,1424
75750,153529,205053,-3.6335011181000003,-7.848458128,5.2785666556,1425
75806,153552,205061,-3.7483566029,-7.8341011924,5.235495848799999,1426
75905,153548,205102,-3.5952159565,-7.7958160308,5.2737810104,1427
76000,153550,205088,-3.7148570865,-7.7108708285,5.2821558895,1428
76103,153579,205041,-3.6861432153,-7.8711899427,5.3108697607,1429
76185,153553,205076,-3.7411781350999997,-7.7347990545,5.3874400839,1430
76289,153575,205127,-3.4719855926,-7.7539416353,5.2869415346999995,1431
76392,153588,205065,-3.6191441825000004,-7.824529902,5.240281494,1432
76487,153573,205066,-3.7040893848,-7.844868894099999,5.3694939144,1433
76573,153621,205109,-3.6945180944,-7.9011002251999995,5.192425042,1434
76655,153601,205079,-3.6993037396,-7.6881390138,5.363511857900001,1435
76734,153672,205072,-3.6239298277,-7.7431739336,5.2965128251,1436
76823,153643,205085,-3.6717862797,-7.77667345,5.292923591199999,1437
76920,153613,205093,-3.6335011181000003,-7.7994052647,5.2546384296,1438
77004,153654,205097,-3.8847474911,-7.8065837325,5.2785666556,1439
77074,153647,205052,-3.6466616424,-7.824529902,5.2546384296,1440
76972,153544,205072,-3.6765719249,-7.9345997416,5.2019963324,1441
76663,153589,205036,-3.732803256,-7.7671021596,5.2271209697000005,1442
76246,153544,205017,-3.684946804,-7.728816998,5.3300123415,1443
75880,153562,204983,-3.732803256,-7.8676007087999995,5.2833523008,1444
75598,153480,204964,-3.7507494254999996,-7.6019974002,5.1637111708,1445
75454,153488,204973,-3.6239298277,-7.7874411516999995,5.2546384296,1446
75385,153501,204978,-3.7507494254999996,-7.8341011924,5.306084115499999,1447
75449,153431,205014,-3.6610185779999997,-7.763512925700001,5.264209719999999,1448
75568,153571,204995,-3.780659708,-7.791030385599999,5.1888358081,1449
75676,153526,205000,-3.5856446661000003,-7.791030385599999,5.2546384296,1450
75773,153432,205030,-3.7028929734999996,-7.77667345,5.2498527844,1451
75834,153577,204996,-3.6813575701,-7.8305119585,5.198407098500001,1452
75886,153536,205043,-3.7316068447,-7.6965138929000005,5.2079783889,1453
75931,153528,205020,-3.9314075318,-7.8053873212000005,5.2558348409,1454
76006,153548,204996,-3.8177484582999996,-7.9345997416,5.2965128251,1455
76085,153544,205022,-3.6478580537000003,-7.9142607494999995,5.3168518172,1456
76175,153551,205065,-3.8045879339999997,-7.8999038139,5.277370244299999,1457
76273,153571,205029,-3.6813575701,-7.791030385599999,5.2211389132,1458
76370,153563,205045,-3.6753755136,-7.858029418399999,5.288137946,1459
76472,153589,205030,-3.6323047068,-7.7001031268,5.251049195699999,1460
76559,153600,205041,-3.7136606752,-7.733602643199999,5.2342994375,1461
76637,153594,205021,-3.7232319655999997,-7.8209406681,5.1649075821,1462
76715,153575,205027,-3.7710884175999997,-7.8771719992,5.2067819775999995,1463
76806,153594,204983,-3.7794632967,-7.7479595788,5.2785666556,1464
76891,153611,205029,-3.6466616424,-7.7347990545,5.2307102036,1465
76962,153602,205025,-3.637090352,-7.6486574409,5.2450671392,1466
77111,153620,205067,-3.6813575701,-7.7347990545,5.1876393968,1467
77134,153623,205018,-3.7423745464,-7.7826555065,5.168496815999999,1468
77121,153592,204993,-3.7100714413,-7.8472617167,5.344369277099999,1469
76895,153547,204975,-3.7603207159,-7.7611201031,5.392225729100001,1470
76499,153518,204939,-3.684946804,-7.7060851833,5.443671415,1471
76115,153482,204933,-3.6945180944,-7.800601675999999,5.264209719999999,1472
75797,153472,204918,-3.7040893848,-7.749155990099999,5.2498527844,1473
75616,153483,204907,-3.8033915226999997,-7.7096744172000005,5.2019963324,1474
75425,153435,204885,-3.6323047068,-7.7192457076,5.2259245584,1475
75536,153473,204901,-3.6382867633,-7.7395846997,5.0883372589,1476
75615,153464,204937,-3.780659708,-7.8436724828,5.292923591199999,1477
75737,153490,204929,-3.6945180944,-7.7862447404,5.192425042,1478
75865,153494,204974,-3.6275190616,-7.7671021596,5.3874400839,1479
75890,153502,204935,-3.6478580537000003,-7.9011002251999995,5.192425042,1480
75930,153487,204916,-3.7040893848,-7.7144600624,5.216353268,1481
75992,153504,204966,-3.7663027724,-7.8687971201,5.2307102036,1482
76055,153500,204979,-3.7938202323,-7.7443703449,5.3300123415,1483
76118,153434,204956,-3.6107693033999997,-7.873582765299999,5.2785666556,1484
76196,153534,204954,-3.7507494254999996,-7.8149586116,5.3778687935,1485
76248,153539,204956,-3.6526436989,-7.6582287313,5.2737810104,1486
76380,153526,204981,-3.6466616424,-7.8759755879,5.2821558895,1487
76465,153540,204944,-3.7519458368,-7.8101729664,5.3264231076,1488
76544,153547,204937,-3.6478580537000003,-7.7718878047999995,5.2498527844,1489
76615,153553,204965,-3.780659708,-7.800601675999999,5.2869415346999995,1490
76698,153575,204943,-3.7280176108,-7.728816998,5.235495848799999,1491
76780,153549,204973,-3.5844482548,-7.7958160308,5.3264231076,1492
76853,153564,204916,-3.6717862797,-7.6917282476999995,5.2677989539,1493
76939,153598,204947,-3.6993037396,-7.872386354,5.235495848799999,1494
77007,153577,204954,-3.7890345870999997,-7.7682985709,5.3072805268000005,1495
77037,153584,204944,-3.6382867633,-7.7012995381,5.2115676228000005,1496
76901,153548,204928,-3.6610185779999997,-7.7431739336,5.2689953652,1497
76546,153525,204894,-3.5617164401,-7.791030385599999,5.1649075821,1498
76113,153454,204881,-3.7316068447,-7.7515488127,5.182853751600001,1499
75757,153428,204845,-3.7998022888,-7.763512925700001,5.197210687199999,1500
75524,153394,204829,-3.7280176108,-7.8807612331,5.306084115499999,1501
75375,153423,204841,-3.637090352,-7.9477602659,5.235495848799999,1502
75320,153392,204872,-3.7076786186999997,-7.7479595788,5.2917271799,1503
75349,153444,204856,-3.5294133349999997,-7.829315547199999,5.2917271799,1504
75497,153435,204876,-3.7902309983999998,-7.763512925700001,5.2031927437,1505
75554,153453,204882,-3.6335011181000003,-7.848458128,5.240281494,1506
75605,153430,204886,-3.7555350706999997,-7.7096744172000005,5.2869415346999995,1507
75641,153460,204880,-3.6047872469,-7.7060851833,5.3874400839,1508
75676,153431,204849,-3.4384860762,-7.8341011924,5.2689953652,1509
75714,153449,204872,-3.6000016017000003,-7.8999038139,5.182853751600001,1510
75768,153473,204894,-3.732803256,-7.791030385599999,5.2115676228000005,1511
75832,153487,204908,-3.6514472876,-7.7994052647,5.306084115499999,1512
75892,153486,204897,-3.7196427317,-7.621139981,5.2594240748,1513
75967,153485,204891,-3.7005001509,-7.819744256799999,5.2259245584,1514
76060,153495,204887,-3.7375889012,-7.6725856669,5.2594240748,1515
76133,153472,204898,-3.5485559157999997,-7.9190463947000005,5.235495848799999,1516
76215,153495,204924,-3.6658042232,-7.8628150636,5.277370244299999,1517
76281,153519,204881,-3.8189448695999997,-7.8221370794,5.140979356100001,1518
