green,red,IR,acc_x,acc_y,acc_z,sample_index
32692,193681,131262,-1.2646067441000002,7.361518728899999,-6.4534425522,1
32715,193669,131229,-1.3938191645,7.240681187599999,-6.5132631172,2
32661,193523,131251,-1.3220344865,7.252645300599999,-6.5132631172,3
32637,193591,131248,-1.2658031554,7.278966349199999,-6.4821564234,4
32617,193482,131249,-1.184447187,7.250252477999999,-6.5012990042,5
32614,193557,131255,-1.2119646469,7.3280192125,-6.5168523511,6
32619,193516,131274,-1.2191431147,7.250252477999999,-6.6161544889999995,7
32638,193570,131273,-1.2873385588,7.240681187599999,-6.5252272302000005,8
32635,193553,131261,-1.2215359373,7.3543402611,-6.534798520600001,9
32639,193527,131276,-1.3160524299999998,7.2837519944,-6.4857456573,10
32634,193544,131273,-1.2000005339,7.2311098972,-6.5072810607,11
32597,193572,131239,-1.2777672683999999,7.225127840700001,-6.5898334404,12
32655,193585,131266,-1.3651052933,7.2574309458,-6.5778693274,13
32661,193472,131279,-1.304088317,7.281359171799999,-6.4331035601,14
32684,193603,131253,-1.3052847283,7.2933232848,-6.5156559398,15
32700,193566,131224,-1.1688938401,7.2335027198,-6.629315013299999,16
32719,193579,131248,-1.1258230332999999,7.2191457842,-6.4654066652,17
32730,193585,131268,-1.2454641632999999,7.2909304621999995,-6.532405698,18
32756,193487,131245,-1.3591232368,7.2717878814,-6.492924125099999,19
32786,193621,131250,-1.0576275892,7.2454668328,-6.532405698,20
32809,193697,131262,-1.1425727915,7.4010003018,-6.532405698,21
32849,193694,131260,-1.1820543644000001,7.1784678,-6.5826549726,22
32807,193680,131289,-1.1856435983,7.3471617933,-6.5395841658,23
32745,193619,131257,-1.2346964616,7.294519696099999,-6.4749779556,24
32709,193587,131249,-1.3651052933,7.2909304621999995,-6.4019968663,25
32688,193602,131239,-1.3076775509,7.3064838090999995,-6.5814585613,26
32686,193553,131257,-1.1832507757,7.3722864306,-6.466603076499999,27
32677,193551,131270,-1.2634103328,7.3005017526,-6.496513359000001,28
32688,193554,131267,-1.2945170266,7.3962146566,-6.5934226743,29
32695,193538,131270,-1.3160524299999998,7.2346991311,-6.4342999714,30
32701,193489,131280,-1.2239287599,7.334001269,-6.58026215,31
32609,193525,131271,-1.3220344865,7.1365934045,-6.534798520600001,32
32699,193539,131271,-1.304088317,7.2693950588,-6.617350900300001,33
32712,193520,131268,-1.2681959779999998,7.348358204599999,-6.629315013299999,34
32723,193555,131249,-1.3591232368,7.2765735266,-6.6544396506,35
32740,193533,131266,-1.2095718243,7.3064838090999995,-6.632904247199999,36
32740,193560,131266,-1.2945170266,7.2167529616,-6.502495415499999,37
32763,193514,131243,-1.0348957745,7.3531438498,-6.5252272302000005,38
32782,193583,131237,-1.2191431147,7.3304120351,-6.4570317861,39
32791,193600,131253,-1.1940184774,7.240681187599999,-6.5515482788,40
32755,193590,131232,-1.0803594039,7.2574309458,-6.6364934811000005,41
32845,193644,131253,-1.3615160593999998,7.1617180418,-6.6352970698,42
32892,193671,131273,-1.1976077113,7.2299134859,-6.5132631172,43
32875,193600,131280,-1.2861421475,7.3675007854,-6.5276200528,44
32843,193694,131261,-1.2466605746,7.3028945752,-6.508477471999999,45
32797,193659,131283,-1.2873385588,7.2071816712,-6.480960012100001,46
32788,193641,131281,-1.1928220661,7.1880390904,-6.5168523511,47
32773,193602,131262,-1.1808579531,7.252645300599999,-6.6257257794,48
32815,193598,131301,-1.2179467034,7.2598237683999995,-6.6089760212,49
32792,193635,131315,-1.1521440819,7.3304120351,-6.568298037,50
32820,193638,131322,-1.4524433182,7.2550381232,-6.5419769884,51
32821,193624,131312,-1.1940184774,7.3005017526,-6.562315980499999,52
32864,193697,131333,-1.3591232368,7.250252477999999,-6.4785671895,53
32840,193677,131334,-1.2071790017,7.418946471299999,-6.5778693274,54
32908,193692,131341,-1.2705888006,7.2681986475,-6.5395841658,55
32878,193742,131342,-1.2669995667,7.1928247355999995,-6.521637996299999,56
32903,193758,131360,-1.3926227532000002,7.3603223176,-6.5778693274,57
32924,193703,131352,-1.2610175101999999,7.2598237683999995,-6.4546389635,58
32959,193746,131337,-1.3052847283,7.2574309458,-6.5898334404,59
32984,193787,131389,-1.3292129543,7.3507510272,-6.5144595285,60
33016,193767,131401,-1.1282158559,7.226324252,-6.556333924,61
33047,193829,131388,-1.1234302107,7.1222364689,-6.556333924,62
33083,193852,131385,-1.2239287599,7.3256263899,-6.5970119082,63
33110,193875,131354,-1.3734801723999999,7.225127840700001,-6.5192451737,64
33136,193952,131426,-1.1700902514,7.3914290114000005,-6.4414784392,65
33113,193924,131390,-1.2167502921,7.2478596554,-6.5120667059,66
33066,193931,131406,-1.2430713407,7.2957161074000005,-6.4474604957,67
33064,193856,131421,-1.2825529136,7.2490560667,-6.4941205364000005,68
33036,193848,131412,-1.4512469069,7.2693950588,-6.4426748505,69
33040,193722,131422,-1.1665010175000001,7.2562345345,-6.5240308189,70
33041,193853,131421,-1.2394821068,7.3088766317000005,-6.5587267466,71
33074,193904,131450,-1.3423734786,7.307680220399999,-6.5527446901,72
33139,193907,131441,-1.2047861791,7.390232600099999,-6.604190375999999,73
33101,193893,131467,-1.3256237203999999,7.2299134859,-6.5659052144,74
33106,193875,131471,-1.3184452526,7.1593252192,-6.6149580777,75
33117,193881,131475,-1.3076775509,7.2634130023,-6.6472611828,76
33130,193860,131438,-1.3160524299999998,7.3088766317000005,-6.575476504799999,77
33148,193967,131462,-1.1880364209,7.2454668328,-6.5120667059,78
33174,193939,131457,-1.4368899712999998,7.2885376395999995,-6.607779609900001,79
33184,193963,131473,-1.3435698899,7.3064838090999995,-6.5419769884,80
33196,193971,131467,-1.280160091,7.3710900192999995,-6.556333924,81
33252,193986,131479,-1.3591232368,7.171289332200001,-6.5611195692,82
33248,193989,131468,-1.2993026717999998,7.267002236200001,-6.6352970698,83
33297,194040,131483,-1.2000005339,7.286144817,-6.5407805771,84
33292,194033,131477,-1.2131610582,7.3184479221,-6.5886370291,85
33281,193947,131493,-1.304088317,7.335197680299999,-6.568298037,86
33235,194002,131477,-1.2861421475,7.3663043741,-6.5204415849999995,87
33197,193951,131447,-1.2478569859,7.2957161074000005,-6.5730836822,88
33169,193924,131441,-1.2478569859,7.1820570339,-6.6185473116,89
33142,193904,131446,-1.3244273091,7.2550381232,-6.533602109299999,90
33128,193879,131449,-1.3124631961,7.240681187599999,-6.5300128754,91
33162,193901,131471,-1.2885349701,7.3220371559999995,-6.544369811,92
33161,193820,131499,-1.1545369045,7.1976103808000005,-6.508477471999999,93
33094,193907,131464,-1.2921242039999998,7.2957161074000005,-6.5659052144,94
33157,193901,131463,-1.3304093655999998,7.223931429399999,-6.5671016257,95
33148,193858,131474,-1.2598210989,7.2394847763,-6.5706908596,96
33122,193879,131445,-1.3304093655999998,7.221538606799999,-6.575476504799999,97
33129,193875,131452,-1.2227323486,7.240681187599999,-6.466603076499999,98
33150,193886,131425,-1.3244273091,7.281359171799999,-6.544369811,99
33139,193827,131425,-1.2191431147,7.2957161074000005,-6.5946190856,100
33102,193833,131421,-1.2729816232,7.3292156238,-6.5132631172,101
33141,193893,131429,-1.304088317,7.3028945752,-6.4905313025,102
33147,193849,131398,-1.2418749294,7.29810893,-6.4977097703,103
33163,193890,131397,-1.2693923893,7.2801627605000006,-6.5539411014,104
33157,193917,131399,-1.1581261384000001,7.361518728899999,-6.4857456573,105
33113,193873,131387,-1.2526426310999998,7.2717878814,-6.4139609793000005,106
33044,193802,131351,-1.2179467034,7.2957161074000005,-6.4893348911999995,107
32982,193750,131339,-1.2849457361999999,7.223931429399999,-6.5096738833000005,108
32930,193730,131318,-1.2753744458,7.3005017526,-6.5659052144,109
32917,193704,131358,-1.1808579531,7.190431913,-6.5120667059,110
32905,193673,131336,-1.2251251712,7.2598237683999995,-6.556333924,111
32891,193631,131345,-1.3351950108,7.2693950588,-6.4689958991,112
32893,193653,131347,-1.2586246876,7.3005017526,-6.5228344076,113
32893,193622,131338,-1.3208380752,7.1772713886999995,-6.613761666399999,114
32858,193647,131347,-1.3004990831,7.320840744700001,-6.5156559398,115
32852,193565,131307,-1.3794622289,7.262216591,-6.5515482788,116
32849,193627,131300,-1.2131610582,7.2466632441,-6.5168523511,117
32855,193627,131312,-1.3304093655999998,7.250252477999999,-6.5611195692,118
32858,193634,131294,-1.3016954943999999,7.1820570339,-6.5694944482999995,119
32861,193658,131285,-1.2658031554,7.3675007854,-6.5419769884,120
32877,193571,131298,-1.2406785181,7.3052873978,-6.6305114246,121
32880,193650,131258,-1.2454641632999999,7.2454668328,-6.5240308189,122
32900,193666,131288,-1.2011969452,7.3304120351,-6.532405698,123
32934,193671,131272,-1.2430713407,7.274180704,-6.6185473116,124
32927,193699,131302,-1.2131610582,7.3567330837,-6.531209286699999,125
32914,193679,131292,-1.2370892842,7.2167529616,-6.5252272302000005,126
32849,193612,131270,-1.2658031554,7.286144817,-6.532405698,127
32789,193568,131236,-1.2586246876,7.307680220399999,-6.5108702946,128
32686,193580,131251,-1.2693923893,7.2765735266,-6.502495415499999,129
32716,193589,131246,-1.2275179938,7.2921268735,-6.492924125099999,130
32704,193544,131268,-1.3734801723999999,7.2311098972,-6.4773707782,131
32696,193497,131260,-1.2514462198,7.4069823583000005,-6.5060846494,132
32593,193531,131298,-1.1665010175000001,7.3088766317000005,-6.604190375999999,133
32694,193488,131254,-1.2490533972,7.3423761481,-6.5156559398,134
32666,193485,131265,-1.1581261384000001,7.3052873978,-6.4821564234,135
32680,193539,131242,-1.256231865,7.196413969499999,-6.4761743669,136
32679,193510,131296,-1.3292129543,7.250252477999999,-6.568298037,137
32680,193499,131260,-1.3268201317000001,7.2969125187,-6.5288164641,138
32684,193515,131237,-1.1892328322,7.3507510272,-6.5276200528,139
32696,193413,131223,-1.1497512593,7.3304120351,-6.6233329568,140
32627,193531,131224,-1.280160091,7.29810893,-6.5587267466,141
32720,193541,131212,-1.2179467034,7.3447689707,-6.5850477951999995,142
32737,193522,131220,-1.2023933565,7.2801627605000006,-6.4689958991,143
32756,193485,131233,-1.1952148887,7.3148586882,-6.562315980499999,144
32715,193607,131252,-1.2873385588,7.3746792532,-6.5551375127,145
32790,193586,131249,-1.112662509,7.2430740102,-6.5587267466,146
32764,193610,131239,-1.2945170266,7.3028945752,-6.518048762399999,147
32696,193471,131237,-1.304088317,7.2598237683999995,-6.452246140900001,148
32648,193516,131213,-1.2622139215000001,7.3124658656,-6.5060846494,149
32612,193471,131197,-1.2634103328,7.1928247355999995,-6.5659052144,150
32600,193486,131226,-1.3100703735,7.2681986475,-6.546762633599999,151
32588,193467,131223,-1.1353943237,7.202396026,-6.5730836822,152
32633,193452,131231,-1.2011969452,7.294519696099999,-6.592226263000001,153
32594,193426,131240,-1.0384850084,7.211967316399999,-6.518048762399999,154
32515,193434,131221,-1.2993026717999998,7.2299134859,-6.5419769884,155
32589,193467,131224,-1.1533404932,7.3316084464,-6.5300128754,156
32587,193442,131230,-1.2023933565,7.2179493729,-6.4689958991,157
32601,193433,131212,-1.1665010175000001,7.3124658656,-6.592226263000001,158
32659,193498,131206,-1.2753744458,7.286144817,-6.534798520600001,159
32621,193453,131214,-1.2382856955,7.3160550995,-6.5001025929,160
32633,193472,131221,-1.1018948073,7.252645300599999,-6.508477471999999,161
32650,193459,131198,-1.3208380752,7.3974110679,-6.559923157899999,162
32663,193465,131195,-1.3339985995,7.2933232848,-6.5994047308,163
32649,193530,131207,-1.0947163395,7.2550381232,-6.534798520600001,164
32703,193544,131228,-1.2945170266,7.3507510272,-6.5228344076,165
32725,193472,131231,-1.2634103328,7.1808606226,-6.4618174313,166
32755,193536,131210,-1.3579268255,7.320840744700001,-6.563512391800001,167
32726,193561,131228,-1.1988041226,7.3005017526,-6.5778693274,168
32704,193578,131203,-1.1569297271,7.2358955424,-6.5934226743,169
32609,193520,131237,-1.2167502921,7.3244299786000004,-6.549155456199999,170
32586,193517,131210,-1.2574282763000002,7.294519696099999,-6.5252272302000005,171
32568,193466,131196,-1.2370892842,7.1760749774,-6.4438712618,172
32570,193458,131218,-1.3328021881999998,7.317251510799999,-6.592226263000001,173
32571,193423,131256,-1.1665010175000001,7.3507510272,-6.5144595285,174
32615,193489,131248,-1.2634103328,7.252645300599999,-6.437889205299999,175
32601,193489,131273,-1.2658031554,7.3423761481,-6.5252272302000005,176
32615,193503,131246,-1.1784651305,7.3375905029,-6.480960012100001,177
32605,193472,131265,-1.2861421475,7.3005017526,-6.534798520600001,178
32653,193527,131253,-1.244267752,7.1976103808000005,-6.5539411014,179
32647,193504,131271,-1.2514462198,7.2358955424,-6.6029939646999996,180
32686,193574,131303,-1.2023933565,7.1533431627,-6.5647088031,181
32695,193574,131286,-1.2693923893,7.2933232848,-6.5826549726,182
32728,193572,131280,-1.2753744458,7.2646094136,-6.4917277138,183
32752,193566,131288,-1.2394821068,7.2358955424,-6.436692794,184
32696,193658,131301,-1.1748758966000001,7.166503687,-6.5036918268,185
32820,193677,131307,-1.2490533972,7.221538606799999,-6.6065831986,186
32859,193628,131330,-1.208375413,7.3316084464,-6.4821564234,187
32896,193728,131363,-1.2215359373,7.274180704,-6.5407805771,188
32915,193775,131333,-1.304088317,7.3124658656,-6.5359949319,189
32882,193747,131359,-1.3184452526,7.3507510272,-6.4618174313,190
32829,193680,131349,-1.2514462198,7.2765735266,-6.4570317861,191
32799,193717,131315,-1.3579268255,7.2167529616,-6.5036918268,192
32785,193679,131370,-1.4153545679,7.2586273571,-6.5288164641,193
32785,193694,131365,-1.2526426310999998,7.2311098972,-6.532405698,194
32797,193713,131356,-1.3435698899,7.1342005819,-6.6197437229,195
32813,193714,131389,-1.1557333158,7.3435725594,-6.466603076499999,196
32836,193738,131376,-1.3172488413,7.2610201797,-6.534798520600001,197
32867,193738,131411,-1.1760723079,7.171289332200001,-6.628118602,198
32847,193680,131400,-1.2610175101999999,7.2490560667,-6.640082715,199
32815,193722,131397,-1.2610175101999999,7.274180704,-6.508477471999999,200
32873,193733,131407,-1.2945170266,7.1856462678,-6.5850477951999995,201
32889,193774,131385,-1.2813565023,7.357929495,-6.5970119082,202
32913,193769,131390,-1.2825529136,7.281359171799999,-6.4402820279,203
32938,193769,131386,-1.3160524299999998,7.125825702799999,-6.5970119082,204
32964,193795,131405,-1.3567304141999998,7.317251510799999,-6.5001025929,205
32988,193835,131412,-1.1306086785,7.158128807899999,-6.5479590449,206
33016,193853,131418,-1.3674981159,7.190431913,-6.5479590449,207
33044,193833,131425,-1.2622139215000001,7.2454668328,-6.628118602,208
33076,193853,131438,-1.3615160593999998,7.2753771152999995,-6.6113688438,209
33080,193929,131457,-1.3124631961,7.2059852599,-6.5192451737,210
33042,193914,131439,-1.2263215825,7.2646094136,-6.5156559398,211
32991,193788,131406,-1.2490533972,7.29810893,-6.5204415849999995,212
32872,193819,131420,-1.2705888006,7.202396026,-6.5874406178,213
32941,193810,131428,-1.3615160593999998,7.2753771152999995,-6.5252272302000005,214
32930,193753,131409,-1.232303639,7.2933232848,-6.5479590449,215
32941,193810,131455,-1.2454641632999999,7.2909304621999995,-6.492924125099999,216
32975,193821,131448,-1.1880364209,7.4069823583000005,-6.492924125099999,217
32957,193802,131454,-1.2227323486,7.3244299786000004,-6.5371913432,218
32888,193789,131444,-1.2191431147,7.1736821548,-6.5539411014,219
32960,193776,131432,-1.2526426310999998,7.158128807899999,-6.5371913432,220
32950,193786,131422,-1.3028919057000001,7.3304120351,-6.5001025929,221
32937,193817,131443,-1.2945170266,7.2179493729,-6.6017975534,222
32966,193784,131432,-1.3674981159,7.3447689707,-6.4630138426,223
32972,193805,131417,-1.2993026717999998,7.349554615900001,-6.5156559398,224
32984,193794,131431,-1.2107682356,7.335197680299999,-6.532405698,225
32991,193799,131434,-1.2358928729,7.2885376395999995,-6.5276200528,226
33005,193724,131390,-1.3674981159,7.250252477999999,-6.5036918268,227
33022,193849,131391,-1.2873385588,7.2885376395999995,-6.5778693274,228
33033,193836,131387,-1.2502498085,7.317251510799999,-6.604190375999999,229
33019,193888,131413,-1.3112667848,7.1880390904,-6.6484575941,230
32959,193825,131383,-1.2430713407,7.3399833255,-6.5060846494,231
32878,193799,131361,-1.2777672683999999,7.29810893,-6.5204415849999995,232
32825,193712,131351,-1.2251251712,7.225127840700001,-6.5204415849999995,233
32793,193688,131348,-1.232303639,7.2430740102,-6.5659052144,234
32783,193631,131331,-1.1772687192,7.202396026,-6.640082715,235
32727,193611,131363,-1.172483074,7.307680220399999,-6.6017975534,236
32757,193580,131343,-1.1700902514,7.2717878814,-6.5228344076,237
32750,193565,131354,-1.1688938401,7.393821834000001,-6.5204415849999995,238
32748,193547,131332,-1.2717852119000002,7.2909304621999995,-6.4546389635,239
32734,193573,131319,-1.4321043261,7.196413969499999,-6.5276200528,240
32733,193566,131336,-1.1964113,7.1952175581999995,-6.5264236415,241
32743,193606,131297,-1.2681959779999998,7.265805824899999,-6.592226263000001,242
32744,193587,131295,-1.3830514628000001,7.319644333399999,-6.502495415499999,243
32742,193579,131300,-1.1940184774,7.3316084464,-6.5300128754,244
32768,193600,131270,-1.0899306943,7.281359171799999,-6.5611195692,245
32778,193608,131292,-1.2897313814,7.363911551499999,-6.502495415499999,246
32795,193559,131279,-1.2550354537,7.332804857699999,-6.6113688438,247
32813,193601,131270,-1.3471591237999998,7.2765735266,-6.5108702946,248
32828,193617,131300,-1.3591232368,7.2598237683999995,-6.5144595285,249
32837,193666,131284,-1.2909277927,7.3663043741,-6.629315013299999,250
32811,193676,131310,-1.3196416639,7.3758756645,-6.5048882380999995,251
32757,193626,131258,-1.2586246876,7.3160550995,-6.5132631172,252
32682,193588,131267,-1.3112667848,7.238288365000001,-6.5778693274,253
32650,193534,131243,-1.3208380752,7.250252477999999,-6.6149580777,254
32628,193536,131265,-1.2741780345,7.3292156238,-6.521637996299999,255
32588,193519,131277,-1.3651052933,7.1796642112999995,-6.5515482788,256
32610,193502,131272,-1.2634103328,7.4668029232999995,-6.4450676731,257
32668,193512,131271,-1.3184452526,7.2358955424,-6.5587267466,258
32613,193479,131277,-1.3160524299999998,7.3507510272,-6.5228344076,259
32602,193498,131271,-1.2191431147,7.2598237683999995,-6.4821564234,260
32603,193471,131270,-1.3148560187,7.3375905029,-6.5072810607,261
32611,193475,131262,-1.2382856955,7.3543402611,-6.4833528347,262
32606,193463,131249,-1.232303639,7.2921268735,-6.5300128754,263
32633,193512,131256,-1.1401799688999998,7.2646094136,-6.4594246087,264
32642,193480,131236,-1.3328021881999998,7.3256263899,-6.5036918268,265
32661,193516,131226,-1.2263215825,7.29810893,-6.5395841658,266
32655,193513,131233,-1.1665010175000001,7.357929495,-6.496513359000001,267
32702,193548,131242,-1.1425727915,7.3268228012,-6.5838513839,268
32718,193526,131254,-1.2023933565,7.2358955424,-6.5671016257,269
32721,193565,131248,-1.2921242039999998,7.3375905029,-6.544369811,270
32764,193607,131249,-1.1186445655,7.405785946999999,-6.5300128754,271
32749,193602,131253,-1.1940184774,7.307680220399999,-6.5204415849999995,272
32651,193546,131248,-1.1270194446,7.240681187599999,-6.4307107375,273
32609,193481,131242,-1.3423734786,7.2717878814,-6.5874406178,274
32580,193467,131221,-1.2346964616,7.3280192125,-6.6017975534,275
32564,193485,131218,-1.0971091621,7.2071816712,-6.5539411014,276
32572,193474,131265,-1.172483074,7.223931429399999,-6.5587267466,277
32561,193435,131246,-1.2167502921,7.267002236200001,-6.467799487800001,278
32570,193438,131258,-1.2095718243,7.3710900192999995,-6.4821564234,279
32579,193427,131252,-1.3088739621999999,7.349554615900001,-6.496513359000001,280
32583,193455,131257,-1.1796615418,7.2729842927,-6.4905313025,281
32582,193478,131255,-1.1210373881,7.349554615900001,-6.5611195692,282
32588,193481,131258,-1.3004990831,7.348358204599999,-6.5371913432,283
32624,193526,131234,-1.2873385588,7.335197680299999,-6.6065831986,284
32680,193516,131252,-1.1988041226,7.3387869142,-6.4881384799,285
32673,193513,131267,-1.2346964616,7.225127840700001,-6.568298037,286
32666,193528,131256,-1.3998012210000002,7.252645300599999,-6.5611195692,287
32724,193582,131270,-1.2789636797000001,7.3710900192999995,-6.5539411014,288
32755,193613,131296,-1.2191431147,7.1760749774,-6.5395841658,289
32847,193650,131291,-1.2885349701,7.294519696099999,-6.533602109299999,290
32831,193681,131333,-1.3423734786,7.3256263899,-6.6628145297,291
32860,193691,131352,-1.1593225497000001,7.221538606799999,-6.4701923104,292
32851,193713,131323,-1.1700902514,7.1868426791,-6.5862442065,293
32827,193704,131327,-1.1988041226,7.2550381232,-6.4989061816,294
32771,193668,131325,-1.1641081949,7.183253445199999,-6.4977097703,295
32753,193622,131341,-1.2669995667,7.253841711900001,-6.5096738833000005,296
32748,193629,131342,-1.2215359373,7.1796642112999995,-6.5048882380999995,297
32751,193599,131331,-1.3184452526,7.1856462678,-6.467799487800001,298
32793,193629,131362,-1.1760723079,7.2550381232,-6.5276200528,299
32805,193654,131371,-1.184447187,7.2287170746000005,-6.5419769884,300
32810,193699,131376,-1.2095718243,7.3005017526,-6.534798520600001,301
32822,193678,131383,-1.1868400096,7.2083780824999995,-6.437889205299999,302
32844,193662,131369,-1.1282158559,7.2358955424,-6.4953169477,303
32853,193666,131374,-1.4201402131,7.2933232848,-6.5252272302000005,304
32879,193671,131393,-1.2478569859,7.335197680299999,-6.5611195692,305
32898,193684,131391,-1.2071790017,7.2047888486,-6.592226263000001,306
32946,193740,131412,-1.1330015010999999,7.2646094136,-6.5994047308,307
32951,193736,131402,-1.3375878334,7.3519474385,-6.6317078358999995,308
33003,193791,131381,-1.2335000503,7.1880390904,-6.604190375999999,309
33005,193828,131385,-1.160518961,7.221538606799999,-6.6065831986,310
33028,193811,131411,-1.3447663012,7.2574309458,-6.5455662223,311
33070,193862,131407,-1.2574282763000002,7.29810893,-6.5934226743,312
33075,193863,131438,-1.304088317,7.2717878814,-6.5096738833000005,313
33037,193840,131411,-1.2957134379000002,7.2646094136,-6.5730836822,314
33023,193865,131424,-1.2239287599,7.3292156238,-6.5120667059,315
32961,193757,131385,-1.2011969452,7.240681187599999,-6.6723858201,316
32939,193739,131419,-1.2849457361999999,7.2765735266,-6.6233329568,317
32936,193705,131411,-1.1784651305,7.3292156238,-6.6065831986,318
32965,193760,131415,-1.2370892842,7.282555583100001,-6.550351867499999,319
32968,193722,131410,-1.2047861791,7.2837519944,-6.5300128754,320
32958,193734,131446,-1.2000005339,7.29810893,-6.628118602,321
32956,193690,131417,-1.1892328322,7.2693950588,-6.5228344076,322
32945,193751,131393,-1.2921242039999998,7.332804857699999,-6.5060846494,323
32951,193759,131409,-1.1497512593,7.2167529616,-6.6065831986,324
33002,193758,131392,-1.3339985995,7.1748785661,-6.6113688438,325
32957,193709,131391,-1.2275179938,7.225127840700001,-6.508477471999999,326
32959,193707,131370,-1.2418749294,7.2562345345,-6.5659052144,327
32955,193724,131353,-1.2753744458,7.317251510799999,-6.4331035601,328
33016,193745,131371,-1.1593225497000001,7.3005017526,-6.5455662223,329
32980,193705,131338,-1.2598210989,7.2358955424,-6.6089760212,330
32988,193706,131367,-1.2681959779999998,7.3148586882,-6.6233329568,331
32986,193699,131325,-1.1449656141,7.238288365000001,-6.563512391800001,332
32957,193713,131316,-1.3064811396,7.2933232848,-6.484549246,333
32892,193691,131323,-1.244267752,7.2550381232,-6.575476504799999,334
32743,193624,131298,-1.136590735,7.278966349199999,-6.5060846494,335
32784,193574,131307,-1.2753744458,7.3244299786000004,-6.5730836822,336
32737,193535,131276,-1.1234302107,7.2586273571,-6.563512391800001,337
32758,193525,131296,-1.1330015010999999,7.183253445199999,-6.5982083195,338
32752,193499,131302,-1.2825529136,7.267002236200001,-6.5455662223,339
32755,193496,131318,-1.2765708571,7.2000032034000006,-6.6113688438,340
32747,193535,131300,-1.3256237203999999,7.2897340509,-6.576672916100001,341
32746,193503,131262,-1.220339526,7.29810893,-6.4869420686,342
32702,193487,131264,-1.3339985995,7.3280192125,-6.4713887217,343
32740,193481,131250,-1.1796615418,7.3244299786000004,-6.5706908596,344
32750,193491,131256,-1.2215359373,7.2574309458,-6.5144595285,345
32762,193532,131266,-1.1413763801999999,7.3375905029,-6.5001025929,346
32765,193499,131257,-1.1138589203,7.3974110679,-6.534798520600001,347
32775,193515,131229,-1.2634103328,7.2765735266,-6.5874406178,348
32802,193531,131228,-1.2945170266,7.190431913,-6.5694944482999995,349
32817,193543,131249,-1.1521440819,7.1078795333,-6.546762633599999,350
32838,193450,131250,-1.1952148887,7.4141608261,-6.5001025929,351
32858,193601,131277,-1.1832507757,7.2897340509,-6.5455662223,352
32836,193548,131250,-1.2933206153,7.4021967130999995,-6.5659052144,353
32780,193547,131255,-1.1784651305,7.2287170746000005,-6.4977097703,354
32674,193493,131218,-1.2418749294,7.274180704,-6.532405698,355
32684,193456,131195,-1.2753744458,7.2777699379,-6.518048762399999,356
32660,193473,131248,-1.1820543644000001,7.252645300599999,-6.6568324732,357
32643,193409,131224,-1.3184452526,7.3184479221,-6.4570317861,358
32635,193418,131226,-1.2478569859,7.240681187599999,-6.4917277138,359
32645,193424,131255,-1.280160091,7.238288365000001,-6.496513359000001,360
32645,193418,131252,-1.1521440819,7.381857721,-6.5790657387,361
32644,193392,131255,-1.1976077113,7.238288365000001,-6.4977097703,362
32651,193426,131241,-1.1557333158,7.2837519944,-6.5970119082,363
32648,193401,131241,-1.1940184774,7.2753771152999995,-6.5934226743,364
32649,193424,131207,-1.1509476706000001,7.226324252,-6.5659052144,365
32667,193438,131217,-1.2418749294,7.3686971967,-6.5706908596,366
32682,193436,131207,-1.2358928729,7.2335027198,-6.5108702946,367
32688,193344,131198,-1.2514462198,7.3950182453,-6.556333924,368
32608,193467,131202,-1.2705888006,7.304090986499999,-6.5778693274,369
32725,193472,131226,-1.2550354537,7.281359171799999,-6.5850477951999995,370
32710,193500,131219,-1.232303639,7.198806792099999,-6.5240308189,371
32779,193488,131214,-1.3363914221,7.3447689707,-6.480960012100001,372
32791,193522,131255,-1.2753744458,7.2969125187,-6.5276200528,373
32758,193504,131219,-1.2586246876,7.3686971967,-6.4905313025,374
32650,193478,131229,-1.1294122672,7.2693950588,-6.546762633599999,375
32658,193439,131225,-1.2610175101999999,7.319644333399999,-6.4941205364000005,376
32626,193415,131192,-1.1413763801999999,7.262216591,-6.5395841658,377
32612,193396,131208,-1.1832507757,7.2358955424,-6.492924125099999,378
32611,193396,131228,-1.1676974288,7.2047888486,-6.5874406178,379
32607,193382,131213,-1.208375413,7.1796642112999995,-6.5611195692,380
32603,193361,131248,-1.2478569859,7.348358204599999,-6.549155456199999,381
32621,193332,131236,-1.1174481541999999,7.2849484057,-6.4594246087,382
32618,193384,131217,-1.2394821068,7.378268487100001,-6.546762633599999,383
32613,193383,131227,-1.2681959779999998,7.2562345345,-6.5778693274,384
32624,193403,131201,-1.1736794853,7.226324252,-6.549155456199999,385
32588,193404,131201,-1.3663017045999999,7.2514488893,-6.533602109299999,386
32645,193415,131206,-1.1629117836,7.2287170746000005,-6.5611195692,387
32596,193396,131214,-1.2346964616,7.489534738000001,-6.5156559398,388
32677,193393,131193,-1.2047861791,7.3926254227,-6.533602109299999,389
32691,193314,131199,-1.1210373881,7.29810893,-6.5946190856,390
32720,193454,131190,-1.3950155758,7.2885376395999995,-6.546762633599999,391
32737,193462,131214,-1.1617153723,7.198806792099999,-6.544369811,392
32688,193522,131228,-1.1665010175000001,7.4010003018,-6.4689958991,393
32799,193559,131234,-1.2430713407,7.335197680299999,-6.4989061816,394
32777,193544,131233,-1.2131610582,7.190431913,-6.546762633599999,395
32717,193493,131232,-1.2227323486,7.2909304621999995,-6.496513359000001,396
32686,193506,131227,-1.244267752,7.3005017526,-6.5060846494,397
32651,193444,131244,-1.2167502921,7.1724857435,-6.6209401342000005,398
32649,193413,131225,-1.2059825904,7.2598237683999995,-6.472585133,399
32641,193402,131250,-1.2346964616,7.3806613097,-6.5252272302000005,400
32668,193414,131278,-1.2155538808,7.3471617933,-6.5048882380999995,401
32667,193457,131277,-1.1904292435000001,7.2287170746000005,-6.5383877545,402
32700,193501,131279,-1.232303639,7.238288365000001,-6.5395841658,403
32763,193513,131293,-1.2693923893,7.3806613097,-6.484549246,404
32725,193514,131303,-1.2131610582,7.2562345345,-6.58026215,405
32747,193552,131298,-1.1665010175000001,7.3280192125,-6.5611195692,406
32766,193549,131324,-1.4608181972999998,7.3244299786000004,-6.4534425522,407
32793,193517,131322,-1.2945170266,7.3435725594,-6.502495415499999,408
32736,193593,131308,-1.2071790017,7.3543402611,-6.5060846494,409
32843,193619,131307,-1.2394821068,7.294519696099999,-6.5072810607,410
32877,193650,131350,-1.2813565023,7.252645300599999,-6.518048762399999,411
32906,193647,131347,-1.3208380752,7.3016981639,-6.4941205364000005,412
32942,193665,131337,-1.1545369045,7.3292156238,-6.5898334404,413
32985,193620,131365,-1.3399806559999998,7.3016981639,-6.6364934811000005,414
33013,193744,131365,-1.2669995667,7.2323063085,-6.4498533183,415
33000,193774,131365,-1.3244273091,7.307680220399999,-6.5156559398,416
32954,193775,131369,-1.3076775509,7.4273213504,-6.5012990042,417
32940,193735,131364,-1.2514462198,7.282555583100001,-6.6209401342000005,418
32910,193683,131379,-1.3746765837,7.2837519944,-6.5862442065,419
32897,193714,131363,-1.1066804525,7.2095744938,-6.549155456199999,420
32911,193692,131417,-1.3627124707,7.2430740102,-6.5156559398,421
32921,193717,131372,-1.2263215825,7.310073043,-6.5838513839,422
32940,193710,131414,-1.2047861791,7.2717878814,-6.628118602,423
32951,193744,131412,-1.2263215825,7.3160550995,-6.5671016257,424
33002,193743,131401,-1.2669995667,7.1736821548,-6.5168523511,425
32959,193732,131430,-1.3136596074,7.2921268735,-6.5874406178,426
32979,193716,131412,-1.2897313814,7.2490560667,-6.6544396506,427
32997,193750,131400,-1.1569297271,7.214360139,-6.546762633599999,428
33015,193729,131428,-1.2849457361999999,7.2191457842,-6.4713887217,429
33032,193761,131428,-1.2610175101999999,7.3148586882,-6.4833528347,430
33057,193790,131417,-1.3004990831,7.501498850999999,-6.4881384799,431
33084,193796,131412,-1.2514462198,7.2598237683999995,-6.4905313025,432
33105,193824,131418,-1.2059825904,7.3447689707,-6.4115681567000005,433
33167,193870,131437,-1.2705888006,7.348358204599999,-6.5072810607,434
33150,193878,131439,-1.1760723079,7.3531438498,-6.5826549726,435
33150,193878,131429,-1.2382856955,7.1222364689,-6.6006011420999995,436
33092,193863,131452,-1.4440684390999998,7.2203421955,-6.4594246087,437
33048,193823,131426,-1.2837493249,7.2179493729,-6.549155456199999,438
33003,193735,131393,-1.2047861791,7.262216591,-6.5276200528,439
32991,193746,131397,-1.1880364209,7.3316084464,-6.534798520600001,440
32983,193706,131421,-1.3674981159,7.3005017526,-6.5228344076,441
32967,193723,131417,-1.3064811396,7.221538606799999,-6.5001025929,442
32978,193646,131428,-1.244267752,7.2897340509,-6.5479590449,443
32938,193718,131438,-1.3304093655999998,7.3136622769,-6.5659052144,444
32968,193682,131387,-1.1377871463,7.320840744700001,-6.4905313025,445
32949,193644,131389,-1.2035897678,7.3268228012,-6.5515482788,446
32899,193698,131387,-1.2897313814,7.1629144531,-6.604190375999999,447
32946,193677,131378,-1.2023933565,7.348358204599999,-6.4570317861,448
32956,193701,131364,-1.280160091,7.3507510272,-6.4905313025,449
32942,193642,131352,-1.2155538808,7.3052873978,-6.5228344076,450
32952,193639,131337,-1.2502498085,7.252645300599999,-6.6245293681,451
32968,193661,131329,-1.1545369045,7.320840744700001,-6.518048762399999,452
32984,193662,131364,-1.2275179938,7.281359171799999,-6.46062102,453
32992,193647,131343,-1.2550354537,7.3005017526,-6.544369811,454
33003,193639,131340,-1.2825529136,7.3375905029,-6.5371913432,455
32884,193705,131327,-1.2658031554,7.250252477999999,-6.533602109299999,456
32910,193652,131345,-1.3124631961,7.2885376395999995,-6.531209286699999,457
32845,193593,131297,-1.2813565023,7.3878397775,-6.6628145297,458
32790,193573,131291,-1.2610175101999999,7.2430740102,-6.562315980499999,459
32760,193526,131279,-1.2753744458,7.3830541323,-6.5359949319,460
32743,193527,131288,-1.2059825904,7.294519696099999,-6.5060846494,461
32726,193499,131299,-1.1964113,7.2574309458,-6.6233329568,462
32725,193496,131290,-1.3148560187,7.2418775989,-6.531209286699999,463
32719,193487,131290,-1.2430713407,7.3005017526,-6.5730836822,464
32711,193389,131275,-1.2179467034,7.323233567299999,-6.575476504799999,465
32608,193451,131269,-1.3399806559999998,7.335197680299999,-6.4857456573,466
32703,193464,131285,-1.2634103328,7.3304120351,-6.4594246087,467
32734,193515,131273,-1.3064811396,7.332804857699999,-6.4941205364000005,468
32721,193481,131271,-1.0683952909,7.2000032034000006,-6.5252272302000005,469
32721,193480,131259,-1.1712866627,7.262216591,-6.4869420686,470
32732,193514,131234,-1.2406785181,7.2071816712,-6.534798520600001,471
32752,193481,131253,-1.2275179938,7.3627151402,-6.5036918268,472
32763,193435,131228,-1.2538390423999999,7.3722864306,-6.559923157899999,473
32788,193525,131263,-1.2885349701,7.2969125187,-6.5611195692,474
32819,193527,131274,-1.3627124707,7.2837519944,-6.5539411014,475
32836,193591,131255,-1.3411770673,7.3806613097,-6.425925092299999,476
32797,193610,131260,-1.2107682356,7.3806613097,-6.5371913432,477
32738,193612,131240,-1.3148560187,7.2203421955,-6.467799487800001,478
32675,193486,131237,-1.3184452526,7.281359171799999,-6.4737815442999995,479
32636,193475,131261,-1.2227323486,7.361518728899999,-6.5108702946,480
32591,193429,131254,-1.2047861791,7.2598237683999995,-6.4917277138,481
32586,193445,131267,-1.2131610582,7.29810893,-6.508477471999999,482
32610,193427,131245,-1.2945170266,7.3016981639,-6.544369811,483
32612,193382,131235,-1.2658031554,7.3244299786000004,-6.5001025929,484
32615,193360,131253,-1.2406785181,7.3148586882,-6.5048882380999995,485
32575,193414,131238,-1.2000005339,7.393821834000001,-6.4857456573,486
32606,193394,131227,-1.1330015010999999,7.252645300599999,-6.4953169477,487
32547,193428,131230,-1.2358928729,7.183253445199999,-6.4570317861,488
32623,193425,131242,-1.220339526,7.2646094136,-6.534798520600001,489
32629,193368,131231,-1.1748758966000001,7.221538606799999,-6.5060846494,490
32544,193444,131225,-1.2610175101999999,7.4093751809,-6.5706908596,491
32660,193442,131210,-1.2191431147,7.307680220399999,-6.496513359000001,492
32683,193403,131216,-1.2095718243,7.334001269,-6.549155456199999,493
32702,193500,131237,-1.1497512593,7.3399833255,-6.4905313025,494
32732,193471,131211,-1.208375413,7.1401826384,-6.521637996299999,495
32747,193522,131230,-1.1952148887,7.225127840700001,-6.464210253899999,496
32754,193531,131244,-1.2107682356,7.2717878814,-6.439085616600001,497
32751,193623,131216,-1.256231865,7.390232600099999,-6.4450676731,498
32745,193568,131217,-1.2490533972,7.399803890499999,-6.5012990042,499
32639,193511,131231,-1.1784651305,7.2071816712,-6.5132631172,500
32611,193463,131225,-1.2705888006,7.307680220399999,-6.5371913432,501
32592,193393,131228,-1.1964113,7.2693950588,-6.4977097703,502
32586,193461,131231,-1.1892328322,7.2693950588,-6.4235322697,503
32620,193438,131264,-1.1748758966000001,7.267002236200001,-6.4474604957,504
32595,193406,131261,-1.1545369045,7.2287170746000005,-6.549155456199999,505
32603,193414,131231,-1.1306086785,7.3423761481,-6.5527446901,506
32601,193411,131236,-1.256231865,7.2921268735,-6.5240308189,507
32597,193437,131224,-1.4057832774999999,7.3435725594,-6.435496382699999,508
32606,193322,131222,-1.2478569859,7.2011996147,-6.4737815442999995,509
32530,193439,131207,-1.1832507757,7.3387869142,-6.4689958991,510
32626,193395,131222,-1.3483555351,7.2586273571,-6.518048762399999,511
32638,193371,131221,-1.2023933565,7.240681187599999,-6.5252272302000005,512
32577,193399,131218,-1.1940184774,7.348358204599999,-6.4701923104,513
32672,193494,131212,-1.2705888006,7.3591259063,-6.5778693274,514
32690,193514,131217,-1.0995019847,7.2227350181,-6.546762633599999,515
32710,193507,131231,-1.2000005339,7.349554615900001,-6.4905313025,516
32746,193533,131205,-1.2299108163999999,7.3890361888,-6.6053867873000005,517
32757,193511,131258,-1.2466605746,7.2000032034000006,-6.549155456199999,518
32694,193537,131255,-1.2729816232,7.3399833255,-6.46062102,519
32688,193510,131237,-1.4213366244,7.332804857699999,-6.4941205364000005,520
32636,193476,131233,-1.1820543644000001,7.2550381232,-6.5790657387,521
32612,193452,131225,-1.2658031554,7.1976103808000005,-6.532405698,522
32593,193468,131253,-1.1030912186,7.332804857699999,-6.5587267466,523
32584,193431,131242,-1.2119646469,7.4093751809,-6.5994047308,524
32602,193418,131265,-1.2538390423999999,7.274180704,-6.5395841658,525
32625,193448,131281,-1.1964113,7.2454668328,-6.575476504799999,526
32639,193468,131267,-1.1736794853,7.4213392939,-6.534798520600001,527
32649,193456,131272,-1.2263215825,7.3423761481,-6.496513359000001,528
32668,193501,131289,-1.2610175101999999,7.335197680299999,-6.508477471999999,529
32677,193511,131284,-1.1665010175000001,7.2478596554,-6.5228344076,530
32699,193536,131309,-1.1688938401,7.307680220399999,-6.5874406178,531
32739,193551,131307,-1.2610175101999999,7.332804857699999,-6.5204415849999995,532
32753,193546,131307,-1.2741780345,7.307680220399999,-6.5228344076,533
32782,193609,131322,-1.3375878334,7.3148586882,-6.532405698,534
32812,193538,131315,-1.3124631961,7.363911551499999,-6.4785671895,535
32742,193632,131339,-1.1940184774,7.304090986499999,-6.559923157899999,536
32881,193691,131352,-1.2729816232,7.223931429399999,-6.4737815442999995,537
32913,193617,131362,-1.3160524299999998,7.2681986475,-6.617350900300001,538
32948,193782,131359,-1.4225330357,7.2418775989,-6.5383877545,539
32944,193772,131386,-1.1353943237,7.2562345345,-6.5994047308,540
32908,193686,131376,-1.2239287599,7.2478596554,-6.5587267466,541
32872,193718,131372,-1.2921242039999998,7.2598237683999995,-6.4043896889,542
32841,193697,131382,-1.2849457361999999,7.252645300599999,-6.492924125099999,543
32842,193611,131380,-1.1353943237,7.3028945752,-6.5730836822,544
32846,193694,131394,-1.256231865,7.3064838090999995,-6.4331035601,545
32881,193707,131431,-1.2454641632999999,7.2071816712,-6.5778693274,546
32887,193697,131425,-1.2945170266,7.2729842927,-6.5001025929,547
32884,193725,131423,-1.2000005339,7.2897340509,-6.4546389635,548
32912,193740,131415,-1.2993026717999998,7.3136622769,-6.4989061816,549
32919,193723,131396,-1.3651052933,7.1724857435,-6.502495415499999,550
32927,193731,131427,-1.3567304141999998,7.225127840700001,-6.5108702946,551
32956,193785,131407,-1.208375413,7.4045895357,-6.5371913432,552
32963,193779,131444,-1.2263215825,7.2346991311,-6.6472611828,553
32991,193784,131402,-1.3088739621999999,7.2909304621999995,-6.5994047308,554
33009,193767,131430,-1.2957134379000002,7.2179493729,-6.646064771500001,555
33040,193806,131423,-1.3136596074,7.3148586882,-6.412764568,556
33065,193833,131446,-1.256231865,7.238288365000001,-6.5108702946,557
33096,193857,131441,-1.0863414604,7.304090986499999,-6.5718872709,558
33118,193902,131462,-1.2777672683999999,7.3866433661999995,-6.4977097703,559
33184,193932,131466,-1.2897313814,7.2969125187,-6.4594246087,560
33100,193939,131463,-1.1856435983,7.267002236200001,-6.544369811,561
33052,193844,131448,-1.2478569859,7.2478596554,-6.6317078358999995,562
33007,193854,131434,-1.2011969452,7.3555366724,-6.5898334404,563
33000,193820,131443,-1.280160091,7.274180704,-6.6376898924,564
32997,193787,131444,-1.1186445655,7.262216591,-6.544369811,565
32999,193821,131475,-1.2167502921,7.2107709050999995,-6.5587267466,566
33007,193802,131453,-1.2849457361999999,7.238288365000001,-6.452246140900001,567
32959,193823,131489,-1.2179467034,7.2646094136,-6.5371913432,568
33005,193800,131454,-1.3112667848,7.2466632441,-6.5407805771,569
33005,193705,131449,-1.2777672683999999,7.1784678,-6.5994047308,570
33011,193767,131444,-1.2705888006,7.3543402611,-6.5096738833000005,571
33013,193816,131447,-1.1712866627,7.3854469549,-6.6269221907,572
33036,193824,131439,-1.2861421475,7.286144817,-6.4917277138,573
33034,193810,131440,-1.2071790017,7.2454668328,-6.5048882380999995,574
33059,193835,131419,-1.1868400096,7.2849484057,-6.4977097703,575
33058,193810,131449,-1.3806586402,7.2478596554,-6.502495415499999,576
33078,193841,131421,-1.2023933565,7.2717878814,-6.4426748505,577
33074,193852,131423,-1.1617153723,7.226324252,-6.6065831986,578
33085,193772,131422,-1.1377871463,7.304090986499999,-6.5371913432,579
33060,193826,131419,-1.1736794853,7.211967316399999,-6.4570317861,580
33031,193796,131396,-1.3375878334,7.3160550995,-6.607779609900001,581
32924,193762,131362,-1.112662509,7.2394847763,-6.5072810607,582
32889,193726,131350,-1.1617153723,7.2550381232,-6.568298037,583
32849,193616,131363,-1.2538390423999999,7.29810893,-6.5228344076,584
32827,193602,131358,-1.280160091,7.2059852599,-6.5288164641,585
32813,193595,131343,-1.2287144051,7.2693950588,-6.5060846494,586
32826,193595,131351,-1.2610175101999999,7.2693950588,-6.4833528347,587
32807,193599,131350,-1.2705888006,7.286144817,-6.5575303353,588
32795,193598,131330,-1.220339526,7.3256263899,-6.518048762399999,589
32786,193562,131332,-1.1916256548,7.3387869142,-6.5252272302000005,590
32784,193485,131319,-1.208375413,7.3292156238,-6.3577296482,591
32781,193566,131314,-1.2945170266,7.2634130023,-6.484549246,592
32791,193598,131315,-1.3387842447,7.3112694543000005,-6.5168523511,593
32800,193575,131282,-1.2741780345,7.3124658656,-6.6065831986,594
32800,193600,131279,-1.1976077113,7.4069823583000005,-6.563512391800001,595
32823,193590,131323,-1.1114660977,7.190431913,-6.508477471999999,596
32836,193579,131294,-1.088734283,7.381857721,-6.4941205364000005,597
32859,193644,131289,-1.3016954943999999,7.237091953699999,-6.452246140900001,598
32866,193643,131308,-1.280160091,7.334001269,-6.436692794,599
32834,193636,131293,-1.1916256548,7.3806613097,-6.502495415499999,600
32741,193593,131264,-1.1617153723,7.238288365000001,-6.4331035601,601
32708,193628,131294,-1.1868400096,7.2957161074000005,-6.546762633599999,602
32661,193479,131249,-1.2945170266,7.2227350181,-6.5383877545,603
32636,193510,131257,-1.1892328322,7.267002236200001,-6.5395841658,604
32665,193495,131281,-1.1377871463,7.317251510799999,-6.5395841658,605
32622,193490,131305,-1.2299108163999999,7.3148586882,-6.5826549726,606
32653,193438,131271,-1.2586246876,7.2873412283,-6.4618174313,607
32616,193491,131265,-1.1138589203,7.2191457842,-6.4773707782,608
32620,193472,131245,-1.2346964616,7.2442704215000004,-6.521637996299999,609
32611,193453,131247,-1.2897313814,7.2753771152999995,-6.5383877545,610
32609,193437,131249,-1.1736794853,7.332804857699999,-6.4977097703,611
32616,193438,131238,-1.244267752,7.286144817,-6.5730836822,612
32626,193471,131229,-1.2418749294,7.282555583100001,-6.5515482788,613
32643,193464,131214,-1.2897313814,7.088736952500001,-6.5072810607,614
32653,193489,131229,-1.2023933565,7.345965381999999,-6.502495415499999,615
32676,193524,131262,-1.3160524299999998,7.2191457842,-6.5659052144,616
32656,193480,131224,-1.2251251712,7.2957161074000005,-6.4821564234,617
32715,193530,131253,-1.3363914221,7.281359171799999,-6.5120667059,618
32739,193568,131235,-1.1353943237,7.399803890499999,-6.5946190856,619
32729,193576,131243,-1.1916256548,7.2550381232,-6.5228344076,620
32656,193523,131257,-1.2909277927,7.3435725594,-6.5156559398,621
32600,193515,131215,-1.2993026717999998,7.2418775989,-6.4833528347,622
32592,193494,131237,-1.2502498085,7.2454668328,-6.5252272302000005,623
32536,193449,131223,-1.1964113,7.3519474385,-6.5252272302000005,624
32529,193427,131237,-1.0947163395,7.2646094136,-6.5706908596,625
32523,193421,131242,-1.2023933565,7.4045895357,-6.4737815442999995,626
32534,193462,131248,-1.0947163395,7.2909304621999995,-6.5611195692,627
32532,193330,131282,-1.232303639,7.2801627605000006,-6.451049729599999,628
32527,193429,131245,-1.3160524299999998,7.3028945752,-6.5395841658,629
32541,193413,131237,-1.2777672683999999,7.3280192125,-6.5778693274,630
32535,193453,131223,-1.375872995,7.1736821548,-6.592226263000001,631
32544,193432,131250,-1.1832507757,7.2191457842,-6.5419769884,632
32557,193464,131223,-1.2586246876,7.3567330837,-6.5204415849999995,633
32578,193458,131226,-1.2598210989,7.286144817,-6.5060846494,634
32579,193483,131211,-1.3160524299999998,7.2287170746000005,-6.439085616600001,635
32610,193514,131214,-1.1988041226,7.2035924373,-6.534798520600001,636
32624,193527,131247,-1.1760723079,7.369893608,-6.5587267466,637
32651,193536,131247,-1.1868400096,7.1126651784999995,-6.5587267466,638
32682,193582,131230,-1.3028919057000001,7.2442704215000004,-6.5539411014,639
32695,193578,131252,-1.1856435983,7.334001269,-6.5611195692,640
32676,193554,131256,-1.2059825904,7.3555366724,-6.4474604957,641
32614,193593,131270,-1.1413763801999999,7.4428746973,-6.4737815442999995,642
32545,193579,131258,-1.2095718243,7.2478596554,-6.5659052144,643
32487,193508,131239,-1.2634103328,7.2598237683999995,-6.4941205364000005,644
32477,193521,131266,-1.3136596074,7.3184479221,-6.5228344076,645
32474,193502,131250,-1.3926227532000002,7.3124658656,-6.5587267466,646
32476,193446,131265,-1.2538390423999999,7.2203421955,-6.4582281974,647
32444,193525,131254,-1.1545369045,7.2227350181,-6.5694944482999995,648
32512,193549,131294,-1.2023933565,7.1952175581999995,-6.5431733997,649
32514,193514,131264,-1.1868400096,7.238288365000001,-6.4426748505,650
32486,193512,131289,-1.2825529136,7.3423761481,-6.5001025929,651
32523,193588,131284,-1.2059825904,7.2933232848,-6.5204415849999995,652
32478,193609,131300,-1.2634103328,7.3280192125,-6.6053867873000005,653
32570,193630,131320,-1.172483074,7.278966349199999,-6.448656907,654
32606,193629,131318,-1.2394821068,7.3435725594,-6.4869420686,655
32630,193689,131363,-1.1353943237,7.307680220399999,-6.5790657387,656
32666,193667,131351,-1.3004990831,7.2287170746000005,-6.4869420686,657
32699,193739,131358,-1.2634103328,7.250252477999999,-6.5300128754,658
32726,193808,131375,-1.328016543,7.3088766317000005,-6.5204415849999995,659
32771,193789,131377,-1.2969098492,7.2646094136,-6.5132631172,660
32820,193854,131425,-1.2155538808,7.3926254227,-6.5419769884,661
32828,193850,131390,-1.3220344865,7.1736821548,-6.5228344076,662
32788,193755,131405,-1.2406785181,7.262216591,-6.5300128754,663
32738,193865,131411,-1.1856435983,7.2646094136,-6.532405698,664
32710,193878,131387,-1.2861421475,7.1342005819,-6.546762633599999,665
32696,193897,131398,-1.2646067441000002,7.267002236200001,-6.5431733997,666
32729,193856,131427,-1.2275179938,7.3292156238,-6.6436719489,667
32712,193867,131440,-1.2490533972,7.2095744938,-6.58026215,668
32717,193869,131448,-1.1700902514,7.166503687,-6.466603076499999,669
32764,193918,131493,-1.4009976323,7.2873412283,-6.534798520600001,670
32770,193951,131500,-1.3686945272,7.214360139,-6.5300128754,671
32781,193969,131490,-1.3256237203999999,7.1940211469,-6.58026215,672
32795,193988,131483,-1.1988041226,7.238288365000001,-6.5778693274,673
32817,193993,131502,-1.3447663012,7.3148586882,-6.544369811,674
32836,193990,131511,-1.2634103328,7.250252477999999,-6.5970119082,675
32872,194027,131516,-1.2658031554,7.223931429399999,-6.5706908596,676
32826,193997,131533,-1.2239287599,7.2287170746000005,-6.5108702946,677
32917,194064,131537,-1.3292129543,7.2753771152999995,-6.451049729599999,678
32894,194071,131537,-1.3304093655999998,7.2729842927,-6.502495415499999,679
32976,194098,131532,-1.3483555351,7.2430740102,-6.5898334404,680
33018,194123,131524,-1.351944769,7.2777699379,-6.5898334404,681
33042,194153,131537,-1.2466605746,7.1856462678,-6.575476504799999,682
33041,194164,131543,-1.148554848,7.190431913,-6.5874406178,683
32994,194150,131541,-1.2717852119000002,7.2957161074000005,-6.550351867499999,684
32943,194136,131540,-1.2873385588,7.3543402611,-6.479763600799999,685
32914,194113,131531,-1.232303639,7.211967316399999,-6.5264236415,686
32913,194149,131529,-1.244267752,7.335197680299999,-6.5036918268,687
32918,194117,131538,-1.256231865,7.3375905029,-6.5276200528,688
32934,194119,131554,-1.2311072277,7.3387869142,-6.5156559398,689
32944,194097,131545,-1.4105689227,7.378268487100001,-6.5814585613,690
32955,194106,131595,-1.2969098492,7.2933232848,-6.518048762399999,691
32957,194096,131547,-1.3686945272,7.1808606226,-6.435496382699999,692
32936,194141,131560,-1.2227323486,7.267002236200001,-6.5096738833000005,693
32965,194105,131584,-1.2011969452,7.2095744938,-6.4833528347,694
32974,194153,131589,-1.3339985995,7.252645300599999,-6.6125652551,695
33009,194148,131564,-1.1018948073,7.274180704,-6.5419769884,696
33003,194152,131580,-1.3459627125,7.214360139,-6.5694944482999995,697
33025,194115,131583,-1.1976077113,7.320840744700001,-6.5371913432,698
33037,194124,131538,-1.2406785181,7.3112694543000005,-6.556333924,699
33048,194182,131550,-1.2454641632999999,7.221538606799999,-6.518048762399999,700
33079,194198,131569,-1.2610175101999999,7.267002236200001,-6.484549246,701
33078,194196,131552,-1.1808579531,7.3567330837,-6.6412791263,702
33043,194227,131537,-1.2155538808,7.3005017526,-6.4654066652,703
33003,194193,131557,-1.184447187,7.365107962800001,-6.4821564234,704
32935,194119,131515,-1.2406785181,7.3244299786000004,-6.5156559398,705
32897,194122,131495,-1.2777672683999999,7.2753771152999995,-6.518048762399999,706
32861,194071,131517,-1.2346964616,7.348358204599999,-6.466603076499999,707
32856,194060,131511,-1.1629117836,7.3387869142,-6.5982083195,708
32855,194035,131506,-1.2586246876,7.472784979799999,-6.4091753340999995,709
32863,194054,131525,-1.2059825904,7.2885376395999995,-6.496513359000001,710
32858,193949,131502,-1.304088317,7.1784678,-6.467799487800001,711
32856,194035,131508,-1.3351950108,7.4021967130999995,-6.4331035601,712
32873,194041,131523,-1.2143574695,7.441678286,-6.6341006585,713
32859,194049,131490,-1.3064811396,7.2957161074000005,-6.4618174313,714
32867,194001,131513,-1.2000005339,7.250252477999999,-6.4869420686,715
32879,194041,131515,-1.2406785181,7.310073043,-6.5012990042,716
32895,194019,131521,-1.2155538808,7.2179493729,-6.628118602,717
32907,194071,131499,-1.2705888006,7.2335027198,-6.508477471999999,718
32876,194026,131493,-1.2945170266,7.3866433661999995,-6.5072810607,719
32946,194091,131498,-1.1473584366999998,7.4500531651,-6.5204415849999995,720
32967,194070,131492,-1.172483074,7.2909304621999995,-6.496513359000001,721
32983,194090,131491,-1.2299108163999999,7.3663043741,-6.5659052144,722
33011,194123,131492,-1.2215359373,7.2394847763,-6.5120667059,723
32997,194142,131485,-1.2059825904,7.3663043741,-6.4594246087,724
32916,194161,131477,-1.1868400096,7.446463931199999,-6.4869420686,725
32884,194080,131463,-1.0899306943,7.262216591,-6.467799487800001,726
32825,194013,131460,-1.2011969452,7.286144817,-6.5036918268,727
32788,194019,131453,-1.2490533972,7.2921268735,-6.533602109299999,728
32802,194005,131461,-1.2394821068,7.2275206633,-6.5419769884,729
32794,193985,131461,-1.2538390423999999,7.2478596554,-6.492924125099999,730
32807,193991,131504,-1.2765708571,7.3088766317000005,-6.5228344076,731
32809,194039,131512,-1.2514462198,7.4452675199,-6.435496382699999,732
32810,194065,131466,-1.2418749294,7.310073043,-6.549155456199999,733
32809,194016,131500,-1.2945170266,7.202396026,-6.4917277138,734
32826,193985,131496,-1.1784651305,7.202396026,-6.6185473116,735
32819,193986,131482,-1.244267752,7.183253445199999,-6.5371913432,736
32840,193964,131481,-1.184447187,7.2646094136,-6.549155456199999,737
32855,194012,131470,-1.3423734786,7.3603223176,-6.5587267466,738
32877,194095,131485,-1.1952148887,7.2394847763,-6.4713887217,739
32922,194039,131480,-1.3028919057000001,7.3447689707,-6.5240308189,740
32912,194051,131461,-1.1712866627,7.237091953699999,-6.4893348911999995,741
32888,194087,131474,-1.2143574695,7.2394847763,-6.5730836822,742
32859,194079,131478,-1.2035897678,7.223931429399999,-6.6317078358999995,743
32974,194114,131496,-1.3124631961,7.3435725594,-6.5419769884,744
32922,194117,131484,-1.1353943237,7.3471617933,-6.6065831986,745
32810,194097,131484,-1.2490533972,7.3519474385,-6.4989061816,746
32860,194080,131452,-1.3172488413,7.262216591,-6.4689958991,747
32820,193984,131430,-1.1940184774,7.2634130023,-6.5395841658,748
32806,194027,131449,-1.1832507757,7.2729842927,-6.544369811,749
32790,193997,131441,-1.2957134379000002,7.281359171799999,-6.4749779556,750
32807,194046,131486,-1.3316057769,7.252645300599999,-6.5862442065,751
32823,194010,131469,-1.3184452526,7.334001269,-6.5611195692,752
32835,194014,131493,-1.244267752,7.3268228012,-6.4941205364000005,753
32825,194026,131476,-1.2586246876,7.167700098299999,-6.480960012100001,754
32832,194015,131501,-1.3603196481,7.2574309458,-6.6161544889999995,755
32749,193975,131474,-1.2897313814,7.3830541323,-6.5371913432,756
32850,194023,131477,-1.2418749294,7.2837519944,-6.5778693274,757
32870,194021,131457,-1.2538390423999999,7.3710900192999995,-6.58026215,758
32815,194026,131482,-1.3160524299999998,7.267002236200001,-6.532405698,759
32901,194057,131460,-1.2490533972,7.2167529616,-6.4917277138,760
32919,194024,131450,-1.2107682356,7.250252477999999,-6.5587267466,761
32938,194065,131460,-1.1282158559,7.267002236200001,-6.58026215,762
32968,194025,131487,-1.244267752,7.2358955424,-6.5228344076,763
33002,194134,131494,-1.304088317,7.2275206633,-6.4893348911999995,764
32980,194120,131496,-1.2705888006,7.3220371559999995,-6.546762633599999,765
33034,194137,131506,-1.112662509,7.381857721,-6.556333924,766
32980,194130,131483,-1.1856435983,7.2634130023,-6.508477471999999,767
32942,194056,131478,-1.3088739621999999,7.2765735266,-6.4833528347,768
32910,194100,131483,-1.2059825904,7.278966349199999,-6.5850477951999995,769
32905,194074,131475,-1.3902299306,7.2430740102,-6.5611195692,770
32913,194057,131503,-1.3256237203999999,7.2897340509,-6.5096738833000005,771
32924,193983,131536,-1.2346964616,7.274180704,-6.5611195692,772
32953,194095,131547,-1.2418749294,7.2478596554,-6.4546389635,773
32978,194094,131556,-1.2179467034,7.2430740102,-6.604190375999999,774
32982,194016,131552,-1.3184452526,7.1724857435,-6.4857456573,775
32993,194099,131558,-1.1772687192,7.349554615900001,-6.5850477951999995,776
33005,194141,131559,-1.2873385588,7.2993053413,-6.5264236415,777
33029,194133,131570,-1.2000005339,7.2107709050999995,-6.4857456573,778
33052,194121,131542,-1.2634103328,7.2885376395999995,-6.508477471999999,779
33020,194190,131568,-1.2741780345,7.202396026,-6.496513359000001,780
33101,194195,131597,-1.4344971487,7.2358955424,-6.546762633599999,781
33124,194151,131593,-1.2658031554,7.390232600099999,-6.5431733997,782
33074,194238,131573,-1.328016543,7.1605216305,-6.508477471999999,783
33187,194235,131577,-1.2622139215000001,7.214360139,-6.5826549726,784
33122,194292,131597,-1.2179467034,7.221538606799999,-6.592226263000001,785
33252,194295,131600,-1.2550354537,7.2131637277000005,-6.6161544889999995,786
33265,194240,131617,-1.2023933565,7.211967316399999,-6.5778693274,787
33170,194318,131581,-1.3495519463999999,7.3399833255,-6.4546389635,788
33178,194325,131601,-1.280160091,7.2095744938,-6.5156559398,789
33144,194294,131598,-1.1772687192,7.2430740102,-6.550351867499999,790
33077,194252,131578,-1.4225330357,7.1892355017,-6.480960012100001,791
33133,194240,131592,-1.2418749294,7.2765735266,-6.4833528347,792
33144,194240,131620,-1.2454641632999999,7.221538606799999,-6.5587267466,793
33152,194254,131603,-1.2275179938,7.2083780824999995,-6.4893348911999995,794
33169,194191,131616,-1.2586246876,7.399803890499999,-6.544369811,795
33108,194230,131643,-1.3998012210000002,7.2717878814,-6.531209286699999,796
33169,194244,131625,-1.3447663012,7.1353969932,-6.518048762399999,797
33178,194261,131630,-1.2777672683999999,7.2167529616,-6.5419769884,798
33188,194240,131633,-1.2023933565,7.2095744938,-6.5001025929,799
33201,194268,131643,-1.2239287599,7.1736821548,-6.5706908596,800
33168,194257,131625,-1.2406785181,7.250252477999999,-6.4917277138,801
33228,194275,131639,-1.2335000503,7.336394091599999,-6.5156559398,802
33248,194234,131605,-1.2311072277,7.3016981639,-6.5204415849999995,803
33275,194330,131615,-1.2658031554,7.361518728899999,-6.544369811,804
33285,194232,131612,-1.256231865,7.3304120351,-6.544369811,805
33300,194308,131636,-1.2897313814,7.1760749774,-6.544369811,806
33310,194319,131623,-1.2059825904,7.3914290114000005,-6.5730836822,807
33272,194344,131606,-1.3423734786,7.2598237683999995,-6.5659052144,808
33211,194304,131596,-1.2239287599,7.3567330837,-6.544369811,809
33147,194247,131584,-1.1521440819,7.262216591,-6.5276200528,810
33108,194121,131556,-1.2227323486,7.304090986499999,-6.5706908596,811
33087,194164,131554,-1.2143574695,7.250252477999999,-6.5192451737,812
33079,194174,131550,-1.2346964616,7.2705914701,-6.5001025929,813
33071,194163,131572,-1.2394821068,7.336394091599999,-6.532405698,814
33077,194154,131578,-1.1700902514,7.1605216305,-6.466603076499999,815
33065,194141,131595,-1.2466605746,7.3794648984,-6.4773707782,816
33101,194178,131568,-1.184447187,7.349554615900001,-6.4941205364000005,817
32979,194092,131542,-1.3531411803,7.3184479221,-6.4737815442999995,818
33049,194100,131526,-1.2418749294,7.2837519944,-6.4426748505,819
33052,194106,131552,-1.160518961,7.399803890499999,-6.546762633599999,820
33055,194112,131552,-1.2957134379000002,7.332804857699999,-6.472585133,821
33072,194106,131535,-1.280160091,7.3758756645,-6.4211394471,822
33067,194101,131522,-1.2071790017,7.3435725594,-6.5252272302000005,823
33075,194047,131500,-1.2634103328,7.4380890521,-6.5228344076,824
33093,194108,131514,-1.2765708571,7.252645300599999,-6.4893348911999995,825
33112,194153,131478,-1.2155538808,7.3423761481,-6.4785671895,826
33121,194135,131512,-1.1641081949,7.2442704215000004,-6.6161544889999995,827
33096,194186,131525,-1.3435698899,7.3184479221,-6.5001025929,828
33030,194110,131505,-1.2155538808,7.3268228012,-6.5120667059,829
32959,194077,131458,-1.1330015010999999,7.3675007854,-6.562315980499999,830
32907,194062,131467,-1.3471591237999998,7.335197680299999,-6.4283179149,831
32915,193999,131455,-1.208375413,7.323233567299999,-6.5874406178,832
32852,193956,131469,-1.2119646469,7.3591259063,-6.5587267466,833
32848,193912,131456,-1.1497512593,7.3423761481,-6.5252272302000005,834
32828,193937,131485,-1.1820543644000001,7.238288365000001,-6.5252272302000005,835
32834,193908,131473,-1.3471591237999998,7.2203421955,-6.4953169477,836
32830,193901,131485,-1.244267752,7.221538606799999,-6.5156559398,837
32823,193929,131491,-1.2275179938,7.281359171799999,-6.5479590449,838
32805,193924,131446,-1.1892328322,7.3028945752,-6.5060846494,839
32812,193794,131460,-1.2514462198,7.3052873978,-6.5204415849999995,840
32712,193912,131447,-1.1545369045,7.3244299786000004,-6.4941205364000005,841
32814,193890,131450,-1.1964113,7.2203421955,-6.5419769884,842
32822,193937,131436,-1.3507483577,7.278966349199999,-6.4654066652,843
32841,193929,131426,-1.2071790017,7.214360139,-6.5108702946,844
32912,193977,131420,-1.2275179938,7.3268228012,-6.4989061816,845
32876,193949,131423,-1.1353943237,7.2478596554,-6.568298037,846
32894,193943,131432,-1.1665010175000001,7.3088766317000005,-6.6017975534,847
32914,193955,131450,-1.1676974288,7.214360139,-6.5001025929,848
32813,193963,131418,-1.2873385588,7.3507510272,-6.5407805771,849
32824,193984,131391,-1.1736794853,7.4261249391,-6.5587267466,850
32760,193917,131380,-1.0564311779,7.2598237683999995,-6.5515482788,851
32722,193794,131363,-1.2753744458,7.345965381999999,-6.5228344076,852
32698,193824,131382,-1.4512469069,7.365107962800001,-6.5587267466,853
32678,193831,131391,-1.1222337994,7.3435725594,-6.5431733997,854
32681,193807,131421,-1.2669995667,7.378268487100001,-6.472585133,855
32588,193801,131414,-1.2023933565,7.335197680299999,-6.5874406178,856
32698,193820,131405,-1.1665010175000001,7.4201428826,-6.5539411014,857
32688,193784,131401,-1.2418749294,7.3160550995,-6.5156559398,858
32690,193801,131411,-1.3651052933,7.171289332200001,-6.5228344076,859
32710,193784,131380,-1.2299108163999999,7.3052873978,-6.549155456199999,860
32695,193861,131404,-1.2406785181,7.262216591,-6.5419769884,861
32707,193837,131397,-1.2035897678,7.130611348,-6.4857456573,862
32722,193822,131381,-1.1545369045,7.3722864306,-6.368497349899999,863
32744,193829,131354,-1.3184452526,7.2047888486,-6.5060846494,864
32756,193821,131377,-1.280160091,7.2909304621999995,-6.531209286699999,865
32771,193737,131362,-1.1569297271,7.336394091599999,-6.5407805771,866
32784,193846,131369,-1.0624132344,7.2299134859,-6.5706908596,867
32813,193872,131385,-1.2299108163999999,7.3052873978,-6.5252272302000005,868
32847,193843,131385,-1.0875378717,7.2753771152999995,-6.5060846494,869
32846,193897,131404,-1.1521440819,7.2430740102,-6.4402820279,870
32783,193903,131383,-1.2705888006,7.250252477999999,-6.4977097703,871
32721,193881,131332,-1.244267752,7.3028945752,-6.5156559398,872
32690,193839,131379,-1.3579268255,7.2394847763,-6.4737815442999995,873
32667,193761,131353,-1.3160524299999998,7.3005017526,-6.5587267466,874
32651,193759,131368,-1.1282158559,7.221538606799999,-6.5048882380999995,875
32645,193638,131371,-1.2945170266,7.428517761699999,-6.5108702946,876
32637,193761,131395,-1.2335000503,7.378268487100001,-6.544369811,877
32669,193744,131409,-1.1282158559,7.3316084464,-6.5156559398,878
32656,193745,131380,-1.2215359373,7.3052873978,-6.4941205364000005,879
32677,193787,131390,-1.2023933565,7.3555366724,-6.4977097703,880
32678,193760,131369,-1.1533404932,7.334001269,-6.5060846494,881
32692,193800,131385,-1.1449656141,7.3375905029,-6.4905313025,882
32711,193803,131389,-1.2358928729,7.3926254227,-6.4534425522,883
32623,193794,131377,-1.1162517428999998,7.3304120351,-6.5515482788,884
32753,193825,131394,-1.2945170266,7.3316084464,-6.472585133,885
32778,193824,131420,-1.3746765837,7.252645300599999,-6.518048762399999,886
32735,193901,131410,-1.1808579531,7.323233567299999,-6.575476504799999,887
32847,193928,131423,-1.3447663012,7.3926254227,-6.437889205299999,888
32881,193914,131414,-1.2346964616,7.3016981639,-6.5970119082,889
32917,193990,131469,-1.1916256548,7.267002236200001,-6.5419769884,890
32946,194046,131438,-1.172483074,7.281359171799999,-6.4953169477,891
32923,193997,131456,-1.2765708571,7.3447689707,-6.563512391800001,892
32875,193980,131456,-1.2825529136,7.320840744700001,-6.5204415849999995,893
32830,193951,131421,-1.2681959779999998,7.2909304621999995,-6.4689958991,894
32812,193947,131463,-1.2251251712,7.237091953699999,-6.559923157899999,895
32809,193898,131457,-1.2681959779999998,7.3842505436,-6.5204415849999995,896
32823,193922,131501,-1.3160524299999998,7.4261249391,-6.464210253899999,897
32839,193958,131478,-1.2011969452,7.183253445199999,-6.5108702946,898
32857,193927,131504,-1.2634103328,7.2765735266,-6.5395841658,899
32868,193945,131489,-1.2131610582,7.349554615900001,-6.4857456573,900
32881,193917,131508,-1.2490533972,7.237091953699999,-6.5659052144,901
32853,193935,131523,-1.387837108,7.196413969499999,-6.5826549726,902
32905,193904,131515,-1.2346964616,7.3734828419,-6.5072810607,903
32929,193975,131491,-1.2047861791,7.2921268735,-6.5252272302000005,904
32924,193990,131544,-1.1952148887,7.211967316399999,-6.4618174313,905
32964,194032,131526,-1.2299108163999999,7.1796642112999995,-6.6364934811000005,906
33025,194052,131519,-1.2299108163999999,7.4081787696,-6.5300128754,907
33016,194063,131543,-1.2646067441000002,7.1892355017,-6.4905313025,908
33038,194094,131533,-1.3651052933,7.1808606226,-6.5994047308,909
33070,194117,131543,-1.2658031554,7.1772713886999995,-6.568298037,910
33098,194139,131554,-1.1976077113,7.2765735266,-6.5850477951999995,911
33113,194171,131533,-1.1497512593,7.2885376395999995,-6.521637996299999,912
33120,194151,131533,-1.2287144051,7.2335027198,-6.5036918268,913
33029,194051,131545,-1.2945170266,7.1892355017,-6.508477471999999,914
32937,194045,131520,-1.2167502921,7.2478596554,-6.4283179149,915
32967,194021,131528,-1.244267752,7.196413969499999,-6.6065831986,916
32965,194040,131518,-1.2430713407,7.281359171799999,-6.466603076499999,917
32966,194016,131546,-1.2777672683999999,7.2335027198,-6.5970119082,918
32984,193997,131569,-1.2717852119000002,7.363911551499999,-6.4534425522,919
32993,194041,131559,-1.3244273091,7.3878397775,-6.575476504799999,920
32999,194018,131554,-1.1832507757,7.390232600099999,-6.5611195692,921
33001,193987,131535,-1.2514462198,7.262216591,-6.5060846494,922
33019,194038,131527,-1.3100703735,7.2957161074000005,-6.5898334404,923
32997,193982,131539,-1.2047861791,7.267002236200001,-6.5001025929,924
33006,194069,131545,-1.2538390423999999,7.3220371559999995,-6.5826549726,925
32969,194031,131512,-1.2538390423999999,7.4237321165,-6.5898334404,926
33018,194005,131538,-1.4201402131,7.369893608,-6.4594246087,927
33042,194042,131535,-1.2490533972,7.460820866800001,-6.5898334404,928
33043,194043,131530,-1.2969098492,7.348358204599999,-6.5060846494,929
33056,193920,131508,-1.2861421475,7.2693950588,-6.5060846494,930
33076,194058,131527,-1.2370892842,7.3399833255,-6.5946190856,931
33073,194059,131512,-1.0983055734,7.3423761481,-6.544369811,932
33065,194066,131495,-1.3004990831,7.211967316399999,-6.439085616600001,933
32953,193978,131467,-1.2586246876,7.2562345345,-6.410371745399999,934
32894,193943,131448,-1.1952148887,7.2705914701,-6.4773707782,935
32909,193928,131435,-1.2167502921,7.29810893,-6.613761666399999,936
32878,193870,131442,-1.1198409768,7.336394091599999,-6.592226263000001,937
32820,193865,131422,-1.244267752,7.2574309458,-6.5120667059,938
32814,193910,131440,-1.232303639,7.198806792099999,-6.4989061816,939
32823,193862,131446,-1.2406785181,7.250252477999999,-6.5706908596,940
32820,193844,131444,-1.2275179938,7.2969125187,-6.58026215,941
32807,193908,131445,-1.3866406967,7.317251510799999,-6.5108702946,942
32808,193785,131425,-1.3220344865,7.2681986475,-6.6101724325,943
32803,193763,131425,-1.1330015010999999,7.2358955424,-6.6352970698,944
32783,193808,131416,-1.2921242039999998,7.4165536487,-6.5001025929,945
32816,193834,131411,-1.3663017045999999,7.3052873978,-6.4426748505,946
32828,193835,131420,-1.1904292435000001,7.3591259063,-6.5108702946,947
32838,193735,131391,-1.1760723079,7.2610201797,-6.549155456199999,948
32758,193819,131395,-1.1497512593,7.2478596554,-6.5120667059,949
32817,193850,131362,-1.1425727915,7.2299134859,-6.4785671895,950
32894,193857,131381,-1.2969098492,7.2335027198,-6.464210253899999,951
32919,193898,131397,-1.3423734786,7.3471617933,-6.4761743669,952
32903,193907,131377,-1.1174481541999999,7.2897340509,-6.4043896889,953
32854,193870,131385,-1.0995019847,7.3794648984,-6.534798520600001,954
32799,193843,131366,-1.1377871463,7.317251510799999,-6.532405698,955
32715,193807,131367,-1.1736794853,7.3555366724,-6.5826549726,956
32731,193800,131370,-1.3052847283,7.3244299786000004,-6.5778693274,957
32715,193742,131360,-1.2059825904,7.281359171799999,-6.5108702946,958
32716,193758,131403,-1.1964113,7.274180704,-6.5276200528,959
32721,193629,131354,-1.2370892842,7.238288365000001,-6.4701923104,960
32724,193734,131394,-1.2191431147,7.2478596554,-6.5120667059,961
32715,193735,131380,-1.244267752,7.2909304621999995,-6.5515482788,962
32724,193736,131389,-1.3615160593999998,7.3088766317000005,-6.5276200528,963
32752,193796,131365,-1.1688938401,7.3148586882,-6.5539411014,964
32727,193710,131357,-1.2669995667,7.2598237683999995,-6.6245293681,965
32747,193737,131384,-1.2777672683999999,7.3028945752,-6.4905313025,966
32756,193747,131340,-1.1006983959999999,7.2765735266,-6.5012990042,967
32769,193754,131361,-1.2155538808,7.3148586882,-6.5539411014,968
32786,193756,131363,-1.1306086785,7.345965381999999,-6.5240308189,969
32809,193757,131339,-1.1234302107,7.274180704,-6.5515482788,970
32837,193782,131350,-1.2753744458,7.4428746973,-6.4618174313,971
32865,193773,131374,-1.1856435983,7.4548388103,-6.58026215,972
32844,193814,131371,-1.160518961,7.2909304621999995,-6.4893348911999995,973
32856,193833,131375,-1.1856435983,7.4117680035,-6.534798520600001,974
32810,193789,131357,-1.1353943237,7.2909304621999995,-6.556333924,975
32723,193775,131336,-1.2693923893,7.2837519944,-6.4989061816,976
32727,193751,131355,-1.2753744458,7.1461646949,-6.6233329568,977
32729,193744,131367,-1.1210373881,7.2837519944,-6.5228344076,978
32714,193711,131364,-1.1712866627,7.274180704,-6.6113688438,979
32674,193672,131382,-1.3423734786,7.3423761481,-6.5395841658,980
32730,193711,131368,-1.2143574695,7.2550381232,-6.5156559398,981
32736,193698,131407,-1.1832507757,7.4045895357,-6.546762633599999,982
32734,193731,131404,-1.2729816232,7.274180704,-6.556333924,983
32743,193709,131336,-1.2777672683999999,7.3136622769,-6.549155456199999,984
32751,193712,131351,-1.244267752,7.3507510272,-6.4043896889,985
32762,193713,131370,-1.2119646469,7.3256263899,-6.4737815442999995,986
32772,193701,131341,-1.3232308977999998,7.2634130023,-6.5204415849999995,987
32792,193730,131367,-1.2287144051,7.3686971967,-6.6269221907,988
32773,193700,131350,-1.2681959779999998,7.399803890499999,-6.604190375999999,989
32829,193778,131356,-1.2538390423999999,7.3016981639,-6.5515482788,990
32844,193757,131334,-1.1306086785,7.2335027198,-6.544369811,991
32872,193756,131346,-1.2634103328,7.2418775989,-6.5515482788,992
32874,193797,131359,-1.1617153723,7.294519696099999,-6.4582281974,993
32919,193880,131353,-1.2466605746,7.3962146566,-6.5611195692,994
32886,193883,131370,-1.3208380752,7.428517761699999,-6.5742800935,995
32835,193837,131354,-1.244267752,7.281359171799999,-6.4546389635,996
32803,193684,131353,-1.1581261384000001,7.3471617933,-6.4283179149,997
32720,193752,131345,-1.2227323486,7.286144817,-6.5539411014,998
32768,193733,131340,-1.2418749294,7.332804857699999,-6.5395841658,999
32764,193711,131358,-1.2538390423999999,7.2646094136,-6.4917277138,1000
32773,193720,131379,-1.1569297271,7.4093751809,-6.5012990042,1001
32780,193675,131365,-1.2634103328,7.2454668328,-6.5371913432,1002
32790,193695,131371,-1.2346964616,7.3052873978,-6.5252272302000005,1003
32795,193728,131352,-1.2059825904,7.1820570339,-6.4785671895,1004
32793,193734,131353,-1.2538390423999999,7.2909304621999995,-6.5252272302000005,1005
32832,193764,131374,-1.2155538808,7.1940211469,-6.6245293681,1006
32813,193745,131347,-1.0265208954,7.3028945752,-6.5874406178,1007
32841,193737,131351,-1.2035897678,7.4452675199,-6.4773707782,1008
32857,193720,131358,-1.1760723079,7.3292156238,-6.5515482788,1009
32913,193833,131379,-1.3316057769,7.1892355017,-6.4869420686,1010
32908,193798,131362,-1.2550354537,7.2993053413,-6.4977097703,1011
32928,193832,131375,-1.2717852119000002,7.3914290114000005,-6.518048762399999,1012
32961,193856,131373,-1.0241280728,7.2933232848,-6.546762633599999,1013
32990,193889,131406,-1.2394821068,7.2634130023,-6.4977097703,1014
33033,193942,131413,-1.2538390423999999,7.2586273571,-6.4773707782,1015
33009,193872,131439,-1.2131610582,7.3124658656,-6.6221365455,1016
32959,193911,131404,-1.3663017045999999,7.307680220399999,-6.556333924,1017
32939,193891,131395,-1.3136596074,7.3280192125,-6.4917277138,1018
32916,193847,131463,-1.2215359373,7.317251510799999,-6.5300128754,1019
32931,193895,131443,-1.1533404932,7.267002236200001,-6.5395841658,1020
32965,193875,131451,-1.3088739621999999,7.3220371559999995,-6.5898334404,1021
32975,193887,131459,-1.2550354537,7.3710900192999995,-6.4689958991,1022
32993,193931,131453,-1.1629117836,7.3064838090999995,-6.5371913432,1023
32995,193813,131476,-1.2275179938,7.3758756645,-6.5300128754,1024
33013,193935,131493,-1.2634103328,7.3471617933,-6.5611195692,1025
33030,193914,131484,-1.3100703735,7.2717878814,-6.546762633599999,1026
33054,193972,131498,-1.2658031554,7.2191457842,-6.5982083195,1027
33079,193955,131509,-1.304088317,7.361518728899999,-6.5288164641,1028
33099,193975,131501,-1.3232308977999998,7.2753771152999995,-6.5371913432,1029
33131,193974,131499,-1.2418749294,7.3519474385,-6.544369811,1030
33092,193996,131489,-1.1748758966000001,7.2598237683999995,-6.4689958991,1031
33180,194073,131502,-1.4261222696,7.3878397775,-6.480960012100001,1032
33208,194056,131534,-1.2969098492,7.3375905029,-6.5455662223,1033
33239,193998,131527,-1.3052847283,7.2287170746000005,-6.5659052144,1034
33274,194033,131533,-1.3746765837,7.2873412283,-6.546762633599999,1035
33289,194128,131521,-1.2155538808,7.211967316399999,-6.4869420686,1036
33252,194099,131541,-1.3591232368,7.2335027198,-6.4689958991,1037
33215,194110,131521,-1.2382856955,7.225127840700001,-6.5730836822,1038
33122,194083,131543,-1.2753744458,7.1724857435,-6.5264236415,1039
33180,194074,131541,-1.2514462198,7.2765735266,-6.4474604957,1040
33185,194020,131548,-1.2454641632999999,7.2454668328,-6.7298135625,1041
33130,194049,131543,-1.3543375915999998,7.1437718723,-6.5886370291,1042
33209,194116,131538,-1.2669995667,7.3052873978,-6.5395841658,1043
33219,194078,131564,-1.3304093655999998,7.3280192125,-6.448656907,1044
33226,194103,131537,-1.2909277927,7.2837519944,-6.5826549726,1045
33235,194074,131580,-1.2071790017,7.3878397775,-6.6125652551,1046
33244,194095,131592,-1.4105689227,7.2634130023,-6.5730836822,1047
33253,194107,131567,-1.2071790017,7.226324252,-6.5240308189,1048
33200,194099,131548,-1.2610175101999999,7.1629144531,-6.5742800935,1049
33285,194133,131574,-1.3926227532000002,7.3184479221,-6.534798520600001,1050
33301,194154,131550,-1.3375878334,7.3184479221,-6.502495415499999,1051
33314,194154,131568,-1.2394821068,7.2287170746000005,-6.4546389635,1052
33341,194172,131577,-1.351944769,7.2478596554,-6.5970119082,1053
33358,194204,131558,-1.1521440819,7.319644333399999,-6.6017975534,1054
33386,194233,131566,-1.2275179938,7.2729842927,-6.5587267466,1055
33385,194150,131579,-1.2669995667,7.2909304621999995,-6.5587267466,1056
33347,194208,131558,-1.2705888006,7.3112694543000005,-6.5359949319,1057
33240,194132,131538,-1.4584253747,7.2095744938,-6.4953169477,1058
33259,194112,131523,-1.208375413,7.238288365000001,-6.592226263000001,1059
33235,194081,131525,-1.2873385588,7.3028945752,-6.5611195692,1060
33206,194077,131514,-1.2765708571,7.223931429399999,-6.562315980499999,1061
33213,194013,131534,-1.2741780345,7.2897340509,-6.5108702946,1062
33091,193993,131509,-1.2658031554,7.4081787696,-6.5012990042,1063
33197,194004,131522,-1.2466605746,7.3686971967,-6.451049729599999,1064
33183,194032,131524,-1.3088739621999999,7.3746792532,-6.604190375999999,1065
33171,194030,131518,-1.1832507757,7.2107709050999995,-6.534798520600001,1066
33155,193984,131492,-1.2155538808,7.2897340509,-6.5156559398,1067
33163,193955,131475,-1.2825529136,7.310073043,-6.5778693274,1068
33191,194001,131473,-1.2574282763000002,7.2490560667,-6.5359949319,1069
33158,193965,131472,-1.3734801723999999,7.3603223176,-6.550351867499999,1070
33168,194011,131454,-1.1521440819,7.221538606799999,-6.4749779556,1071
33163,193973,131431,-1.3028919057000001,7.3411797368,-6.640082715,1072
33177,193917,131427,-1.2945170266,7.2646094136,-6.686742755699999,1073
33190,193970,131426,-1.1856435983,7.3567330837,-6.480960012100001,1074
33206,193974,131395,-1.1186445655,7.3028945752,-6.5168523511,1075
33197,194003,131417,-1.2538390423999999,7.3304120351,-6.4546389635,1076
33143,193944,131439,-1.2275179938,7.223931429399999,-6.5706908596,1077
33080,193799,131403,-1.3423734786,7.3507510272,-6.6065831986,1078
33030,193864,131374,-1.2023933565,7.2131637277000005,-6.464210253899999,1079
32999,193801,131404,-1.3184452526,7.3411797368,-6.534798520600001,1080
32980,193841,131379,-1.3052847283,7.3005017526,-6.5587267466,1081
32957,193824,131392,-1.256231865,7.141379049699999,-6.5371913432,1082
32958,193795,131382,-1.4093725114000002,7.323233567299999,-6.4654066652,1083
32961,193731,131409,-1.2119646469,7.304090986499999,-6.568298037,1084
32851,193756,131398,-1.1114660977,7.3124658656,-6.5300128754,1085
32947,193756,131365,-1.2729816232,7.3411797368,-6.556333924,1086
32890,193762,131374,-1.1964113,7.3292156238,-6.5108702946,1087
32946,193759,131376,-1.2873385588,7.2346991311,-6.5479590449,1088
32951,193773,131378,-1.3818550514999999,7.3256263899,-6.549155456199999,1089
32950,193776,131366,-1.2873385588,7.428517761699999,-6.6341006585,1090
32966,193751,131341,-1.3016954943999999,7.345965381999999,-6.492924125099999,1091
32970,193758,131311,-1.3016954943999999,7.357929495,-6.452246140900001,1092
32981,193701,131337,-1.2107682356,7.2957161074000005,-6.3876399307,1093
32905,193812,131335,-1.1617153723,7.3399833255,-6.5036918268,1094
33031,193839,131334,-1.0971091621,7.378268487100001,-6.544369811,1095
33026,193823,131353,-1.1856435983,7.2083780824999995,-6.5132631172,1096
32991,193832,131327,-1.1880364209,7.3950182453,-6.4821564234,1097
32925,193818,131325,-1.3555340029,7.4177500599999995,-6.544369811,1098
32888,193769,131311,-1.1760723079,7.2574309458,-6.5144595285,1099
32853,193755,131333,-1.328016543,7.2550381232,-6.5515482788,1100
32874,193711,131335,-1.2454641632999999,7.240681187599999,-6.4534425522,1101
32842,193684,131320,-1.2107682356,7.2574309458,-6.5156559398,1102
32817,193652,131348,-1.256231865,7.3627151402,-6.5108702946,1103
32823,193606,131334,-1.1796615418,7.3052873978,-6.4881384799,1104
32820,193678,131327,-1.0636096457,7.320840744700001,-6.4689958991,1105
32810,193653,131309,-1.304088317,7.3854469549,-6.575476504799999,1106
32809,193639,131302,-1.2358928729,7.4117680035,-6.4594246087,1107
32804,193633,131289,-1.2227323486,7.3148586882,-6.5898334404,1108
32848,193691,131292,-1.3088739621999999,7.2885376395999995,-6.4091753340999995,1109
32822,193688,131320,-1.3615160593999998,7.214360139,-6.4115681567000005,1110
32831,193746,131289,-1.2658031554,7.3292156238,-6.4187466245,1111
32840,193646,131267,-1.2275179938,7.3244299786000004,-6.5814585613,1112
32850,193675,131262,-1.3603196481,7.307680220399999,-6.4283179149,1113
32871,193641,131256,-1.1222337994,7.238288365000001,-6.518048762399999,1114
32812,193717,131275,-1.2287144051,7.2933232848,-6.563512391800001,1115
32883,193709,131280,-1.3160524299999998,7.348358204599999,-6.492924125099999,1116
32907,193745,131292,-1.2646067441000002,7.332804857699999,-6.4941205364000005,1117
32856,193729,131293,-1.2071790017,7.3244299786000004,-6.496513359000001,1118
32812,193719,131272,-1.3064811396,7.226324252,-6.4917277138,1119
32767,193638,131271,-1.2837493249,7.2993053413,-6.46062102,1120
32745,193567,131281,-1.3363914221,7.357929495,-6.5539411014,1121
32744,193596,131299,-1.1676974288,7.2478596554,-6.549155456199999,1122
32731,193623,131304,-1.2502498085,7.1784678,-6.568298037,1123
32753,193645,131324,-1.2849457361999999,7.336394091599999,-6.5252272302000005,1124
32779,193704,131309,-1.2275179938,7.3950182453,-6.4941205364000005,1125
32771,193661,131321,-1.2179467034,7.3471617933,-6.5359949319,1126
32781,193656,131337,-1.1413763801999999,7.2179493729,-6.452246140900001,1127
32791,193679,131327,-1.3256237203999999,7.3052873978,-6.534798520600001,1128
32816,193752,131316,-1.3722837611,7.281359171799999,-6.5706908596,1129
32728,193728,131348,-1.2825529136,7.4021967130999995,-6.6053867873000005,1130
32859,193778,131341,-1.1629117836,7.29810893,-6.5252272302000005,1131
32881,193727,131332,-1.3184452526,7.317251510799999,-6.5587267466,1132
32862,193817,131359,-1.1820543644000001,7.3447689707,-6.4211394471,1133
32946,193772,131361,-1.2490533972,7.196413969499999,-6.563512391800001,1134
32976,193914,131385,-1.2047861791,7.2681986475,-6.518048762399999,1135
33023,193902,131407,-1.3304093655999998,7.3244299786000004,-6.5778693274,1136
33050,193941,131419,-1.3232308977999998,7.2478596554,-6.5252272302000005,1137
33054,193935,131403,-1.2729816232,7.345965381999999,-6.5395841658,1138
33004,193944,131418,-1.3184452526,7.3148586882,-6.575476504799999,1139
32968,193937,131399,-1.2777672683999999,7.2275206633,-6.4570317861,1140
32944,193869,131392,-1.328016543,7.253841711900001,-6.559923157899999,1141
32936,193873,131407,-1.2406785181,7.3184479221,-6.5898334404,1142
32972,193880,131427,-1.2263215825,7.2969125187,-6.6161544889999995,1143
32956,193837,131457,-1.351944769,7.3878397775,-6.4630138426,1144
32884,193879,131466,-1.3124631961,7.2167529616,-6.532405698,1145
32986,193892,131451,-1.2969098492,7.3603223176,-6.546762633599999,1146
32991,193910,131442,-1.2753744458,7.1653072757,-6.544369811,1147
33002,193921,131458,-1.3232308977999998,7.286144817,-6.464210253899999,1148
33016,193943,131457,-1.1904292435000001,7.365107962800001,-6.4785671895,1149
33036,193924,131463,-1.375872995,7.2478596554,-6.5419769884,1150
33051,193962,131454,-1.3316057769,7.323233567299999,-6.4594246087,1151
33071,193993,131480,-1.2418749294,7.2909304621999995,-6.575476504799999,1152
33092,193888,131456,-1.2574282763000002,7.1856462678,-6.5060846494,1153
33035,194005,131471,-1.1952148887,7.252645300599999,-6.575476504799999,1154
33141,194045,131464,-1.2969098492,7.2311098972,-6.480960012100001,1155
33178,194050,131508,-1.2933206153,7.2071816712,-6.4941205364000005,1156
33207,194062,131485,-1.1760723079,7.158128807899999,-6.492924125099999,1157
33206,194092,131496,-1.0899306943,7.378268487100001,-6.5012990042,1158
33163,193990,131484,-1.1904292435000001,7.2634130023,-6.480960012100001,1159
33026,194038,131478,-1.4105689227,7.3052873978,-6.5419769884,1160
33076,194003,131458,-1.2622139215000001,7.2287170746000005,-6.5874406178,1161
33062,194021,131484,-1.4548361408000001,7.2574309458,-6.5611195692,1162
33115,194018,131487,-1.2586246876,7.2717878814,-6.5970119082,1163
33056,193967,131484,-1.2933206153,7.294519696099999,-6.532405698,1164
33073,193905,131516,-1.2550354537,7.3435725594,-6.532405698,1165
33078,193984,131515,-1.2849457361999999,7.3280192125,-6.4654066652,1166
33038,194001,131505,-1.220339526,7.1641108644,-6.534798520600001,1167
33080,193968,131481,-1.3076775509,7.3052873978,-6.5156559398,1168
33082,194034,131474,-1.2023933565,7.390232600099999,-6.4989061816,1169
33080,194012,131457,-1.3351950108,7.3567330837,-6.4857456573,1170
32987,194008,131477,-1.2933206153,7.2562345345,-6.451049729599999,1171
33095,193959,131452,-1.2071790017,7.3375905029,-6.5611195692,1172
33113,193949,131478,-1.1641081949,7.2598237683999995,-6.4905313025,1173
33063,193965,131466,-1.1796615418,7.3399833255,-6.644868360199999,1174
33125,193980,131449,-1.1772687192,7.2071816712,-6.5611195692,1175
33121,193990,131432,-1.2586246876,7.3160550995,-6.6017975534,1176
33162,194054,131460,-1.2215359373,7.3124658656,-6.4905313025,1177
33131,194017,131418,-1.2777672683999999,7.3686971967,-6.5132631172,1178
33081,193960,131426,-1.2717852119000002,7.3866433661999995,-6.518048762399999,1179
33007,193968,131415,-1.2921242039999998,7.29810893,-6.6233329568,1180
33008,193937,131405,-1.2179467034,7.2550381232,-6.4941205364000005,1181
32928,193874,131417,-1.2610175101999999,7.3710900192999995,-6.5192451737,1182
32912,193852,131399,-1.1258230332999999,7.3268228012,-6.4618174313,1183
32944,193876,131396,-1.3387842447,7.3663043741,-6.549155456199999,1184
32916,193852,131392,-1.1916256548,7.3399833255,-6.496513359000001,1185
32922,193852,131394,-1.1892328322,7.3591259063,-6.735795619,1186
32897,193807,131403,-1.3459627125,7.3244299786000004,-6.4151573906,1187
32868,193821,131412,-1.2382856955,7.2430740102,-6.5276200528,1188
32919,193815,131379,-1.2957134379000002,7.4093751809,-6.5108702946,1189
32902,193770,131365,-1.3184452526,7.3304120351,-6.436692794,1190
32921,193791,131375,-1.1748758966000001,7.2909304621999995,-6.604190375999999,1191
32912,193805,131369,-1.2071790017,7.3256263899,-6.4689958991,1192
32929,193832,131344,-1.2406785181,7.3268228012,-6.4618174313,1193
32940,193849,131325,-1.2275179938,7.3124658656,-6.5778693274,1194
32958,193816,131346,-1.2825529136,7.2131637277000005,-6.4989061816,1195
32932,193823,131347,-1.2394821068,7.3304120351,-6.534798520600001,1196
32987,193858,131352,-1.2789636797000001,7.3854469549,-6.5300128754,1197
33000,193918,131350,-1.1258230332999999,7.1150580011,-6.5060846494,1198
32952,193867,131351,-1.2311072277,7.2478596554,-6.4941205364000005,1199
32888,193849,131337,-1.1904292435000001,7.3124658656,-6.5252272302000005,1200
32840,193795,131327,-1.136590735,7.3375905029,-6.479763600799999,1201
32792,193808,131320,-1.3938191645,7.2729842927,-6.4689958991,1202
32793,193731,131324,-1.2227323486,7.262216591,-6.452246140900001,1203
32800,193711,131338,-1.2275179938,7.3591259063,-6.4546389635,1204
32788,193733,131356,-1.1712866627,7.223931429399999,-6.5012990042,1205
32785,193738,131372,-1.2358928729,7.304090986499999,-6.508477471999999,1206
32800,193727,131319,-1.1808579531,7.4021967130999995,-6.4977097703,1207
32755,193701,131355,-1.2346964616,7.3220371559999995,-6.508477471999999,1208
32716,193719,131317,-1.280160091,7.274180704,-6.5706908596,1209
32791,193717,131307,-1.1952148887,7.2478596554,-6.5515482788,1210
32805,193701,131305,-1.1234302107,7.399803890499999,-6.4893348911999995,1211
32825,193725,131314,-1.2705888006,7.3387869142,-6.436692794,1212
32847,193762,131301,-1.3998012210000002,7.3220371559999995,-6.5730836822,1213
32854,193736,131316,-1.1569297271,7.428517761699999,-6.46062102,1214
32875,193657,131276,-1.2813565023,7.2191457842,-6.5120667059,1215
32809,193777,131296,-1.1569297271,7.1760749774,-6.4917277138,1216
32913,193811,131308,-1.2418749294,7.3124658656,-6.4498533183,1217
32935,193807,131311,-1.184447187,7.2646094136,-6.5156559398,1218
32904,193821,131316,-1.3220344865,7.4333034069,-6.5168523511,1219
32776,193810,131322,-1.2119646469,7.336394091599999,-6.4582281974,1220
32824,193788,131302,-1.351944769,7.390232600099999,-6.532405698,1221
32829,193764,131307,-1.2681959779999998,7.2729842927,-6.5431733997,1222
32765,193701,131295,-1.3339985995,7.428517761699999,-6.5300128754,1223
32754,193679,131303,-1.2131610582,7.2454668328,-6.4163538019,1224
32647,193651,131326,-1.2741780345,7.3507510272,-6.5970119082,1225
32769,193662,131315,-1.3459627125,7.4356962295,-6.5156559398,1226
32731,193707,131336,-1.3208380752,7.399803890499999,-6.604190375999999,1227
32786,193651,131317,-1.0863414604,7.4117680035,-6.6197437229,1228
32710,193671,131303,-1.2131610582,7.240681187599999,-6.4869420686,1229
32793,193682,131317,-1.2598210989,7.240681187599999,-6.5048882380999995,1230
32807,193694,131287,-1.1629117836,7.2155565503000005,-6.5407805771,1231
32816,193687,131308,-1.1401799688999998,7.3268228012,-6.5276200528,1232
32824,193645,131302,-1.2681959779999998,7.2837519944,-6.46062102,1233
32740,193722,131266,-1.2897313814,7.3663043741,-6.5132631172,1234
32875,193759,131280,-1.2789636797000001,7.3256263899,-6.549155456199999,1235
32880,193735,131285,-1.1748758966000001,7.3304120351,-6.4953169477,1236
32897,193754,131285,-1.2047861791,7.2299134859,-6.448656907,1237
32928,193798,131294,-1.2035897678,7.2478596554,-6.5240308189,1238
32946,193822,131310,-1.1569297271,7.3292156238,-6.5850477951999995,1239
32897,193853,131340,-1.2586246876,7.3220371559999995,-6.546762633599999,1240
32905,193837,131329,-1.3220344865,7.381857721,-6.4989061816,1241
32879,193841,131296,-1.1641081949,7.3555366724,-6.6065831986,1242
32821,193729,131286,-1.2370892842,7.2311098972,-6.546762633599999,1243
32781,193747,131286,-1.1808579531,7.267002236200001,-6.559923157899999,1244
32800,193719,131311,-1.1593225497000001,7.252645300599999,-6.544369811,1245
32800,193695,131309,-1.1102696864,7.3567330837,-6.568298037,1246
32811,193700,131337,-1.2370892842,7.320840744700001,-6.5060846494,1247
32822,193708,131311,-1.3112667848,7.225127840700001,-6.5587267466,1248
32823,193746,131335,-1.2191431147,7.3806613097,-6.5012990042,1249
32839,193764,131335,-1.2490533972,7.319644333399999,-6.568298037,1250
32892,193750,131347,-1.2777672683999999,7.3304120351,-6.4091753340999995,1251
32861,193760,131326,-1.2586246876,7.167700098299999,-6.4917277138,1252
32886,193743,131319,-1.256231865,7.4021967130999995,-6.492924125099999,1253
32899,193807,131341,-1.2538390423999999,7.1533431627,-6.518048762399999,1254
32923,193823,131345,-1.1808579531,7.334001269,-6.464210253899999,1255
32957,193794,131337,-1.2598210989,7.3591259063,-6.4582281974,1256
32896,193873,131350,-1.1808579531,7.2131637277000005,-6.5371913432,1257
33020,193860,131354,-1.2490533972,7.265805824899999,-6.467799487800001,1258
33052,193832,131389,-1.2993026717999998,7.3447689707,-6.4917277138,1259
33019,193958,131398,-1.1856435983,7.3399833255,-6.5228344076,1260
33112,193992,131416,-1.2490533972,7.3256263899,-6.5515482788,1261
33100,194043,131393,-1.3136596074,7.2430740102,-6.4043896889,1262
33093,193988,131408,-1.1904292435000001,7.3124658656,-6.563512391800001,1263
33024,193964,131395,-1.1892328322,7.3722864306,-6.4893348911999995,1264
33007,193878,131413,-1.1796615418,7.3256263899,-6.6544396506,1265
33019,193921,131438,-1.1617153723,7.286144817,-6.4893348911999995,1266
32993,193939,131432,-1.2095718243,7.286144817,-6.492924125099999,1267
33039,193938,131460,-1.1234302107,7.3567330837,-6.5778693274,1268
33051,193914,131461,-1.0755737587,7.29810893,-6.6161544889999995,1269
33028,193926,131446,-1.2275179938,7.2454668328,-6.5036918268,1270
33083,193977,131444,-1.3806586402,7.167700098299999,-6.492924125099999,1271
33078,193970,131464,-1.2765708571,7.403393124400001,-6.5850477951999995,1272
33101,194004,131477,-1.2251251712,7.3005017526,-6.5826549726,1273
33111,194056,131466,-1.2095718243,7.2909304621999995,-6.546762633599999,1274
33131,194053,131469,-1.1497512593,7.1724857435,-6.549155456199999,1275
33161,194021,131474,-1.2370892842,7.3854469549,-6.5096738833000005,1276
33179,194070,131463,-1.2729816232,7.158128807899999,-6.6161544889999995,1277
33200,194037,131474,-1.3507483577,7.317251510799999,-6.5204415849999995,1278
33221,194036,131462,-1.3842478741,7.2167529616,-6.5288164641,1279
33149,194119,131470,-1.2586246876,7.3148586882,-6.5874406178,1280
33281,194066,131494,-1.2586246876,7.2681986475,-6.6101724325,1281
33247,194159,131499,-1.2550354537,7.3411797368,-6.484549246,1282
33271,194162,131497,-1.3686945272,7.2681986475,-6.46062102,1283
33226,194151,131486,-1.2071790017,7.2167529616,-6.6017975534,1284
33193,194068,131467,-1.2011969452,7.2287170746000005,-6.563512391800001,1285
33157,194082,131475,-1.2729816232,7.286144817,-6.521637996299999,1286
33158,194073,131469,-1.1796615418,7.1641108644,-6.6556360619,1287
33163,194073,131503,-1.2681959779999998,7.223931429399999,-6.508477471999999,1288
33173,194007,131474,-1.1940184774,7.2777699379,-6.5060846494,1289
33161,194068,131516,-1.1162517428999998,7.2693950588,-6.5706908596,1290
33190,194097,131486,-1.2095718243,7.2490560667,-6.6017975534,1291
33186,194058,131516,-1.2873385588,7.2418775989,-6.6843499331,1292
33185,194081,131514,-1.2131610582,7.377072075799999,-6.4761743669,1293
33160,194042,131490,-1.3232308977999998,7.29810893,-6.4953169477,1294
33100,194040,131476,-1.2873385588,7.4081787696,-6.5539411014,1295
33208,194064,131481,-1.1808579531,7.2909304621999995,-6.556333924,1296
33219,194060,131477,-1.2478569859,7.3519474385,-6.4474604957,1297
33221,193995,131485,-1.2945170266,7.274180704,-6.604190375999999,1298
33232,194051,131454,-1.2071790017,7.3423761481,-6.4881384799,1299
33185,194067,131443,-1.1665010175000001,7.2777699379,-6.5371913432,1300
33260,194075,131475,-1.0468598875,7.2933232848,-6.5395841658,1301
33255,194111,131469,-1.3722837611,7.278966349199999,-6.4989061816,1302
33219,194077,131440,-1.2000005339,7.334001269,-6.4031932776,1303
33150,194020,131432,-1.2705888006,7.3986074792,-6.3493547691,1304
33098,193959,131409,-1.3016954943999999,7.2430740102,-6.5276200528,1305
33063,193957,131401,-1.1712866627,7.2693950588,-6.546762633599999,1306
32929,193906,131406,-1.2981062605,7.348358204599999,-6.4630138426,1307
33016,193887,131381,-1.2299108163999999,7.3136622769,-6.4917277138,1308
33028,193888,131415,-1.1892328322,7.3746792532,-6.4283179149,1309
32959,193882,131409,-1.2143574695,7.274180704,-6.4941205364000005,1310
33007,193846,131386,-1.2478569859,7.3507510272,-6.58026215,1311
32993,193834,131385,-1.3399806559999998,7.3292156238,-6.4701923104,1312
32983,193838,131378,-1.244267752,7.3603223176,-6.6065831986,1313
32980,193859,131362,-1.2789636797000001,7.3543402611,-6.5036918268,1314
32927,193818,131353,-1.4129617452999998,7.2346991311,-6.4546389635,1315
32990,193850,131330,-1.2586246876,7.2335027198,-6.533602109299999,1316
33001,193865,131359,-1.2825529136,7.3567330837,-6.5072810607,1317
32998,193847,131340,-1.1868400096,7.3914290114000005,-6.5515482788,1318
33025,193868,131338,-1.1449656141,7.2011996147,-6.6065831986,1319
33018,193853,131340,-1.2873385588,7.319644333399999,-6.5778693274,1320
33044,193922,131327,-1.1306086785,7.3148586882,-6.5252272302000005,1321
32968,193888,131339,-1.2251251712,7.381857721,-6.5156559398,1322
33045,193914,131336,-1.1078768638,7.211967316399999,-6.508477471999999,1323
32992,193848,131342,-1.2777672683999999,7.2095744938,-6.3828542855,1324
32886,193825,131304,-1.2729816232,7.2837519944,-6.4917277138,1325
32880,193815,131331,-1.2658031554,7.1736821548,-6.3864435194,1326
32849,193812,131320,-1.2394821068,7.336394091599999,-6.466603076499999,1327
32821,193692,131292,-1.1222337994,7.253841711900001,-6.5659052144,1328
32815,193733,131297,-1.1904292435000001,7.3567330837,-6.4893348911999995,1329
32823,193749,131313,-1.2466605746,7.3088766317000005,-6.5898334404,1330
32810,193718,131297,-1.1928220661,7.282555583100001,-6.4761743669,1331
32817,193749,131277,-1.3351950108,7.3555366724,-6.4450676731,1332
32814,193715,131297,-1.3746765837,7.252645300599999,-6.5228344076,1333
32802,193716,131281,-1.2107682356,7.390232600099999,-6.4821564234,1334
32815,193711,131295,-1.2777672683999999,7.2957161074000005,-6.5419769884,1335
32809,193724,131254,-1.1964113,7.3064838090999995,-6.479763600799999,1336
32816,193702,131250,-1.2131610582,7.317251510799999,-6.5252272302000005,1337
32815,193757,131262,-1.1784651305,7.2693950588,-6.3924255759,1338
32836,193770,131245,-1.1042876299,7.2203421955,-6.534798520600001,1339
32854,193752,131251,-1.2071790017,7.320840744700001,-6.518048762399999,1340
32863,193773,131263,-1.1461620254,7.3148586882,-6.5383877545,1341
32899,193789,131263,-1.3064811396,7.2909304621999995,-6.4582281974,1342
32908,193794,131266,-1.2179467034,7.3591259063,-6.5036918268,1343
32901,193865,131284,-1.2035897678,7.2335027198,-6.563512391800001,1344
32844,193811,131259,-1.2143574695,7.3292156238,-6.4977097703,1345
32803,193756,131232,-1.351944769,7.3543402611,-6.5120667059,1346
32712,193717,131270,-1.1928220661,7.3112694543000005,-6.5527446901,1347
32614,193696,131243,-1.1306086785,7.252645300599999,-6.5898334404,1348
32708,193655,131235,-1.2586246876,7.2885376395999995,-6.5539411014,1349
32700,193563,131246,-1.1880364209,7.332804857699999,-6.5611195692,1350
32642,193645,131242,-1.1856435983,7.4093751809,-6.4917277138,1351
32703,193657,131258,-1.1688938401,7.3016981639,-6.4941205364000005,1352
32703,193662,131248,-1.2000005339,7.428517761699999,-6.4582281974,1353
32708,193668,131254,-1.3435698899,7.307680220399999,-6.604190375999999,1354
32723,193679,131254,-1.3375878334,7.3387869142,-6.46062102,1355
32711,193667,131253,-1.148554848,7.282555583100001,-6.4857456573,1356
32726,193609,131254,-1.3411770673,7.3268228012,-6.58026215,1357
32738,193664,131231,-1.2107682356,7.335197680299999,-6.5300128754,1358
32750,193707,131232,-1.3363914221,7.1916283243,-6.556333924,1359
32780,193700,131241,-1.2909277927,7.2849484057,-6.5898334404,1360
32777,193709,131222,-1.2023933565,7.2634130023,-6.544369811,1361
32804,193648,131222,-1.2897313814,7.3854469549,-6.575476504799999,1362
32733,193725,131225,-1.1509476706000001,7.267002236200001,-6.5994047308,1363
32847,193774,131246,-1.1964113,7.3603223176,-6.5826549726,1364
32832,193744,131246,-1.3770694063,7.335197680299999,-6.5228344076,1365
32781,193778,131242,-1.2299108163999999,7.3794648984,-6.5156559398,1366
32727,193737,131221,-1.1964113,7.2394847763,-6.4307107375,1367
32697,193588,131219,-1.0863414604,7.3304120351,-6.6257257794,1368
32586,193635,131232,-1.2011969452,7.2035924373,-6.4689958991,1369
32675,193630,131239,-1.2227323486,7.2837519944,-6.4462640844,1370
32670,193627,131254,-1.1976077113,7.3148586882,-6.5934226743,1371
32654,193636,131257,-1.2227323486,7.2598237683999995,-6.492924125099999,1372
32689,193625,131263,-1.1018948073,7.2335027198,-6.5694944482999995,1373
32695,193650,131277,-1.2849457361999999,7.2969125187,-6.425925092299999,1374
32710,193677,131243,-1.2897313814,7.4201428826,-6.6341006585,1375
32718,193656,131250,-1.1533404932,7.2191457842,-6.5826549726,1376
32732,193682,131251,-1.3866406967,7.1916283243,-6.5515482788,1377
32751,193611,131276,-1.2538390423999999,7.3974110679,-6.534798520600001,1378
32692,193697,131260,-1.0731809361,7.2478596554,-6.4821564234,1379
32812,193720,131277,-1.1964113,7.3268228012,-6.5455662223,1380
32841,193777,131247,-1.2382856955,7.3758756645,-6.4737815442999995,1381
32872,193775,131294,-1.2370892842,7.267002236200001,-6.549155456199999,1382
32909,193859,131305,-1.2885349701,7.2550381232,-6.5826549726,1383
32946,193894,131326,-1.2394821068,7.1976103808000005,-6.5611195692,1384
32977,193895,131341,-1.1497512593,7.349554615900001,-6.532405698,1385
32974,193834,131337,-1.2394821068,7.237091953699999,-6.4893348911999995,1386
32909,193885,131345,-1.2119646469,7.2430740102,-6.518048762399999,1387
32893,193917,131332,-1.2861421475,7.3148586882,-6.4737815442999995,1388
32930,193919,131372,-1.0959127508,7.3710900192999995,-6.559923157899999,1389
32872,193807,131335,-1.2634103328,7.1784678,-6.563512391800001,1390
32873,193744,131387,-1.2849457361999999,7.267002236200001,-6.464210253899999,1391
32803,193842,131380,-1.1042876299,7.2430740102,-6.5252272302000005,1392
32914,193881,131404,-1.244267752,7.265805824899999,-6.480960012100001,1393
32928,193853,131387,-1.2251251712,7.3088766317000005,-6.5395841658,1394
32938,193877,131380,-1.3782658175999998,7.2909304621999995,-6.4821564234,1395
32947,193860,131390,-1.1976077113,7.3220371559999995,-6.4630138426,1396
32960,193904,131390,-1.3196416639,7.267002236200001,-6.5132631172,1397
32983,193928,131391,-1.2047861791,7.3890361888,-6.556333924,1398
32993,193963,131422,-1.2263215825,7.3471617933,-6.5036918268,1399
33022,193901,131395,-1.3100703735,7.2311098972,-6.5001025929,1400
33021,193970,131404,-1.2526426310999998,7.3016981639,-6.46062102,1401
33074,194013,131395,-1.256231865,7.2167529616,-6.617350900300001,1402
33148,194054,131390,-1.2610175101999999,7.3387869142,-6.492924125099999,1403
33131,194026,131413,-1.1760723079,7.267002236200001,-6.546762633599999,1404
33166,193963,131445,-1.3639088819999998,7.2071816712,-6.563512391800001,1405
33192,194072,131437,-1.1904292435000001,7.4141608261,-6.4881384799,1406
33168,194059,131436,-1.1916256548,7.1509503401,-6.5144595285,1407
33118,194059,131442,-1.3495519463999999,7.3064838090999995,-6.435496382699999,1408
33056,194009,131414,-1.2610175101999999,7.1820570339,-6.5240308189,1409
33058,193992,131440,-1.2897313814,7.2095744938,-6.534798520600001,1410
33056,193992,131436,-1.2478569859,7.3830541323,-6.521637996299999,1411
33053,193960,131433,-1.2490533972,7.3304120351,-6.502495415499999,1412
33058,193936,131436,-1.2729816232,7.240681187599999,-6.4857456573,1413
33046,193994,131441,-1.2167502921,7.3005017526,-6.4857456573,1414
33082,193999,131463,-1.1952148887,7.294519696099999,-6.5156559398,1415
33081,194008,131444,-1.2119646469,7.262216591,-6.4498533183,1416
33079,193980,131442,-1.2418749294,7.2873412283,-6.6257257794,1417
33125,194008,131431,-1.2729816232,7.196413969499999,-6.5515482788,1418
33089,193974,131425,-1.1042876299,7.237091953699999,-6.4283179149,1419
33087,193981,131450,-1.2215359373,7.2478596554,-6.546762633599999,1420
33111,193968,131429,-1.0971091621,7.198806792099999,-6.4785671895,1421
33111,193991,131423,-1.3064811396,7.286144817,-6.5252272302000005,1422
33126,193928,131407,-1.2813565023,7.2275206633,-6.5826549726,1423
33131,194019,131403,-1.0971091621,7.2837519944,-6.5515482788,1424
33158,194047,131401,-1.3268201317000001,7.2418775989,-6.563512391800001,1425
33160,194055,131417,-1.2275179938,7.357929495,-6.4905313025,1426
33118,193995,131368,-1.1676974288,7.2299134859,-6.5838513839,1427
33056,193972,131389,-1.2526426310999998,7.2574309458,-6.4869420686,1428
32989,193898,131375,-1.2622139215000001,7.2885376395999995,-6.4905313025,1429
32949,193851,131342,-1.3136596074,7.2598237683999995,-6.546762633599999,1430
32933,193821,131350,-1.2681959779999998,7.294519696099999,-6.546762633599999,1431
32908,193829,131358,-1.2957134379000002,7.240681187599999,-6.4857456573,1432
32910,193740,131369,-1.2000005339,7.357929495,-6.46062102,1433
32906,193780,131355,-1.3447663012,7.286144817,-6.518048762399999,1434
32898,193779,131369,-1.3184452526,7.365107962800001,-6.4630138426,1435
32901,193770,131321,-1.375872995,7.190431913,-6.508477471999999,1436
32889,193782,131350,-1.3160524299999998,7.282555583100001,-6.5730836822,1437
32900,193787,131317,-1.1736794853,7.3124658656,-6.4941205364000005,1438
32888,193832,131316,-1.3663017045999999,7.286144817,-6.563512391800001,1439
32893,193794,131309,-1.3579268255,7.2598237683999995,-6.4941205364000005,1440
32906,193822,131310,-1.2574282763000002,7.3148586882,-6.5036918268,1441
32908,193769,131303,-1.208375413,7.2179493729,-6.492924125099999,1442
32934,193813,131292,-1.3531411803,7.1976103808000005,-6.559923157899999,1443
32937,193800,131294,-1.2717852119000002,7.3292156238,-6.5647088031,1444
32963,193838,131291,-1.256231865,7.2335027198,-6.4498533183,1445
32932,193852,131336,-1.1808579531,7.3148586882,-6.4905313025,1446
32858,193872,131303,-1.1772687192,7.4069823583000005,-6.4737815442999995,1447
32906,193830,131323,-1.2011969452,7.3124658656,-6.5168523511,1448
32841,193704,131274,-1.2000005339,7.267002236200001,-6.5060846494,1449
32800,193740,131281,-1.1449656141,7.2562345345,-6.5515482788,1450
32769,193752,131281,-1.1042876299,7.403393124400001,-6.5898334404,1451
32746,193637,131285,-1.2586246876,7.2155565503000005,-6.4701923104,1452
32736,193663,131286,-1.2825529136,7.29810893,-6.5826549726,1453
32751,193678,131297,-1.2418749294,7.3375905029,-6.5371913432,1454
32745,193649,131303,-1.2179467034,7.348358204599999,-6.6053867873000005,1455
32740,193667,131276,-1.1593225497000001,7.3052873978,-6.5874406178,1456
32730,193662,131293,-1.3148560187,7.3555366724,-6.604190375999999,1457
32735,193670,131259,-1.2753744458,7.2478596554,-6.5252272302000005,1458
32732,193680,131268,-1.2454641632999999,7.2693950588,-6.4450676731,1459
32656,193664,131254,-1.2095718243,7.3734828419,-6.466603076499999,1460
32750,193666,131246,-1.2263215825,7.3244299786000004,-6.5132631172,1461
32755,193736,131253,-1.1042876299,7.2801627605000006,-6.4989061816,1462
32775,193579,131255,-1.2993026717999998,7.252645300599999,-6.532405698,1463
32805,193738,131256,-1.2825529136,7.3854469549,-6.4283179149,1464
32858,193728,131263,-1.2658031554,7.1916283243,-6.4881384799,1465
32750,193749,131266,-1.220339526,7.3663043741,-6.5228344076,1466
32847,193761,131273,-1.3208380752,7.281359171799999,-6.5156559398,1467
32825,193738,131265,-1.2370892842,7.3710900192999995,-6.3828542855,1468
32720,193746,131250,-1.2107682356,7.3244299786000004,-6.4773707782,1469
32714,193673,131256,-1.2873385588,7.357929495,-6.435496382699999,1470
32687,193664,131238,-1.3435698899,7.2335027198,-6.4713887217,1471
32659,193558,131247,-1.1760723079,7.2717878814,-6.4570317861,1472
32651,193616,131266,-1.1557333158,7.3124658656,-6.436692794,1473
32654,193624,131259,-1.2981062605,7.274180704,-6.5012990042,1474
32660,193597,131266,-1.208375413,7.278966349199999,-6.4893348911999995,1475
32671,193632,131269,-1.2311072277,7.286144817,-6.508477471999999,1476
32575,193637,131245,-1.1461620254,7.1892355017,-6.4833528347,1477
32679,193657,131257,-1.3100703735,7.348358204599999,-6.496513359000001,1478
32675,193562,131250,-1.1952148887,7.3136622769,-6.5228344076,1479
32690,193651,131223,-1.1988041226,7.250252477999999,-6.5419769884,1480
32698,193665,131244,-1.1557333158,7.3435725594,-6.5659052144,1481
32753,193728,131251,-1.3651052933,7.3052873978,-6.4893348911999995,1482
32737,193694,131223,-1.2825529136,7.3304120351,-6.604190375999999,1483
32759,193581,131231,-1.3866406967,7.2346991311,-6.5001025929,1484
32787,193723,131271,-1.1736794853,7.1820570339,-6.5276200528,1485
32817,193722,131250,-1.1353943237,7.2478596554,-6.5168523511,1486
32851,193795,131287,-1.3471591237999998,7.2765735266,-6.58026215,1487
32883,193699,131272,-1.1090732750999999,7.335197680299999,-6.5659052144,1488
32888,193834,131310,-1.3172488413,7.262216591,-6.4917277138,1489
32837,193818,131296,-1.2370892842,7.3890361888,-6.549155456199999,1490
32795,193777,131314,-1.2538390423999999,7.2227350181,-6.5132631172,1491
32777,193715,131296,-1.2418749294,7.2705914701,-6.518048762399999,1492
32776,193740,131292,-1.2873385588,7.2550381232,-6.592226263000001,1493
32777,193756,131345,-1.3794622289,7.3220371559999995,-6.4307107375,1494
32839,193777,131350,-1.2466605746,7.2550381232,-6.4785671895,1495
32809,193815,131363,-1.2586246876,7.3734828419,-6.549155456199999,1496
32805,193816,131365,-1.1330015010999999,7.2454668328,-6.591029851699999,1497
32850,193820,131392,-1.2311072277,7.2598237683999995,-6.4618174313,1498
32752,193823,131345,-1.2873385588,7.3136622769,-6.6341006585,1499
32881,193823,131379,-1.1832507757,7.3567330837,-6.5288164641,1500
32896,193864,131383,-1.2658031554,7.390232600099999,-6.5300128754,1501
32859,193863,131381,-1.2502498085,7.1808606226,-6.521637996299999,1502
32954,193891,131395,-1.3471591237999998,7.3710900192999995,-6.4773707782,1503
32972,193914,131392,-1.2155538808,7.3806613097,-6.5515482788,1504
33000,193903,131395,-1.2502498085,7.3016981639,-6.5276200528,1505
33033,193909,131394,-1.2107682356,7.226324252,-6.544369811,1506
33062,193887,131410,-1.3459627125,7.2346991311,-6.568298037,1507
33094,194020,131406,-1.2574282763000002,7.3435725594,-6.5120667059,1508
33134,194055,131442,-1.3495519463999999,7.223931429399999,-6.508477471999999,1509
33120,194066,131441,-1.1760723079,7.2598237683999995,-6.5874406178,1510
33075,194040,131434,-1.3495519463999999,7.2909304621999995,-6.5515482788,1511
33036,194062,131423,-1.3686945272,7.2885376395999995,-6.563512391800001,1512
33010,193992,131436,-1.1832507757,7.2323063085,-6.6352970698,1513
32994,193994,131423,-1.2586246876,7.2933232848,-6.4761743669,1514
32995,193983,131461,-1.3698909385,7.252645300599999,-6.518048762399999,1515
33009,193959,131452,-1.1760723079,7.304090986499999,-6.531209286699999,1516
33023,193972,131477,-1.2586246876,7.3435725594,-6.5048882380999995,1517
33045,193974,131450,-1.328016543,7.2897340509,-6.5204415849999995,1518
