green,red,IR,acc_x,acc_y,acc_z,sample_index
111977,169494,242132,-4.3214376156,-3.9517465239000003,-7.8819576444,1
112161,169567,242128,-4.3513478981,-4.0725840652,-7.8556365958,2
112347,169565,242152,-4.3381873738,-4.1288153963,-7.8652078862,3
112510,169582,242264,-4.2807596314,-4.0534414844,-7.763512925700001,4
112682,169631,242192,-4.2903309218,-4.199403663,-7.7802626839,5
112880,169634,242234,-4.283152454,-4.0474594279,-7.915457160799999,6
113098,169673,242275,-4.3298124947,-4.1180476945999995,-7.7682985709,7
113087,169591,242237,-4.092923057299999,-3.9756747499,-7.8221370794,8
112750,169579,242177,-4.2161534212,-4.0462630166,-7.8652078862,9
112163,169469,242063,-4.1898323726,-4.1419759206,-7.8149586116,10
111584,169409,241986,-4.208974953399999,-4.0689948312999995,-7.8185478454999995,11
111218,169346,241961,-4.1479579771,-4.0067814437,-7.8281191359,12
110985,169330,241988,-4.1539400336,-4.079762533,-7.8855468783,13
110985,169390,241959,-4.2400816472,-4.0893338234,-7.8269227246,14
111155,169403,242010,-4.2568314054,-4.0701912426,-7.7539416353,15
111369,169431,242047,-4.0809589443,-4.0462630166,-7.708478005899999,16
111509,169485,242076,-4.2520457602,-3.9158541848999997,-7.7300134093,17
111593,169486,242138,-4.1850467274,-3.8979080154,-7.8412796602,18
111735,169530,242130,-4.259224228,-4.1347974528,-7.7682985709,19
111824,169502,242150,-4.211367776,-4.0893338234,-7.911867926899999,20
111943,169555,242146,-4.3680976563,-4.0187455567,-7.7551380466,21
112093,169562,242243,-4.2364924133,-4.0749768878,-7.9106715156,22
112195,169553,242198,-4.1288153963,-4.0618163635,-7.8029944985999995,23
112349,169574,242202,-4.2855452766,-4.1324046302,-7.7838519178,24
112490,169580,242271,-4.2448672924,-4.1108692268,-7.8699935314,25
112607,169594,242245,-4.2771703975,-4.0845481781999995,-7.8699935314,26
112758,169610,242241,-4.1910287839,-4.103690759,-7.829315547199999,27
112883,169615,242243,-4.30708068,-3.9804603951,-7.750352401400001,28
113020,169645,242239,-4.1958144290999995,-4.1970108404,-7.812565789,29
112928,169596,242255,-4.208974953399999,-4.1001015251,-7.829315547199999,30
112475,169487,242164,-4.247260115,-4.0414773714,-7.7982088534,31
111769,169450,242077,-4.1946180178,-4.1180476945999995,-7.9178499834,32
111170,169319,241940,-4.2568314054,-4.1240297511,-7.7922267969000005,33
110695,169250,241971,-4.2029928969000006,-4.0271204358,-7.9393853868,34
110298,169209,241896,-4.2903309218,-4.0043886211,-7.8412796602,35
110199,169199,241888,-4.2269211229,-4.1455651545,-7.9011002251999995,36
110305,169243,241980,-4.2125641873,-4.1168512833,-7.8137622003,37
110533,169348,242011,-4.3417766077,-4.0594235409,-7.8939217574,38
110745,169338,242011,-4.1455651545,-4.0833517669,-7.8628150636,39
110893,169355,242026,-4.1659041466,-4.1419759206,-7.872386354,40
110996,169386,242107,-4.3393837851,-4.1419759206,-7.9058858704,41
111149,169293,242088,-4.242474469799999,-4.0654055974,-7.812565789,42
111273,169366,242110,-4.3405801963999995,-4.0534414844,-7.8556365958,43
111419,169396,242158,-4.3022950348,-4.1060835816,-7.8269227246,44
111591,169434,242111,-4.1312082188999995,-4.1671005579,-7.804190909899999,45
111711,169411,242132,-4.2675991071,-4.0809589443,-7.7958160308,46
111856,169420,242152,-4.2771703975,-4.0857445895,-7.8065837325,47
111985,169465,242181,-4.1826539048,-4.1419759206,-7.8819576444,48
112116,169447,242195,-4.1934216065,-4.0654055974,-7.7395846997,49
112222,169428,242202,-4.3262232608,-4.0498522505,-7.77667345,50
112327,169477,242181,-4.2041893082,-4.1024943476999995,-7.9453674433,51
112436,169437,242208,-4.2675991071,-4.2305103568,-7.8029944985999995,52
112188,169346,242130,-4.2197426551,-4.055834307,-7.8508509506,53
111525,169248,242040,-4.1682969692,-4.113262049399999,-7.8101729664,54
110846,169047,241915,-4.1312082188999995,-4.0115670889,-7.804190909899999,55
110250,169100,241833,-4.2879380992,-4.1611185014,-7.896314579999999,56
109848,169037,241818,-4.1862431387,-4.1443687432,-7.8652078862,57
109609,169005,241848,-4.2999022122,-4.043870194,-7.762316514399999,58
109596,169030,241869,-4.1599220901,-4.139583098,-7.8149586116,59
109798,169098,241853,-4.3405801963999995,-4.1587256788,-7.8652078862,60
110084,169112,241896,-4.3728833015,-4.0331024923,-7.785048329099999,61
110219,169156,241976,-4.2484565263,-4.2041893082,-7.8532437732,62
110407,169205,241995,-4.2101713647,-4.0510486617999995,-7.8185478454999995,63
110577,169229,242002,-4.1443687432,-4.1192441059,-7.915457160799999,64
110728,169259,242029,-4.2448672924,-4.064209186099999,-7.831708369799999,65
110883,169270,242038,-4.2340995907,-4.091726646,-7.7563344578999995,66
111035,169264,242063,-4.3848474145,-4.139583098,-7.886743289599999,67
111222,169299,242079,-4.1958144290999995,-4.2364924133,-7.831708369799999,68
111390,169328,242113,-4.1742790257,-4.127618985,-7.831708369799999,69
111602,169324,242174,-4.1718862031,-4.1096728155,-7.8077801438000005,70
111717,169335,242129,-4.4135612857,-4.0701912426,-7.860422240999999,71
111828,169329,242161,-4.2544385828,-4.0713876539,-7.8113693777,72
111963,169345,242165,-4.2496529376,-4.0235312019,-7.846065305400001,73
112116,169345,242141,-4.3417766077,-4.0570307183,-7.9621172015,74
112138,169325,242156,-4.3094735026,-4.1120656381,-7.7970124421,75
111742,169220,242053,-4.342973019,-4.1778682596,-7.860422240999999,76
111058,169122,241948,-4.2484565263,-4.1084764042,-7.8496545393,77
110435,169039,241894,-4.18743955,-4.1503507997,-7.8939217574,78
110005,168979,241841,-4.1946180178,-4.0845481781999995,-7.8185478454999995,79
109792,168955,241840,-4.2616170506,-4.0103706776,-7.848458128,80
109729,169017,241839,-4.347758664200001,-4.0235312019,-7.740781111,81
109936,169057,241907,-4.2879380992,-4.1443687432,-7.8029944985999995,82
110248,169112,241960,-4.3489550755,-4.1599220901,-7.8711899427,83
110512,169160,241980,-4.242474469799999,-4.0534414844,-7.8412796602,84
110760,169222,242058,-4.247260115,-4.1300118076,-7.908278693,85
110962,169249,242035,-4.2999022122,-4.1180476945999995,-7.777869861299999,86
111145,169272,242075,-4.295116567,-4.0582271296000005,-7.8855468783,87
111326,169295,242132,-4.175475436999999,-4.0869410008000004,-7.8388868376,88
111516,169307,242118,-4.2520457602,-4.2496529376,-7.7611201031,89
111708,169357,242177,-4.2173498325,-4.043870194,-7.846065305400001,90
111945,169373,242185,-4.1898323726,-3.9110685397,-7.874779176600001,91
112139,169411,242235,-4.2364924133,-4.1072799929,-7.8771719992,92
112332,169468,242252,-4.2687955184,-4.0570307183,-7.7300134093,93
112539,169477,242269,-4.331008906,-4.1814574935,-7.8436724828,94
112716,169487,242384,-4.3525443094,-4.2077785421,-7.77667345,95
112913,169488,242333,-4.3645084224,-4.1503507997,-7.9011002251999995,96
113034,169552,242287,-4.382454591899999,-4.1012979364,-7.8173514342,97
113101,169501,242328,-4.235296002,-4.0522450731,-7.816155022899999,98
112706,169463,242284,-4.242474469799999,-4.06779842,-7.846065305400001,99
112124,169368,242179,-4.2723847523,-4.0043886211,-7.775477038699999,100
111613,169261,242107,-4.1491543884,-4.1886359613,-7.836494015,101
111321,169252,242070,-4.1982072517,-4.0737804765,-7.872386354,102
111190,169218,242117,-4.2568314054,-4.103690759,-7.7539416353,103
111259,169283,242218,-4.3334017286,-4.2209390664,-7.8281191359,104
111543,169357,242170,-4.3381873738,-4.1168512833,-7.824529902,105
111787,169360,242202,-4.2053857195,-4.0761732991,-7.800601675999999,106
111993,169403,242250,-4.2269211229,-4.0869410008000004,-7.7946196195,107
112111,169415,242255,-4.2544385828,-4.0821553556,-7.8508509506,108
112223,169464,242282,-4.1096728155,-4.0295132584,-7.8532437732,109
112342,169460,242319,-4.2544385828,-4.0043886211,-7.9393853868,110
112482,169445,242312,-4.2759739861999995,-3.9900316855,-7.9178499834,111
112532,169486,242325,-4.1958144290999995,-4.1216369285,-7.777869861299999,112
112720,169519,242299,-4.2664026958,-4.1012979364,-7.785048329099999,113
112866,169533,242363,-4.242474469799999,-4.1324046302,-7.848458128,114
112978,169552,242373,-4.2735811636,-4.0821553556,-7.8053873212000005,115
113090,169527,242352,-4.3130627365,-4.208974953399999,-7.8891361122,116
113203,169568,242380,-4.2628134618999995,-4.126422573699999,-7.819744256799999,117
113361,169574,242437,-4.3238304382,-4.0139599115,-7.8269227246,118
113468,169586,242429,-4.2927237444,-4.139583098,-7.925028451199999,119
113276,169555,242370,-4.3022950348,-4.1312082188999995,-7.8149586116,120
112734,169451,242299,-4.259224228,-4.0701912426,-7.858029418399999,121
112006,169324,242175,-4.3094735026,-4.0043886211,-7.7395846997,122
111392,169236,242106,-4.2687955184,-4.0953158799,-7.8819576444,123
110954,169178,242098,-4.2161534212,-3.9457644674,-7.944171031999999,124
110667,169192,242059,-4.1706897918,-4.2269211229,-7.8233334907000005,125
110568,169194,242101,-4.347758664200001,-4.1300118076,-7.9334033303,126
110757,169232,242070,-4.3585263658999995,-4.2795632201,-7.9226356286,127
110926,169259,242138,-3.9756747499,-4.055834307,-7.777869861299999,128
111108,169292,242120,-4.0845481781999995,-4.0151563228,-7.8341011924,129
111223,169324,242163,-4.2209390664,-4.0666020087,-7.9178499834,130
111323,169331,242174,-4.2185462438,-4.1431723319,-7.9178499834,131
111451,169334,242189,-4.2640098732,-4.2006000743,-7.860422240999999,132
111575,169351,242226,-4.242474469799999,-4.1922251952,-7.874779176600001,133
111712,169375,242261,-4.295116567,-4.0067814437,-7.8891361122,134
111874,169401,242261,-4.2568314054,-4.139583098,-7.800601675999999,135
112002,169426,242267,-4.2687955184,-4.0187455567,-7.829315547199999,136
112121,169430,242316,-4.259224228,-4.079762533,-7.7826555065,137
112313,169451,242310,-4.2209390664,-4.0965122912,-7.8508509506,138
112467,169443,242306,-4.2915273330999995,-4.1048871703,-7.7395846997,139
112586,169475,242329,-4.2652062845000005,-3.9972101532999997,-7.8927253461,140
112704,169467,242365,-4.295116567,-4.0821553556,-7.8915289348,141
112563,169441,242305,-4.3752761241,-4.0845481781999995,-7.8795648218,142
111963,169322,242204,-4.2257247116,-4.115654872,-7.915457160799999,143
111195,169217,242082,-4.2975093896,-4.1563328562,-7.7982088534,144
110580,169142,242041,-4.2963129783,-4.1084764042,-7.829315547199999,145
109997,169058,241965,-4.1527436223,-4.2017964856,-7.886743289599999,146
109647,169013,241983,-4.242474469799999,-4.0402809601,-7.8221370794,147
109547,169049,241933,-4.2137605985999995,-4.064209186099999,-7.763512925700001,148
109638,169076,241960,-4.223331889,-4.1491543884,-7.829315547199999,149
109882,169120,241986,-4.1001015251,-4.2137605985999995,-7.884350467,150
110089,169072,242074,-4.2329031794,-4.0247276132000005,-7.884350467,151
110236,169164,242039,-4.1934216065,-4.2388852359,-7.8532437732,152
110386,169089,242049,-4.247260115,-4.18743955,-7.8699935314,153
110543,169205,242085,-4.3010986235,-4.0749768878,-7.9011002251999995,154
110696,169269,242136,-4.3609191885,-4.1826539048,-7.7862447404,155
110868,169288,242114,-4.2137605985999995,-4.0115670889,-7.8927253461,156
111025,169303,242147,-4.3106699139,-4.1479579771,-7.7982088534,157
111209,169311,242217,-4.3393837851,-4.0259240245,-7.816155022899999,158
111343,169329,242179,-4.1946180178,-4.1240297511,-7.858029418399999,159
111484,169310,242212,-4.1647077353,-4.0163527341,-7.8628150636,160
111611,169298,242196,-4.2269211229,-4.0989051138,-7.9190463947000005,161
111739,169317,242202,-4.2340995907,-4.030709669699999,-7.8652078862,162
111852,169355,242212,-4.2759739861999995,-4.1826539048,-7.8508509506,163
111740,169282,242157,-4.2867416879,-4.1371902754,-7.8819576444,164
111195,169183,242104,-4.1838503161,-4.1012979364,-7.846065305400001,165
110452,169049,241946,-4.2807596314,-4.0414773714,-7.9106715156,166
109755,168975,241872,-4.1539400336,-4.1599220901,-7.886743289599999,167
109232,168880,241832,-4.3034914461,-4.0211383793,-7.9130643382,168
108886,168893,241812,-4.2006000743,-4.0546378957,-7.7587272805,169
108775,168871,241834,-4.103690759,-4.0031922098,-7.874779176600001,170
108970,168954,241799,-4.3489550755,-4.0821553556,-7.858029418399999,171
109248,168933,241860,-4.1599220901,-4.0953158799,-7.8089765551,172
109495,169018,241956,-4.30708068,-4.1491543884,-7.836494015,173
109675,169054,241910,-4.2388852359,-4.055834307,-7.824529902,174
109869,169092,241981,-4.1970108404,-4.175475436999999,-7.8352976037,175
110047,169105,241992,-4.0654055974,-4.0857445895,-7.8209406681,176
110215,169135,242011,-4.3381873738,-4.0582271296000005,-7.8029944985999995,177
110450,169173,242078,-4.3657048337,-4.140779509300001,-7.8065837325,178
110637,169222,242068,-4.3561335433,-4.1048871703,-7.8652078862,179
110815,169222,242111,-4.259224228,-4.1419759206,-7.8149586116,180
110960,169218,242144,-4.175475436999999,-4.139583098,-7.8257263133,181
111213,169238,242118,-4.2197426551,-4.1300118076,-7.831708369799999,182
111389,169260,242151,-4.2616170506,-4.0689948312999995,-7.8508509506,183
111577,169282,242172,-4.1599220901,-3.9804603951,-7.8652078862,184
111763,169270,242151,-4.1766718483,-4.055834307,-7.829315547199999,185
111763,169243,242149,-4.2699919297,-3.9349967657,-7.7276205867,186
111356,169160,242067,-4.2759739861999995,-4.18743955,-7.8999038139,187
110732,169042,241942,-4.1144584607,-4.0342989036,-7.8592258297,188
110098,168944,241877,-4.1383866867,-4.1371902754,-7.7982088534,189
109692,168922,241873,-4.18743955,-4.0342989036,-7.8508509506,190
109546,168923,241879,-4.237688824599999,-4.0701912426,-7.8269227246,191
109492,168933,241863,-4.0845481781999995,-3.9397824109,-7.7682985709,192
109750,169021,241882,-4.3884366484,-4.1383866867,-7.8388868376,193
110075,169075,241958,-4.237688824599999,-4.0223347905999995,-7.7419775223,194
110394,169067,241995,-4.2293139454999995,-4.0749768878,-7.8053873212000005,195
110588,169159,241994,-4.271188340999999,-4.0737804765,-7.872386354,196
110799,169198,242054,-4.1419759206,-4.1096728155,-7.7826555065,197
111021,169179,242056,-4.2855452766,-4.1204405172000005,-7.8652078862,198
111208,169206,242058,-4.2245283003,-4.0498522505,-7.8149586116,199
111426,169248,242120,-4.2149570099,-4.103690759,-7.896314579999999,200
111644,169279,242146,-4.1862431387,-4.1491543884,-7.7970124421,201
111892,169324,242208,-4.2568314054,-4.1491543884,-7.7730842161,202
112087,169375,242260,-4.2448672924,-4.0761732991,-7.8281191359,203
112359,169389,242208,-4.2173498325,-4.0821553556,-7.8269227246,204
112552,169401,242288,-4.2759739861999995,-4.0283168471,-7.8532437732,205
112743,169474,242303,-4.2903309218,-4.1623149127,-7.746763167499999,206
112957,169469,242343,-4.3238304382,-4.1563328562,-7.7718878047999995,207
113093,169467,242305,-4.2783668087999995,-4.0737804765,-7.8556365958,208
112888,169405,242269,-4.1288153963,-4.0331024923,-7.9178499834,209
112317,169288,242173,-4.2029928969000006,-4.0546378957,-7.8077801438000005,210
111763,169224,242058,-4.1694933805000005,-4.0402809601,-7.829315547199999,211
111342,169175,242090,-4.2903309218,-4.1216369285,-7.77667345,212
111124,169165,242081,-4.1623149127,-4.1096728155,-7.7862447404,213
111094,169167,242089,-4.2520457602,-4.0175491454,-7.8939217574,214
111306,169239,242132,-4.1623149127,-4.1922251952,-7.7694949822,215
111564,169269,242165,-4.1048871703,-4.0211383793,-7.836494015,216
111777,169298,242157,-4.259224228,-4.007977855,-7.8341011924,217
111905,169213,242153,-4.3286160834,-4.1084764042,-7.8412796602,218
112059,169350,242136,-4.3274196721000004,-4.1371902754,-7.8400832489,219
112188,169354,242211,-4.2221354777,-4.0893338234,-7.8388868376,220
112275,169367,242232,-4.3417766077,-4.0091742663,-7.8137622003,221
112428,169395,242224,-4.258027816699999,-4.0630127748,-7.8149586116,222
112568,169433,242227,-4.2891345105,-4.0761732991,-7.8699935314,223
112725,169437,242241,-4.387240237099999,-4.0235312019,-7.8508509506,224
112826,169449,242273,-4.3142591478000005,-4.0701912426,-7.8185478454999995,225
112951,169444,242300,-4.1742790257,-4.043870194,-7.8341011924,226
113034,169488,242286,-4.1288153963,-4.0271204358,-7.824529902,227
113193,169499,242359,-4.2460637037,-3.9565321691,-7.9106715156,228
113297,169532,242321,-4.2927237444,-4.1611185014,-7.896314579999999,229
113120,169494,242288,-4.1862431387,-4.079762533,-7.8173514342,230
112561,169353,242160,-4.247260115,-4.211367776,-7.884350467,231
111873,169212,242096,-4.2460637037,-4.139583098,-7.8412796602,232
111279,169161,242005,-4.1862431387,-4.1647077353,-7.8508509506,233
110870,169092,242006,-4.1336010414999995,-3.9828532177,-7.872386354,234
110624,169109,241976,-4.2400816472,-4.0965122912,-7.9058858704,235
110637,169101,241979,-4.2903309218,-4.0594235409,-7.9011002251999995,236
110728,169169,242007,-4.2783668087999995,-4.1060835816,-7.8101729664,237
110953,169221,242067,-4.2664026958,-4.0486558392,-7.7958160308,238
111057,169212,242037,-4.3357945512,-4.0941194686,-7.8352976037,239
111196,169288,242042,-4.2448672924,-3.924229064,-7.874779176600001,240
111268,169281,242090,-4.2245283003,-4.0725840652,-7.8628150636,241
111378,169281,242130,-4.247260115,-4.126422573699999,-7.7898339743,242
111504,169294,242094,-4.199403663,-4.1084764042,-7.8676007087999995,243
111632,169322,242069,-4.258027816699999,-4.1898323726,-7.763512925700001,244
111765,169348,242061,-4.1886359613,-4.0115670889,-7.8999038139,245
111902,169340,242200,-4.2101713647,-4.2197426551,-7.829315547199999,246
112018,169350,242155,-4.1802610821999995,-4.0618163635,-7.8628150636,247
112138,169361,242164,-4.2867416879,-4.0187455567,-7.8640114749,248
112266,169374,242142,-4.2496529376,-4.0965122912,-7.8029944985999995,249
112406,169431,242228,-4.1970108404,-4.0462630166,-7.8388868376,250
112418,169335,242108,-4.1527436223,-4.1599220901,-7.832904781100001,251
111938,169275,242048,-4.18743955,-4.1694933805000005,-7.8568330071,252
111237,169164,241972,-4.259224228,-4.1347974528,-7.932206919,253
110548,169033,241902,-4.1766718483,-3.9876388629,-7.8436724828,254
109999,168950,241763,-4.2819560427,-3.9708891047,-7.8891361122,255
109600,168955,241771,-4.2616170506,-4.1443687432,-7.8017980873,256
109419,168904,241752,-4.319044793,-4.0211383793,-7.8628150636,257
109406,168948,241756,-4.235296002,-3.9684962821,-7.8939217574,258
109653,169005,241812,-4.1383866867,-3.9888352742,-7.8508509506,259
109854,169022,241806,-4.2281175342,-4.0630127748,-7.9011002251999995,260
110008,169035,241813,-4.3214376156,-4.1802610821999995,-7.8149586116,261
110123,169106,241827,-4.2771703975,-4.1587256788,-7.8341011924,262
110253,169074,241853,-4.1886359613,-4.127618985,-7.7994052647,263
110382,169131,241916,-4.1491543884,-4.0259240245,-7.9369925642,264
110550,169137,241922,-4.2975093896,-4.2508493489,-7.7802626839,265
110664,169146,241933,-4.3106699139,-4.1300118076,-7.9489566772,266
110786,169159,241933,-4.2496529376,-3.9912280968,-7.8281191359,267
110935,169151,241929,-4.126422573699999,-4.1204405172000005,-7.816155022899999,268
111041,169144,241969,-4.1455651545,-3.9493537012999997,-7.8795648218,269
111156,169152,241911,-4.1706897918,-4.2544385828,-7.8939217574,270
111316,169162,241980,-4.2305103568,-4.0965122912,-7.7958160308,271
111392,169189,241965,-4.1910287839,-4.2484565263,-7.9046894591,272
111321,169121,241953,-4.2807596314,-4.1611185014,-7.7706913935,273
110832,169026,241822,-4.2269211229,-4.1419759206,-7.8412796602,274
110097,168950,241677,-4.2795632201,-4.0654055974,-7.846065305400001,275
109511,168858,241628,-4.2735811636,-4.1312082188999995,-7.829315547199999,276
109123,168781,241583,-4.2496529376,-4.1108692268,-7.836494015,277
108806,168802,241590,-4.247260115,-4.0893338234,-7.829315547199999,278
108876,168822,241598,-4.283152454,-4.1850467274,-7.8077801438000005,279
109106,168905,241657,-4.2400816472,-4.0259240245,-7.819744256799999,280
109437,168967,241723,-4.2245283003,-4.126422573699999,-7.9011002251999995,281
109696,169008,241808,-4.2640098732,-4.3154555591,-7.812565789,282
109985,169016,241785,-4.199403663,-4.0211383793,-7.8628150636,283
110168,169091,241805,-4.3262232608,-4.0809589443,-7.836494015,284
110350,169123,241829,-4.2101713647,-4.0450666053,-7.8257263133,285
110509,169176,241890,-4.1778682596,-4.0965122912,-7.872386354,286
110761,169203,241892,-4.2006000743,-4.1108692268,-7.9034930478000005,287
110953,169211,241925,-4.258027816699999,-4.1419759206,-7.788637563,288
111187,169225,241901,-4.1575292675,-4.1300118076,-7.7994052647,289
111371,169264,242020,-4.2556349941,-4.0223347905999995,-7.8376904263,290
111581,169295,241998,-4.3513478981,-4.113262049399999,-7.8640114749,291
111779,169300,242032,-4.2855452766,-4.0331024923,-7.8053873212000005,292
111971,169324,242054,-4.2137605985999995,-4.151547211,-7.9621172015,293
112156,169381,242115,-4.2496529376,-4.1443687432,-7.9393853868,294
112155,169353,242104,-4.2281175342,-4.1084764042,-7.9011002251999995,295
111743,169260,242007,-4.4087756405,-4.0235312019,-7.832904781100001,296
111092,169173,241896,-4.1084764042,-3.9397824109,-7.8173514342,297
110548,169105,241786,-4.2807596314,-4.1072799929,-7.829315547199999,298
110190,169058,241770,-4.2568314054,-4.0570307183,-7.8628150636,299
110033,169042,241801,-4.1048871703,-4.1120656381,-7.752745224,300
110098,169069,241825,-4.2759739861999995,-4.2077785421,-7.7970124421,301
110379,169135,241818,-4.242474469799999,-4.1060835816,-7.7898339743,302
110640,169172,241846,-4.3286160834,-4.0067814437,-7.836494015,303
110831,169221,241901,-4.3094735026,-4.2137605985999995,-7.8795648218,304
110925,169245,241932,-4.3118663252,-4.1180476945999995,-7.8652078862,305
111097,169290,241955,-4.2819560427,-3.9828532177,-7.858029418399999,306
111205,169251,241984,-4.1611185014,-4.0881374121,-7.7946196195,307
111268,169301,241963,-4.2939201557,-4.1060835816,-7.846065305400001,308
111490,169301,242013,-4.2532421715,-3.9565321691,-7.8137622003,309
111619,169357,242041,-4.1443687432,-4.126422573699999,-7.8556365958,310
111768,169371,242041,-4.1491543884,-4.0486558392,-7.7587272805,311
111880,169330,242064,-4.3130627365,-4.1671005579,-7.7659057483,312
112003,169404,242055,-4.0570307183,-4.0175491454,-7.884350467,313
112150,169480,242138,-4.2735811636,-4.2065821308,-7.9106715156,314
112309,169420,242140,-4.1886359613,-4.1563328562,-7.886743289599999,315
112321,169421,242130,-4.2520457602,-4.1180476945999995,-7.777869861299999,316
111905,169332,242026,-4.2364924133,-4.1659041466,-7.7443703449,317
111208,169215,241939,-4.2269211229,-4.0163527341,-7.8795648218,318
110579,169118,241825,-4.2628134618999995,-4.079762533,-7.8388868376,319
110077,168961,241769,-4.271188340999999,-4.0043886211,-7.896314579999999,320
109762,169000,241702,-4.0953158799,-3.9661034595,-7.8017980873,321
109646,168985,241737,-4.2927237444,-4.235296002,-7.8269227246,322
109768,169069,241779,-4.1288153963,-4.0989051138,-7.8017980873,323
109989,169112,241814,-4.2903309218,-4.0127635002,-7.8221370794,324
110228,169132,241840,-4.1706897918,-4.0881374121,-7.8891361122,325
110385,169158,241861,-4.3238304382,-4.0283168471,-7.8341011924,326
110534,169185,241921,-4.2568314054,-4.1443687432,-7.8269227246,327
110631,169187,241877,-4.3106699139,-4.0426737827,-7.785048329099999,328
110748,169228,241914,-4.2843488653,-4.1252261624,-7.8065837325,329
110930,169202,241947,-4.140779509300001,-4.1611185014,-7.890332523500001,330
111082,169237,241986,-4.1336010414999995,-4.092923057299999,-7.8388868376,331
111258,169255,241991,-4.1922251952,-4.097708702499999,-7.860422240999999,332
111437,169248,241990,-4.0833517669,-4.0486558392,-7.836494015,333
111557,169252,241974,-4.2616170506,-4.091726646,-7.848458128,334
111694,169263,242025,-4.2305103568,-4.0546378957,-7.9549387337,335
111812,169306,241990,-4.283152454,-3.876372612,-7.920242806,336
111968,169311,242041,-4.2807596314,-4.1659041466,-7.7706913935,337
111855,169224,242038,-4.2855452766,-3.960121403,-7.819744256799999,338
111256,169136,241890,-4.3334017286,-4.139583098,-7.819744256799999,339
110592,169039,241738,-4.2735811636,-4.1012979364,-7.7946196195,340
109962,168947,241699,-4.1958144290999995,-4.1443687432,-7.8029944985999995,341
109507,168875,241665,-4.2185462438,-4.1240297511,-7.8137622003,342
109194,168846,241629,-4.18743955,-4.1144584607,-7.846065305400001,343
109097,168873,241627,-4.1982072517,-4.1359938641000005,-7.8771719992,344
109237,168896,241650,-4.235296002,-4.007977855,-7.8987074025999995,345
109515,168967,241717,-4.2329031794,-4.079762533,-7.8532437732,346
109777,168994,241759,-4.2484565263,-4.146761565799999,-7.8221370794,347
109975,169038,241797,-4.2209390664,-4.127618985,-7.8508509506,348
110188,169067,241821,-4.2329031794,-4.1324046302,-7.812565789,349
110374,169088,241839,-4.3848474145,-4.2604206393,-7.8017980873,350
110586,169136,241904,-4.1778682596,-4.1347974528,-7.8699935314,351
110811,169153,241942,-4.2221354777,-4.1886359613,-7.8029944985999995,352
111040,169149,241934,-4.092923057299999,-4.1659041466,-7.7982088534,353
111268,169227,241928,-4.1958144290999995,-4.1048871703,-7.8053873212000005,354
111488,169223,242026,-4.3022950348,-4.1096728155,-7.831708369799999,355
111693,169280,242052,-4.2855452766,-4.2269211229,-7.8628150636,356
111924,169293,242056,-4.1718862031,-4.1024943476999995,-7.8089765551,357
112142,169308,242102,-4.1934216065,-4.0474594279,-7.858029418399999,358
112345,169356,242154,-4.2759739861999995,-4.2305103568,-7.8699935314,359
112444,169349,242089,-4.1647077353,-4.0713876539,-7.8221370794,360
112090,169270,242046,-4.1001015251,-4.1706897918,-7.9130643382,361
111502,169169,241911,-4.2329031794,-4.0139599115,-7.884350467,362
110904,169057,241845,-4.1850467274,-4.064209186099999,-7.728816998,363
110518,169039,241837,-4.2795632201,-4.1778682596,-7.816155022899999,364
110311,169011,241856,-4.3022950348,-4.0893338234,-7.872386354,365
110286,169023,241842,-4.3920258823,-4.1623149127,-7.7419775223,366
110483,169048,241848,-4.2305103568,-4.1922251952,-7.819744256799999,367
110779,169129,241938,-4.247260115,-4.0235312019,-7.8341011924,368
111036,169189,241922,-4.2484565263,-4.1479579771,-7.858029418399999,369
111240,169196,241994,-4.3513478981,-4.1659041466,-7.9058858704,370
111408,169242,241974,-4.3501514868,-4.0654055974,-7.8173514342,371
111582,169264,242027,-4.2065821308,-4.1575292675,-7.763512925700001,372
111779,169284,242011,-4.3465622529,-3.8787654346,-7.800601675999999,373
111952,169333,242088,-4.1790646709,-4.115654872,-7.8305119585,374
112146,169326,242141,-4.3094735026,-4.079762533,-7.819744256799999,375
112354,169350,242137,-4.1479579771,-4.1802610821999995,-7.8305119585,376
112563,169400,242150,-4.2305103568,-4.1012979364,-7.8699935314,377
112735,169399,242208,-4.1958144290999995,-4.1443687432,-7.9178499834,378
112954,169425,242177,-4.1359938641000005,-4.146761565799999,-7.7802626839,379
113075,169446,242254,-4.2568314054,-4.2065821308,-7.874779176600001,380
113202,169446,242220,-4.3178483817,-4.06779842,-7.8089765551,381
113221,169452,242228,-4.2137605985999995,-4.0689948312999995,-7.8508509506,382
112788,169373,242157,-4.2807596314,-4.1575292675,-7.7874411516999995,383
112130,169253,242001,-4.1790646709,-4.0498522505,-7.8987074025999995,384
111556,169152,241941,-4.1623149127,-4.0737804765,-7.779066272600001,385
111174,169095,241942,-4.2927237444,-4.113262049399999,-7.8113693777,386
110940,169108,241915,-4.18743955,-4.0450666053,-7.8676007087999995,387
110926,169114,241952,-4.2197426551,-4.0091742663,-7.749155990099999,388
111086,169172,241927,-4.1970108404,-4.1001015251,-7.8664042975,389
111321,169220,242017,-4.2448672924,-4.06779842,-7.824529902,390
111480,169265,242018,-4.1192441059,-4.0881374121,-7.890332523500001,391
111586,169248,242016,-4.1324046302,-4.2508493489,-7.8891361122,392
111721,169272,242058,-4.2041893082,-4.0450666053,-7.9106715156,393
111870,169296,242042,-4.151547211,-4.1491543884,-7.8987074025999995,394
112009,169281,242044,-4.3094735026,-4.0546378957,-7.819744256799999,395
112143,169331,242078,-4.2257247116,-4.1204405172000005,-7.861618652300001,396
112308,169300,242087,-4.237688824599999,-4.115654872,-7.832904781100001,397
112481,169320,242131,-4.1730826144,-4.0725840652,-7.800601675999999,398
112638,169345,242093,-4.1694933805000005,-4.055834307,-7.884350467,399
112783,169375,242157,-4.0606199522,-4.06779842,-7.8556365958,400
112956,169387,242160,-4.2735811636,-4.1108692268,-7.8113693777,401
113094,169381,242161,-4.2759739861999995,-4.0390845488,-7.8065837325,402
113235,169398,242205,-4.3381873738,-4.091726646,-7.7802626839,403
113147,169386,242137,-4.211367776,-4.0689948312999995,-7.7946196195,404
112591,169218,242055,-4.4039899953,-4.0187455567,-7.8771719992,405
111878,169145,241908,-4.2281175342,-4.113262049399999,-7.7802626839,406
111204,169034,241806,-4.1982072517,-4.1060835816,-7.848458128,407
110699,168968,241768,-4.1694933805000005,-4.0713876539,-7.8173514342,408
110332,168924,241653,-4.2568314054,-4.0606199522,-7.8029944985999995,409
110179,168944,241740,-4.1120656381,-4.1802610821999995,-7.831708369799999,410
110283,168954,241680,-4.2305103568,-3.9948173307,-7.8508509506,411
110490,168989,241757,-4.2317067681000005,-4.0905302347,-7.9226356286,412
110703,169036,241801,-4.1910287839,-4.097708702499999,-7.831708369799999,413
110781,169084,241797,-4.208974953399999,-4.1563328562,-7.831708369799999,414
111004,169057,241882,-4.1455651545,-4.1300118076,-7.8173514342,415
111139,169145,241839,-4.235296002,-4.0654055974,-7.8257263133,416
111312,169133,241886,-4.235296002,-4.0953158799,-7.8987074025999995,417
111447,169148,241925,-4.2520457602,-4.115654872,-7.848458128,418
111602,169199,241871,-4.2687955184,-4.2173498325,-7.858029418399999,419
111796,169167,241884,-4.1778682596,-3.9900316855,-7.7742806274,420
111949,169178,241928,-4.1934216065,-4.2041893082,-7.8233334907000005,421
112060,169188,241946,-4.2173498325,-4.2173498325,-7.8424760715,422
112181,169172,241950,-4.2616170506,-4.2269211229,-7.7802626839,423
112280,169176,241915,-4.2017964856,-4.1072799929,-7.872386354,424
112454,169186,241947,-4.208974953399999,-4.1970108404,-7.8676007087999995,425
112490,169163,241899,-4.2388852359,-4.1144584607,-7.874779176600001,426
112060,169049,241851,-4.2053857195,-3.9720855159999995,-7.8915289348,427
111348,168957,241763,-4.2448672924,-4.2556349941,-7.831708369799999,428
110779,168869,241658,-4.1371902754,-4.0869410008000004,-7.749155990099999,429
110220,168803,241607,-4.2400816472,-4.0498522505,-7.9142607494999995,430
109932,168804,241592,-4.2149570099,-4.0498522505,-7.858029418399999,431
109842,168822,241588,-4.1431723319,-4.258027816699999,-7.8341011924,432
109970,168834,241592,-4.235296002,-4.115654872,-7.9501530885,433
110270,168942,241668,-4.1718862031,-4.0546378957,-7.8269227246,434
110555,169029,241739,-4.3022950348,-4.0618163635,-7.7539416353,435
110815,169037,241802,-4.3214376156,-4.0893338234,-7.9226356286,436
110980,169080,241742,-4.1096728155,-4.2017964856,-7.831708369799999,437
111152,169138,241822,-4.1910287839,-4.1347974528,-7.7970124421,438
111361,169155,241855,-4.2915273330999995,-4.0283168471,-7.7946196195,439
111499,169202,241864,-4.1946180178,-4.1491543884,-7.8065837325,440
111743,169253,241909,-4.1455651545,-4.1012979364,-7.8771719992,441
111993,169276,241936,-4.1383866867,-3.9924245080999996,-7.8137622003,442
112170,169257,241995,-4.18743955,-4.2173498325,-7.8652078862,443
112339,169321,241992,-4.2029928969000006,-4.2209390664,-7.7742806274,444
112523,169355,242022,-4.1898323726,-4.0259240245,-7.8017980873,445
112706,169356,242050,-4.2496529376,-4.1001015251,-7.819744256799999,446
112920,169434,242061,-4.2520457602,-4.0713876539,-7.8699935314,447
113075,169415,242113,-4.2496529376,-4.092923057299999,-7.846065305400001,448
113021,169366,242101,-4.258027816699999,-4.1682969692,-7.7682985709,449
112529,169283,241941,-4.3322053173,-4.1958144290999995,-7.7659057483,450
111906,169221,241828,-4.2149570099,-4.140779509300001,-7.874779176600001,451
111393,169165,241811,-4.2939201557,-4.1324046302,-7.8699935314,452
111076,169089,241790,-4.1527436223,-4.0630127748,-7.8412796602,453
110971,169055,241791,-4.2400816472,-4.1240297511,-7.791030385599999,454
111040,169127,241804,-4.3334017286,-4.1659041466,-7.831708369799999,455
111276,169195,241871,-4.1982072517,-4.1898323726,-7.8556365958,456
111483,169308,241906,-4.2855452766,-4.1910287839,-7.8185478454999995,457
111643,169284,241905,-4.1359938641000005,-4.1048871703,-7.9034930478000005,458
111773,169281,241922,-4.3489550755,-4.0630127748,-7.819744256799999,459
111858,169289,241934,-4.3334017286,-4.1180476945999995,-7.8424760715,460
111944,169304,241952,-4.3776689467,-3.9924245080999996,-7.8341011924,461
112084,169310,241961,-4.1742790257,-4.2065821308,-7.860422240999999,462
112155,169359,242002,-4.2807596314,-4.1419759206,-7.836494015,463
112263,169327,242002,-4.2053857195,-4.1898323726,-7.8771719992,464
112344,169397,242013,-4.3633120111,-4.2687955184,-7.8771719992,465
112473,169417,242047,-4.2448672924,-4.1599220901,-7.8412796602,466
112576,169395,242081,-4.3142591478000005,-4.0426737827,-7.824529902,467
112668,169468,242087,-4.295116567,-4.1946180178,-7.752745224,468
112841,169480,242033,-4.2747775749,-4.0378881375,-7.7838519178,469
112860,169463,242071,-4.3214376156,-4.1072799929,-7.8652078862,470
112526,169383,242013,-4.2245283003,-4.0845481781999995,-7.9011002251999995,471
111880,169182,241835,-4.2568314054,-4.151547211,-7.8173514342,472
111168,169135,241791,-4.3250268494999995,-4.0139599115,-7.8221370794,473
110607,169091,241698,-4.3214376156,-4.1108692268,-7.8472617167,474
110199,169068,241676,-4.1862431387,-4.0821553556,-7.8532437732,475
109998,169026,241658,-4.223331889,-4.1659041466,-7.8508509506,476
109974,169045,241656,-4.1383866867,-4.0821553556,-7.785048329099999,477
110208,169112,241721,-4.2221354777,-4.0845481781999995,-7.8508509506,478
110371,169140,241766,-4.1886359613,-4.092923057299999,-7.8341011924,479
110501,169173,241721,-4.283152454,-4.1539400336,-7.8149586116,480
110609,169180,241767,-4.1970108404,-4.1180476945999995,-7.8771719992,481
110679,169208,241834,-4.2544385828,-3.9768711611999996,-7.8532437732,482
110800,169197,241799,-4.2197426551,-4.091726646,-7.77667345,483
110902,169249,241775,-4.2544385828,-4.0833517669,-7.872386354,484
111017,169204,241799,-4.1970108404,-3.9948173307,-7.8077801438000005,485
111167,169226,241813,-4.1120656381,-4.163511324,-7.858029418399999,486
111348,169232,241855,-4.2855452766,-4.1419759206,-7.8891361122,487
111466,169236,241824,-4.3369909625,-4.2628134618999995,-7.819744256799999,488
111607,169278,241852,-4.3860438258,-4.1443687432,-7.844868894099999,489
111720,169274,241888,-4.2616170506,-4.1180476945999995,-7.860422240999999,490
111824,169285,241868,-4.2137605985999995,-3.9661034595,-7.8209406681,491
111887,169300,241891,-4.1551364449,-4.2173498325,-7.8412796602,492
111568,169193,241852,-4.1946180178,-4.175475436999999,-7.8388868376,493
110889,169053,241680,-4.2388852359,-4.1575292675,-7.8699935314,494
110180,168990,241563,-4.30708068,-4.0067814437,-7.7730842161,495
109569,168841,241509,-4.2628134618999995,-4.0833517669,-7.8652078862,496
109130,168825,241476,-4.2281175342,-4.1012979364,-7.8628150636,497
108867,168826,241420,-4.1958144290999995,-4.0091742663,-7.8831540556999995,498
108825,168894,241469,-4.3262232608,-4.0342989036,-7.7922267969000005,499
109021,168877,241479,-4.2125641873,-4.0905302347,-7.872386354,500
109240,168932,241531,-4.1383866867,-4.0701912426,-7.874779176600001,501
109438,168927,241566,-4.3034914461,-4.163511324,-7.896314579999999,502
109596,168958,241531,-4.2137605985999995,-4.1228333398,-7.8891361122,503
109737,168996,241577,-4.2125641873,-4.1419759206,-7.8149586116,504
109889,169009,241560,-4.2197426551,-4.2149570099,-7.9477602659,505
110016,169050,241631,-4.2305103568,-4.1587256788,-7.874779176600001,506
110187,169050,241651,-4.2173498325,-4.2281175342,-7.8412796602,507
110340,168954,241686,-4.1647077353,-4.163511324,-7.8532437732,508
110504,169066,241661,-4.242474469799999,-4.1252261624,-7.9034930478000005,509
110633,169082,241668,-4.2017964856,-4.1443687432,-7.8185478454999995,510
110758,169091,241669,-4.1946180178,-4.0510486617999995,-7.8221370794,511
110833,169056,241670,-4.235296002,-4.1359938641000005,-7.819744256799999,512
110939,169080,241686,-4.3274196721000004,-4.103690759,-7.819744256799999,513
110991,169070,241656,-4.2245283003,-4.1204405172000005,-7.8185478454999995,514
110782,168958,241655,-4.3238304382,-4.1503507997,-7.737191877099999,515
110129,168855,241449,-4.1623149127,-4.1802610821999995,-7.8053873212000005,516
109384,168757,241296,-4.2616170506,-4.320241204299999,-7.846065305400001,517
108882,168709,241339,-4.2436708811,-4.1671005579,-7.8029944985999995,518
108557,168682,241304,-4.3393837851,-4.0354953148999995,-7.737191877099999,519
108366,168675,241327,-4.258027816699999,-4.0474594279,-7.824529902,520
108377,168736,241354,-4.1706897918,-4.0570307183,-7.7958160308,521
108672,168793,241350,-4.2053857195,-4.1024943476999995,-7.9130643382,522
108948,168912,241463,-4.175475436999999,-4.0283168471,-7.812565789,523
109254,168904,241452,-4.3262232608,-4.1012979364,-7.7838519178,524
109440,168928,241534,-4.2687955184,-4.0833517669,-7.8628150636,525
109646,169019,241567,-4.3262232608,-4.126422573699999,-7.8089765551,526
109822,169017,241574,-4.1623149127,-4.0187455567,-7.8556365958,527
110031,169018,241601,-4.271188340999999,-4.2771703975,-7.812565789,528
110215,169072,241623,-4.3334017286,-4.0869410008000004,-7.7611201031,529
110456,169109,241705,-4.1623149127,-4.1012979364,-7.7730842161,530
110631,169154,241715,-4.2484565263,-4.0737804765,-7.746763167499999,531
110839,169185,241687,-4.1790646709,-4.1012979364,-7.824529902,532
111070,169187,241745,-4.2640098732,-4.0666020087,-7.8412796602,533
111276,169250,241748,-4.2795632201,-4.1611185014,-7.7838519178,534
111481,169250,241804,-4.2053857195,-4.1180476945999995,-7.7802626839,535
111665,169296,241835,-4.3621155998,-4.2496529376,-7.775477038699999,536
111741,169275,241807,-4.2077785421,-4.0785661217,-7.874779176600001,537
111418,169190,241775,-4.354937132,-4.001995798499999,-7.800601675999999,538
110819,169140,241631,-4.1587256788,-4.163511324,-7.8436724828,539
110339,169053,241553,-4.2305103568,-4.0594235409,-7.8341011924,540
109980,169014,241568,-4.163511324,-4.091726646,-7.8185478454999995,541
109882,169021,241537,-4.1706897918,-4.1802610821999995,-7.8532437732,542
109908,169006,241590,-4.1814574935,-4.0989051138,-7.8173514342,543
110195,169068,241615,-4.2735811636,-4.1120656381,-7.7946196195,544
110453,169128,241680,-4.2807596314,-4.1204405172000005,-7.8436724828,545
110677,169119,241728,-4.2807596314,-4.2496529376,-7.896314579999999,546
110862,169188,241697,-4.3082770913,-4.146761565799999,-7.8508509506,547
111001,169234,241722,-4.3525443094,-4.0618163635,-7.8221370794,548
111164,169207,241752,-4.2568314054,-3.9828532177,-7.8149586116,549
111346,169273,241749,-4.2017964856,-4.0989051138,-7.824529902,550
111484,169319,241827,-4.2520457602,-4.163511324,-7.8077801438000005,551
111598,169304,241869,-4.1910287839,-4.1491543884,-7.872386354,552
111871,169334,241902,-4.2017964856,-4.175475436999999,-7.788637563,553
112010,169345,241875,-4.2675991071,-4.127618985,-7.8352976037,554
112218,169384,241907,-4.2604206393,-4.0989051138,-7.8077801438000005,555
112336,169457,241919,-4.2520457602,-4.007977855,-7.7515488127,556
112502,169413,241929,-4.235296002,-4.097708702499999,-7.9011002251999995,557
112601,169416,241940,-4.1910287839,-4.1886359613,-7.8149586116,558
112409,169376,241905,-4.2209390664,-4.103690759,-7.7539416353,559
111956,169246,241777,-4.237688824599999,-4.1324046302,-7.858029418399999,560
111352,169169,241682,-4.2293139454999995,-4.2340995907,-7.788637563,561
110882,169099,241644,-4.2412780585,-4.1886359613,-7.819744256799999,562
110604,169115,241570,-4.0941194686,-4.0881374121,-7.9298140964,563
110487,169030,241574,-4.3046878574,-4.1228333398,-7.8436724828,564
110520,169067,241599,-4.1970108404,-4.354937132,-7.9034930478000005,565
110721,169115,241650,-4.2137605985999995,-4.055834307,-7.846065305400001,566
110940,169202,241714,-4.1910287839,-4.1802610821999995,-7.874779176600001,567
111101,169155,241676,-4.126422573699999,-4.06779842,-7.858029418399999,568
111244,169207,241725,-4.1982072517,-4.140779509300001,-7.7946196195,569
111357,169221,241716,-4.2161534212,-4.1084764042,-7.8101729664,570
111496,169207,241745,-4.223331889,-4.2209390664,-7.7922267969000005,571
111661,169203,241784,-4.2161534212,-4.0378881375,-7.8676007087999995,572
111857,169267,241779,-4.30708068,-4.2340995907,-7.8556365958,573
111990,169300,241772,-4.115654872,-4.115654872,-7.8436724828,574
112170,169335,241773,-4.3525443094,-4.1778682596,-7.860422240999999,575
112345,169299,241808,-4.3118663252,-4.1431723319,-7.846065305400001,576
112489,169331,241859,-4.2496529376,-4.1587256788,-7.7946196195,577
112656,169366,241869,-4.2520457602,-4.1611185014,-7.8029944985999995,578
112799,169352,241873,-4.2257247116,-4.079762533,-7.8939217574,579
112766,169315,241867,-4.2879380992,-4.126422573699999,-7.8652078862,580
112392,169233,241743,-4.3286160834,-4.0857445895,-7.831708369799999,581
111828,169127,241656,-4.2065821308,-4.127618985,-7.8676007087999995,582
111259,169053,241518,-4.2400816472,-4.1312082188999995,-7.7934232082,583
110902,168985,241508,-4.2520457602,-4.0630127748,-7.8795648218,584
110612,168928,241459,-4.3274196721000004,-4.1706897918,-7.8436724828,585
110449,168927,241424,-4.1252261624,-4.163511324,-7.824529902,586
110532,168973,241457,-4.2340995907,-4.1300118076,-7.8101729664,587
110779,169021,241530,-4.2281175342,-4.199403663,-7.8017980873,588
110973,169072,241532,-4.2664026958,-4.1694933805000005,-7.8113693777,589
111125,169071,241544,-4.2161534212,-4.0785661217,-7.8065837325,590
111302,169114,241606,-4.2783668087999995,-4.1144584607,-7.8987074025999995,591
111478,169137,241579,-4.2317067681000005,-4.2065821308,-7.8915289348,592
111629,169137,241639,-4.319044793,-4.0893338234,-7.829315547199999,593
111795,169161,241664,-4.1766718483,-4.1324046302,-7.804190909899999,594
111984,169232,241667,-4.235296002,-4.064209186099999,-7.872386354,595
112193,169203,241690,-4.3489550755,-4.0606199522,-7.7958160308,596
112352,169237,241691,-4.2053857195,-4.2161534212,-7.829315547199999,597
112551,169227,241709,-4.1814574935,-4.1455651545,-7.915457160799999,598
112704,169254,241708,-4.2149570099,-4.146761565799999,-7.804190909899999,599
112860,169286,241706,-4.2544385828,-3.9708891047,-7.816155022899999,600
113016,169256,241753,-4.3956151162,-4.1563328562,-7.800601675999999,601
113017,169220,241739,-4.2448672924,-4.0749768878,-7.846065305400001,602
112665,169140,241616,-4.2317067681000005,-4.2149570099,-7.836494015,603
112121,169073,241530,-4.1850467274,-4.2065821308,-7.829315547199999,604
111655,168998,241489,-4.3501514868,-4.115654872,-7.8652078862,605
111332,168959,241484,-4.2077785421,-4.1012979364,-7.8077801438000005,606
111178,168919,241458,-4.3740797127999995,-4.2735811636,-7.928617685100001,607
111197,168972,241450,-4.295116567,-4.0522450731,-7.8388868376,608
111346,169028,241476,-4.2903309218,-4.1970108404,-7.8149586116,609
111708,169112,241559,-4.2006000743,-4.146761565799999,-7.8281191359,610
111951,169149,241564,-4.3238304382,-4.06779842,-7.8077801438000005,611
112137,169167,241613,-4.2460637037,-4.2436708811,-7.896314579999999,612
112355,169176,241624,-4.342973019,-4.151547211,-7.7958160308,613
112496,169208,241636,-4.2783668087999995,-4.1144584607,-7.8137622003,614
112692,169258,241661,-4.2963129783,-4.0450666053,-7.8173514342,615
112921,169265,241646,-4.2879380992,-4.0402809601,-7.836494015,616
113052,169292,241715,-4.2903309218,-4.1587256788,-7.746763167499999,617
113244,169326,241761,-4.2029928969000006,-4.1814574935,-7.8388868376,618
113427,169362,241765,-4.2388852359,-4.1922251952,-7.8341011924,619
113652,169390,241771,-4.1024943476999995,-4.1001015251,-7.7587272805,620
113821,169416,241824,-4.2484565263,-4.1300118076,-7.8269227246,621
114028,169448,241828,-4.2556349941,-4.0773697104,-7.9357961529,622
114172,169446,241863,-4.4638105603,-4.2364924133,-7.8520473619,623
114107,169414,241801,-4.2735811636,-4.1491543884,-7.7730842161,624
113706,169363,241750,-4.2364924133,-4.1347974528,-7.8077801438000005,625
113257,169295,241699,-4.2209390664,-4.1383866867,-7.7515488127,626
112794,169219,241591,-4.1958144290999995,-4.0474594279,-7.890332523500001,627
112533,169223,241589,-4.2999022122,-4.2041893082,-7.8628150636,628
112455,169198,241619,-4.2137605985999995,-4.1551364449,-7.819744256799999,629
112484,169243,241627,-4.2077785421,-4.1001015251,-7.8676007087999995,630
112697,169291,241679,-4.2915273330999995,-4.103690759,-7.8376904263,631
112892,169316,241663,-4.4183469309,-4.1359938641000005,-7.7982088534,632
112978,169316,241733,-4.2329031794,-4.0007993872,-7.8221370794,633
113054,169348,241656,-4.1790646709,-4.211367776,-7.9034930478000005,634
113099,169364,241701,-4.3142591478000005,-4.2269211229,-7.8149586116,635
113186,169391,241737,-4.2927237444,-4.0845481781999995,-7.836494015,636
113270,169402,241711,-4.2245283003,-4.0115670889,-7.8400832489,637
113360,169392,241774,-4.259224228,-4.0666020087,-7.785048329099999,638
113543,169452,241789,-4.235296002,-4.1108692268,-7.846065305400001,639
113629,169443,241817,-4.1647077353,-4.1802610821999995,-7.819744256799999,640
113752,169484,241788,-4.2879380992,-3.8895331363000003,-7.7108708285,641
113894,169526,241837,-4.2185462438,-4.0881374121,-7.7730842161,642
114021,169537,241833,-4.2807596314,-4.113262049399999,-7.8664042975,643
114072,169545,241884,-4.2783668087999995,-4.1706897918,-7.874779176600001,644
113895,169476,241767,-4.3214376156,-4.064209186099999,-7.7611201031,645
113329,169390,241637,-4.208974953399999,-4.1706897918,-7.8915289348,646
112661,169327,241584,-4.2975093896,-4.1371902754,-7.8017980873,647
112052,169212,241527,-4.3010986235,-4.1336010414999995,-7.7706913935,648
111509,169201,241524,-4.271188340999999,-4.064209186099999,-7.819744256799999,649
111181,169168,241519,-4.3334017286,-4.0785661217,-7.8436724828,650
110994,169168,241486,-4.1886359613,-4.151547211,-7.8149586116,651
111086,169212,241491,-4.1359938641000005,-4.0354953148999995,-7.848458128,652
111293,169247,241527,-4.2125641873,-4.1611185014,-7.7838519178,653
111444,169284,241581,-4.3238304382,-4.1587256788,-7.8628150636,654
111545,169314,241566,-4.2616170506,-4.1587256788,-7.7946196195,655
111667,169332,241576,-4.1671005579,-4.199403663,-7.915457160799999,656
111713,169348,241608,-4.211367776,-4.0893338234,-7.8699935314,657
111820,169333,241601,-4.2185462438,-4.0283168471,-7.7324062319,658
111946,169391,241580,-4.237688824599999,-4.1216369285,-7.902296636499999,659
112065,169386,241627,-4.1120656381,-4.151547211,-7.8939217574,660
112198,169422,241624,-4.2735811636,-4.0737804765,-7.775477038699999,661
112344,169427,241622,-4.1802610821999995,-4.2412780585,-7.8520473619,662
112423,169452,241587,-4.1623149127,-4.1120656381,-7.8269227246,663
112543,169379,241592,-4.2317067681000005,-4.2532421715,-7.7994052647,664
112681,169462,241685,-4.2400816472,-4.1443687432,-7.8592258297,665
112650,169432,241653,-4.2568314054,-4.1084764042,-7.824529902,666
112252,169390,241597,-4.208974953399999,-4.2400816472,-7.8185478454999995,667
111529,169241,241455,-4.2640098732,-4.0151563228,-7.9178499834,668
110825,169179,241352,-4.1671005579,-4.1336010414999995,-7.7228349415,669
110287,169106,241238,-4.2161534212,-4.1778682596,-7.816155022899999,670
109892,169079,241242,-4.3226340269,-4.1096728155,-7.824529902,671
109719,169062,241241,-4.2388852359,-4.1419759206,-7.7946196195,672
109747,169078,241282,-4.2867416879,-4.1347974528,-7.884350467,673
109989,169129,241316,-4.2185462438,-4.2604206393,-7.8221370794,674
110233,169169,241335,-4.2568314054,-4.1024943476999995,-7.8173514342,675
110396,169203,241377,-4.2556349941,-4.1084764042,-7.848458128,676
110539,169218,241370,-4.1886359613,-4.1730826144,-7.7575308692,677
110676,169287,241353,-4.1168512833,-4.0450666053,-7.8269227246,678
110844,169243,241377,-4.2544385828,-4.1228333398,-7.8652078862,679
110992,169270,241399,-4.2640098732,-4.0654055974,-7.8652078862,680
111179,169281,241395,-4.2077785421,-4.0582271296000005,-7.896314579999999,681
111365,169339,241402,-4.2317067681000005,-4.1204405172000005,-7.884350467,682
111589,169328,241455,-4.2185462438,-4.0354953148999995,-7.7826555065,683
111721,169363,241464,-4.3501514868,-4.0953158799,-7.8687971201,684
111907,169384,241420,-4.2987058009,-4.235296002,-7.804190909899999,685
112076,169346,241488,-4.3094735026,-4.001995798499999,-7.7706913935,686
112228,169358,241470,-4.3896330597,-4.0881374121,-7.8257263133,687
112302,169350,241423,-4.2017964856,-4.2927237444,-7.8699935314,688
112055,169283,241388,-4.223331889,-3.9864424516000003,-7.896314579999999,689
111470,169213,241309,-4.3094735026,-4.127618985,-7.7814590952,690
110899,169104,241213,-4.2903309218,-4.2412780585,-7.8065837325,691
110445,169067,241217,-4.3142591478000005,-4.2388852359,-7.8939217574,692
110229,169091,241132,-4.2257247116,-4.1766718483,-7.7730842161,693
110186,169112,241222,-4.2664026958,-4.2783668087999995,-7.9034930478000005,694
110353,169146,241251,-4.2281175342,-4.2532421715,-7.8053873212000005,695
110671,169163,241288,-4.283152454,-4.1180476945999995,-7.831708369799999,696
110968,169254,241363,-4.3621155998,-4.1958144290999995,-7.7515488127,697
111185,169275,241391,-4.2759739861999995,-4.1371902754,-7.8113693777,698
111417,169315,241400,-4.283152454,-4.175475436999999,-7.779066272600001,699
111589,169338,241406,-4.2185462438,-4.1060835816,-7.8029944985999995,700
111741,169366,241429,-4.2161534212,-4.1228333398,-7.8388868376,701
111979,169376,241437,-4.3525443094,-4.211367776,-7.8221370794,702
112179,169417,241483,-4.2544385828,-4.0402809601,-7.831708369799999,703
112392,169505,241498,-4.242474469799999,-4.1455651545,-7.8795648218,704
112600,169456,241496,-4.3046878574,-4.1563328562,-7.8269227246,705
112820,169506,241534,-4.1790646709,-4.055834307,-7.7132636511,706
113008,169518,241524,-4.1982072517,-4.146761565799999,-7.8017980873,707
113209,169543,241608,-4.2137605985999995,-4.0761732991,-7.8795648218,708
113422,169545,241593,-4.3525443094,-4.139583098,-7.8699935314,709
113530,169574,241632,-4.242474469799999,-3.9900316855,-7.7982088534,710
113380,169518,241570,-4.354937132,-4.163511324,-7.846065305400001,711
112929,169413,241516,-4.0809589443,-4.1611185014,-7.8891361122,712
112424,169349,241426,-4.2185462438,-4.1347974528,-7.872386354,713
112016,169343,241350,-4.30708068,-4.151547211,-7.8891361122,714
111830,169296,241327,-4.353740720699999,-4.091726646,-7.7838519178,715
111840,169359,241375,-4.2879380992,-4.2281175342,-7.884350467,716
111996,169360,241451,-4.2412780585,-4.1563328562,-7.8532437732,717
112278,169417,241473,-4.1814574935,-4.1766718483,-7.7587272805,718
112478,169476,241500,-4.163511324,-4.0618163635,-7.8628150636,719
112582,169483,241553,-4.2783668087999995,-4.1204405172000005,-7.7706913935,720
112740,169464,241477,-4.2101713647,-4.1084764042,-7.8221370794,721
112849,169513,241528,-4.2664026958,-4.2436708811,-7.7563344578999995,722
112990,169520,241566,-4.1946180178,-4.1563328562,-7.824529902,723
113105,169492,241552,-4.2065821308,-4.0043886211,-7.831708369799999,724
113278,169539,241543,-4.295116567,-4.055834307,-7.7874411516999995,725
113419,169551,241579,-4.1934216065,-4.1300118076,-7.8508509506,726
113584,169478,241626,-4.2855452766,-4.1419759206,-7.791030385599999,727
113751,169619,241662,-4.2448672924,-4.0498522505,-7.7946196195,728
113890,169587,241621,-4.4350966891,-4.1898323726,-7.8173514342,729
114072,169605,241622,-4.2675991071,-4.1204405172000005,-7.8556365958,730
114132,169628,241647,-4.2161534212,-4.2317067681000005,-7.8209406681,731
114150,169572,241650,-4.2149570099,-4.0007993872,-7.8101729664,732
113763,169499,241485,-4.2999022122,-4.0821553556,-7.846065305400001,733
113114,169413,241429,-4.1647077353,-4.2017964856,-7.8089765551,734
112576,169299,241380,-4.3417766077,-4.1359938641000005,-7.7575308692,735
112122,169272,241323,-4.1479579771,-4.1192441059,-7.8556365958,736
111895,169248,241240,-4.1922251952,-4.1024943476999995,-7.829315547199999,737
111853,169244,241273,-4.1850467274,-4.2269211229,-7.8221370794,738
111961,169329,241361,-4.3453658416,-4.1599220901,-7.8508509506,739
112234,169333,241393,-4.2137605985999995,-4.1443687432,-7.8556365958,740
112436,169431,241414,-4.2903309218,-4.0737804765,-7.7874411516999995,741
112597,169425,241414,-4.1060835816,-4.163511324,-7.8352976037,742
112760,169429,241510,-4.2999022122,-4.097708702499999,-7.860422240999999,743
112919,169448,241461,-4.2364924133,-4.007977855,-7.8556365958,744
113095,169466,241515,-4.247260115,-4.092923057299999,-7.8209406681,745
113242,169489,241528,-4.1742790257,-4.0354953148999995,-7.831708369799999,746
113396,169497,241570,-4.0534414844,-4.1682969692,-7.9238320399,747
113608,169523,241582,-4.1790646709,-4.0331024923,-7.832904781100001,748
113773,169565,241553,-4.1443687432,-4.1048871703,-7.8556365958,749
113892,169554,241638,-4.3417766077,-4.0666020087,-7.858029418399999,750
114053,169559,241636,-4.0689948312999995,-4.2209390664,-7.860422240999999,751
114186,169587,241664,-4.2975093896,-4.115654872,-7.8891361122,752
114375,169564,241648,-4.2616170506,-4.2017964856,-7.846065305400001,753
114293,169554,241633,-4.2317067681000005,-4.0342989036,-7.8987074025999995,754
113817,169454,241590,-4.2879380992,-4.1084764042,-7.860422240999999,755
113179,169334,241419,-4.2329031794,-4.1300118076,-7.9369925642,756
112569,169259,241376,-4.2759739861999995,-4.0869410008000004,-7.8412796602,757
112122,169184,241357,-4.2795632201,-4.127618985,-7.8017980873,758
111835,169161,241298,-4.3836510032,-4.0833517669,-7.737191877099999,759
111682,169156,241340,-4.2664026958,-4.146761565799999,-7.8939217574,760
111795,169206,241359,-4.2807596314,-4.0235312019,-7.915457160799999,761
112034,169263,241385,-4.2496529376,-4.092923057299999,-7.788637563,762
112204,169305,241459,-4.1120656381,-4.2340995907,-7.8676007087999995,763
112355,169316,241428,-4.2101713647,-4.06779842,-7.800601675999999,764
112480,169328,241421,-4.2508493489,-4.1491543884,-7.872386354,765
112618,169350,241438,-4.1718862031,-4.0737804765,-7.8388868376,766
112755,169374,241509,-4.2257247116,-4.1001015251,-7.831708369799999,767
112891,169401,241509,-4.2017964856,-4.0259240245,-7.8209406681,768
113082,169406,241531,-4.2161534212,-4.1012979364,-7.7934232082,769
113233,169422,241530,-4.2544385828,-4.2029928969000006,-7.8436724828,770
113347,169428,241558,-4.366901245,-4.079762533,-7.7826555065,771
113486,169450,241629,-4.2568314054,-4.2185462438,-7.846065305400001,772
113608,169441,241580,-4.2065821308,-4.1312082188999995,-7.8233334907000005,773
113708,169454,241611,-4.30708068,-4.115654872,-7.8113693777,774
113793,169439,241615,-4.1826539048,-4.064209186099999,-7.8939217574,775
113864,169435,241642,-4.2329031794,-4.1300118076,-7.8939217574,776
113515,169358,241498,-4.3369909625,-4.1946180178,-7.8628150636,777
112817,169255,241364,-4.208974953399999,-4.139583098,-7.8771719992,778
112178,169129,241287,-4.2125641873,-4.1503507997,-7.8795648218,779
111569,169043,241237,-4.30708068,-4.0905302347,-7.8508509506,780
111191,169019,241239,-4.1970108404,-4.0881374121,-7.7982088534,781
110937,169006,241266,-4.247260115,-4.1180476945999995,-7.8795648218,782
110982,169068,241304,-4.2628134618999995,-4.1204405172000005,-7.848458128,783
111201,169113,241338,-4.0749768878,-4.1682969692,-7.860422240999999,784
111338,169171,241355,-4.2197426551,-4.1706897918,-7.7982088534,785
111460,169184,241379,-4.1288153963,-4.1766718483,-7.858029418399999,786
111568,169208,241356,-4.3728833015,-4.1826539048,-7.8185478454999995,787
111698,169273,241393,-4.1946180178,-4.1096728155,-7.9106715156,788
111824,169239,241444,-4.2161534212,-4.1706897918,-7.7455667562,789
111962,169313,241467,-4.2675991071,-4.1682969692,-7.8532437732,790
112110,169305,241479,-4.2807596314,-4.2616170506,-7.8376904263,791
112228,169309,241495,-4.1479579771,-4.0606199522,-7.7443703449,792
112356,169331,241559,-4.2556349941,-4.1204405172000005,-7.8017980873,793
112511,169347,241520,-4.2101713647,-4.0713876539,-7.846065305400001,794
112610,169372,241542,-4.3489550755,-3.9649070482,-7.8341011924,795
112761,169376,241585,-4.4255253987,-4.1850467274,-7.8221370794,796
112854,169433,241543,-4.2568314054,-4.2041893082,-7.8269227246,797
113004,169373,241601,-4.2245283003,-4.2209390664,-7.7994052647,798
112813,169316,241460,-4.1742790257,-4.097708702499999,-7.8101729664,799
112238,169187,241400,-4.2891345105,-4.1575292675,-7.858029418399999,800
111510,169053,241347,-4.2652062845000005,-4.0941194686,-7.858029418399999,801
110885,169027,241263,-4.3046878574,-4.0546378957,-7.777869861299999,802
110445,168997,241230,-4.2747775749,-4.1072799929,-7.836494015,803
110224,168938,241217,-4.3226340269,-4.079762533,-7.8221370794,804
110200,169000,241294,-4.2616170506,-4.0953158799,-7.800601675999999,805
110376,169060,241333,-4.2628134618999995,-4.0546378957,-7.8412796602,806
110621,169139,241361,-4.2460637037,-4.1814574935,-7.7455667562,807
110840,169141,241336,-4.2664026958,-4.199403663,-7.8532437732,808
110941,169151,241421,-4.242474469799999,-4.1216369285,-7.8089765551,809
111070,169175,241394,-4.2568314054,-4.0713876539,-7.8652078862,810
111186,169216,241426,-4.18743955,-4.0845481781999995,-7.746763167499999,811
111280,169226,241480,-4.2520457602,-4.091726646,-7.7814590952,812
111485,169245,241505,-4.2197426551,-4.151547211,-7.7922267969000005,813
111651,169256,241545,-4.1790646709,-4.2125641873,-7.8053873212000005,814
111805,169298,241544,-4.1766718483,-4.1324046302,-7.829315547199999,815
111986,169340,241595,-4.2520457602,-4.1192441059,-7.9226356286,816
112137,169369,241575,-4.2795632201,-4.0654055974,-7.812565789,817
112289,169374,241587,-4.3118663252,-4.2664026958,-7.8053873212000005,818
112448,169396,241692,-4.3214376156,-4.140779509300001,-7.7982088534,819
112625,169394,241700,-4.2532421715,-4.2364924133,-7.777869861299999,820
112662,169425,241707,-4.283152454,-4.113262049399999,-7.9226356286,821
112394,169373,241627,-4.2879380992,-4.103690759,-7.8795648218,822
111792,169295,241514,-4.2903309218,-4.2065821308,-7.8221370794,823
111158,169149,241504,-4.2556349941,-3.984049629,-7.8388868376,824
110739,169137,241437,-4.2783668087999995,-4.1419759206,-7.8891361122,825
110430,169112,241437,-4.1120656381,-4.0881374121,-7.7443703449,826
110380,169165,241464,-4.2281175342,-4.064209186099999,-7.8987074025999995,827
110601,169202,241518,-4.2723847523,-4.2340995907,-7.8269227246,828
110816,169235,241534,-4.235296002,-4.0701912426,-7.8269227246,829
110971,169282,241568,-4.2568314054,-4.1766718483,-7.8676007087999995,830
111061,169271,241586,-4.1419759206,-4.1324046302,-7.8783684105,831
111131,169296,241573,-4.235296002,-4.1060835816,-7.7563344578999995,832
111170,169300,241583,-4.3250268494999995,-4.127618985,-7.846065305400001,833
111284,169296,241595,-4.2101713647,-4.0905302347,-7.858029418399999,834
111394,169329,241638,-4.1718862031,-4.1371902754,-7.7922267969000005,835
111502,169321,241730,-4.3238304382,-4.237688824599999,-7.8233334907000005,836
111682,169370,241682,-4.3357945512,-4.097708702499999,-7.872386354,837
111808,169392,241674,-4.2927237444,-4.1802610821999995,-7.816155022899999,838
111962,169386,241749,-4.2436708811,-4.0941194686,-7.886743289599999,839
112064,169424,241777,-4.1946180178,-4.1431723319,-7.8029944985999995,840
112206,169430,241769,-4.271188340999999,-4.0749768878,-7.8185478454999995,841
112276,169425,241793,-4.2209390664,-4.2664026958,-7.7419775223,842
112113,169382,241721,-4.1706897918,-4.0618163635,-7.7802626839,843
111486,169292,241669,-4.2664026958,-4.0594235409,-7.9393853868,844
110794,169188,241575,-4.208974953399999,-4.127618985,-7.9034930478000005,845
110119,169119,241518,-4.2640098732,-4.1228333398,-7.8412796602,846
109676,169067,241461,-4.237688824599999,-4.092923057299999,-7.7443703449,847
109396,168972,241409,-4.2903309218,-4.127618985,-7.775477038699999,848
109376,169061,241488,-4.199403663,-4.2185462438,-7.8891361122,849
109559,169122,241515,-4.3022950348,-4.0378881375,-7.8915289348,850
109784,169158,241548,-4.097708702499999,-4.1718862031,-7.908278693,851
109976,169194,241589,-4.237688824599999,-4.0893338234,-7.8508509506,852
110120,169208,241600,-4.30708068,-4.211367776,-7.8436724828,853
110254,169230,241602,-4.2735811636,-4.1491543884,-7.804190909899999,854
110402,169240,241654,-4.2305103568,-4.0630127748,-7.874779176600001,855
110533,169223,241630,-4.3728833015,-4.1946180178,-7.8508509506,856
110651,169240,241689,-4.2927237444,-4.0342989036,-7.8532437732,857
110786,169265,241646,-4.2759739861999995,-4.139583098,-7.884350467,858
110986,169299,241706,-4.271188340999999,-4.151547211,-7.8173514342,859
111159,169311,241719,-4.2520457602,-4.1694933805000005,-7.846065305400001,860
111293,169323,241753,-4.3142591478000005,-3.9900316855,-7.7587272805,861
111418,169326,241764,-4.2628134618999995,-4.1012979364,-7.8699935314,862
111577,169329,241758,-4.2137605985999995,-4.0606199522,-7.925028451199999,863
111665,169358,241771,-4.2783668087999995,-4.2185462438,-7.819744256799999,864
111539,169291,241749,-4.3489550755,-3.9649070482,-7.7742806274,865
110922,169190,241647,-4.1192441059,-4.1898323726,-7.860422240999999,866
110198,169106,241571,-4.0941194686,-4.0713876539,-7.9298140964,867
109610,168983,241532,-4.2568314054,-3.9972101532999997,-7.831708369799999,868
109161,168969,241489,-4.1611185014,-4.0570307183,-7.7599236918,869
108911,168938,241460,-4.2963129783,-4.2257247116,-7.7874411516999995,870
108881,168928,241438,-4.2245283003,-3.9876388629,-7.884350467,871
109056,168981,241510,-4.259224228,-4.0881374121,-7.8113693777,872
109374,169023,241519,-4.1060835816,-4.1240297511,-7.8628150636,873
109595,169089,241560,-4.2293139454999995,-4.1611185014,-7.8664042975,874
109764,169102,241617,-4.2448672924,-4.0869410008000004,-7.812565789,875
109937,169087,241627,-4.283152454,-4.064209186099999,-7.848458128,876
110104,169143,241668,-4.2987058009,-4.163511324,-7.8652078862,877
110285,169195,241712,-4.247260115,-4.1922251952,-7.8795648218,878
110488,169150,241685,-4.2053857195,-4.1060835816,-7.8771719992,879
110631,169204,241727,-4.1563328562,-4.0881374121,-7.8173514342,880
110841,169160,241789,-4.223331889,-4.0893338234,-7.8771719992,881
110990,169211,241708,-4.1671005579,-4.1934216065,-7.8173514342,882
111133,169188,241756,-4.2999022122,-4.0953158799,-7.8221370794,883
111282,169226,241799,-4.2221354777,-4.1072799929,-7.8592258297,884
111423,169214,241784,-4.2305103568,-3.9409788222,-7.8173514342,885
111584,169236,241775,-4.2759739861999995,-4.3585263658999995,-7.8053873212000005,886
111456,169191,241736,-4.2484565263,-4.0354953148999995,-7.836494015,887
110925,169060,241662,-4.2568314054,-4.0331024923,-7.8077801438000005,888
110199,168991,241549,-4.2640098732,-4.1288153963,-7.8400832489,889
109669,168894,241492,-4.1527436223,-4.0809589443,-7.836494015,890
109266,168839,241483,-4.1910287839,-4.1850467274,-7.848458128,891
109128,168833,241492,-4.320241204299999,-4.091726646,-7.8496545393,892
109161,168851,241558,-4.2987058009,-4.030709669699999,-7.7706913935,893
109414,168909,241520,-4.2855452766,-4.0941194686,-7.8149586116,894
109775,168984,241602,-4.3405801963999995,-4.0941194686,-7.8269227246,895
110114,169041,241636,-4.2723847523,-4.140779509300001,-7.8939217574,896
110350,169102,241668,-4.2388852359,-4.2137605985999995,-7.8556365958,897
110567,169142,241712,-4.211367776,-4.0809589443,-7.860422240999999,898
110814,169143,241735,-4.2400816472,-4.1144584607,-7.860422240999999,899
111044,169191,241800,-4.2448672924,-4.0450666053,-7.9334033303,900
111218,169199,241790,-4.1898323726,-3.9625142255999997,-7.785048329099999,901
111457,169214,241807,-4.2448672924,-4.092923057299999,-7.777869861299999,902
111712,169249,241910,-4.3058842687,-4.0749768878,-7.7611201031,903
111916,169329,241912,-4.1934216065,-4.103690759,-7.8269227246,904
112158,169321,241933,-4.1503507997,-4.1347974528,-7.7694949822,905
112392,169345,241955,-4.4434715682,-4.1946180178,-7.6941210703,906
112582,169413,241959,-4.18743955,-4.092923057299999,-7.7982088534,907
112830,169427,242044,-4.4291146326,-4.1563328562,-7.824529902,908
112937,169426,242022,-4.126422573699999,-4.0761732991,-7.785048329099999,909
112704,169316,241965,-4.1647077353,-4.1252261624,-7.7347990545,910
112162,169271,241865,-4.2221354777,-4.2735811636,-7.9106715156,911
111580,169172,241799,-4.2855452766,-3.9948173307,-7.7479595788,912
111213,169124,241763,-4.1455651545,-4.1850467274,-7.7479595788,913
110997,169085,241770,-4.0031922098,-4.103690759,-7.7958160308,914
111018,169137,241827,-4.242474469799999,-4.0773697104,-7.8652078862,915
111257,169161,241847,-4.347758664200001,-4.0211383793,-7.7706913935,916
111513,169272,241971,-4.30708068,-4.0809589443,-7.779066272600001,917
111774,169270,241922,-4.2017964856,-4.2675991071,-7.8771719992,918
111971,169288,241987,-4.2520457602,-4.1539400336,-7.8173514342,919
112106,169278,241934,-4.2448672924,-4.1491543884,-7.8269227246,920
112286,169342,242002,-4.3286160834,-4.2053857195,-7.8089765551,921
112466,169332,242005,-4.2400816472,-4.1324046302,-7.819744256799999,922
112616,169447,242029,-4.3274196721000004,-4.0630127748,-7.8652078862,923
112760,169392,242033,-4.4051864066,-4.2161534212,-7.8173514342,924
112957,169398,242063,-4.1312082188999995,-4.1120656381,-7.819744256799999,925
113157,169417,242119,-4.2161534212,-4.1898323726,-7.8341011924,926
113297,169426,242107,-4.2783668087999995,-4.1491543884,-7.7982088534,927
113425,169452,242118,-4.1575292675,-4.126422573699999,-7.8077801438000005,928
113581,169500,242173,-4.1108692268,-4.0725840652,-7.791030385599999,929
113727,169494,242131,-4.1778682596,-4.1659041466,-7.908278693,930
113718,169467,242174,-4.2843488653,-4.1120656381,-7.874779176600001,931
113334,169377,242121,-4.2017964856,-4.2329031794,-7.779066272600001,932
112618,169311,241987,-4.2293139454999995,-4.0187455567,-7.8628150636,933
112001,169226,241883,-4.208974953399999,-4.127618985,-7.872386354,934
111541,169152,241877,-4.387240237099999,-4.1898323726,-7.8628150636,935
111244,169132,241873,-4.2664026958,-4.0941194686,-7.812565789,936
111128,169129,241897,-4.2448672924,-4.0474594279,-7.7156564737,937
111326,169187,241920,-4.2903309218,-4.115654872,-7.8400832489,938
111579,169220,241988,-4.1718862031,-4.0713876539,-7.8077801438000005,939
111724,169289,241957,-4.1503507997,-4.1347974528,-7.8221370794,940
111852,169317,242027,-4.2544385828,-4.1252261624,-7.8305119585,941
111957,169298,242019,-4.2257247116,-4.1371902754,-7.824529902,942
112091,169315,242053,-4.140779509300001,-4.1730826144,-7.7694949822,943
112217,169297,242028,-4.2185462438,-4.0402809601,-7.7563344578999995,944
112399,169328,242089,-4.3609191885,-4.0965122912,-7.858029418399999,945
112537,169362,242084,-4.2496529376,-4.0737804765,-7.8676007087999995,946
112678,169360,242100,-4.283152454,-4.1539400336,-7.7946196195,947
112837,169405,242125,-4.271188340999999,-4.1312082188999995,-7.8065837325,948
112989,169395,242159,-4.2017964856,-4.1228333398,-7.8975109913,949
113103,169432,242171,-4.2484565263,-4.151547211,-7.7706913935,950
113272,169439,242202,-4.1682969692,-4.0486558392,-7.8819576444,951
113391,169455,242233,-4.2604206393,-4.1730826144,-7.8927253461,952
113327,169442,242157,-4.1934216065,-4.2305103568,-7.7587272805,953
112804,169335,242092,-4.2855452766,-4.1108692268,-7.7982088534,954
112066,169203,241986,-4.1503507997,-4.1850467274,-7.861618652300001,955
111386,169172,241914,-4.0953158799,-4.1802610821999995,-7.872386354,956
110846,169066,241848,-4.4446679795,-4.1539400336,-7.874779176600001,957
110409,169036,241831,-4.2903309218,-4.1347974528,-7.7922267969000005,958
110205,169024,241806,-4.2448672924,-4.237688824599999,-7.7587272805,959
110275,169057,241852,-4.1886359613,-4.1024943476999995,-7.8209406681,960
110471,169076,241909,-4.2460637037,-4.0462630166,-7.7826555065,961
110685,169172,241929,-4.208974953399999,-4.1144584607,-7.791030385599999,962
110843,169170,241939,-4.1503507997,-4.1204405172000005,-7.874779176600001,963
110948,169145,241961,-4.2855452766,-4.1694933805000005,-7.7742806274,964
111084,169183,241937,-4.1970108404,-4.0689948312999995,-7.7934232082,965
111218,169227,241975,-4.2652062845000005,-4.1383866867,-7.7826555065,966
111378,169198,242039,-4.3058842687,-4.0809589443,-7.8017980873,967
111509,169223,242029,-4.3142591478000005,-4.2185462438,-7.8532437732,968
111651,169256,242071,-4.2771703975,-4.1778682596,-7.858029418399999,969
111774,169251,242050,-4.2293139454999995,-4.1431723319,-7.8341011924,970
111882,169299,242083,-4.2125641873,-4.0546378957,-7.8771719992,971
112051,169266,242088,-4.1216369285,-4.126422573699999,-7.7575308692,972
112147,169284,242103,-4.2221354777,-4.1324046302,-7.9058858704,973
112256,169282,242028,-4.3118663252,-4.1862431387,-7.8149586116,974
112011,169191,242078,-4.2699919297,-4.1084764042,-7.829315547199999,975
111448,169105,241932,-4.2484565263,-4.151547211,-7.819744256799999,976
110688,168988,241837,-4.2065821308,-4.113262049399999,-7.7659057483,977
109987,168904,241802,-4.3274196721000004,-4.0594235409,-7.7922267969000005,978
109484,168850,241712,-4.1539400336,-4.0965122912,-7.8341011924,979
109127,168827,241763,-4.2520457602,-4.0606199522,-7.8053873212000005,980
109016,168815,241733,-4.2065821308,-4.1778682596,-7.800601675999999,981
109136,168843,241734,-4.2855452766,-4.0666020087,-7.8412796602,982
109376,168941,241786,-4.1551364449,-3.9684962821,-7.8915289348,983
109621,168977,241833,-4.1336010414999995,-4.1563328562,-7.8077801438000005,984
109788,168988,241825,-4.3274196721000004,-4.0654055974,-7.8556365958,985
109946,169033,241845,-4.175475436999999,-4.091726646,-7.8388868376,986
110127,169031,241864,-4.1682969692,-4.1898323726,-7.8221370794,987
110269,169067,241901,-4.1742790257,-4.1371902754,-7.8819576444,988
110426,169098,241973,-4.2101713647,-4.0582271296000005,-7.848458128,989
110599,169158,241913,-4.2101713647,-4.115654872,-7.8819576444,990
110762,169144,242001,-4.1922251952,-4.175475436999999,-7.752745224,991
110921,169159,242015,-4.2759739861999995,-4.1108692268,-7.8209406681,992
110998,169186,242030,-4.1718862031,-4.139583098,-7.8532437732,993
111197,169166,242039,-4.2723847523,-4.126422573699999,-7.7659057483,994
111328,169202,241990,-4.2173498325,-4.1324046302,-7.832904781100001,995
111457,169188,242066,-4.2065821308,-4.2544385828,-7.7898339743,996
111313,169148,241977,-4.2532421715,-4.1192441059,-7.7814590952,997
110740,169012,241896,-4.1359938641000005,-4.055834307,-7.8556365958,998
110039,168943,241743,-4.18743955,-4.0582271296000005,-7.804190909899999,999
109419,168841,241740,-4.2723847523,-4.2149570099,-7.8508509506,1000
108976,168810,241702,-4.271188340999999,-4.2329031794,-7.7862447404,1001
108837,168790,241725,-4.2185462438,-4.079762533,-7.7659057483,1002
108891,168793,241726,-4.1946180178,-4.1060835816,-7.872386354,1003
109132,168887,241781,-4.2807596314,-4.223331889,-7.8592258297,1004
109455,168957,241810,-4.2879380992,-4.0618163635,-7.8149586116,1005
109714,168987,241826,-4.235296002,-4.0965122912,-7.791030385599999,1006
109901,169011,241888,-4.2879380992,-3.9708891047,-7.7730842161,1007
110096,169050,241867,-4.1623149127,-4.1096728155,-7.7742806274,1008
110275,169065,241912,-4.2496529376,-4.0833517669,-7.829315547199999,1009
110428,169151,241913,-4.3525443094,-4.0211383793,-7.8556365958,1010
110680,169142,241964,-4.3022950348,-4.1096728155,-7.9226356286,1011
110828,169163,242018,-4.1862431387,-4.139583098,-7.829315547199999,1012
111035,169175,242003,-4.2520457602,-4.2017964856,-7.816155022899999,1013
111210,169198,242055,-4.1288153963,-4.151547211,-7.8915289348,1014
111406,169253,242139,-4.2329031794,-4.0689948312999995,-7.8436724828,1015
111587,169270,242128,-4.1431723319,-4.0701912426,-7.7682985709,1016
111787,169289,242117,-4.2735811636,-4.0450666053,-7.800601675999999,1017
111952,169319,242165,-4.2604206393,-4.103690759,-7.7826555065,1018
111922,169315,242117,-4.0989051138,-4.331008906,-7.8915289348,1019
111465,169212,242044,-4.1970108404,-4.175475436999999,-7.8711899427,1020
110824,169121,241917,-4.2616170506,-4.1252261624,-7.8771719992,1021
110279,169047,241896,-4.1910287839,-4.0809589443,-7.791030385599999,1022
109965,169043,241900,-4.2819560427,-4.127618985,-7.8221370794,1023
109813,169039,241895,-4.2017964856,-4.0833517669,-7.8221370794,1024
109921,169063,241904,-4.295116567,-4.0965122912,-7.908278693,1025
110128,169079,241974,-4.319044793,-4.1216369285,-7.752745224,1026
110326,169130,241978,-4.3238304382,-4.259224228,-7.896314579999999,1027
110497,169166,241937,-4.342973019,-4.0187455567,-7.7922267969000005,1028
110581,169194,242035,-4.2675991071,-4.1024943476999995,-7.8412796602,1029
110650,169197,241994,-4.242474469799999,-4.064209186099999,-7.749155990099999,1030
110740,169226,241993,-4.208974953399999,-4.1922251952,-7.872386354,1031
110871,169221,242043,-4.064209186099999,-4.1371902754,-7.812565789,1032
110983,169263,242043,-4.1814574935,-3.9577285803999995,-7.8556365958,1033
111109,169237,242084,-4.1551364449,-4.2340995907,-7.8508509506,1034
111230,169286,242081,-4.2317067681000005,-4.1706897918,-7.874779176600001,1035
111361,169283,242129,-4.2257247116,-4.1216369285,-7.911867926899999,1036
111509,169317,242109,-4.2281175342,-4.1084764042,-7.860422240999999,1037
111617,169346,242147,-4.2520457602,-4.1730826144,-7.8556365958,1038
111761,169387,242121,-4.1898323726,-4.1252261624,-7.831708369799999,1039
111731,169348,242133,-4.2173498325,-4.0689948312999995,-7.8771719992,1040
111264,169252,242032,-4.2664026958,-4.2616170506,-7.7934232082,1041
110568,169105,241868,-4.1431723319,-4.0713876539,-7.860422240999999,1042
109968,169040,241851,-4.1216369285,-4.0989051138,-7.7946196195,1043
109522,169001,241823,-4.2640098732,-4.126422573699999,-7.8233334907000005,1044
109233,168962,241822,-4.2125641873,-4.1300118076,-7.7575308692,1045
109135,168900,241759,-4.2053857195,-4.0833517669,-7.7958160308,1046
109278,168972,241807,-4.353740720699999,-4.0773697104,-7.860422240999999,1047
109489,169004,241829,-4.3226340269,-4.1766718483,-7.8999038139,1048
109675,169073,241856,-4.347758664200001,-4.175475436999999,-7.858029418399999,1049
109844,169074,241850,-4.2185462438,-4.0366917262,-7.775477038699999,1050
109977,169101,241871,-4.127618985,-4.199403663,-7.791030385599999,1051
110117,169123,241857,-4.2855452766,-4.1108692268,-7.831708369799999,1052
110232,169152,241894,-4.271188340999999,-4.0857445895,-7.8101729664,1053
110363,169090,241931,-4.1694933805000005,-4.1048871703,-7.831708369799999,1054
110516,169176,241951,-4.2329031794,-4.163511324,-7.77667345,1055
110678,169153,241981,-4.1862431387,-3.9278182979,-7.8508509506,1056
110841,169204,241922,-4.2448672924,-4.1742790257,-7.824529902,1057
110943,169203,241947,-4.259224228,-4.1024943476999995,-7.8915289348,1058
111106,169218,241965,-4.3118663252,-4.3034914461,-7.7324062319,1059
111234,169232,242002,-4.2017964856,-4.1300118076,-7.8388868376,1060
111339,169219,241997,-4.2843488653,-4.1623149127,-7.8891361122,1061
111229,169159,241970,-4.1898323726,-4.1611185014,-7.8508509506,1062
110708,169069,241846,-4.151547211,-4.139583098,-7.8352976037,1063
110022,168977,241706,-4.1766718483,-4.1563328562,-7.8699935314,1064
109501,168884,241667,-4.2329031794,-4.0737804765,-7.8221370794,1065
109077,168829,241607,-4.4015971727,-4.1347974528,-7.8771719992,1066
108851,168772,241539,-4.2137605985999995,-4.1922251952,-7.872386354,1067
108807,168782,241537,-4.283152454,-4.1216369285,-7.740781111,1068
108993,168827,241599,-4.1958144290999995,-4.1228333398,-7.8508509506,1069
109206,168889,241633,-4.211367776,-4.237688824599999,-7.8927253461,1070
109431,168895,241635,-4.237688824599999,-4.1120656381,-7.8556365958,1071
109628,168925,241642,-4.2448672924,-4.146761565799999,-7.7730842161,1072
109778,168966,241747,-4.2675991071,-4.1192441059,-7.7994052647,1073
109909,169021,241703,-4.2999022122,-4.237688824599999,-7.6965138929000005,1074
110092,169020,241720,-4.3226340269,-4.1491543884,-7.8436724828,1075
110237,169015,241767,-4.271188340999999,-4.097708702499999,-7.8520473619,1076
110341,169039,241772,-4.1096728155,-4.2197426551,-7.8173514342,1077
110552,169055,241802,-4.2137605985999995,-4.0689948312999995,-7.8341011924,1078
110690,169060,241776,-4.1623149127,-4.0211383793,-7.7730842161,1079
110814,169046,241765,-4.2520457602,-4.1108692268,-7.8173514342,1080
110967,169059,241782,-4.237688824599999,-4.2329031794,-7.8783684105,1081
111070,169056,241785,-4.2137605985999995,-4.2939201557,-7.908278693,1082
111161,169033,241745,-4.2484565263,-4.1336010414999995,-7.816155022899999,1083
111049,168998,241722,-4.2927237444,-4.1850467274,-7.8508509506,1084
110502,168870,241607,-4.2532421715,-4.1599220901,-7.812565789,1085
109915,168765,241521,-4.18743955,-4.0630127748,-7.8652078862,1086
109362,168705,241447,-4.2640098732,-4.1419759206,-7.8915289348,1087
109009,168657,241431,-4.0881374121,-4.175475436999999,-7.8699935314,1088
108824,168666,241427,-4.1575292675,-4.1300118076,-7.7946196195,1089
108832,168658,241407,-4.1898323726,-4.1623149127,-7.8795648218,1090
109057,168695,241450,-4.2400816472,-4.0618163635,-7.7874411516999995,1091
109332,168788,241528,-4.2400816472,-4.247260115,-7.8699935314,1092
109574,168829,241568,-4.1228333398,-4.055834307,-7.829315547199999,1093
109770,168855,241610,-4.2891345105,-3.9373895883000003,-7.836494015,1094
110009,168915,241613,-4.258027816699999,-4.0666020087,-7.7479595788,1095
110172,168915,241631,-4.1838503161,-4.0821553556,-7.804190909899999,1096
110411,168948,241667,-4.2221354777,-4.0582271296000005,-7.8341011924,1097
110635,168965,241704,-4.2305103568,-4.1324046302,-7.8628150636,1098
110867,169058,241710,-4.3118663252,-4.0259240245,-7.848458128,1099
111082,169062,241779,-4.3393837851,-4.0522450731,-7.8173514342,1100
111280,169091,241782,-4.3645084224,-4.0211383793,-7.860422240999999,1101
111494,169108,241803,-4.2544385828,-4.1324046302,-7.8269227246,1102
111688,169135,241808,-4.2735811636,-4.151547211,-7.7934232082,1103
111886,169168,241838,-4.208974953399999,-4.1324046302,-7.942974620699999,1104
112111,169219,241878,-4.2652062845000005,-4.0845481781999995,-7.8269227246,1105
112250,169168,241869,-4.2293139454999995,-4.1575292675,-7.7694949822,1106
112011,169096,241783,-4.3214376156,-4.0462630166,-7.7826555065,1107
111513,169038,241745,-4.3022950348,-4.0821553556,-7.846065305400001,1108
111019,169014,241648,-4.1623149127,-4.1611185014,-7.8412796602,1109
110722,168920,241592,-4.3405801963999995,-4.0594235409,-7.8759755879,1110
110502,168922,241604,-4.139583098,-4.127618985,-7.7252277641000004,1111
110505,168918,241600,-4.283152454,-4.0941194686,-7.902296636499999,1112
110710,168956,241625,-4.237688824599999,-4.2017964856,-7.7862447404,1113
110976,169023,241710,-4.208974953399999,-4.1922251952,-7.8221370794,1114
111210,169035,241719,-4.2257247116,-4.1563328562,-7.8436724828,1115
111373,169095,241799,-4.347758664200001,-4.115654872,-7.7300134093,1116
111543,169110,241750,-4.2077785421,-4.247260115,-7.816155022899999,1117
111655,169112,241769,-4.3286160834,-4.0594235409,-7.7563344578999995,1118
111834,169163,241832,-4.3058842687,-4.2460637037,-7.848458128,1119
112004,169150,241798,-4.3022950348,-3.9924245080999996,-7.7718878047999995,1120
112146,169190,241792,-4.2687955184,-4.1001015251,-7.8628150636,1121
112294,169213,241880,-4.2759739861999995,-4.2628134618999995,-7.77667345,1122
112457,169248,241869,-4.2173498325,-4.1419759206,-7.7742806274,1123
112622,169280,241914,-4.2999022122,-4.1312082188999995,-7.8640114749,1124
112775,169280,241883,-4.2855452766,-4.2161534212,-7.8640114749,1125
112904,169295,241895,-4.2759739861999995,-4.0905302347,-7.7982088534,1126
113040,169303,241932,-4.2017964856,-4.1252261624,-7.8173514342,1127
113109,169288,242000,-4.2245283003,-4.242474469799999,-7.7443703449,1128
112825,169241,241853,-4.1790646709,-4.0761732991,-7.791030385599999,1129
112248,169141,241776,-4.2699919297,-4.1443687432,-7.874779176600001,1130
111707,169047,241701,-4.283152454,-4.127618985,-7.829315547199999,1131
111250,168994,241650,-4.1886359613,-4.0773697104,-7.8053873212000005,1132
111008,168976,241614,-4.2221354777,-4.2699919297,-7.846065305400001,1133
110904,168944,241637,-4.2496529376,-4.1216369285,-7.884350467,1134
111004,169018,241648,-4.3238304382,-4.0941194686,-7.8628150636,1135
111202,169076,241677,-4.2317067681000005,-4.0091742663,-7.8436724828,1136
111334,169090,241677,-4.235296002,-4.1491543884,-7.8412796602,1137
111484,169112,241722,-4.1647077353,-4.1072799929,-7.8113693777,1138
111559,169132,241774,-4.1838503161,-4.2388852359,-7.8819576444,1139
111669,169162,241751,-4.1671005579,-4.06779842,-7.775477038699999,1140
111754,169152,241761,-4.2903309218,-4.1503507997,-7.8987074025999995,1141
111889,169164,241786,-4.1192441059,-4.1216369285,-7.8520473619,1142
112023,169218,241815,-4.1312082188999995,-4.1671005579,-7.9034930478000005,1143
112165,169174,241780,-4.283152454,-4.1503507997,-7.7814590952,1144
112285,169208,241843,-4.1790646709,-4.1072799929,-7.8221370794,1145
112436,169233,241838,-4.1455651545,-4.1443687432,-7.819744256799999,1146
112555,169282,241893,-4.3369909625,-4.097708702499999,-7.7300134093,1147
112734,169299,241882,-4.1455651545,-4.1886359613,-7.8233334907000005,1148
112821,169284,241851,-4.2759739861999995,-4.1012979364,-7.812565789,1149
112827,169263,241830,-4.2532421715,-4.0618163635,-7.846065305400001,1150
112387,169170,241762,-4.2137605985999995,-4.0689948312999995,-7.8436724828,1151
111750,169071,241665,-4.211367776,-4.1802610821999995,-7.886743289599999,1152
111100,168954,241579,-4.2173498325,-4.1060835816,-7.836494015,1153
110567,168958,241518,-4.1790646709,-3.9864424516000003,-7.8676007087999995,1154
110233,168847,241505,-4.1982072517,-4.1922251952,-7.785048329099999,1155
109967,168878,241465,-4.2544385828,-4.1240297511,-7.7443703449,1156
109954,168868,241448,-4.271188340999999,-4.1718862031,-7.8341011924,1157
110167,168942,241570,-4.1479579771,-4.1312082188999995,-7.824529902,1158
110352,168983,241548,-4.2855452766,-4.1898323726,-7.925028451199999,1159
110515,169005,241581,-4.3441694303,-4.2364924133,-7.7874411516999995,1160
110664,169004,241532,-4.2903309218,-4.1527436223,-7.7994052647,1161
110779,169060,241593,-4.2245283003,-4.1168512833,-7.7718878047999995,1162
110881,169066,241623,-4.0390845488,-4.0857445895,-7.7982088534,1163
111054,169071,241589,-4.2640098732,-4.1383866867,-7.8556365958,1164
111166,169045,241629,-4.211367776,-4.2640098732,-7.8508509506,1165
111274,169071,241641,-4.2640098732,-4.0965122912,-7.8915289348,1166
111405,169099,241675,-4.3214376156,-4.064209186099999,-7.777869861299999,1167
111471,169103,241622,-4.2101713647,-4.1204405172000005,-7.8436724828,1168
111638,169108,241675,-4.1108692268,-4.103690759,-7.812565789,1169
111721,169120,241706,-4.18743955,-4.1072799929,-7.7587272805,1170
111873,169091,241674,-4.2436708811,-4.127618985,-7.8676007087999995,1171
111822,169047,241694,-4.2221354777,-4.1527436223,-7.8137622003,1172
111428,168990,241585,-4.2903309218,-4.115654872,-7.829315547199999,1173
110757,168885,241444,-4.1766718483,-4.1180476945999995,-7.846065305400001,1174
110067,168774,241343,-4.3118663252,-4.1706897918,-7.7862447404,1175
109494,168721,241289,-4.1982072517,-4.1730826144,-7.8855468783,1176
109105,168690,241246,-4.2029928969000006,-4.2017964856,-7.8065837325,1177
108898,168656,241246,-4.2065821308,-4.0833517669,-7.7611201031,1178
108952,168700,241263,-4.1922251952,-4.237688824599999,-7.824529902,1179
109210,168771,241352,-4.1970108404,-4.2006000743,-7.848458128,1180
109423,168810,241407,-4.2340995907,-4.1168512833,-7.8795648218,1181
109577,168836,241366,-4.2185462438,-4.1934216065,-7.7659057483,1182
109696,168871,241413,-4.2305103568,-4.1383866867,-7.846065305400001,1183
109923,168895,241419,-4.2293139454999995,-4.2161534212,-7.8676007087999995,1184
110095,168950,241486,-4.2975093896,-4.0534414844,-7.8209406681,1185
110271,168968,241521,-4.295116567,-4.1347974528,-7.8891361122,1186
110352,168981,241562,-4.3884366484,-4.2867416879,-7.8101729664,1187
110643,168996,241511,-4.1336010414999995,-4.079762533,-7.8029944985999995,1188
110833,169078,241547,-4.2568314054,-4.1001015251,-7.8771719992,1189
111018,169008,241619,-4.3992043501,-4.1958144290999995,-7.836494015,1190
111179,169063,241594,-4.3453658416,-4.0606199522,-7.7108708285,1191
111329,169088,241594,-4.366901245,-4.18743955,-7.785048329099999,1192
111479,169104,241624,-4.242474469799999,-4.1048871703,-7.8101729664,1193
111631,169102,241681,-4.30708068,-4.1647077353,-7.8173514342,1194
111584,169032,241557,-4.3680976563,-4.2077785421,-7.7156564737,1195
111100,168983,241489,-4.319044793,-4.1706897918,-7.7934232082,1196
110490,168870,241426,-4.2855452766,-4.0151563228,-7.872386354,1197
109970,168835,241329,-4.2747775749,-4.1455651545,-7.9011002251999995,1198
109615,168766,241305,-4.1790646709,-4.1060835816,-7.858029418399999,1199
109455,168787,241347,-4.2329031794,-4.247260115,-7.7730842161,1200
109569,168821,241324,-4.2281175342,-4.1886359613,-7.7742806274,1201
109845,168862,241442,-4.2329031794,-4.146761565799999,-7.8209406681,1202
110048,168922,241426,-4.2305103568,-4.2317067681000005,-7.8556365958,1203
110276,168956,241461,-4.1886359613,-4.1048871703,-7.7874411516999995,1204
110453,168967,241509,-4.2388852359,-4.0354953148999995,-7.8544401845,1205
110580,169011,241525,-4.2400816472,-4.0761732991,-7.846065305400001,1206
110786,169009,241587,-4.3250268494999995,-4.1946180178,-7.7874411516999995,1207
110971,169053,241557,-4.320241204299999,-4.0570307183,-7.7838519178,1208
111056,169098,241596,-4.1790646709,-4.2436708811,-7.8532437732,1209
111346,169147,241588,-4.242474469799999,-3.9876388629,-7.791030385599999,1210
111557,169175,241633,-4.3369909625,-4.1419759206,-7.8341011924,1211
111696,169164,241660,-4.1826539048,-3.9876388629,-7.7814590952,1212
111941,169194,241705,-4.1934216065,-4.127618985,-7.763512925700001,1213
112129,169226,241742,-4.2999022122,-4.1012979364,-7.8281191359,1214
112340,169255,241756,-4.2664026958,-4.1001015251,-7.8915289348,1215
112509,169253,241822,-4.283152454,-4.2364924133,-7.7826555065,1216
112611,169261,241767,-4.1527436223,-4.1647077353,-7.8185478454999995,1217
112433,169241,241724,-4.0606199522,-4.0785661217,-7.836494015,1218
111913,169136,241603,-4.1527436223,-4.1048871703,-7.8424760715,1219
111400,169077,241547,-4.2017964856,-3.9948173307,-7.7742806274,1220
111006,169022,241532,-4.2448672924,-4.055834307,-7.8412796602,1221
110805,169028,241511,-4.2149570099,-4.092923057299999,-7.8412796602,1222
110808,169022,241519,-4.2400816472,-4.0163527341,-7.908278693,1223
111027,169082,241575,-4.1898323726,-4.0522450731,-7.7946196195,1224
111273,169118,241616,-4.1575292675,-4.0426737827,-7.804190909899999,1225
111454,169151,241637,-4.3680976563,-4.0630127748,-7.824529902,1226
111614,169132,241678,-4.2388852359,-4.0534414844,-7.8149586116,1227
111723,169188,241656,-4.2293139454999995,-4.151547211,-7.7383882884,1228
111860,169208,241663,-4.3740797127999995,-4.0761732991,-7.7982088534,1229
111907,169272,241685,-4.247260115,-4.1072799929,-7.779066272600001,1230
112035,169225,241737,-4.3250268494999995,-4.1706897918,-7.8819576444,1231
112172,169278,241727,-4.3166519704,-4.1659041466,-7.8221370794,1232
112300,169281,241679,-4.3334017286,-4.1084764042,-7.8281191359,1233
112427,169327,241741,-4.2364924133,-4.0115670889,-7.8532437732,1234
112531,169330,241754,-4.283152454,-4.242474469799999,-7.8891361122,1235
112654,169343,241772,-4.223331889,-4.1946180178,-7.819744256799999,1236
112817,169351,241813,-4.3657048337,-4.0905302347,-7.8029944985999995,1237
112949,169385,241852,-4.2544385828,-4.175475436999999,-7.7324062319,1238
112865,169369,241769,-4.1431723319,-4.0498522505,-7.777869861299999,1239
112337,169244,241720,-4.2125641873,-4.1252261624,-7.749155990099999,1240
111701,169152,241581,-4.2257247116,-4.0426737827,-7.8508509506,1241
111104,169073,241489,-4.2687955184,-4.2137605985999995,-7.8412796602,1242
110689,169021,241535,-4.331008906,-4.1180476945999995,-7.836494015,1243
110424,168958,241412,-4.2640098732,-4.1539400336,-7.804190909899999,1244
110361,169023,241447,-4.2281175342,-4.1503507997,-7.779066272600001,1245
110501,169059,241483,-4.3740797127999995,-4.1048871703,-7.7898339743,1246
110703,169075,241509,-4.3250268494999995,-4.1216369285,-7.7958160308,1247
110912,169133,241569,-4.2496529376,-4.1934216065,-7.9106715156,1248
111077,169136,241574,-4.1838503161,-4.1168512833,-7.791030385599999,1249
111183,169166,241606,-4.092923057299999,-4.1204405172000005,-7.872386354,1250
111296,169169,241576,-4.3381873738,-4.0654055974,-7.8113693777,1251
111401,169178,241609,-4.259224228,-4.0905302347,-7.846065305400001,1252
111604,169193,241627,-4.175475436999999,-4.2077785421,-7.8388868376,1253
111670,169253,241674,-4.2305103568,-4.208974953399999,-7.9178499834,1254
111855,169258,241628,-4.3968115275,-4.2496529376,-7.8089765551,1255
111968,169254,241689,-4.1539400336,-4.2532421715,-7.7982088534,1256
112120,169274,241703,-4.2173498325,-4.1024943476999995,-7.8939217574,1257
112273,169290,241732,-4.2747775749,-4.1012979364,-7.8508509506,1258
112419,169297,241730,-4.2400816472,-4.1802610821999995,-7.764709337,1259
112507,169291,241734,-4.242474469799999,-4.2269211229,-7.858029418399999,1260
112378,169239,241733,-4.2101713647,-4.1120656381,-7.8341011924,1261
111828,169123,241536,-4.1982072517,-3.9684962821,-7.920242806,1262
111154,169023,241444,-4.1503507997,-4.1084764042,-7.8496545393,1263
110483,168938,241357,-4.3334017286,-4.1072799929,-7.8221370794,1264
110035,168902,241363,-4.0953158799,-4.1563328562,-7.8233334907000005,1265
109725,168859,241332,-4.3226340269,-4.2041893082,-7.9070822817,1266
109583,168882,241264,-4.2245283003,-4.1312082188999995,-7.779066272600001,1267
109701,168927,241291,-4.2305103568,-4.1108692268,-7.8412796602,1268
109934,168959,241337,-4.1539400336,-4.1790646709,-7.777869861299999,1269
110169,168987,241371,-4.211367776,-4.146761565799999,-7.819744256799999,1270
110255,168991,241393,-4.1551364449,-4.0606199522,-7.7395846997,1271
110423,169041,241395,-4.1970108404,-4.2245283003,-7.884350467,1272
110550,169044,241421,-4.2257247116,-4.0761732991,-7.779066272600001,1273
110638,169038,241444,-4.2305103568,-4.0701912426,-7.7802626839,1274
110791,169064,241425,-4.1982072517,-4.0067814437,-7.874779176600001,1275
110937,169085,241423,-4.1730826144,-4.0725840652,-7.7958160308,1276
111078,169078,241442,-4.2795632201,-4.1024943476999995,-7.8496545393,1277
111168,169084,241466,-4.1922251952,-4.139583098,-7.7958160308,1278
111328,169085,241467,-4.1599220901,-4.1192441059,-7.8221370794,1279
111433,169101,241483,-4.3357945512,-4.175475436999999,-7.7706913935,1280
111553,169123,241509,-4.2915273330999995,-3.9948173307,-7.8341011924,1281
111657,169105,241523,-4.2041893082,-4.3417766077,-7.8436724828,1282
111574,169045,241429,-4.354937132,-4.1706897918,-7.7587272805,1283
111090,168960,241396,-4.1958144290999995,-4.0785661217,-7.8053873212000005,1284
110388,168855,241226,-4.3453658416,-4.0833517669,-7.8412796602,1285
109762,168782,241136,-4.4099720518000005,-4.0606199522,-7.8053873212000005,1286
109317,168736,241119,-4.2484565263,-4.0725840652,-7.775477038699999,1287
109102,168725,241132,-4.3118663252,-4.1563328562,-7.785048329099999,1288
109010,168787,241161,-4.2065821308,-4.2735811636,-7.8173514342,1289
109218,168820,241163,-4.2843488653,-4.126422573699999,-7.804190909899999,1290
109514,168855,241229,-4.1527436223,-4.1431723319,-7.860422240999999,1291
109733,168908,241255,-4.2460637037,-4.1730826144,-7.7946196195,1292
109949,168987,241295,-4.223331889,-4.1778682596,-7.7706913935,1293
110159,168991,241331,-4.3381873738,-4.1850467274,-7.858029418399999,1294
110283,169007,241319,-4.2101713647,-4.1539400336,-7.846065305400001,1295
110421,169044,241370,-4.2017964856,-4.18743955,-7.8065837325,1296
110631,169128,241402,-4.3154555591,-4.1575292675,-7.7706913935,1297
110785,169095,241423,-4.2640098732,-4.2029928969000006,-7.750352401400001,1298
110996,169120,241436,-4.223331889,-4.06779842,-7.846065305400001,1299
111181,169130,241456,-4.2807596314,-4.0450666053,-7.7599236918,1300
111366,169184,241445,-4.2999022122,-4.0223347905999995,-7.752745224,1301
111555,169255,241498,-4.2460637037,-4.1718862031,-7.7862447404,1302
111746,169290,241551,-4.2520457602,-4.0965122912,-7.8412796602,1303
111942,169234,241567,-4.2329031794,-4.030709669699999,-7.785048329099999,1304
112047,169277,241584,-4.2783668087999995,-4.097708702499999,-7.8149586116,1305
111798,169210,241496,-4.2412780585,-4.0893338234,-7.7730842161,1306
111266,169120,241370,-4.0689948312999995,-4.1180476945999995,-7.819744256799999,1307
110663,169034,241348,-4.1575292675,-4.0618163635,-7.829315547199999,1308
110231,169052,241319,-4.2065821308,-4.1324046302,-7.8388868376,1309
110007,168997,241213,-4.1886359613,-4.0785661217,-7.812565789,1310
110002,169072,241288,-4.2400816472,-4.091726646,-7.7706913935,1311
110187,169052,241381,-4.2412780585,-4.0689948312999995,-7.836494015,1312
110394,169129,241356,-4.235296002,-4.0821553556,-7.7611201031,1313
110590,169114,241413,-4.2077785421,-4.0737804765,-7.860422240999999,1314
110719,169154,241431,-4.3716868902,-4.1192441059,-7.7443703449,1315
110869,169201,241415,-4.2783668087999995,-4.0283168471,-7.812565789,1316
110980,169212,241471,-4.3453658416,-4.1491543884,-7.7802626839,1317
111137,169227,241450,-4.2508493489,-4.2329031794,-7.858029418399999,1318
111274,169216,241477,-4.1383866867,-4.0654055974,-7.7982088534,1319
111417,169245,241502,-4.4063828179,-4.0965122912,-7.836494015,1320
111582,169290,241502,-4.1359938641000005,-4.097708702499999,-7.8628150636,1321
111771,169304,241574,-4.223331889,-4.1024943476999995,-7.7874411516999995,1322
111921,169301,241545,-4.199403663,-4.126422573699999,-7.9166535721,1323
112040,169360,241541,-4.2185462438,-4.030709669699999,-7.7898339743,1324
112171,169327,241574,-4.3118663252,-4.0510486617999995,-7.8424760715,1325
112309,169345,241554,-4.2041893082,-4.0965122912,-7.872386354,1326
112284,169338,241531,-4.2305103568,-4.1575292675,-7.752745224,1327
111822,169304,241445,-4.2927237444,-4.2125641873,-7.749155990099999,1328
111212,169165,241340,-4.2257247116,-4.1802610821999995,-7.872386354,1329
110608,169064,241264,-4.247260115,-4.175475436999999,-7.8281191359,1330
110215,169050,241253,-4.1766718483,-4.0235312019,-7.848458128,1331
109931,169015,241219,-4.30708068,-4.1383866867,-7.7682985709,1332
109895,169040,241262,-4.3800617693,-4.113262049399999,-7.8017980873,1333
110050,169047,241252,-4.3250268494999995,-3.9804603951,-7.836494015,1334
110232,169068,241297,-4.2041893082,-4.1144584607,-7.764709337,1335
110399,169127,241270,-4.1192441059,-4.1503507997,-7.8376904263,1336
110505,169137,241339,-4.1647077353,-4.2209390664,-7.7814590952,1337
110621,169102,241319,-4.2484565263,-4.064209186099999,-7.8089765551,1338
110739,169181,241341,-4.2903309218,-4.030709669699999,-7.8388868376,1339
110835,169168,241272,-4.2101713647,-4.1180476945999995,-7.846065305400001,1340
110930,169199,241320,-4.1934216065,-4.1898323726,-7.8089765551,1341
111059,169160,241333,-4.1252261624,-4.2077785421,-7.8676007087999995,1342
111237,169214,241362,-4.2305103568,-4.1096728155,-7.788637563,1343
111395,169217,241395,-4.2687955184,-4.258027816699999,-7.858029418399999,1344
111530,169243,241402,-4.2568314054,-4.1288153963,-7.8819576444,1345
111699,169262,241368,-4.3740797127999995,-4.0881374121,-7.812565789,1346
111821,169278,241378,-4.2436708811,-4.0139599115,-7.804190909899999,1347
111959,169284,241412,-4.2329031794,-4.1024943476999995,-7.7001031268,1348
111768,169253,241345,-4.1671005579,-4.163511324,-7.785048329099999,1349
111269,169162,241262,-4.2640098732,-4.0103706776,-7.8257263133,1350
110652,169067,241126,-4.235296002,-4.1347974528,-7.8269227246,1351
110146,168996,241087,-4.2735811636,-4.18743955,-7.886743289599999,1352
109759,168945,241066,-4.2616170506,-3.9828532177,-7.848458128,1353
109545,168918,241090,-4.208974953399999,-4.1084764042,-7.8149586116,1354
109454,168915,241028,-4.3094735026,-4.1898323726,-7.860422240999999,1355
109613,168984,241034,-4.1946180178,-4.208974953399999,-7.7132636511,1356
109832,169033,241098,-4.1814574935,-4.0546378957,-7.7742806274,1357
110018,169026,241110,-4.3082770913,-4.1048871703,-7.9525459111,1358
110163,169100,241088,-4.2795632201,-4.1096728155,-7.7826555065,1359
110296,169081,241139,-4.2400816472,-4.0067814437,-7.762316514399999,1360
110434,169089,241155,-4.2628134618999995,-4.1682969692,-7.9058858704,1361
110568,169125,241159,-4.2532421715,-4.1766718483,-7.8221370794,1362
110689,169112,241170,-4.2807596314,-4.079762533,-7.8652078862,1363
110875,169125,241144,-4.2687955184,-4.0426737827,-7.7934232082,1364
110984,169119,241164,-4.2006000743,-4.1563328562,-7.7802626839,1365
111109,169141,241182,-4.2149570099,-4.0582271296000005,-7.836494015,1366
111236,169165,241174,-4.1958144290999995,-4.0785661217,-7.846065305400001,1367
111385,169162,241180,-4.271188340999999,-4.2484565263,-7.7324062319,1368
111485,169126,241209,-4.1802610821999995,-4.1659041466,-7.908278693,1369
111494,169159,241229,-4.1551364449,-4.0905302347,-7.8412796602,1370
111358,169124,241102,-4.2927237444,-4.1347974528,-7.8149586116,1371
110837,168982,241005,-4.295116567,-4.0713876539,-7.873582765299999,1372
110265,168899,240911,-4.2987058009,-4.1024943476999995,-7.7934232082,1373
109799,168810,240888,-4.2879380992,-4.1623149127,-7.8652078862,1374
109455,168805,240840,-4.1647077353,-4.1587256788,-7.8628150636,1375
109268,168759,240800,-4.211367776,-4.3489550755,-7.8556365958,1376
109271,168801,240826,-4.4231325760999995,-4.2161534212,-7.8915289348,1377
109487,168854,240885,-4.3609191885,-4.127618985,-7.7300134093,1378
109678,168886,240928,-4.3238304382,-4.0570307183,-7.819744256799999,1379
109990,168960,240974,-4.2077785421,-4.0857445895,-7.8281191359,1380
110222,168929,241013,-4.2364924133,-4.1324046302,-7.9011002251999995,1381
110409,169016,241018,-4.2544385828,-4.1826539048,-7.9130643382,1382
110614,169055,240997,-4.146761565799999,-4.0953158799,-7.824529902,1383
110801,169082,241086,-4.2281175342,-4.113262049399999,-7.8699935314,1384
111010,169100,241057,-4.3334017286,-4.1647077353,-7.8436724828,1385
111239,169144,241080,-4.242474469799999,-4.1060835816,-7.8173514342,1386
111451,169189,241129,-4.2903309218,-4.2017964856,-7.8556365958,1387
111663,169217,241212,-4.3692940676,-4.2460637037,-7.7898339743,1388
111859,169186,241162,-4.1706897918,-4.103690759,-7.8388868376,1389
112071,169250,241214,-4.2699919297,-4.1982072517,-7.7802626839,1390
112268,169281,241265,-4.2568314054,-4.146761565799999,-7.7934232082,1391
112456,169292,241281,-4.2699919297,-4.18743955,-7.836494015,1392
112539,169243,241289,-4.319044793,-4.2006000743,-7.7862447404,1393
112276,169194,241222,-4.295116567,-4.0905302347,-7.8508509506,1394
111838,169128,241035,-4.2149570099,-4.030709669699999,-7.925028451199999,1395
111435,169061,241049,-4.3238304382,-4.1300118076,-7.8556365958,1396
111077,169008,241070,-4.3357945512,-4.1347974528,-7.836494015,1397
111032,169050,241033,-4.2855452766,-4.2412780585,-7.8269227246,1398
111076,169077,241112,-4.1934216065,-4.1587256788,-7.8185478454999995,1399
111326,169102,241152,-4.3130627365,-4.175475436999999,-7.8077801438000005,1400
111556,169154,241184,-4.1850467274,-4.1814574935,-7.7694949822,1401
111752,169174,241175,-4.2508493489,-4.1970108404,-7.777869861299999,1402
111908,169215,241206,-4.2843488653,-4.0785661217,-7.8269227246,1403
112097,169231,241227,-4.1479579771,-4.163511324,-7.8676007087999995,1404
112217,169232,241186,-4.2197426551,-4.1611185014,-7.8101729664,1405
112392,169292,241246,-4.1790646709,-4.1204405172000005,-7.884350467,1406
112564,169285,241272,-4.2699919297,-4.1694933805000005,-7.8388868376,1407
112736,169292,241263,-4.2412780585,-4.139583098,-7.8699935314,1408
112912,169294,241359,-4.223331889,-4.208974953399999,-7.7228349415,1409
113066,169339,241350,-4.3046878574,-4.1718862031,-7.8221370794,1410
113225,169392,241331,-4.2221354777,-4.091726646,-7.8185478454999995,1411
113369,169441,241413,-4.3752761241,-4.1778682596,-7.8053873212000005,1412
113589,169411,241411,-4.199403663,-4.1659041466,-7.8173514342,1413
113675,169440,241446,-4.2807596314,-4.2257247116,-7.8556365958,1414
113644,169404,241366,-4.126422573699999,-4.0666020087,-7.8436724828,1415
113260,169310,241286,-4.3178483817,-4.0510486617999995,-7.824529902,1416
112694,169244,241189,-4.242474469799999,-4.1216369285,-7.763512925700001,1417
112196,169196,241164,-4.2197426551,-4.1371902754,-7.8017980873,1418
111844,169132,241125,-4.2006000743,-4.1108692268,-7.8137622003,1419
111621,169131,241158,-4.2520457602,-4.1563328562,-7.7682985709,1420
111620,169158,241155,-4.2903309218,-4.103690759,-7.8137622003,1421
111810,169198,241173,-4.2053857195,-4.06779842,-7.8173514342,1422
111961,169229,241235,-4.331008906,-4.1802610821999995,-7.816155022899999,1423
112092,169233,241249,-4.2520457602,-4.1491543884,-7.7515488127,1424
112189,169259,241271,-4.1419759206,-4.1946180178,-7.860422240999999,1425
112279,169252,241238,-4.1503507997,-4.0115670889,-7.7958160308,1426
112372,169302,241262,-4.3274196721000004,-4.1575292675,-7.846065305400001,1427
112538,169275,241260,-4.1814574935,-4.1084764042,-7.8412796602,1428
112637,169296,241298,-4.208974953399999,-4.1599220901,-7.816155022899999,1429
112763,169323,241315,-4.2843488653,-4.2221354777,-7.8436724828,1430
112899,169335,241301,-4.1946180178,-4.0115670889,-7.7934232082,1431
113070,169349,241346,-4.2185462438,-4.0761732991,-7.831708369799999,1432
113172,169350,241342,-4.2065821308,-4.115654872,-7.8879397009000005,1433
113302,169366,241332,-4.2747775749,-4.2137605985999995,-7.7706913935,1434
113430,169401,241399,-4.3166519704,-4.1204405172000005,-7.8173514342,1435
113498,169399,241371,-4.2006000743,-4.2125641873,-7.7982088534,1436
113174,169297,241313,-4.30708068,-4.1096728155,-7.829315547199999,1437
112585,169207,241218,-4.2496529376,-4.0247276132000005,-7.8400832489,1438
111958,169099,241113,-4.2125641873,-4.271188340999999,-7.8628150636,1439
111461,169050,241090,-4.1922251952,-4.0163527341,-7.7934232082,1440
111016,168960,241037,-4.2281175342,-4.146761565799999,-7.8257263133,1441
110749,168907,240967,-4.1958144290999995,-4.031906081,-7.848458128,1442
110708,168958,240997,-4.163511324,-4.211367776,-7.800601675999999,1443
110846,169004,241058,-4.1647077353,-4.2041893082,-7.800601675999999,1444
111091,169041,241082,-4.1120656381,-4.0953158799,-7.836494015,1445
111243,169112,241144,-4.3118663252,-4.1958144290999995,-7.7730842161,1446
111399,169103,241118,-4.2699919297,-4.139583098,-7.775477038699999,1447
111522,169142,241160,-4.3896330597,-4.06779842,-7.8137622003,1448
111639,169118,241129,-4.283152454,-4.1060835816,-7.7539416353,1449
111766,169140,241171,-4.3118663252,-4.1336010414999995,-7.7443703449,1450
111920,169138,241203,-4.2317067681000005,-4.2364924133,-7.858029418399999,1451
112049,169179,241216,-4.1838503161,-4.126422573699999,-7.8556365958,1452
112178,169210,241221,-4.2783668087999995,-4.163511324,-7.8017980873,1453
112300,169175,241223,-4.2999022122,-4.0570307183,-7.831708369799999,1454
112504,169200,241284,-4.127618985,-4.1108692268,-7.824529902,1455
112598,169201,241248,-4.3357945512,-4.0115670889,-7.7838519178,1456
112681,169226,241271,-4.2137605985999995,-4.0498522505,-7.8496545393,1457
112634,169169,241262,-4.2077785421,-4.1850467274,-7.7934232082,1458
112370,169088,241134,-4.2520457602,-4.0881374121,-7.737191877099999,1459
111752,168981,241075,-4.0833517669,-4.0331024923,-7.846065305400001,1460
111093,168882,240956,-4.2281175342,-4.1611185014,-7.7730842161,1461
110568,168815,240910,-4.2448672924,-4.1826539048,-7.896314579999999,1462
110236,168789,240897,-4.2041893082,-4.1359938641000005,-7.8269227246,1463
110041,168787,240869,-4.1455651545,-4.0809589443,-7.848458128,1464
110059,168816,240876,-4.1611185014,-4.1671005579,-7.8436724828,1465
110305,168882,240941,-4.2197426551,-4.103690759,-7.749155990099999,1466
110537,168933,240984,-4.3142591478000005,-4.1455651545,-7.874779176600001,1467
110674,168920,241034,-4.2939201557,-4.079762533,-7.848458128,1468
110882,168969,241012,-4.140779509300001,-4.146761565799999,-7.764709337,1469
111035,168999,241093,-4.2640098732,-4.2747775749,-7.8436724828,1470
111207,169042,241129,-4.2616170506,-4.0043886211,-7.7982088534,1471
111373,169071,241137,-4.1575292675,-4.0223347905999995,-7.7958160308,1472
111543,169078,241155,-4.3046878574,-4.1060835816,-7.8819576444,1473
111748,169098,241167,-4.3274196721000004,-4.1168512833,-7.7252277641000004,1474
111920,169139,241211,-4.2006000743,-4.1096728155,-7.77667345,1475
112100,169147,241217,-4.140779509300001,-4.0283168471,-7.8676007087999995,1476
112284,169218,241260,-4.247260115,-4.2209390664,-7.874779176600001,1477
112517,169163,241260,-4.2448672924,-4.1898323726,-7.886743289599999,1478
112652,169180,241302,-4.2484565263,-4.1599220901,-7.824529902,1479
112801,169204,241317,-4.2041893082,-4.2269211229,-7.777869861299999,1480
112806,169197,241244,-4.2783668087999995,-4.1192441059,-7.8173514342,1481
112333,169071,241185,-4.2269211229,-4.0809589443,-7.8341011924,1482
111720,168979,241096,-4.2006000743,-3.9649070482,-7.7934232082,1483
111253,168940,241064,-4.3633120111,-4.1001015251,-7.7814590952,1484
110958,168898,241049,-4.2029928969000006,-4.0941194686,-7.848458128,1485
110827,168908,241090,-4.259224228,-4.1371902754,-7.8185478454999995,1486
110952,168997,241126,-4.3381873738,-4.2006000743,-7.8699935314,1487
111231,169015,241116,-4.2807596314,-4.1694933805000005,-7.860422240999999,1488
111474,169081,241201,-4.1814574935,-4.1814574935,-7.8257263133,1489
111729,169093,241276,-4.2759739861999995,-4.1850467274,-7.8388868376,1490
111926,169175,241297,-4.2807596314,-4.1228333398,-7.8699935314,1491
112166,169203,241299,-4.2879380992,-4.0331024923,-7.7706913935,1492
112274,169203,241345,-4.3082770913,-3.9996029759000002,-7.7587272805,1493
112445,169220,241359,-4.295116567,-4.1072799929,-7.8699935314,1494
112640,169247,241390,-4.2927237444,-4.1611185014,-7.7898339743,1495
112775,169263,241419,-4.0857445895,-4.1024943476999995,-7.831708369799999,1496
112984,169305,241452,-4.1946180178,-3.9349967657,-7.7934232082,1497
113194,169355,241522,-4.3022950348,-4.1599220901,-7.8556365958,1498
113405,169348,241521,-4.3848474145,-4.0821553556,-7.785048329099999,1499
113545,169409,241572,-4.347758664200001,-4.2317067681000005,-7.7706913935,1500
113745,169408,241594,-4.2388852359,-4.079762533,-7.775477038699999,1501
113914,169416,241622,-4.1862431387,-4.115654872,-7.8771719992,1502
114002,169418,241604,-4.259224228,-4.113262049399999,-7.704888771999999,1503
113701,169388,241557,-4.18743955,-4.1048871703,-7.884350467,1504
113167,169281,241465,-4.295116567,-4.0821553556,-7.779066272600001,1505
112675,169201,241385,-4.3154555591,-4.1790646709,-7.8652078862,1506
112370,169171,241313,-4.2664026958,-4.0067814437,-7.8628150636,1507
112220,169166,241401,-4.2197426551,-4.235296002,-7.7934232082,1508
112285,169173,241395,-4.3286160834,-4.1012979364,-7.9011002251999995,1509
112415,169223,241466,-4.2197426551,-4.1096728155,-7.8939217574,1510
112765,169270,241558,-4.4004007614,-4.1300118076,-7.788637563,1511
112937,169274,241500,-4.2053857195,-4.06779842,-7.8676007087999995,1512
113060,169342,241541,-4.2053857195,-4.115654872,-7.872386354,1513
113227,169332,241586,-4.3645084224,-4.18743955,-7.8759755879,1514
113288,169365,241628,-4.2364924133,-4.2041893082,-7.8508509506,1515
113381,169418,241568,-4.1730826144,-4.146761565799999,-7.8556365958,1516
113555,169401,241630,-4.271188340999999,-4.0498522505,-7.7946196195,1517
113644,169405,241624,-4.0881374121,-4.1060835816,-7.6989067155,1518
