green,red,IR,acc_x,acc_y,acc_z,sample_index
109056,170896,235078,7.695317481599999,-3.8548372086000002,-4.677968183,1
109382,170934,235141,7.6701928443,-3.9254254753,-4.6995035864000005,2
109703,170941,235183,7.6115686905999995,-3.8093735792,-4.6552363683,3
110036,170939,235164,7.6486574409,-3.7627135385,-4.7676990305,4
110291,171003,235133,7.637889739199999,-3.9445680561,-4.7306102802,5
110223,170967,235166,7.692924659,-3.8668013215999997,-4.7928236678,6
109245,170862,235049,7.6474610296,-3.7399817238,-4.7210389898,7
107737,170738,234948,7.5936225210999995,-3.8045879339999997,-4.6887358847,8
106392,170576,234949,7.7060851833,-3.9338003543999998,-4.7593241513999995,9
105426,170540,234848,7.6630143765,-3.7256247882,-4.7808595548,10
104912,170527,234816,7.654639497399999,-3.8404802730000003,-4.7330031028,11
104845,170499,234814,7.7001031268,-3.8500515634,-4.6504507231,12
105129,170507,234816,7.735995465799999,-3.7890345870999997,-4.7401815706,13
105601,170606,234869,7.704888771999999,-3.8141592244,-4.7222354011,14
105990,170602,234825,7.6187471584,-3.7698920062999997,-4.6983071751,15
106265,170648,234912,7.6343005053,-3.8213376922,-4.6707897152,16
106438,170549,234885,7.6821569573,-3.6502508763,-4.773681087,17
106612,170653,234890,7.5936225210999995,-3.7770704741,-4.7090748768,18
106867,170662,234892,7.666603610399999,-3.8500515634,-4.7162533446,19
107102,170684,234946,7.667800021700001,-3.7088750299999997,-4.7066820542,20
107472,170714,234935,7.6175507471,-3.7495530142,-4.701896409,21
107851,170780,235007,7.666603610399999,-3.7998022888,-4.7042892316,22
108269,170787,235030,7.6869426025,-3.7495530142,-4.701896409,23
108649,170836,235020,7.568497883799999,-3.8356946278,-4.6145583840999995,24
109019,170894,235125,7.6977103042,-3.7447673690000003,-4.6935215299,25
109397,170942,235097,7.7312098206,-3.7256247882,-4.6731825378,26
109725,170966,235160,7.6498538522,-3.9409788222,-4.6839502395,27
110051,170979,235178,7.5924261098,-3.8620156764,-4.8538406441,28
110333,170992,235168,7.514659375300001,-3.6622149893000002,-4.6683968926,29
110638,171035,235147,7.6761749007999995,-3.8225341035,-4.6672004813,30
110598,171013,235136,7.5338019561000005,-3.8656049103,-4.7078784655,31
109720,170933,235049,7.6522466748,-3.8009987001,-4.6504507231,32
108217,170804,234997,7.543373246500001,-3.7663027724,-4.6073799163,33
106799,170720,234941,7.7312098206,-3.8919259589,-4.754538506199999,34
105842,170615,234894,7.6462646183,-3.7268211995,-4.6815574169,35
105366,170613,234861,7.633104094,-3.7962130549,-4.6947179412,36
105273,170548,234872,7.5577301821,-3.8117664018,-4.6624148361,37
105530,170623,234901,7.6295148601000005,-3.8213376922,-4.6313081423,38
106002,170606,234914,7.6426753844,-3.7830525306,-4.7784667322,39
106317,170658,234901,7.621139981,-3.8261233374,-4.6911287073,40
106537,170683,234948,7.6845497799,-3.8321053939,-4.7712882644,41
106581,170661,234942,7.721638530200001,-3.7244283769,-4.737788748,42
106670,170698,234945,7.651050263499999,-3.7698920062999997,-4.7282174576000005,43
106848,170693,234937,7.635496916599999,-3.7292140221,-4.7712882644,44
107086,170731,234994,7.6965138929000005,-3.7854453531999996,-4.7569313288,45
107439,170761,234944,7.6319076827,-3.8548372086000002,-4.6995035864000005,46
107763,170804,234987,7.7132636511,-3.8500515634,-4.7258246349999995,47
108121,170816,235040,7.6905318364,-3.7531422481,-4.6767717716999995,48
108499,170869,235071,7.692924659,-3.7435709577,-4.689932296,49
108818,170878,235128,7.6893354250999995,-3.7244283769,-4.6827538282,50
109153,170951,235079,7.6809605460000006,-3.7519458368,-4.671986126499999,51
109464,170973,235129,7.6307112714,-3.8081771679,-4.7856452,52
109757,170997,235151,7.542176835199999,-3.6526436989,-4.7114676994,53
110086,171033,235152,7.668996433,-3.6885360378999996,-4.6169512067000005,54
110191,171030,235208,7.7192457076,-3.7375889012,-4.7844487887,55
109739,170969,235136,7.5278198996,-3.8787654346,-4.788038022599999,56
108368,170873,235057,7.5541409482,-3.7447673690000003,-4.609772738899999,57
106806,170760,234951,7.570890706399999,-3.7005001509,-4.6695933039,58
105638,170665,234842,7.6486574409,-3.8045879339999997,-4.7353959254,59
105046,170533,234815,7.5074809075,-3.6933216830999998,-4.7401815706,60
104857,170605,234817,7.6857461912,-3.9003008379999997,-4.8131626599,61
105073,170594,234873,7.53739119,-3.8524443859999997,-4.6923251185999995,62
105476,170644,234856,7.5218378431,-3.7758740628,-4.6875394734,63
105846,170647,234896,7.6773713121,-3.6741791022999997,-4.6755753604,64
106079,170586,234839,7.6187471584,-3.7794632967,-4.7784667322,65
106186,170658,234885,7.5445696578,-3.876372612,-4.8299124181,66
106324,170717,234902,7.6187471584,-3.8871403137,-4.7294138689,67
106475,170685,234931,7.666603610399999,-3.8201412809,-4.7401815706,68
106750,170711,234951,7.718049296299999,-3.8153556357,-4.7940200791,69
107047,170733,234974,7.625925626199999,-3.7710884175999997,-4.6241296745,70
107373,170789,235006,7.5361947787,-3.8189448695999997,-4.7760739096,71
107762,170811,234986,7.6426753844,-3.8069807566000002,-4.7042892316,72
108142,170823,235005,7.530212722199999,-3.6670006345,-4.7353959254,73
108489,170866,235039,7.6905318364,-3.7040893848,-4.7700918531,74
108832,170908,235063,7.6295148601000005,-3.8799618459,-4.6731825378,75
109145,170967,235091,7.5326055448,-3.9218362414,-4.6911287073,76
109439,171052,235133,7.6151579245,-3.7495530142,-4.7617169740000005,77
109737,170966,235154,7.6414789731,-3.8476587407999996,-4.582255279,78
109633,171004,235117,7.7276205867,-3.7603207159,-4.8047877808,79
108656,170875,234997,7.6402825618,-3.7052857961,-4.7461636271,80
107022,170736,234948,7.5828548194,-3.7543386594,-4.643272255299999,81
105496,170639,234906,7.561319416,-3.7830525306,-4.7509492723,82
104404,170531,234767,7.704888771999999,-3.7507494254999996,-4.8215375389999995,83
103759,170493,234746,7.7072815945999995,-3.7902309983999998,-4.701896409,84
103581,170475,234770,7.779066272600001,-3.7399817238,-4.8119662486,85
103797,170487,234781,7.6199435697,-3.7519458368,-4.6396830214,86
104262,170524,234814,7.819744256799999,-3.7244283769,-4.6839502395,87
104762,170592,234824,7.6366933279,-3.7854453531999996,-4.7617169740000005,88
105149,170570,234849,7.7252277641000004,-3.8632120877,-4.6217368519,89
105296,170598,234903,7.5756763516,-3.7758740628,-4.7330031028,90
105465,170612,234815,7.6163543358,-3.7399817238,-4.8047877808,91
105670,170601,234872,7.542176835199999,-3.7339996673,-4.7030928203,92
105941,170594,234891,7.6594251426,-3.6933216830999998,-4.7760739096,93
106284,170692,234912,7.5792655855,-3.8201412809,-4.7246282237,94
106687,170692,234954,7.6845497799,-3.7698920062999997,-4.6504507231,95
107075,170781,234962,7.5517481256,-3.8189448695999997,-4.7521456836,96
107494,170803,235036,7.5158557866,-3.8141592244,-4.7425743932,97
107851,170820,235014,7.5756763516,-3.7950166436,-4.7928236678,98
108187,170882,235062,7.645068207,-3.7890345870999997,-4.6073799163,99
108519,170858,235108,7.6235328036,-3.8739797894,-4.8107698373000005,100
108884,170924,235129,7.6713892556,-3.7663027724,-4.8478585876,101
109183,170944,235123,7.585247642000001,-3.8476587407999996,-4.7473600384,102
109136,170928,235061,7.6977103042,-3.8297125713,-4.6839502395,103
108189,170817,235063,7.6462646183,-3.684946804,-4.773681087,104
106638,170733,234952,7.735995465799999,-3.8428730956,-4.7162533446,105
105257,170664,234849,7.5768727629,-3.8727833781,-4.7952164904,106
104302,170559,234855,7.7108708285,-3.912264951,-4.8478585876,107
103833,170531,234862,7.735995465799999,-3.8727833781,-4.7832523774,108
103738,170519,234826,7.6809605460000006,-3.9038900719000003,-4.6265224971,109
104042,170526,234838,7.635496916599999,-3.7782668854000003,-4.6468614892,110
104571,170541,234880,7.6713892556,-3.8668013215999997,-4.8071806034,111
105047,170569,234869,7.6618179652,-3.7722848289,-4.8071806034,112
105344,170618,234863,7.6630143765,-3.8787654346,-4.7042892316,113
105527,170611,234875,7.6402825618,-3.7172499091,-4.7186461672,114
105685,170614,234907,7.6594251426,-3.8021951114,-4.7186461672,115
105954,170644,234899,7.5074809075,-3.7878381758,-4.6767717716999995,116
106236,170720,234950,7.6654071991,-3.8201412809,-4.7258246349999995,117
106581,170713,234960,7.718049296299999,-3.7926238210000003,-4.773681087,118
106950,170761,235009,7.683353368600001,-3.8009987001,-4.7521456836,119
107363,170803,235016,7.6917282476999995,-3.7722848289,-4.7282174576000005,120
107737,170816,235064,7.6881390138,-3.9158541848999997,-4.689932296,121
108119,170891,235116,7.7479595788,-3.7926238210000003,-4.7234318124,122
108492,170899,235093,7.7443703449,-3.8440695069,-4.6743789491,123
108833,170988,235123,7.692924659,-3.7962130549,-4.6121655615,124
109166,170941,235165,7.6187471584,-3.8979080154,-4.7904308452,125
109526,170992,235194,7.785048329099999,-3.7902309983999998,-4.7401815706,126
109808,171049,235176,7.495516794499999,-3.8057843452999998,-4.8370908858999995,127
109734,171030,235158,7.6307112714,-3.8309089826,-4.7294138689,128
108806,170898,235128,7.6283184488,-3.7052857961,-4.6289153197,129
107467,170837,235066,7.5780691741999995,-3.8596228538,-4.7593241513999995,130
106320,170716,234943,7.6761749007999995,-3.8009987001,-4.7330031028,131
105566,170715,234953,7.6091758679999995,-3.6753755136,-4.8191447164,132
105274,170699,234931,7.6809605460000006,-3.9014972492999997,-4.8311088294,133
105322,170695,234964,7.625925626199999,-3.7782668854000003,-4.7006999977,134
105694,170724,234945,7.6582287313,-3.7507494254999996,-4.7964129017,135
106161,170753,235012,7.7001031268,-3.6837503927,-4.6827538282,136
106552,170780,235020,7.6809605460000006,-3.8189448695999997,-4.7306102802,137
106776,170797,235038,7.5900332872,-3.7268211995,-4.5990050372,138
106907,170841,235035,7.555337359499999,-3.5928231339,-4.6049870937,139
107086,170800,234968,7.6522466748,-3.6897324492,-4.8382872972,140
107315,170804,235062,7.6761749007999995,-3.9026936606000002,-4.7270210463,141
107629,170868,235059,7.6043902228,-3.9266218866,-4.642075844,142
108000,170873,235083,7.6761749007999995,-3.7423745464,-4.6683968926,143
108392,170894,235057,7.7108708285,-3.732803256,-4.7856452,144
108753,170996,235117,7.7060851833,-3.8333018051999996,-4.7425743932,145
109107,170988,235168,7.5086773188,-3.7878381758,-4.7473600384,146
109496,171021,235157,7.584051230699999,-3.7256247882,-4.7246282237,147
109856,171045,235162,7.597211754999999,-3.8404802730000003,-4.7282174576000005,148
110149,171050,235255,7.6893354250999995,-3.8787654346,-4.773681087,149
110503,171117,235220,7.5529445369,-3.8572300312,-4.5092741897,150
110835,171107,235194,7.6989067155,-3.8368910391,-4.9100719752,151
110756,171135,235204,7.763512925700001,-3.8715869668,-4.7676990305,152
110049,171046,235182,7.53739119,-3.8608192651000004,-4.5260239479,153
108952,170889,235136,7.8412796602,-4.2173498325,-4.9794638306,154
108069,170932,235091,7.848458128,-4.1204405172000005,-4.7665026192,155
107694,170938,235103,7.514659375300001,-3.6035908356,-4.6803610056,156
107624,170895,235079,7.6043902228,-3.5760733757,-4.6073799163,157
107834,170942,235108,7.6989067155,-3.9804603951,-4.4004007614,158
108252,171004,235107,7.8807612331,-4.283152454,-4.235296002,159
108602,170996,235130,7.4452675199,-3.9613178143,-4.4410787456,160
108864,170996,235153,7.9764741371,-4.1970108404,-4.6313081423,161
108949,171008,235173,7.3280192125,-2.7014967154,-5.1098726623,162
108955,171024,235173,7.238288365000001,-2.4873390927,-5.3132625833,163
109089,171057,235182,8.1643107112,-3.1752755902,-5.3802616161,164
109293,170980,235186,7.872386354,-4.2747775749,-5.0668018555,165
109598,171064,235146,8.0769726863,-4.893322217,-4.589433746799999,166
109889,171101,235212,7.8807612331,-4.5786660451,-4.1706897918,167
110150,171112,235239,7.7862447404,-4.0534414844,-4.1826539048,168
110398,171122,235265,7.6008009889000006,-3.5150563993999997,-4.3154555591,169
110582,171146,235274,7.8400832489,-3.3080772444999997,-4.6085763276,170
110807,171176,235245,7.7012995381,-3.2350961552,-4.7676990305,171
111027,171161,235281,7.728816998,-3.1393832512,-4.7844487887,172
111188,171234,235257,8.1367932513,-2.4059831243,-4.4709890281,173
111040,171206,235270,7.4871419154,-2.3018953412000003,-4.7868416113,174
110245,171131,235154,8.0650085733,-2.8953153460000003,-4.378865358,175
109085,171069,235158,8.155935832099999,-3.4468609552999996,-4.5008993106,176
108303,171025,235165,8.1212399044,-3.7567314819999997,-4.5966122146,177
107906,170962,235115,8.3198441802,-3.1908289370999996,-4.242474469799999,178
107873,171027,235109,7.653443086099999,-2.7696921595,-4.211367776,179
108205,171081,235172,8.2181492197,-2.9240292172,-3.7926238210000003,180
108606,171116,235199,8.4083786164,-3.9182470075,-4.127618985,181
109009,171159,235232,8.0793655089,-3.8739797894,-4.0845481781999995,182
109282,171135,235203,8.5591264402,-4.8059841921,-4.0582271296000005,183
109415,171180,235174,8.446663778,-4.211367776,-4.4470608021,184
109594,171212,235252,8.2241312762,-3.3762726886,-3.6897324492,185
109874,171280,235247,8.2468630909,-2.8534409504999996,-3.4612178908999995,186
110260,171353,235304,7.4787670363,-3.0747770410000004,-3.5114671655,187
110754,171422,235276,8.3186477689,-3.433700431,-2.8953153460000003,188
111243,171426,235288,7.9896346614,-4.7210389898,-3.0520452262999997,189
111758,171537,235339,8.578269021,-4.1730826144,-3.0281170003,190
112365,171569,235405,8.4909309961,-3.816552047,-3.0508488149999997,191
112868,171639,235431,8.5890367227,-3.7830525306,-3.3320054705,192
113351,171711,235453,8.4801632944,-3.0999016782999997,-2.9934210726,193
113684,171764,235407,7.6462646183,-4.3441694303,-2.6368905052,194
113644,171727,235378,8.3892360356,-3.4085757937,-3.0197421212,195
113053,171687,235336,8.5351982142,-3.4983066412,-3.1752755902,196
112371,171625,235333,8.6452680538,-3.5796626096,-2.8797619991,197
111865,171585,235296,8.628518295600001,-3.5473595045,-2.9587251449000003,198
111618,171566,235333,8.4693955927,-3.6071800695,-2.9072794589999997,199
111617,171624,235314,8.5686977306,-3.7387853125,-3.0257241777000004,200
111843,171616,235299,8.681160392799999,-3.6646078119,-2.8474588940000003,201
112223,171646,235340,8.5040915204,-3.3475588174,-2.8438696600999998,202
112689,171653,235323,8.5555372063,-3.5341989802,-2.7014967154,203
113002,171660,235328,8.5591264402,-3.5676984966,-2.7242285301,204
113267,171690,235331,8.3449688175,-3.6502508763,-2.8594230069999997,205
113512,171738,235346,8.470592004,-3.7615171272,-2.9359933301999996,206
113786,171668,235345,8.4969130526,-3.8129628130999995,-2.7194428849,207
114085,171664,235349,8.2731841395,-4.0031922098,-2.775674216,208
114391,171610,235352,8.2133635745,-3.9613178143,-2.8498517166,209
114677,171678,235372,8.3042908333,-4.1718862031,-2.6931218363,210
115036,171666,235347,8.1990066389,-4.1479579771,-3.1549365981,211
115320,171654,235415,8.3210405915,-4.2496529376,-3.6047872469,212
115606,171685,235448,8.4813597057,-4.1419759206,-3.7782668854000003,213
115834,171709,235459,8.5555372063,-3.8225341035,-4.007977855,214
116074,171656,235506,8.0602229281,-3.4899317621,-3.3080772444999997,215
116290,171761,235454,8.2959159542,-3.8309089826,-3.4432717214,216
116580,171791,235435,7.9908310727,-3.7052857961,-3.1525437755,217
116738,171792,235522,8.6105721261,-4.342973019,-3.2279176874,218
116662,171765,235458,8.3449688175,-3.936193177,-3.3080772444999997,219
116146,171690,235430,8.2109707519,-3.9158541848999997,-3.1369904286000003,220
115419,171659,235395,8.2169528084,-3.5461630932,-3.3355947043999996,221
114754,171614,235415,8.3198441802,-4.0235312019,-3.2925238975999997,222
114276,171591,235345,8.0303126456,-4.0534414844,-3.1082765574000004,223
114045,171572,235361,8.2743805508,-4.1970108404,-2.7445675222,224
114016,171606,235343,8.4167534955,-3.9098721283999995,-3.1202406704,225
114125,171575,235373,8.116454259200001,-3.6921252718,-3.6346975294,226
114340,171644,235414,8.5112699882,-3.7040893848,-4.7473600384,227
114518,171646,235417,8.3844503904,-3.6981073283,-4.3106699139,228
114676,171651,235409,8.306683655899999,-3.780659708,-3.457628657,229
114782,171640,235376,8.1092757914,-4.0103706776,-3.0939196218,230
114794,171647,235432,8.115257847899999,-4.1120656381,-3.0927232105,231
114986,171657,235406,7.5804619967999995,-9.6717889492,-2.6500510295,232
115155,171712,235423,7.8424760715,-3.4791640604,-3.6514472876,233
115312,171697,235424,7.9597243789,-4.0606199522,-3.4157542615,234
115511,171746,235444,8.0865439767,-3.9158541848999997,-3.7256247882,235
115785,171749,235450,7.7814590952,-4.0666020087,-3.8620156764,236
115983,171774,235487,8.3042908333,-4.242474469799999,-4.3513478981,237
116270,171793,235467,8.2480595022,-4.1001015251,-4.7425743932,238
116484,171808,235448,7.925028451199999,-3.7375889012,-3.9888352742,239
116738,171848,235513,7.9357961529,-3.7603207159,-3.8931223702,240
116954,171833,235536,7.998009540499999,-3.9864424516000003,-3.984049629,241
116995,171855,235518,7.969295669299999,-4.1766718483,-3.4205399067,242
116751,171817,235474,7.7072815945999995,-4.0965122912,-3.9314075318,243
116382,171811,235455,7.597211754999999,-3.9732819273,-3.8859439023999998,244
116107,171772,235448,7.7934232082,-4.247260115,-4.0618163635,245
115885,171793,235479,7.920242806,-4.2759739861999995,-4.3106699139,246
115880,171726,235511,7.6701928443,-4.139583098,-3.9672998708,247
115957,171850,235405,7.6307112714,-4.0761732991,-4.0965122912,248
116116,171882,235454,7.666603610399999,-4.2257247116,-4.2975093896,249
116313,171875,235534,7.514659375300001,-4.0390845488,-4.4913280202,250
116545,171909,235507,7.6091758679999995,-3.9780675724999996,-4.881358104,251
116739,171907,235526,7.393821834000001,-3.8715869668,-5.1493542352,252
116952,171907,235498,7.667800021700001,-3.9158541848999997,-5.288137946,253
117046,171890,235527,7.4943203832,-3.8727833781,-5.4508498828,254
117227,171937,235533,7.5469624804,-3.9529429352,-4.899304273499999,255
117414,171998,235623,7.3890361888,-3.9050864832,-4.6002014485,256
117631,172005,235532,7.2693950588,-3.8584264425,-4.7700918531,257
117874,172017,235588,7.5529445369,-3.8679977328999997,-4.6229332632,258
118114,172016,235606,7.365107962800001,-3.8847474911,-5.0045884679,259
118315,172010,235664,7.5445696578,-3.7878381758,-5.198407098500001,260
118521,171893,235629,7.514659375300001,-3.7495530142,-5.1864429855,261
118740,171832,235664,7.3746792532,-3.7471601916,-5.2749774217,262
118970,171958,235612,7.3531438498,-3.6933216830999998,-5.1577291143,263
119112,171961,235659,7.267002236200001,-3.9445680561,-5.2055855663,264
119114,171924,235645,7.2442704215000004,-3.7890345870999997,-5.132604477,265
118996,171955,235637,7.282555583100001,-3.8620156764,-5.1732824612,266
118920,171884,235611,7.465606512,-3.7040893848,-5.137390122199999,267
118861,171871,235611,7.310073043,-3.8476587407999996,-5.102694194500001,268
118893,171914,235594,7.4368926408,-3.8129628130999995,-5.2175496793,269
118992,171942,235624,7.3220371559999995,-3.8811582571999996,-5.0333023391000005,270
119161,172002,235641,7.4452675199,-3.7220355542999997,-5.1637111708,271
119328,172011,235661,7.3722864306,-3.8847474911,-5.114658307499999,272
119504,172006,235697,7.3710900192999995,-3.6227334164,-5.1577291143,273
119663,172027,235703,7.4333034069,-3.7974094662,-5.1708896386,274
119854,172021,235677,7.4261249391,-3.7483566029,-5.0955157266999995,275
120002,172069,235707,7.3603223176,-3.768695595,-5.2426743166000005,276
120174,172074,235707,7.3399833255,-3.8141592244,-5.1170511301,277
120362,172062,235715,7.4500531651,-3.7124642639,-5.139782944799999,278
120524,172115,235756,7.3710900192999995,-3.7363924898999996,-5.1254260092,279
120692,172031,235699,7.3005017526,-3.6861432153,-5.0428736295,280
120880,172153,235814,7.3950182453,-3.8045879339999997,-5.1876393968,281
121081,172181,235798,7.4512495764,-3.82851616,-5.2582276635,282
121283,172139,235805,7.1916283243,-3.8404802730000003,-5.140979356100001,283
121468,172211,235773,7.441678286,-3.5605200288,-5.0907300815,284
121628,172219,235844,7.444071108599999,-3.7040893848,-5.0093741131,285
121858,172221,235817,7.3244299786000004,-3.8512479747,-5.2953164138,286
121926,172219,235811,7.2765735266,-3.8021951114,-5.2187460906,287
121927,172229,235814,7.2837519944,-3.7268211995,-5.0404808069,288
121905,172224,235791,7.4045895357,-3.720839143,-5.139782944799999,289
121939,172239,235801,7.365107962800001,-3.7447673690000003,-5.1349972996,290
121988,172231,235824,7.4500531651,-3.8739797894,-5.2438707279,291
122074,172248,235827,7.3866433661999995,-3.7830525306,-5.085944436299999,292
122188,172234,235777,7.3435725594,-3.7148570865,-5.114658307499999,293
122317,172270,235818,7.3411797368,-3.7950166436,-5.140979356100001,294
122449,172325,235859,7.3316084464,-3.6765719249,-5.139782944799999,295
122591,172322,235857,7.4560352216,-3.7710884175999997,-5.1170511301,296
122777,172288,235862,7.2717878814,-3.7722848289,-5.073980323300001,297
122859,172295,235874,7.3758756645,-3.6670006345,-5.1003013719000005,298
123016,172322,235842,7.459624455499999,-3.8500515634,-5.2546384296,299
123143,172386,235876,7.2837519944,-3.780659708,-5.1290152431000005,300
123282,172388,235882,7.3124658656,-3.7722848289,-5.1708896386,301
123449,172407,235873,7.369893608,-3.6346975294,-5.1708896386,302
123535,172410,235885,7.3435725594,-3.7447673690000003,-5.2737810104,303
123694,172431,235918,7.3986074792,-3.8404802730000003,-5.204389154999999,304
123797,172438,235957,7.357929495,-3.8105699905,-5.1996035098,305
123928,172390,235934,7.334001269,-3.6514472876,-5.194817864599999,306
124075,172462,235985,7.3878397775,-3.7483566029,-5.127818831799999,307
124211,172496,236001,7.377072075799999,-3.8871403137,-5.251049195699999,308
124302,172455,235988,7.378268487100001,-3.6335011181000003,-5.168496815999999,309
124301,172456,235943,7.3375905029,-3.7567314819999997,-5.2450671392,310
124347,172465,235922,7.3292156238,-3.7256247882,-5.1505506465,311
124298,172492,235922,7.2394847763,-3.7986058774999996,-5.1194439527,312
124297,172480,235984,7.3603223176,-3.888336725,-5.1840501629,313
124316,172437,235932,7.3052873978,-3.7639099498,-5.216353268,314
124352,172495,235999,7.3710900192999995,-3.7459637803,-5.1098726623,315
124416,172571,236014,7.2885376395999995,-3.7567314819999997,-5.1314080657000005,316
124473,172508,235970,7.2299134859,-3.7351960786,-5.1314080657000005,317
124556,172507,235960,7.2909304621999995,-3.7926238210000003,-5.2187460906,318
124600,172546,236013,7.334001269,-3.7758740628,-5.1708896386,319
124647,172558,235975,7.3411797368,-3.7603207159,-5.155336291699999,320
124713,172541,235995,7.2693950588,-3.7998022888,-5.1266224204999995,321
124756,172573,236016,7.4428746973,-3.7615171272,-5.1756752837999995,322
124825,172584,236047,7.3914290114000005,-3.720839143,-5.155336291699999,323
124846,172625,236046,7.3244299786000004,-3.6885360378999996,-5.192425042,324
124896,172619,236005,7.3136622769,-3.8261233374,-5.309673349400001,325
124967,172577,236052,7.2909304621999995,-3.8895331363000003,-5.2187460906,326
125026,172670,236027,7.2478596554,-3.8105699905,-5.1086762509999994,327
125095,172622,236038,7.1126651784999995,-3.8189448695999997,-5.2115676228000005,328
125142,172636,236092,7.4141608261,-3.7746776515,-5.2031927437,329
125198,172666,236016,7.3220371559999995,-3.8153556357,-5.0979085493,330
125188,172660,236054,7.265805824899999,-3.8045879339999997,-5.321637462399999,331
125137,172623,236026,7.2885376395999995,-3.5736805531,-5.127818831799999,332
125013,172632,236022,7.3028945752,-3.7435709577,-5.2091748002,333
124830,172598,235955,7.3292156238,-3.7447673690000003,-5.235495848799999,334
124665,172620,236014,7.369893608,-3.7914274097,-5.1385865335,335
124590,172551,235988,7.349554615900001,-3.7304104334000003,-5.2414779053,336
124526,172653,235991,7.2765735266,-3.6693934571,-5.1218367753,337
124519,172634,235993,7.2287170746000005,-3.7459637803,-5.2378886713999995,338
124470,172647,236009,7.1952175581999995,-3.7974094662,-5.216353268,339
124458,172637,236027,7.3005017526,-3.8727833781,-5.1110690735999995,340
124385,172621,235998,7.4500531651,-3.7519458368,-5.1469614126,341
124309,172670,235989,7.214360139,-3.6933216830999998,-5.0309095165,342
124285,172649,235982,7.390232600099999,-3.7028929734999996,-5.280959478200001,343
124282,172659,235987,7.4045895357,-3.8895331363000003,-5.4771709314,344
124268,172682,235956,7.3591259063,-3.7926238210000003,-5.3036912929,345
124259,172681,235954,7.4261249391,-3.7998022888,-5.0835516137,346
124252,172708,235988,7.252645300599999,-3.6801611588,-5.1756752837999995,347
124250,172686,236017,7.3220371559999995,-3.6622149893000002,-5.3515477449,348
124269,172724,235984,7.369893608,-3.7172499091,-5.2785666556,349
124280,172703,235983,7.286144817,-3.7782668854000003,-5.2474599618,350
124296,172751,236020,7.240681187599999,-3.6897324492,-5.2713881878,351
124329,172769,235988,7.214360139,-3.7076786186999997,-5.192425042,352
124325,172696,236030,7.3220371559999995,-3.924229064,-5.3419764545,353
124223,172734,235956,7.29810893,-3.7758740628,-5.300102059,354
123874,172686,235940,7.1688965096,-3.6801611588,-5.1637111708,355
123434,172632,235937,7.1772713886999995,-3.7447673690000003,-5.1098726623,356
123047,172512,235883,7.3160550995,-3.7926238210000003,-5.2331030262,357
122621,172613,235855,7.334001269,-3.9397824109,-5.2977092364,358
122313,172603,235944,7.278966349199999,-3.6969109170000003,-5.3072805268000005,359
122083,172593,235874,7.286144817,-3.8069807566000002,-5.1780681064,360
121949,172598,235864,7.3627151402,-3.7423745464,-5.235495848799999,361
121799,172644,235855,7.4069823583000005,-3.7866417645,-5.2498527844,362
121667,172611,235828,7.390232600099999,-3.7064822074,-5.2905307686,363
121509,172606,235908,7.2358955424,-3.6729826909999996,-5.223531735800001,364
121334,172584,235822,7.237091953699999,-3.6921252718,-5.280959478200001,365
121177,172627,235799,7.2957161074000005,-3.7268211995,-5.3778687935,366
121064,172602,235865,7.3052873978,-3.7351960786,-5.166103993399999,367
120969,172650,235839,7.361518728899999,-3.7052857961,-5.3084769381,368
120899,172629,235811,7.2107709050999995,-3.768695595,-5.2031927437,369
120899,172491,235833,7.335197680299999,-3.6502508763,-5.280959478200001,370
120875,172629,235797,7.2681986475,-3.7507494254999996,-5.2067819775999995,371
120877,172643,235808,7.240681187599999,-3.7603207159,-5.292923591199999,372
120864,172647,235758,7.4237321165,-3.768695595,-5.280959478200001,373
120872,172632,235792,7.274180704,-3.7005001509,-5.1481578239,374
120908,172647,235821,7.3160550995,-3.6777683362,-5.2259245584,375
120906,172659,235842,7.2478596554,-3.7076786186999997,-5.2713881878,376
120785,172641,235801,7.3148586882,-3.7830525306,-5.219942501899999,377
120299,172594,235821,7.1928247355999995,-3.6035908356,-5.2965128251,378
119541,172555,235699,7.2000032034000006,-3.7005001509,-5.2426743166000005,379
118789,172503,235668,7.53739119,-3.7447673690000003,-5.2211389132,380
118123,172473,235658,7.3435725594,-3.6945180944,-5.2187460906,381
117639,172471,235626,7.2897340509,-3.6047872469,-5.2701917765,382
117348,172482,235606,7.1820570339,-3.5126635768,-5.140979356100001,383
117189,172511,235595,7.307680220399999,-3.7304104334000003,-5.216353268,384
117124,172448,235685,7.2765735266,-3.7052857961,-5.155336291699999,385
117042,172465,235610,7.2358955424,-3.8069807566000002,-5.2175496793,386
116924,172487,235612,7.4213392939,-3.6311082955,-5.264209719999999,387
116762,172430,235575,7.2837519944,-3.6299118841999998,-5.1637111708,388
116599,172324,235565,7.2909304621999995,-3.6406795858999996,-5.2474599618,389
116530,172436,235586,7.4404818747,-3.6705898684,-5.2366922601,390
116509,172452,235576,7.335197680299999,-3.7124642639,-5.2079783889,391
116505,172446,235611,7.3423761481,-3.7591243046000002,-5.216353268,392
116591,172477,235598,7.405785946999999,-3.5736805531,-5.228317381,393
116671,172478,235597,7.393821834000001,-3.7064822074,-5.2965128251,394
116708,172466,235659,7.2095744938,-3.7304104334000003,-5.2498527844,395
116804,172472,235616,7.3950182453,-3.732803256,-5.2857451234,396
116916,172500,235580,7.332804857699999,-3.8225341035,-5.1900322194,397
116978,172532,235646,7.202396026,-3.8033915226999997,-5.1637111708,398
117064,172495,235675,7.184449856500001,-3.5844482548,-5.2737810104,399
117134,172539,235625,7.3734828419,-3.720839143,-5.2211389132,400
117130,172518,235626,7.3052873978,-3.7674991837,-5.3671010918,401
116816,172510,235605,7.3854469549,-3.6837503927,-5.2079783889,402
116018,172462,235569,7.2287170746000005,-3.7663027724,-5.2498527844,403
115111,172351,235462,7.4380890521,-3.7471601916,-5.2307102036,404
114384,172343,235487,7.3890361888,-3.7088750299999997,-5.2713881878,405
113914,172300,235433,7.4356962295,-3.876372612,-5.1780681064,406
113596,172292,235467,7.4404818747,-3.8117664018,-5.2187460906,407
113507,172317,235427,7.349554615900001,-3.6418759972,-5.1517470578,408
113552,172340,235475,7.281359171799999,-3.7184463204,-5.3168518172,409
113610,172323,235477,7.4979096170999995,-3.8380874503999998,-5.3647082692,410
113605,172321,235430,7.3758756645,-3.7232319655999997,-5.3611190353,411
113534,172315,235363,7.2717878814,-3.7974094662,-5.2833523008,412
113430,172325,235440,7.4021967130999995,-3.6993037396,-5.213960445400001,413
113365,172305,235410,7.2287170746000005,-3.720839143,-5.2175496793,414
113393,172317,235439,7.2897340509,-3.4707891813,-5.2055855663,415
113477,172301,235403,7.378268487100001,-3.6000016017000003,-5.1912286306999995,416
113549,172341,235470,7.202396026,-3.6526436989,-5.2031927437,417
113687,172392,235449,7.3160550995,-3.6466616424,-5.219942501899999,418
113835,172354,235440,7.3028945752,-3.6885360378999996,-5.168496815999999,419
113992,172378,235425,7.2717878814,-3.7304104334000003,-5.2618168974,420
114111,172403,235493,7.3746792532,-3.8356946278,-5.2115676228000005,421
114256,172384,235452,7.3591259063,-3.7304104334000003,-5.1840501629,422
114409,172371,235440,7.3028945752,-3.6741791022999997,-5.1996035098,423
114521,172441,235502,7.3052873978,-3.6622149893000002,-5.300102059,424
114689,172415,235473,7.4835526815,-3.5569307949000004,-5.1673004047,425
114812,172448,235490,7.2586273571,-3.5868410774,-5.2546384296,426
114727,172473,235451,7.2646094136,-3.6311082955,-5.277370244299999,427
114072,172395,235362,7.2574309458,-3.6729826909999996,-5.2115676228000005,428
113179,172321,235411,7.2011996147,-3.7722848289,-5.2474599618,429
112479,172266,235402,7.1605216305,-3.7100714413,-5.324030285,430
111990,172297,235330,7.459624455499999,-3.6837503927,-5.3276195189,431
111729,172264,235354,7.3663043741,-3.6418759972,-5.251049195699999,432
111693,172277,235261,7.310073043,-3.6693934571,-5.1110690735999995,433
111711,172267,235314,7.2693950588,-3.6729826909999996,-5.2187460906,434
111766,172289,235310,7.3292156238,-3.7184463204,-5.280959478200001,435
111727,172292,235244,7.2131637277000005,-3.6430724085,-5.240281494,436
111571,172225,235258,7.430910584299999,-3.7555350706999997,-5.1996035098,437
111476,172261,235236,7.183253445199999,-3.7423745464,-5.2713881878,438
111439,172270,235275,7.3292156238,-3.7591243046000002,-5.4101718986,439
111469,172231,235307,7.317251510799999,-3.5700913192,-5.3144589946,440
111571,172241,235291,7.3794648984,-3.6382867633,-5.166103993399999,441
111703,172305,235280,7.3830541323,-3.4683963587,-5.2701917765,442
111851,172268,235300,7.2693950588,-3.7304104334000003,-5.3383872206000005,443
111998,172250,235292,7.447660342499999,-3.7878381758,-5.3228338737000005,444
112144,172275,235283,7.3244299786000004,-3.6670006345,-5.2749774217,445
112332,172303,235340,7.2394847763,-3.8069807566000002,-5.2079783889,446
112502,172324,235271,7.403393124400001,-3.7651063610999995,-5.2953164138,447
112661,172321,235348,7.3005017526,-3.8955151927999996,-5.2977092364,448
112817,172341,235312,7.2681986475,-3.6861432153,-5.1744788725,449
112967,172375,235317,7.3005017526,-3.6969109170000003,-5.2570312522,450
112789,172365,235338,7.3268228012,-3.7758740628,-5.072783911999999,451
112178,172305,235259,7.2705914701,-3.5820554322,-5.3204410510999995,452
111192,172236,235216,7.281359171799999,-3.6670006345,-5.5501520207,453
110350,172219,235185,7.4021967130999995,-3.6586257553999997,-5.3395836319,454
109762,172060,235167,7.3016981639,-3.6586257553999997,-5.3407800432,455
109365,172121,235168,7.4021967130999995,-3.6861432153,-5.264209719999999,456
109219,172115,235100,7.3124658656,-3.6658042232,-5.2701917765,457
109227,172093,235136,7.3016981639,-3.6251262389999996,-5.2271209697000005,458
109372,172109,235158,7.3220371559999995,-3.7375889012,-5.3048877041999996,459
109488,172107,235128,7.2765735266,-3.7016965622000004,-5.2498527844,460
109512,172085,235187,7.4093751809,-3.6646078119,-5.2366922601,461
109525,172100,235131,7.2059852599,-3.5856446661000003,-5.2558348409,462
109508,172153,235183,7.3088766317000005,-3.6167513599,-5.265406131300001,463
109590,172122,235183,7.1365934045,-3.7351960786,-5.331208752799999,464
109718,172091,235189,7.2849484057,-3.7339996673,-5.2319066149,465
109905,172142,235255,7.4548388103,-3.6945180944,-5.2462635505,466
110106,172123,235277,7.3746792532,-3.7950166436,-5.3407800432,467
110369,172176,235219,7.3268228012,-3.7351960786,-5.2749774217,468
110615,172180,235265,7.304090986499999,-3.6059836581999996,-5.181657340299999,469
110872,172162,235258,7.1772713886999995,-3.8225341035,-5.3970113743,470
111082,172180,235310,7.3950182453,-3.7555350706999997,-5.3048877041999996,471
111268,172215,235345,7.444071108599999,-3.6753755136,-5.3575298014,472
111514,172226,235335,7.3304120351,-3.8309089826,-5.235495848799999,473
111720,172233,235371,7.226324252,-3.7615171272,-5.375475970899999,474
111929,172171,235387,7.3375905029,-3.6083764808,-5.3132625833,475
112131,172264,235371,7.3794648984,-3.5617164401,-5.3072805268000005,476
112184,172288,235419,7.3375905029,-3.8177484582999996,-5.4341001246000005,477
111739,172256,235368,7.2346991311,-3.7040893848,-5.292923591199999,478
110851,172175,235310,7.1270221141,-3.6681970457999995,-5.2893343573,479
109919,172105,235284,7.3854469549,-3.6873396266,-5.252245607000001,480
109293,172035,235287,7.317251510799999,-3.7124642639,-5.3072805268000005,481
108897,172056,235237,7.2478596554,-3.8117664018,-5.252245607000001,482
108740,172044,235255,7.317251510799999,-3.6311082955,-5.2606204861,483
108745,172093,235264,7.211967316399999,-3.6741791022999997,-5.2498527844,484
108907,172049,235261,7.2933232848,-3.7543386594,-5.2785666556,485
109031,172039,235301,7.3686971967,-3.6681970457999995,-5.324030285,486
109123,172028,235245,7.2167529616,-3.7782668854000003,-5.2857451234,487
109122,172023,235225,7.1748785661,-3.7615171272,-5.3455656884,488
109137,172043,235282,7.1928247355999995,-3.8033915226999997,-5.280959478200001,489
109195,172050,235342,7.1688965096,-3.7447673690000003,-5.2342994375,490
109352,172068,235364,7.2909304621999995,-3.6514472876,-5.2785666556,491
109550,172073,235343,7.3734828419,-3.7674991837,-5.279763066899999,492
109740,172116,235366,7.334001269,-3.7064822074,-5.2474599618,493
110006,172109,235375,7.253841711900001,-3.7196427317,-5.3336015753999995,494
110246,172120,235379,7.286144817,-3.6083764808,-5.3048877041999996,495
110493,172098,235470,7.211967316399999,-3.7519458368,-5.2570312522,496
110694,172181,235477,7.334001269,-3.6634114006,-5.331208752799999,497
110920,172148,235442,7.2909304621999995,-3.7196427317,-5.2151568567,498
111157,172201,235470,7.3112694543000005,-3.732803256,-5.3694939144,499
111396,172199,235451,7.2358955424,-3.8081771679,-5.3168518172,500
111612,172223,235501,7.2610201797,-3.7591243046000002,-5.2247281471,501
111823,172236,235555,7.250252477999999,-3.6969109170000003,-5.4747781088,502
112040,172289,235544,7.2059852599,-3.6634114006,-5.216353268,503
112227,172271,235541,7.363911551499999,-3.7902309983999998,-5.2414779053,504
112064,172228,235556,7.3926254227,-3.6777683362,-5.359922623999999,505
111361,172179,235510,7.2921268735,-3.6957145057000003,-5.2031927437,506
110418,172124,235430,7.3160550995,-3.6083764808,-5.331208752799999,507
109580,172075,235415,7.310073043,-3.6921252718,-5.2701917765,508
109093,172089,235395,7.2957161074000005,-3.7256247882,-5.335994398,509
108805,172003,235400,7.2837519944,-3.6215370051,-5.2378886713999995,510
108715,172040,235439,7.3280192125,-3.6658042232,-5.204389154999999,511
108828,172019,235424,7.2717878814,-3.684946804,-5.3383872206000005,512
108989,172016,235448,7.2000032034000006,-3.6442688197999997,-5.3694939144,513
109053,172037,235444,7.3890361888,-3.7411781350999997,-5.2426743166000005,514
109092,172067,235417,7.281359171799999,-3.7543386594,-5.347958511000001,515
109071,172023,235454,7.267002236200001,-3.6047872469,-5.292923591199999,516
109085,172025,235439,7.262216591,-3.6622149893000002,-5.309673349400001,517
109182,172024,235461,7.357929495,-3.7100714413,-5.2055855663,518
109362,172016,235445,7.3124658656,-3.6622149893000002,-5.276173833,519
109579,172069,235453,7.3519474385,-3.6335011181000003,-5.3383872206000005,520
109807,172088,235522,7.2323063085,-3.613162126,-5.3742795596,521
110045,172091,235470,7.1976103808000005,-3.6861432153,-5.3503513336,522
110295,172122,235518,7.267002236200001,-3.5401810367,-5.2366922601,523
110504,172124,235538,7.4261249391,-3.7387853125,-5.3276195189,524
110729,172142,235565,7.363911551499999,-3.7280176108,-5.3455656884,525
110983,172191,235596,7.3926254227,-3.6071800695,-5.3383872206000005,526
111194,172159,235562,7.390232600099999,-3.7495530142,-5.3288159302,527
111435,172224,235610,7.2167529616,-3.7160534978000004,-5.280959478200001,528
111647,172190,235621,7.2335027198,-3.6873396266,-5.2749774217,529
111886,172237,235651,7.198806792099999,-3.6693934571,-5.2378886713999995,530
111997,172226,235674,7.3052873978,-3.7184463204,-5.4221360116,531
111685,172126,235561,7.183253445199999,-3.5952159565,-5.3455656884,532
110873,172147,235580,7.2586273571,-3.6000016017000003,-5.276173833,533
109973,172107,235510,7.336394091599999,-3.6095728921,-5.2331030262,534
109325,172031,235492,7.4548388103,-3.7136606752,-5.3934221404,535
108977,171980,235439,7.2059852599,-3.7459637803,-5.280959478200001,536
108874,171999,235499,7.237091953699999,-3.7998022888,-5.2630133087,537
108953,172038,235499,7.3136622769,-3.8309089826,-5.2055855663,538
109067,172079,235503,7.2705914701,-3.7064822074,-5.3742795596,539
109079,172054,235489,7.2574309458,-3.6753755136,-5.277370244299999,540
109055,172033,235493,7.323233567299999,-3.7579278933,-5.192425042,541
108963,172027,235514,7.3926254227,-3.6071800695,-5.3527441562,542
108905,172065,235484,7.1760749774,-3.6705898684,-5.3491549223,543
108935,172036,235525,7.1784678,-3.7579278933,-5.3168518172,544
109055,172014,235574,7.2957161074000005,-3.780659708,-5.3012984703,545
109237,172061,235537,7.281359171799999,-3.7471601916,-5.279763066899999,546
109416,172102,235508,7.3866433661999995,-3.7591243046000002,-5.3072805268000005,547
109650,172031,235536,7.2011996147,-3.7854453531999996,-5.2570312522,548
109861,172085,235519,7.1617180418,-3.720839143,-5.2857451234,549
110069,172094,235558,7.3304120351,-3.6909288605,-5.312066172,550
110276,172133,235603,7.319644333399999,-3.7064822074,-5.265406131300001,551
110494,172148,235582,7.365107962800001,-3.7890345870999997,-5.3072805268000005,552
110715,172146,235640,7.3005017526,-3.6909288605,-5.3048877041999996,553
110920,172203,235592,7.3280192125,-3.5258241011,-5.4137611324999995,554
111102,172176,235606,7.3184479221,-3.7244283769,-5.235495848799999,555
111083,172163,235629,7.294519696099999,-3.7447673690000003,-5.359922623999999,556
110441,172016,235539,7.2550381232,-3.4683963587,-5.324030285,557
109371,172036,235544,7.3399833255,-3.5377882141000003,-5.2893343573,558
108414,171966,235487,7.319644333399999,-3.6825539814000003,-5.3527441562,559
107641,171909,235474,7.238288365000001,-3.7256247882,-5.3276195189,560
107249,171878,235428,7.3591259063,-3.7782668854000003,-5.2319066149,561
107048,171852,235413,7.3722864306,-3.6825539814000003,-5.3180482284999995,562
107109,171840,235463,7.2574309458,-3.7938202323,-5.2713881878,563
107317,171887,235478,7.2514488893,-3.7627135385,-5.347958511000001,564
107527,171901,235439,7.2466632441,-3.7627135385,-5.2725845991,565
107608,171887,235486,7.334001269,-3.6406795858999996,-5.309673349400001,566
107616,171886,235477,7.1030938881,-3.720839143,-5.276173833,567
107663,171920,235440,7.2885376395999995,-3.7363924898999996,-5.3694939144,568
107725,171897,235510,7.2765735266,-3.7136606752,-5.1481578239,569
107916,171926,235503,7.2753771152999995,-3.6753755136,-5.2223353244999995,570
108140,171915,235505,7.1916283243,-3.6358939407,-5.3324051641,571
108425,171954,235553,7.2358955424,-3.5210384559,-5.264209719999999,572
108697,171960,235555,7.2227350181,-3.7423745464,-5.2737810104,573
109021,171999,235558,7.252645300599999,-3.6921252718,-5.2965128251,574
109315,172028,235620,7.190431913,-3.6897324492,-5.2785666556,575
109601,172031,235620,7.332804857699999,-3.7304104334000003,-5.2689953652,576
109879,172069,235652,7.286144817,-3.7375889012,-5.3383872206000005,577
110104,172070,235645,7.221538606799999,-3.7674991837,-5.3910293178,578
110382,172129,235682,7.3136622769,-3.6681970457999995,-5.3647082692,579
110624,172147,235721,7.1365934045,-3.7734812402,-5.359922623999999,580
110850,172140,235688,7.418946471299999,-3.6825539814000003,-5.2031927437,581
110951,172144,235722,7.1796642112999995,-3.8297125713,-5.4604211732,582
110641,172121,235657,7.3028945752,-3.7112678526000002,-5.2677989539,583
109593,172011,235589,7.349554615900001,-3.7184463204,-5.3503513336,584
108466,171952,235543,7.2598237683999995,-3.684946804,-5.1457650013,585
107651,171891,235520,7.226324252,-3.6071800695,-5.3527441562,586
107154,171887,235488,7.3387869142,-3.780659708,-5.223531735800001,587
106945,171833,235525,7.2466632441,-3.5988051904000002,-5.4520462941,588
106956,171838,235487,7.2167529616,-3.6729826909999996,-5.3539405675,589
107201,171857,235516,7.2311098972,-3.6945180944,-5.2977092364,590
107443,171880,235462,7.1820570339,-3.6825539814000003,-5.2606204861,591
107582,171896,235509,7.2478596554,-3.6143585373000002,-5.276173833,592
107501,171890,235502,7.307680220399999,-3.7256247882,-5.2414779053,593
107632,171874,235508,7.3663043741,-3.6502508763,-5.279763066899999,594
107713,171869,235531,7.2933232848,-3.7160534978000004,-5.362315446599999,595
107890,171897,235535,7.307680220399999,-3.6729826909999996,-5.3575298014,596
108114,171865,235562,7.3112694543000005,-3.6442688197999997,-5.2953164138,597
108401,171911,235591,7.4069823583000005,-3.6382867633,-5.3455656884,598
108689,171932,235573,7.317251510799999,-3.6921252718,-5.2366922601,599
109003,171914,235619,7.262216591,-3.7028929734999996,-5.2007999211,600
109289,171980,235655,7.2454668328,-3.6681970457999995,-5.2151568567,601
109624,172022,235679,7.323233567299999,-3.7040893848,-5.223531735800001,602
109873,172023,235677,7.238288365000001,-3.6526436989,-5.3647082692,603
110117,172021,235712,7.319644333399999,-3.6945180944,-5.306084115499999,604
110366,172083,235773,7.1246292915,-3.7016965622000004,-5.300102059,605
110625,172099,235706,7.1808606226,-3.5760733757,-5.3383872206000005,606
110894,172109,235728,7.349554615900001,-3.6382867633,-5.2307102036,607
111011,172143,235706,7.4021967130999995,-3.7232319655999997,-5.4628139958,608
110614,172060,235699,7.319644333399999,-3.7615171272,-5.2989056477,609
109606,171960,235613,7.3375905029,-3.6382867633,-5.3659046805,610
108432,171932,235568,7.2969125187,-3.7543386594,-5.223531735800001,611
107614,171873,235522,7.332804857699999,-3.7064822074,-5.3814580274,612
107192,171860,235511,7.3878397775,-3.7950166436,-5.2223353244999995,613
107040,171843,235495,7.240681187599999,-3.7411781350999997,-5.359922623999999,614
107146,171836,235512,7.196413969499999,-3.7184463204,-5.2007999211,615
107378,171835,235566,7.4117680035,-3.7663027724,-5.4352965359,616
107618,171851,235555,7.2993053413,-3.6418759972,-5.3072805268000005,617
107751,171846,235529,7.2993053413,-3.7639099498,-5.388636495199999,618
107800,171819,235554,7.1916283243,-3.6382867633,-5.2713881878,619
107793,171825,235561,7.2957161074000005,-3.637090352,-5.3671010918,620
107864,171891,235531,7.4261249391,-3.5353953915,-5.4364929472,621
108003,171855,235562,7.2191457842,-3.7040893848,-5.2869415346999995,622
108228,171881,235581,7.2777699379,-3.6179477712,-5.3742795596,623
108560,171898,235624,7.1952175581999995,-3.6550365215,-5.3862436726,624
108816,171929,235612,7.2885376395999995,-3.720839143,-5.2666025426,625
109111,171961,235639,7.2311098972,-3.6335011181000003,-5.2211389132,626
109401,171977,235634,7.320840744700001,-3.6287154729,-5.3264231076,627
109671,172010,235654,7.3399833255,-3.5665020853000002,-5.371886737,628
109922,172015,235698,7.2430740102,-3.768695595,-5.335994398,629
110198,172029,235721,7.3280192125,-3.6969109170000003,-5.3910293178,630
110473,172126,235723,7.214360139,-3.6119657146999997,-5.288137946,631
110691,172041,235724,7.1724857435,-3.5916267225999996,-5.265406131300001,632
110965,172105,235748,7.3950182453,-3.7411781350999997,-5.2666025426,633
111148,172092,235787,7.2885376395999995,-3.7387853125,-5.388636495199999,634
110814,172058,235745,7.2035924373,-3.7136606752,-5.3694939144,635
109800,171990,235671,7.3423761481,-3.6000016017000003,-5.2869415346999995,636
108656,171930,235601,7.2562345345,-3.7998022888,-5.2857451234,637
107846,171891,235551,7.3256263899,-3.7878381758,-5.4006006081999995,638
107438,171847,235564,7.2155565503000005,-3.7112678526000002,-5.3084769381,639
107305,171802,235517,7.3052873978,-3.6514472876,-5.3180482284999995,640
107420,171849,235591,7.2454668328,-3.7375889012,-5.2666025426,641
107629,171873,235578,7.2095744938,-3.6514472876,-5.347958511000001,642
107770,171854,235529,7.2550381232,-3.6969109170000003,-5.3168518172,643
107772,171808,235591,7.2765735266,-3.7256247882,-5.294120002500001,644
107692,171829,235577,7.4069823583000005,-3.8309089826,-5.294120002500001,645
107679,171859,235574,7.2885376395999995,-3.5856446661000003,-5.3503513336,646
107769,171843,235560,7.381857721,-3.780659708,-5.309673349400001,647
107867,171856,235597,7.2311098972,-3.7926238210000003,-5.2677989539,648
108077,171843,235592,7.2765735266,-3.6047872469,-5.359922623999999,649
108336,171890,235600,7.3471617933,-3.6873396266,-5.3276195189,650
108571,171902,235632,7.1952175581999995,-3.6921252718,-5.4496534715000005,651
108843,171969,235654,7.281359171799999,-3.7136606752,-5.1888358081,652
109093,171939,235655,7.2753771152999995,-3.7782668854000003,-5.2689953652,653
109360,171971,235643,7.2095744938,-3.8009987001,-5.324030285,654
109615,171976,235669,7.2993053413,-3.684946804,-5.3431728658,655
109839,171988,235666,7.2598237683999995,-3.7926238210000003,-5.335994398,656
110060,172093,235684,7.171289332200001,-3.5401810367,-5.306084115499999,657
110256,171976,235759,7.2765735266,-3.7519458368,-5.2175496793,658
110252,172065,235732,7.3507510272,-3.7830525306,-5.4029934308,659
109517,171977,235628,7.2514488893,-3.6215370051,-5.279763066899999,660
108206,171859,235613,7.278966349199999,-3.5473595045,-5.251049195699999,661
106944,171777,235547,7.1365934045,-3.7818561193,-5.264209719999999,662
106092,171704,235473,7.323233567299999,-3.6167513599,-5.3132625833,663
105579,171684,235467,7.274180704,-3.6957145057000003,-5.331208752799999,664
105366,171659,235417,7.190431913,-3.5964123677999997,-5.2845487121,665
105387,171678,235389,7.4021967130999995,-3.6538401101999995,-5.2151568567,666
105635,171666,235450,7.281359171799999,-3.7435709577,-5.312066172,667
105867,171656,235467,7.2011996147,-3.4755748265,-5.3383872206000005,668
106056,171684,235493,7.2346991311,-3.6921252718,-5.4209396003000005,669
106084,171669,235461,7.3268228012,-3.6382867633,-5.3383872206000005,670
106124,171646,235451,7.3304120351,-3.505485109,-5.359922623999999,671
106228,171666,235494,7.3603223176,-3.6753755136,-5.371886737,672
106393,171713,235480,7.2335027198,-3.7842489418999996,-5.3048877041999996,673
106644,171725,235528,7.2514488893,-3.6574293441,-5.235495848799999,674
106965,171696,235554,7.3567330837,-3.5665020853000002,-5.4652068183999996,675
107245,171780,235566,7.278966349199999,-3.7734812402,-5.4544391167,676
107552,171767,235583,7.282555583100001,-3.7435709577,-5.3024948815999995,677
107848,171793,235642,7.2646094136,-3.7280176108,-5.419743189,678
108174,171849,235641,7.2454668328,-3.7519458368,-5.312066172,679
108396,171887,235680,7.332804857699999,-3.7459637803,-5.292923591199999,680
108669,171904,235604,7.274180704,-3.6969109170000003,-5.3336015753999995,681
108925,171865,235714,7.399803890499999,-3.7375889012,-5.3336015753999995,682
109152,171927,235703,7.317251510799999,-3.6394831745999996,-5.300102059,683
109417,171948,235722,7.349554615900001,-3.7304104334000003,-5.288137946,684
109415,171893,235703,7.3244299786000004,-3.6514472876,-5.376672382200001,685
108597,171866,235637,7.1629144531,-3.5868410774,-5.335994398,686
107306,171756,235595,7.1521467514,-3.5712877305000004,-5.2079783889,687
106171,171685,235478,7.2598237683999995,-3.7316068447,-5.2965128251,688
105443,171620,235476,7.495516794499999,-3.6430724085,-5.3455656884,689
105040,171572,235468,7.334001269,-3.7339996673,-5.1912286306999995,690
104937,171572,235420,7.3555366724,-3.6323047068,-5.3575298014,691
105064,171587,235437,7.3304120351,-3.6753755136,-5.132604477,692
105354,171557,235492,7.4823562701999995,-3.6873396266,-5.331208752799999,693
105631,171580,235482,7.357929495,-3.6825539814000003,-5.3862436726,694
105773,171583,235481,7.221538606799999,-3.5808590209,-5.3300123415,695
105817,171612,235462,7.1868426791,-3.6598221666999997,-5.2905307686,696
105897,171631,235510,7.381857721,-3.7268211995,-5.3503513336,697
106006,171609,235550,7.281359171799999,-3.6107693033999997,-5.331208752799999,698
106231,171545,235504,7.225127840700001,-3.6945180944,-5.2558348409,699
106494,171673,235548,7.2933232848,-3.7351960786,-5.2462635505,700
106789,171700,235546,7.3950182453,-3.6873396266,-5.321637462399999,701
107138,171656,235555,7.4225357052000005,-3.6047872469,-5.2223353244999995,702
107428,171711,235604,7.3519474385,-3.7064822074,-5.312066172,703
107795,171769,235632,7.4069823583000005,-3.5808590209,-5.3108697607,704
108026,171791,235646,7.2957161074000005,-3.7507494254999996,-5.388636495199999,705
108313,171814,235716,7.3411797368,-3.684946804,-5.300102059,706
108584,171840,235686,7.3663043741,-3.6598221666999997,-5.2869415346999995,707
108871,171879,235704,7.1509503401,-3.7902309983999998,-5.2558348409,708
109142,171886,235666,7.3543402611,-3.7914274097,-5.3072805268000005,709
109413,171942,235733,7.307680220399999,-3.6083764808,-5.223531735800001,710
109661,171957,235800,7.3854469549,-3.7543386594,-5.312066172,711
109473,171920,235704,7.4715885685,-3.6358939407,-5.458028350599999,712
108550,171805,235650,7.223931429399999,-3.6047872469,-5.2462635505,713
107316,171673,235554,7.2418775989,-3.7028929734999996,-5.2713881878,714
106317,171620,235573,7.3830541323,-3.6418759972,-5.331208752799999,715
105726,171597,235528,7.2933232848,-3.5509487384000002,-5.239085082699999,716
105447,171552,235521,7.1748785661,-3.6071800695,-5.3551369788,717
105414,171557,235504,7.0767728395,-3.5904303113,-5.2558348409,718
105666,171541,235542,7.2335027198,-3.6071800695,-5.2223353244999995,719
105976,171608,235519,7.3531438498,-3.7483566029,-5.3575298014,720
106210,171592,235534,7.2873412283,-3.6526436989,-5.3790652048,721
106318,171595,235521,7.281359171799999,-3.6634114006,-5.248656373099999,722
106323,171606,235544,7.323233567299999,-3.6538401101999995,-5.3647082692,723
106370,171629,235537,7.2478596554,-3.6586257553999997,-5.4209396003000005,724
106520,171632,235557,7.334001269,-3.7782668854000003,-5.3671010918,725
106768,171621,235566,7.310073043,-3.5449666819,-5.3288159302,726
107058,171681,235557,7.262216591,-3.7734812402,-5.3168518172,727
107411,171743,235615,7.2442704215000004,-3.7519458368,-5.2833523008,728
107711,171730,235633,7.2478596554,-3.6478580537000003,-5.3084769381,729
108029,171776,235698,7.3878397775,-3.6658042232,-5.2905307686,730
108366,171779,235642,7.4333034069,-3.6658042232,-5.3742795596,731
108638,171833,235759,7.2957161074000005,-3.7292140221,-5.3012984703,732
108874,171822,235712,7.307680220399999,-3.6430724085,-5.3934221404,733
109130,171841,235715,7.3411797368,-3.7399817238,-5.2845487121,734
109362,171889,235733,7.2095744938,-3.5892339,-5.2127640341,735
109547,171919,235778,7.399803890499999,-3.6765719249,-5.3288159302,736
109721,171941,235795,7.3519474385,-3.6442688197999997,-5.2905307686,737
109473,171869,235756,7.2969125187,-3.8464623295,-5.3826544387,738
108487,171784,235722,7.2335027198,-3.5700913192,-5.1852465742,739
107380,171687,235641,7.3184479221,-3.6945180944,-5.324030285,740
106569,171631,235599,7.155735985300001,-3.7256247882,-5.2450671392,741
106207,171578,235556,7.381857721,-3.7890345870999997,-5.2450671392,742
106124,171536,235558,7.3543402611,-3.5964123677999997,-5.38385085,743
106236,171608,235588,7.317251510799999,-3.7399817238,-5.2713881878,744
106569,171623,235607,7.4010003018,-3.6119657146999997,-5.2701917765,745
106855,171640,235563,7.3830541323,-3.6442688197999997,-5.2630133087,746
106945,171633,235589,7.3184479221,-3.7184463204,-5.3527441562,747
107013,171638,235599,7.223931429399999,-3.5916267225999996,-5.2498527844,748
107096,171657,235652,7.3088766317000005,-3.6239298277,-5.3300123415,749
107181,171635,235633,7.2574309458,-3.7483566029,-5.3647082692,750
107372,171697,235627,7.167700098299999,-3.7196427317,-5.288137946,751
107614,171678,235644,7.2646094136,-3.7507494254999996,-5.3551369788,752
107903,171727,235700,7.286144817,-3.6095728921,-5.3575298014,753
108182,171745,235707,7.3184479221,-3.6466616424,-5.3336015753999995,754
108524,171780,235712,7.3064838090999995,-3.7232319655999997,-5.288137946,755
108762,171820,235780,7.3028945752,-3.6993037396,-5.3084769381,756
109063,171835,235724,7.4213392939,-3.6993037396,-5.3204410510999995,757
109374,171806,235801,7.3016981639,-3.7639099498,-5.371886737,758
109644,171932,235799,7.310073043,-3.6969109170000003,-5.324030285,759
109912,171921,235828,7.3005017526,-3.5832518435,-5.3192446398,760
110191,171971,235855,7.238288365000001,-3.6430724085,-5.2666025426,761
110426,171974,235833,7.1820570339,-3.4971102299,-5.2630133087,762
110632,172000,235882,7.2693950588,-3.7112678526000002,-5.1996035098,763
110583,171962,235861,7.2442704215000004,-3.7663027724,-5.4101718986,764
109763,171863,235840,7.2227350181,-3.6000016017000003,-5.2582276635,765
108550,171779,235742,7.2646094136,-3.6765719249,-5.2857451234,766
107422,171715,235712,7.221538606799999,-3.6023944243,-5.1900322194,767
106655,171629,235615,7.2837519944,-3.6981073283,-5.2749774217,768
106207,171571,235574,7.3292156238,-3.7387853125,-5.3874400839,769
106039,171566,235647,7.2095744938,-3.6945180944,-5.3407800432,770
106069,171557,235590,7.214360139,-3.7471601916,-5.1864429855,771
106309,171553,235617,7.4428746973,-3.6239298277,-5.2953164138,772
106546,171625,235627,7.262216591,-3.6514472876,-5.3539405675,773
106680,171576,235612,7.2574309458,-3.7471601916,-5.288137946,774
106735,171617,235630,7.240681187599999,-3.7495530142,-5.1888358081,775
106794,171570,235638,7.253841711900001,-3.6227334164,-5.4472606489,776
106881,171618,235629,7.2011996147,-3.7148570865,-5.347958511000001,777
107076,171640,235625,7.0863441299,-3.7447673690000003,-5.499902746099999,778
107316,171687,235659,7.3722864306,-3.7495530142,-5.359922623999999,779
107619,171732,235690,7.1114687672,-3.6143585373000002,-5.2821558895,780
107951,171698,235690,7.2311098972,-3.6681970457999995,-5.3228338737000005,781
108261,171760,235723,7.2957161074000005,-3.637090352,-5.363511857900001,782
108576,171814,235744,7.3136622769,-3.6909288605,-5.2977092364,783
108846,171807,235768,7.2598237683999995,-3.6789647475,-5.3144589946,784
109155,171796,235747,7.2598237683999995,-3.7148570865,-5.3790652048,785
109416,171854,235830,7.2598237683999995,-3.7244283769,-5.4245288342,786
109659,171877,235805,7.3112694543000005,-3.5988051904000002,-5.3072805268000005,787
109923,171898,235848,7.334001269,-3.6418759972,-5.4400821811,788
110175,171947,235879,7.3866433661999995,-3.6155549486,-5.251049195699999,789
110336,171968,235936,7.3686971967,-3.6789647475,-5.4628139958,790
109908,171926,235812,7.3052873978,-3.553341561,-5.388636495199999,791
108845,171790,235755,7.2191457842,-3.6610185779999997,-5.375475970899999,792
107687,171717,235710,7.2071816712,-3.7603207159,-5.359922623999999,793
106789,171574,235677,7.1928247355999995,-3.6095728921,-5.3934221404,794
106243,171589,235642,7.1736821548,-3.6119657146999997,-5.2821558895,795
106006,171539,235600,7.332804857699999,-3.5844482548,-5.4125647212,796
105994,171563,235619,7.2681986475,-3.6430724085,-5.280959478200001,797
106228,171590,235592,7.2969125187,-3.5449666819,-5.324030285,798
106535,171596,235633,7.2478596554,-3.5617164401,-5.371886737,799
106707,171596,235612,7.286144817,-3.6945180944,-5.306084115499999,800
106805,171607,235671,7.3112694543000005,-3.7160534978000004,-5.359922623999999,801
106812,171610,235644,7.3268228012,-3.6047872469,-5.321637462399999,802
106913,171618,235651,7.2358955424,-3.7531422481,-5.2594240748,803
107062,171627,235649,7.2095744938,-3.5593236175,-5.3671010918,804
107308,171643,235705,7.4237321165,-3.6586257553999997,-5.3336015753999995,805
107582,171688,235722,7.294519696099999,-3.6777683362,-5.3551369788,806
107921,171706,235713,7.3375905029,-3.7387853125,-5.4125647212,807
108223,171707,235759,7.4237321165,-3.5808590209,-5.3551369788,808
108542,171729,235729,7.3136622769,-3.6143585373000002,-5.321637462399999,809
108839,171815,235846,7.238288365000001,-3.4791640604,-5.4364929472,810
109108,171857,235785,7.1569323966,-3.7316068447,-5.2821558895,811
109435,171833,235839,7.378268487100001,-3.6789647475,-5.2965128251,812
109695,171885,235852,7.2646094136,-3.5665020853000002,-5.419743189,813
109961,171848,235915,7.267002236200001,-3.6502508763,-5.3144589946,814
110194,171918,235874,7.262216591,-3.6311082955,-5.3431728658,815
110439,171929,235891,7.2335027198,-3.6646078119,-5.4149575438,816
110178,171942,235856,7.3387869142,-3.7998022888,-5.306084115499999,817
109199,171809,235821,7.2993053413,-3.6538401101999995,-5.3336015753999995,818
107984,171751,235762,7.3663043741,-3.6346975294,-5.376672382200001,819
107019,171622,235688,7.3675007854,-3.6825539814000003,-5.306084115499999,820
106494,171577,235656,7.348358204599999,-3.6442688197999997,-5.3575298014,821
106252,171541,235616,7.2514488893,-3.6263226502999997,-5.442475003699999,822
106233,171582,235637,7.317251510799999,-3.7112678526000002,-5.405386253400001,823
106468,171605,235608,7.226324252,-3.7399817238,-5.3814580274,824
106760,171628,235632,7.3028945752,-3.6562329328,-5.407779076,825
106915,171606,235693,7.2358955424,-3.720839143,-5.3647082692,826
106917,171638,235685,7.3675007854,-3.613162126,-5.375475970899999,827
106919,171631,235687,7.2203421955,-3.6191441825000004,-5.2366922601,828
106952,171565,235651,7.1796642112999995,-3.6251262389999996,-5.3862436726,829
107115,171642,235695,7.171289332200001,-3.6514472876,-5.3288159302,830
107359,171640,235653,7.2478596554,-3.5952159565,-5.312066172,831
107652,171626,235715,7.3603223176,-3.6586257553999997,-5.4472606489,832
107969,171736,235789,7.240681187599999,-3.5820554322,-5.4341001246000005,833
108252,171640,235738,7.2454668328,-3.6813575701,-5.3778687935,834
108543,171783,235799,7.1808606226,-3.6897324492,-5.4807601652999995,835
108758,171792,235777,7.1916283243,-3.6897324492,-5.4388857698,836
109008,171827,235792,7.4668029232999995,-3.7005001509,-5.3647082692,837
109177,171819,235826,7.223931429399999,-3.6000016017000003,-5.2630133087,838
109347,171853,235860,7.2717878814,-3.6873396266,-5.2606204861,839
109540,171865,235831,7.349554615900001,-3.4767712378,-5.3264231076,840
109660,171884,235829,7.2801627605000006,-3.6287154729,-5.4783673427,841
109398,171838,235854,7.252645300599999,-3.7280176108,-5.3012984703,842
108357,171755,235757,7.125825702799999,-3.6478580537000003,-5.2295137923,843
107114,171612,235655,7.250252477999999,-3.6000016017000003,-5.3383872206000005,844
106247,171597,235628,7.3830541323,-3.7304104334000003,-5.371886737,845
105764,171494,235568,7.2011996147,-3.7423745464,-5.3395836319,846
105621,171506,235602,7.3722864306,-3.6071800695,-5.4400821811,847
105732,171515,235582,7.2897340509,-3.6825539814000003,-5.3072805268000005,848
106019,171532,235566,7.3627151402,-3.6921252718,-5.2965128251,849
106311,171557,235615,7.2646094136,-3.6969109170000003,-5.3108697607,850
106447,171539,235684,7.3280192125,-3.6179477712,-5.3108697607,851
106499,171556,235642,7.3758756645,-3.6658042232,-5.3431728658,852
106519,171538,235654,7.252645300599999,-3.5784661983,-5.3012984703,853
106631,171550,235623,7.2693950588,-3.6191441825000004,-5.2893343573,854
106910,171593,235660,7.3124658656,-3.5928231339,-5.3300123415,855
107120,171607,235668,7.319644333399999,-3.7579278933,-5.335994398,856
107393,171657,235725,7.2191457842,-3.7363924898999996,-5.3682975031,857
107712,171682,235710,7.183253445199999,-3.7471601916,-5.405386253400001,858
108021,171699,235740,7.2693950588,-3.6514472876,-5.331208752799999,859
108316,171736,235784,7.3112694543000005,-3.4767712378,-5.3084769381,860
108611,171746,235834,7.211967316399999,-3.5246276898,-5.3012984703,861
108969,171777,235817,7.1856462678,-3.6083764808,-5.3108697607,862
109181,171813,235828,7.336394091599999,-3.6335011181000003,-5.3647082692,863
109489,171829,235854,7.418946471299999,-3.6442688197999997,-5.288137946,864
109736,171901,235900,7.190431913,-3.6993037396,-5.331208752799999,865
110001,171915,235868,7.3016981639,-3.6227334164,-5.2749774217,866
110211,171897,235885,7.252645300599999,-3.8703905555,-5.335994398,867
109864,171869,235838,7.432106995600001,-3.780659708,-5.3778687935,868
108797,171766,235741,7.071987194299999,-3.5114671655,-5.2857451234,869
107423,171631,235733,7.211967316399999,-3.6107693033999997,-5.4161539550999995,870
106342,171481,235617,7.1485575175,-3.8033915226999997,-5.4017970195,871
105631,171481,235597,7.3758756645,-3.5808590209,-5.4221360116,872
105245,171425,235563,7.2598237683999995,-3.5545379723,-5.294120002500001,873
105068,171429,235561,7.196413969499999,-3.7280176108,-5.312066172,874
105203,171448,235554,7.2418775989,-3.7507494254999996,-5.3252266963,875
105521,171447,235556,7.390232600099999,-3.7854453531999996,-5.4412785924,876
105694,171495,235599,7.3256263899,-3.7459637803,-5.3742795596,877
105908,171491,235608,7.2167529616,-3.649054465,-5.3168518172,878
105957,171474,235575,7.3184479221,-3.7172499091,-5.2701917765,879
106034,171504,235665,7.2000032034000006,-3.5952159565,-5.4855458105,880
106174,171517,235589,7.282555583100001,-3.7160534978000004,-5.3455656884,881
106407,171553,235641,7.2550381232,-3.5521451497000003,-5.3012984703,882
106724,171568,235644,7.226324252,-3.7495530142,-5.4293144793999994,883
107047,171626,235662,7.196413969499999,-3.8620156764,-5.430510890700001,884
107396,171600,235665,7.2047888486,-3.7232319655999997,-5.3132625833,885
107716,171665,235734,7.3387869142,-3.7160534978000004,-5.407779076,886
108011,171688,235726,7.2909304621999995,-3.5784661983,-5.3288159302,887
108317,171636,235757,7.1892355017,-3.7112678526000002,-5.3826544387,888
108644,171735,235822,7.2430740102,-3.6215370051,-5.2019963324,889
108940,171788,235815,7.2598237683999995,-3.6777683362,-5.3611190353,890
109223,171831,235837,7.2646094136,-3.6789647475,-5.2725845991,891
109476,171829,235852,7.2011996147,-3.4707891813,-5.2606204861,892
109739,171862,235849,7.3471617933,-3.6263226502999997,-5.3036912929,893
109895,171868,235885,7.2837519944,-3.7005001509,-5.5178489156,894
109474,171804,235849,7.29810893,-3.7782668854000003,-5.3276195189,895
108337,171608,235759,7.1377898158,-3.5808590209,-5.3647082692,896
107120,171605,235673,7.3686971967,-3.6586257553999997,-5.2821558895,897
106161,171502,235624,7.238288365000001,-3.5353953915,-5.4388857698,898
105653,171457,235573,7.3734828419,-3.7184463204,-5.4412785924,899
105402,171417,235562,7.2299134859,-3.6418759972,-5.3934221404,900
105445,171376,235553,7.3531438498,-3.5521451497000003,-5.2725845991,901
105730,171453,235583,7.202396026,-3.5784661983,-5.312066172,902
106034,171534,235564,7.390232600099999,-3.6969109170000003,-5.389832906500001,903
106212,171516,235597,7.320840744700001,-3.5988051904000002,-5.4628139958,904
106296,171497,235634,7.1772713886999995,-3.6323047068,-5.359922623999999,905
106323,171552,235581,7.250252477999999,-3.7100714413,-5.2558348409,906
106434,171517,235607,7.2849484057,-3.7088750299999997,-5.38385085,907
106562,171556,235657,7.2897340509,-3.6538401101999995,-5.388636495199999,908
106867,171559,235615,7.2586273571,-3.6394831745999996,-5.2857451234,909
107197,171599,235645,7.221538606799999,-3.7005001509,-5.3515477449,910
107556,171627,235666,7.2107709050999995,-3.6406795858999996,-5.3862436726,911
107869,171644,235719,7.2047888486,-3.6311082955,-5.3108697607,912
108200,171699,235711,7.2323063085,-3.6323047068,-5.405386253400001,913
108527,171743,235730,7.3375905029,-3.5425738593,-5.4352965359,914
108821,171760,235758,7.2885376395999995,-3.6418759972,-5.3934221404,915
109134,171765,235812,7.2885376395999995,-3.6478580537000003,-5.3012984703,916
109410,171743,235825,7.221538606799999,-3.7639099498,-5.3455656884,917
109686,171865,235839,7.2047888486,-3.5138599880999997,-5.3527441562,918
109993,171892,235871,7.262216591,-3.768695595,-5.312066172,919
110141,171884,235839,7.2933232848,-3.6502508763,-5.587240771,920
109631,171769,235807,7.1437718723,-3.5928231339,-5.3611190353,921
108487,171708,235679,7.320840744700001,-3.7148570865,-5.2917271799,922
107382,171594,235638,7.3830541323,-3.7651063610999995,-5.3862436726,923
106675,171569,235661,7.3926254227,-3.6993037396,-5.4221360116,924
106263,171529,235602,7.2646094136,-3.5880374887,-5.3108697607,925
106178,171443,235586,7.2885376395999995,-3.5557343836,-5.347958511000001,926
106321,171531,235586,7.2095744938,-3.5437702705999996,-5.223531735800001,927
106604,171532,235607,7.3088766317000005,-3.7148570865,-5.4628139958,928
106748,171556,235636,7.3316084464,-3.6681970457999995,-5.472385286200001,929
106794,171515,235635,7.274180704,-3.5832518435,-5.4245288342,930
106734,171539,235610,7.2897340509,-3.6634114006,-5.315655405899999,931
106786,171536,235637,7.2454668328,-3.7064822074,-5.3790652048,932
106889,171532,235638,7.250252477999999,-3.6203405937999995,-5.3814580274,933
107121,171614,235591,7.3052873978,-3.7555350706999997,-5.3395836319,934
107383,171614,235603,7.2514488893,-3.5676984966,-5.3228338737000005,935
107645,171658,235622,7.4524459877,-3.684946804,-5.3407800432,936
107982,171648,235650,7.1330041706000005,-3.8392838617,-5.4006006081999995,937
108254,171689,235729,7.2837519944,-3.6418759972,-5.3132625833,938
108548,171715,235763,7.274180704,-3.7710884175999997,-5.404189842099999,939
108818,171737,235777,7.3220371559999995,-3.7399817238,-5.4006006081999995,940
109093,171742,235783,7.3124658656,-3.6418759972,-5.312066172,941
109345,171811,235808,7.1856462678,-3.4348968423,-5.4388857698,942
109613,171843,235793,7.1509503401,-3.7375889012,-5.3168518172,943
109614,171783,235787,7.3124658656,-3.7758740628,-5.4963135121999995,944
108862,171710,235714,7.2586273571,-3.6394831745999996,-5.4149575438,945
107537,171581,235655,7.1569323966,-3.6658042232,-5.292923591199999,946
106297,171489,235549,7.1521467514,-3.6299118841999998,-5.2953164138,947
105465,171415,235512,7.335197680299999,-3.6095728921,-5.3982077855999995,948
104966,171345,235488,7.3663043741,-3.8069807566000002,-5.3982077855999995,949
104749,171313,235473,7.3974110679,-3.5473595045,-5.4855458105,950
104771,171300,235495,7.171289332200001,-3.6466616424,-5.2893343573,951
105061,171325,235442,7.238288365000001,-3.6191441825000004,-5.315655405899999,952
105394,171386,235457,7.3028945752,-3.6921252718,-5.4209396003000005,953
105598,171410,235509,7.2717878814,-3.6741791022999997,-5.3742795596,954
105693,171360,235559,7.2801627605000006,-3.5485559157999997,-5.2378886713999995,955
105768,171416,235513,7.225127840700001,-3.601198013,-5.3491549223,956
105911,171399,235563,7.3734828419,-3.4971102299,-5.3563333901,957
106126,171411,235531,7.3184479221,-3.6693934571,-5.3814580274,958
106394,171397,235546,7.281359171799999,-3.7112678526000002,-5.4065826647,959
106746,171490,235569,7.274180704,-3.6083764808,-5.3934221404,960
107084,171505,235605,7.2897340509,-3.6418759972,-5.3407800432,961
107430,171584,235578,7.2610201797,-3.6251262389999996,-5.3336015753999995,962
107760,171589,235626,7.1952175581999995,-3.7232319655999997,-5.3694939144,963
108079,171640,235685,7.2095744938,-3.6167513599,-5.4759745201,964
108380,171653,235680,7.3878397775,-3.8081771679,-5.344369277099999,965
108686,171698,235723,7.3184479221,-3.7734812402,-5.312066172,966
108953,171724,235699,7.2478596554,-3.6705898684,-5.3659046805,967
109199,171710,235733,7.2729842927,-3.5976087790999998,-5.300102059,968
109266,171745,235770,7.1820570339,-3.8787654346,-5.3539405675,969
108651,171648,235694,7.4105715922,-3.6323047068,-5.388636495199999,970
107420,171522,235643,7.2693950588,-3.6825539814000003,-5.4412785924,971
106193,171344,235538,7.2957161074000005,-3.6275190616,-5.2905307686,972
105325,171335,235533,7.2837519944,-3.6729826909999996,-5.446064237599999,973
104889,171281,235426,7.2574309458,-3.6442688197999997,-5.371886737,974
104721,171312,235433,7.29810893,-3.6275190616,-5.3826544387,975
104801,171285,235420,7.238288365000001,-3.5557343836,-5.3264231076,976
105127,171289,235502,7.214360139,-3.6454652310999998,-5.4029934308,977
105457,171291,235463,7.286144817,-3.6969109170000003,-5.3228338737000005,978
105650,171351,235501,7.2598237683999995,-3.7459637803,-5.359922623999999,979
105735,171354,235434,7.183253445199999,-3.6179477712,-5.392225729100001,980
105799,171338,235502,7.3387869142,-3.6562329328,-5.4245288342,981
105979,171351,235496,7.310073043,-3.6191441825000004,-5.4125647212,982
106213,171422,235490,7.3136622769,-3.7280176108,-5.3228338737000005,983
106527,171422,235558,7.0863441299,-3.6299118841999998,-5.3168518172,984
106849,171448,235586,7.1952175581999995,-3.5988051904000002,-5.3048877041999996,985
107256,171526,235579,7.2287170746000005,-3.7136606752,-5.335994398,986
107605,171549,235635,7.282555583100001,-3.6191441825000004,-5.347958511000001,987
107954,171566,235633,7.2095744938,-3.5665020853000002,-5.2917271799,988
108284,171583,235652,7.304090986499999,-3.5856446661000003,-5.4281180681,989
108581,171654,235706,7.2717878814,-3.6000016017000003,-5.376672382200001,990
108921,171665,235725,7.2681986475,-3.6921252718,-5.3084769381,991
109174,171715,235712,7.4213392939,-3.6442688197999997,-5.3300123415,992
109486,171748,235736,7.3268228012,-3.6909288605,-5.3300123415,993
109743,171764,235802,7.171289332200001,-3.7316068447,-5.292923591199999,994
110014,171788,235839,7.1270221141,-3.7698920062999997,-5.3048877041999996,995
109948,171742,235787,7.2705914701,-3.7854453531999996,-5.4939206895999995,996
109117,171693,235706,7.2083780824999995,-3.6777683362,-5.376672382200001,997
107869,171575,235617,7.238288365000001,-3.6562329328,-5.2582276635,998
106824,171488,235527,7.240681187599999,-3.6287154729,-5.4376893585,999
106148,171410,235471,7.1234328802,-3.5988051904000002,-5.362315446599999,1000
105824,171359,235493,7.2909304621999995,-3.5066815203,-5.2989056477,1001
105801,171352,235485,7.3435725594,-3.7220355542999997,-5.334797986699999,1002
106040,171428,235530,7.2969125187,-3.6945180944,-5.376672382200001,1003
106417,171429,235517,7.2765735266,-3.6083764808,-5.306084115499999,1004
106572,171458,235552,7.1653072757,-3.7052857961,-5.3694939144,1005
106692,171462,235514,7.166503687,-3.5820554322,-5.2845487121,1006
106642,171468,235553,7.3028945752,-3.7124642639,-5.3682975031,1007
106710,171470,235592,7.2957161074000005,-3.6753755136,-5.306084115499999,1008
106860,171467,235532,7.2909304621999995,-3.6562329328,-5.3036912929,1009
107083,171485,235579,7.2454668328,-3.6299118841999998,-5.4209396003000005,1010
107377,171548,235611,7.2765735266,-3.6562329328,-5.3132625833,1011
107725,171563,235625,7.2311098972,-3.5521451497000003,-5.3575298014,1012
108050,171593,235598,7.190431913,-3.5892339,-5.4149575438,1013
108369,171648,235679,7.2765735266,-3.6610185779999997,-5.4664032297,1014
108645,171615,235675,7.29810893,-3.6681970457999995,-5.3742795596,1015
108874,171651,235708,7.1497539288,-3.6059836581999996,-5.3012984703,1016
109051,171707,235687,7.1856462678,-3.6897324492,-5.2953164138,1017
109235,171722,235696,7.2693950588,-3.5449666819,-5.4149575438,1018
109384,171728,235735,7.2550381232,-3.7064822074,-5.2055855663,1019
109502,171753,235737,7.317251510799999,-3.7184463204,-5.362315446599999,1020
109133,171682,235701,7.307680220399999,-3.7842489418999996,-5.4245288342,1021
108049,171563,235641,7.0839513072999996,-3.5844482548,-5.3336015753999995,1022
106875,171402,235522,7.262216591,-3.6562329328,-5.3407800432,1023
106066,171367,235485,7.1880390904,-3.6287154729,-5.344369277099999,1024
105681,171351,235432,7.286144817,-3.6598221666999997,-5.395814963,1025
105590,171349,235404,7.361518728899999,-3.720839143,-5.407779076,1026
105732,171350,235422,7.1820570339,-3.6741791022999997,-5.2618168974,1027
106060,171413,235435,7.310073043,-3.5916267225999996,-5.3371908093,1028
106336,171420,235514,7.2586273571,-3.7591243046000002,-5.3587262127,1029
106478,171440,235493,7.211967316399999,-3.6346975294,-5.2689953652,1030
106507,171408,235479,7.4500531651,-3.7555350706999997,-5.3742795596,1031
106561,171425,235452,7.2574309458,-3.6729826909999996,-5.3455656884,1032
106702,171398,235532,7.2155565503000005,-3.5832518435,-5.3455656884,1033
106861,171460,235537,7.2574309458,-3.6574293441,-5.2989056477,1034
107136,171459,235549,7.1784678,-3.5940195452,-5.306084115499999,1035
107405,171482,235563,7.2957161074000005,-3.7543386594,-5.2725845991,1036
107729,171506,235574,7.2394847763,-3.5892339,-5.3024948815999995,1037
108022,171566,235600,7.2550381232,-3.7734812402,-5.4101718986,1038
108332,171594,235641,7.304090986499999,-3.7698920062999997,-5.388636495199999,1039
108651,171644,235675,7.3220371559999995,-3.6000016017000003,-5.280959478200001,1040
108929,171676,235660,7.2705914701,-3.6454652310999998,-5.3324051641,1041
109214,171694,235672,7.070790783,-3.6789647475,-5.38385085,1042
109481,171711,235708,7.274180704,-3.6681970457999995,-5.3336015753999995,1043
109649,171713,235697,7.2167529616,-3.7591243046000002,-5.3395836319,1044
109170,171680,235624,7.2358955424,-3.7160534978000004,-5.4245288342,1045
107960,171532,235543,7.198806792099999,-3.6765719249,-5.321637462399999,1046
106567,171426,235472,7.1437718723,-3.5844482548,-5.2534420183,1047
105583,171322,235406,7.3280192125,-3.6514472876,-5.309673349400001,1048
104919,171287,235369,7.317251510799999,-3.6514472876,-5.446064237599999,1049
104570,171215,235383,7.184449856500001,-3.649054465,-5.292923591199999,1050
104492,171137,235358,7.1976103808000005,-3.6825539814000003,-5.2953164138,1051
104706,171245,235425,7.3423761481,-3.7483566029,-5.294120002500001,1052
105053,171248,235313,7.3926254227,-3.768695595,-5.407779076,1053
105299,171257,235369,7.240681187599999,-3.7232319655999997,-5.3563333901,1054
105397,171274,235421,7.2885376395999995,-3.5569307949000004,-5.2677989539,1055
105508,171310,235375,7.3052873978,-3.7256247882,-5.38385085,1056
105611,171302,235397,7.3016981639,-3.7076786186999997,-5.417350366399999,1057
105765,171363,235443,7.3471617933,-3.7256247882,-5.3108697607,1058
106050,171328,235425,7.265805824899999,-3.768695595,-5.3802616161,1059
106341,171376,235467,7.3710900192999995,-3.5784661983,-5.3647082692,1060
106700,171440,235504,7.4045895357,-3.6000016017000003,-5.3802616161,1061
107038,171464,235477,7.3316084464,-3.6335011181000003,-5.4029934308,1062
107388,171476,235551,7.2849484057,-3.7423745464,-5.4017970195,1063
107680,171515,235543,7.223931429399999,-3.6681970457999995,-5.3288159302,1064
107985,171554,235572,7.304090986499999,-3.7088750299999997,-5.4006006081999995,1065
108286,171627,235565,7.1473611062,-3.6406795858999996,-5.404189842099999,1066
108534,171626,235582,7.2969125187,-3.6670006345,-5.277370244299999,1067
108750,171627,235702,7.2681986475,-3.6358939407,-5.3036912929,1068
108551,171566,235586,7.4117680035,-3.7447673690000003,-5.5441699642,1069
107407,171461,235539,7.0815584846999995,-3.6801611588,-5.3814580274,1070
106074,171353,235451,7.240681187599999,-3.6729826909999996,-5.376672382200001,1071
105069,171241,235364,7.2562345345,-3.732803256,-5.3730831483,1072
104416,171186,235347,7.2598237683999995,-3.8129628130999995,-5.5166525043000005,1073
104105,171159,235336,7.2191457842,-3.6083764808,-5.279763066899999,1074
104094,171201,235320,7.2550381232,-3.7866417645,-5.2295137923,1075
104360,171183,235335,7.238288365000001,-3.6442688197999997,-5.2749774217,1076
104770,171224,235391,7.310073043,-3.8033915226999997,-5.5058848026,1077
105054,171235,235347,7.2777699379,-3.6466616424,-5.419743189,1078
105205,171258,235338,7.29810893,-3.6143585373000002,-5.4640104071,1079
105283,171253,235423,7.3830541323,-3.6323047068,-5.4388857698,1080
105375,171273,235426,7.2454668328,-3.7316068447,-5.4029934308,1081
105565,171280,235409,7.2885376395999995,-3.6861432153,-5.3910293178,1082
105854,171332,235403,7.2717878814,-3.6299118841999998,-5.3910293178,1083
106196,171404,235467,7.363911551499999,-3.6873396266,-5.334797986699999,1084
106557,171404,235517,7.2801627605000006,-3.5712877305000004,-5.3300123415,1085
106927,171428,235519,7.2430740102,-3.6514472876,-5.407779076,1086
107267,171487,235539,7.2490560667,-3.6083764808,-5.4221360116,1087
107604,171497,235553,7.4237321165,-3.6610185779999997,-5.3563333901,1088
107933,171536,235572,7.2107709050999995,-3.6765719249,-5.334797986699999,1089
108253,171598,235613,7.262216591,-3.6969109170000003,-5.3371908093,1090
108538,171589,235646,7.390232600099999,-3.6203405937999995,-5.3407800432,1091
108795,171628,235659,7.3220371559999995,-3.7423745464,-5.459224761900001,1092
108534,171571,235648,7.250252477999999,-3.7507494254999996,-5.3419764545,1093
107482,171520,235505,7.3256263899,-3.720839143,-5.3551369788,1094
106219,171415,235460,7.0995046541999995,-3.6059836581999996,-5.4113683099,1095
105399,171357,235398,7.1748785661,-3.6825539814000003,-5.3611190353,1096
104931,171254,235433,7.3878397775,-3.7016965622000004,-5.3814580274,1097
104821,171277,235428,7.3686971967,-3.6311082955,-5.4484570602,1098
105001,171308,235370,7.2765735266,-3.6921252718,-5.228317381,1099
105335,171344,235406,7.2693950588,-3.6346975294,-5.3395836319,1100
105590,171336,235398,7.1796642112999995,-3.8117664018,-5.294120002500001,1101
105597,171341,235421,7.2586273571,-3.7734812402,-5.335994398,1102
105497,171331,235406,7.3567330837,-3.7830525306,-5.3168518172,1103
105489,171359,235393,7.323233567299999,-3.6047872469,-5.3647082692,1104
105566,171343,235467,7.2155565503000005,-3.6119657146999997,-5.3814580274,1105
105768,171311,235446,7.238288365000001,-3.6035908356,-5.3072805268000005,1106
106054,171377,235489,7.2191457842,-3.6753755136,-5.376672382200001,1107
106386,171405,235456,7.2957161074000005,-3.6825539814000003,-5.376672382200001,1108
106729,171452,235500,7.278966349199999,-3.5988051904000002,-5.417350366399999,1109
107008,171449,235543,7.3471617933,-3.6406795858999996,-5.3671010918,1110
107285,171463,235547,7.399803890499999,-3.5856446661000003,-5.3563333901,1111
107565,171531,235593,7.250252477999999,-3.7363924898999996,-5.371886737,1112
107866,171581,235557,7.2311098972,-3.6179477712,-5.363511857900001,1113
108070,171552,235629,7.4584280442,-3.6873396266,-5.2737810104,1114
107902,171526,235560,7.335197680299999,-3.7232319655999997,-5.4652068183999996,1115
106876,171448,235540,7.2335027198,-3.5521451497000003,-5.3730831483,1116
105537,171353,235393,7.1808606226,-3.637090352,-5.388636495199999,1117
104419,171226,235366,7.2969125187,-3.6765719249,-5.292923591199999,1118
103721,171163,235359,7.274180704,-3.6993037396,-5.4029934308,1119
103319,171161,235283,7.3005017526,-3.6287154729,-5.4113683099,1120
103178,171094,235279,7.253841711900001,-3.6418759972,-5.315655405899999,1121
103486,171135,235314,7.3292156238,-3.6957145057000003,-5.3048877041999996,1122
103884,171157,235280,7.3519474385,-3.6897324492,-5.38385085,1123
104309,171177,235344,7.214360139,-3.6514472876,-5.4149575438,1124
104588,171202,235371,7.2083780824999995,-3.6406795858999996,-5.3228338737000005,1125
104648,171249,235353,7.281359171799999,-3.7232319655999997,-5.3982077855999995,1126
104802,171230,235362,7.3447689707,-3.6562329328,-5.4029934308,1127
105002,171230,235396,7.369893608,-3.6251262389999996,-5.405386253400001,1128
105285,171284,235448,7.1880390904,-3.7399817238,-5.3527441562,1129
105660,171293,235419,7.381857721,-3.6993037396,-5.419743189,1130
106054,171380,235446,7.3220371559999995,-3.6729826909999996,-5.5214381495,1131
106479,171426,235502,7.202396026,-3.4779676491,-5.324030285,1132
106784,171432,235550,7.190431913,-3.7722848289,-5.335994398,1133
107143,171419,235515,7.294519696099999,-3.5856446661000003,-5.417350366399999,1134
107443,171493,235587,7.317251510799999,-3.6765719249,-5.3694939144,1135
107762,171470,235605,7.2897340509,-3.6454652310999998,-5.3862436726,1136
108032,171572,235603,7.221538606799999,-3.6861432153,-5.3012984703,1137
108351,171587,235640,7.250252477999999,-3.6933216830999998,-5.4532427054,1138
108589,171615,235630,7.2753771152999995,-3.8392838617,-5.2618168974,1139
108303,171583,235563,7.4715885685,-3.6813575701,-5.4508498828,1140
107270,171463,235516,7.265805824899999,-3.6000016017000003,-5.4245288342,1141
105922,171380,235492,7.332804857699999,-3.5904303113,-5.472385286200001,1142
104906,171272,235403,7.3124658656,-3.5916267225999996,-5.417350366399999,1143
104280,171234,235401,7.2681986475,-3.6658042232,-5.4747781088,1144
103962,171213,235365,7.3064838090999995,-3.6418759972,-5.4149575438,1145
103961,171202,235314,7.2454668328,-3.637090352,-5.3682975031,1146
104252,171224,235323,7.317251510799999,-3.6825539814000003,-5.3575298014,1147
104679,171267,235409,7.3603223176,-3.6729826909999996,-5.4412785924,1148
105006,171267,235383,7.1976103808000005,-3.6753755136,-5.4221360116,1149
105208,171313,235409,7.2311098972,-3.6681970457999995,-5.2426743166000005,1150
105294,171311,235414,7.3256263899,-3.6550365215,-5.347958511000001,1151
105473,171310,235440,7.1820570339,-3.5114671655,-5.3982077855999995,1152
105686,171330,235404,7.2957161074000005,-3.7064822074,-5.359922623999999,1153
105984,171400,235436,7.1736821548,-3.5940195452,-5.335994398,1154
106358,171374,235514,7.1940211469,-3.5389846254,-5.4628139958,1155
106649,171438,235507,7.294519696099999,-3.6382867633,-5.3527441562,1156
107187,171521,235588,7.252645300599999,-3.5006994637999997,-5.3264231076,1157
107702,171523,235576,7.226324252,-3.5712877305000004,-5.6183474648,1158
108224,171575,235620,7.2335027198,-3.5138599880999997,-5.5214381495,1159
108846,171675,235633,7.2705914701,-3.5222348672,-5.2331030262,1160
109301,171710,235721,7.4117680035,-3.5030922864000003,-5.347958511000001,1161
109685,171746,235748,7.2550381232,-3.5724841418,-5.5022955687,1162
110009,171757,235732,7.274180704,-3.4815568829999997,-5.3132625833,1163
110339,171792,235742,7.171289332200001,-3.5940195452,-5.4006006081999995,1164
110402,171773,235696,7.319644333399999,-3.5114671655,-5.3790652048,1165
109598,171689,235676,7.2287170746000005,-3.5868410774,-5.3371908093,1166
108416,171560,235658,7.361518728899999,-3.5569307949000004,-5.2713881878,1167
107214,171522,235570,7.457231632899999,-3.4683963587,-5.376672382200001,1168
106480,171391,235532,7.2765735266,-3.6825539814000003,-5.4652068183999996,1169
106040,171413,235455,7.3028945752,-3.5820554322,-5.3383872206000005,1170
105948,171427,235445,7.334001269,-3.6155549486,-5.321637462399999,1171
106046,171401,235476,7.3399833255,-3.6323047068,-5.359922623999999,1172
106369,171414,235465,7.2765735266,-3.6382867633,-5.443671415,1173
106620,171465,235488,7.3256263899,-3.649054465,-5.446064237599999,1174
106676,171491,235526,7.240681187599999,-3.613162126,-5.3790652048,1175
106681,171452,235487,7.2478596554,-3.601198013,-5.371886737,1176
106738,171408,235537,7.2454668328,-3.649054465,-5.3994041969,1177
106851,171460,235528,7.1808606226,-3.6957145057000003,-5.467599641,1178
107051,171504,235534,7.211967316399999,-3.6993037396,-5.3910293178,1179
107374,171519,235509,7.2335027198,-3.7100714413,-5.347958511000001,1180
107688,171566,235558,7.323233567299999,-3.7998022888,-5.3515477449,1181
108032,171575,235583,7.29810893,-3.6693934571,-5.3491549223,1182
108349,171583,235626,7.2095744938,-3.6155549486,-5.4029934308,1183
108678,171655,235633,7.3423761481,-3.6394831745999996,-5.3682975031,1184
108983,171661,235631,7.214360139,-3.6418759972,-5.4089754873,1185
109325,171698,235677,7.3734828419,-3.6957145057000003,-5.3563333901,1186
109571,171789,235672,7.3316084464,-3.6825539814000003,-5.4484570602,1187
109856,171761,235680,7.3064838090999995,-3.6813575701,-5.371886737,1188
110135,171768,235649,7.2490560667,-3.7076786186999997,-5.4927242783,1189
110011,171760,235633,7.2885376395999995,-3.5234312785000004,-5.455635527999999,1190
109189,171722,235681,7.2801627605000006,-3.4648071248,-5.3264231076,1191
108098,171590,235569,7.2454668328,-3.720839143,-5.3527441562,1192
107313,171553,235530,7.3974110679,-3.5988051904000002,-5.3790652048,1193
106879,171512,235468,7.323233567299999,-3.7459637803,-5.3910293178,1194
106725,171502,235470,7.1856462678,-3.6203405937999995,-5.50349198,1195
106861,171523,235487,7.1916283243,-3.6981073283,-5.2893343573,1196
107135,171533,235496,7.1808606226,-3.5904303113,-5.4101718986,1197
107341,171530,235530,7.240681187599999,-3.6705898684,-5.458028350599999,1198
107370,171520,235501,7.2729842927,-3.8572300312,-5.3419764545,1199
107361,171497,235508,7.2191457842,-3.7280176108,-5.455635527999999,1200
107378,171561,235507,7.4452675199,-3.5569307949000004,-5.3407800432,1201
107543,171536,235497,7.2646094136,-3.5892339,-5.4484570602,1202
107779,171536,235537,7.2311098972,-3.6741791022999997,-5.4568319393,1203
108129,171573,235568,7.3423761481,-3.6945180944,-5.5477591981,1204
108532,171613,235534,7.2478596554,-3.5724841418,-5.3790652048,1205
108955,171685,235567,7.0504517909,-3.5461630932,-5.417350366399999,1206
109548,171725,235602,7.334001269,-3.5330025689,-5.3383872206000005,1207
110255,171772,235654,7.2729842927,-3.6622149893000002,-5.4149575438,1208
111071,171854,235661,6.9104716688000005,-4.0354953148999995,-5.3826544387,1209
111882,171944,235728,7.2095744938,-3.8117664018,-5.240281494,1210
112591,172001,235750,7.046862557000001,-3.8548372086000002,-5.3084769381,1211
113272,172068,235702,7.1569323966,-3.7339996673,-5.347958511000001,1212
113109,171996,235710,7.1449682836,-4.1312082188999995,-5.5202417382,1213
112258,171967,235656,7.1653072757,-3.9792639838,-5.3084769381,1214
111036,171843,235634,7.2837519944,-3.960121403,-5.312066172,1215
109787,171797,235587,7.0683979604,-3.9218362414,-5.4161539550999995,1216
108660,171684,235498,7.0205415084,-3.5748769644,-5.3192446398,1217
107796,171600,235467,7.198806792099999,-3.7423745464,-5.3587262127,1218
107434,171578,235483,7.1353969932,-3.8608192651000004,-5.2055855663,1219
107367,171566,235426,7.1090759446,-3.7866417645,-5.3371908093,1220
107422,171517,235430,7.294519696099999,-3.7256247882,-5.595615650099999,1221
107386,171510,235405,7.2885376395999995,-3.7734812402,-5.587240771,1222
107350,171537,235406,7.1593252192,-3.8835510798,-5.306084115499999,1223
107288,171504,235397,7.142575461000001,-3.7950166436,-5.3012984703,1224
107319,171527,235385,7.058826669999999,-3.6897324492,-5.4532427054,1225
107479,171514,235476,7.1688965096,-3.7471601916,-5.5322058512000005,1226
107717,171557,235448,7.0791656621,-3.7818561193,-5.4412785924,1227
108020,171602,235481,7.2705914701,-3.6658042232,-5.491527867,1228
108330,171615,235474,7.1641108644,-3.6562329328,-5.4532427054,1229
108644,171652,235531,7.088736952500001,-3.5545379723,-5.4891350444,1230
108988,171674,235516,7.1353969932,-3.6837503927,-5.4233324229,1231
109177,171697,235526,7.1772713886999995,-3.8404802730000003,-5.4891350444,1232
109424,171679,235523,7.0061845728000005,-3.5928231339,-5.4771709314,1233
109594,171736,235579,7.0923261864,-3.5629128513999997,-5.3587262127,1234
109836,171730,235569,7.2681986475,-3.7495530142,-5.4006006081999995,1235
109948,171783,235537,7.2442704215000004,-3.7938202323,-5.4496534715000005,1236
109269,171704,235569,7.240681187599999,-3.7112678526000002,-5.4987063348,1237
108046,171575,235431,7.142575461000001,-3.6921252718,-5.375475970899999,1238
106706,171447,235352,7.1928247355999995,-3.6119657146999997,-5.376672382200001,1239
105664,171338,235329,7.1150580011,-3.6933216830999998,-5.5322058512000005,1240
105018,171328,235291,7.2646094136,-3.7555350706999997,-5.4388857698,1241
104739,171299,235248,7.2562345345,-3.7160534978000004,-5.4604211732,1242
104778,171275,235262,7.1880390904,-3.7495530142,-5.4652068183999996,1243
105121,171309,235232,7.2323063085,-3.7746776515,-5.5058848026,1244
105469,171304,235250,7.1569323966,-3.6801611588,-5.5357950851,1245
105695,171321,235273,7.1724857435,-3.7794632967,-5.417350366399999,1246
105770,171326,235293,7.1461646949,-3.8428730956,-5.4699924636,1247
105835,171374,235258,7.2035924373,-3.8189448695999997,-5.4484570602,1248
105933,171358,235338,7.2131637277000005,-3.7304104334000003,-5.472385286200001,1249
106158,171375,235324,7.104290299400001,-3.8632120877,-5.486742221799999,1250
106451,171411,235390,7.2311098972,-3.8117664018,-5.4125647212,1251
106796,171419,235384,7.166503687,-3.7914274097,-5.525027383399999,1252
107182,171451,235396,7.170092920899999,-3.6897324492,-5.513063270399999,1253
107523,171492,235462,7.171289332200001,-3.720839143,-5.467599641,1254
107844,171549,235472,7.0157558632,-3.7579278933,-5.407779076,1255
108192,171575,235472,7.118647235,-3.7950166436,-5.4987063348,1256
108498,171623,235481,7.125825702799999,-3.7591243046000002,-5.484349399199999,1257
108797,171636,235541,7.130611348,-3.6239298277,-5.3826544387,1258
109081,171645,235557,7.0205415084,-3.7220355542999997,-5.4604211732,1259
109335,171725,235515,7.0839513072999996,-3.6658042232,-5.554937665900001,1260
109066,171654,235529,7.1377898158,-3.7878381758,-5.5190453269,1261
107969,171576,235461,7.237091953699999,-3.7256247882,-5.4987063348,1262
106514,171491,235390,7.0851477186,-3.6251262389999996,-5.4532427054,1263
105414,171370,235305,7.237091953699999,-3.7758740628,-5.5274202059999995,1264
104781,171346,235256,7.320840744700001,-3.6933216830999998,-5.5728838354,1265
104490,171290,235281,7.304090986499999,-3.5892339,-5.6195438761,1266
104585,171337,235281,7.240681187599999,-3.6574293441,-5.264209719999999,1267
104949,171347,235311,7.323233567299999,-3.5353953915,-5.4221360116,1268
105356,171404,235347,7.345965381999999,-3.8512479747,-5.4628139958,1269
105578,171370,235280,7.262216591,-3.7411781350999997,-5.4807601652999995,1270
105602,171377,235273,7.265805824899999,-3.8309089826,-5.539384319,1271
105595,171370,235339,7.1090759446,-3.6000016017000003,-5.3934221404,1272
105654,171360,235322,7.198806792099999,-3.4971102299,-5.3455656884,1273
105857,171362,235355,7.166503687,-3.8153556357,-5.4652068183999996,1274
106164,171456,235372,7.1748785661,-3.7375889012,-5.5525448433,1275
106527,171430,235381,7.221538606799999,-3.6969109170000003,-5.471188874899999,1276
106898,171469,235387,7.2634130023,-3.6993037396,-5.4652068183999996,1277
107299,171489,235451,7.1629144531,-3.6000016017000003,-5.4125647212,1278
107616,171571,235517,7.1736821548,-3.6945180944,-5.515456093,1279
107958,171593,235484,7.2035924373,-3.7160534978000004,-5.455635527999999,1280
108258,171618,235471,7.2466632441,-3.8632120877,-5.4939206895999995,1281
108497,171633,235529,7.1892355017,-3.4995030524999997,-5.3994041969,1282
108761,171602,235557,7.2466632441,-3.6897324492,-5.4089754873,1283
108637,171662,235560,7.1653072757,-3.6095728921,-5.553741254599999,1284
107722,171562,235465,7.1856462678,-3.6227334164,-5.491527867,1285
106399,171443,235408,7.323233567299999,-3.7304104334000003,-5.458028350599999,1286
105393,171437,235357,7.214360139,-3.7459637803,-5.479563754,1287
104888,171370,235327,7.214360139,-3.7854453531999996,-5.4699924636,1288
104812,171337,235330,7.1724857435,-3.6251262389999996,-5.4017970195,1289
105043,171362,235315,7.104290299400001,-3.7112678526000002,-5.388636495199999,1290
105490,171407,235361,7.2203421955,-3.6861432153,-5.5082776252,1291
105844,171428,235390,7.3184479221,-3.6574293441,-5.5274202059999995,1292
106027,171440,235360,7.2729842927,-3.7543386594,-5.4652068183999996,1293
106094,171375,235362,7.1796642112999995,-3.6394831745999996,-5.3946185517,1294
106149,171412,235409,7.070790783,-3.5736805531,-5.479563754,1295
106265,171454,235343,7.3148586882,-3.7040893848,-5.5010991574000005,1296
106529,171464,235454,7.2358955424,-3.8069807566000002,-5.583651537100001,1297
106823,171538,235454,7.265805824899999,-3.5820554322,-5.515456093,1298
107133,171520,235463,7.0133630406,-3.6454652310999998,-5.430510890700001,1299
107504,171593,235413,7.1892355017,-3.6335011181000003,-5.5609197224,1300
107822,171629,235519,7.1497539288,-3.7028929734999996,-5.50349198,1301
108218,171611,235473,7.2562345345,-3.7447673690000003,-5.5477591981,1302
108483,171662,235531,7.142575461000001,-3.7782668854000003,-5.4400821811,1303
108802,171722,235539,7.1748785661,-3.720839143,-5.5058848026,1304
109092,171713,235555,7.130611348,-3.5617164401,-5.5226345608,1305
109366,171717,235565,7.0803620734,-3.7280176108,-5.444867826299999,1306
109505,171761,235614,7.2550381232,-3.7256247882,-5.484349399199999,1307
108880,171685,235565,7.221538606799999,-3.6909288605,-5.471188874899999,1308
107575,171532,235434,7.2083780824999995,-3.6574293441,-5.4532427054,1309
106257,171475,235393,7.1868426791,-3.5545379723,-5.4137611324999995,1310
105292,171411,235343,7.190431913,-3.6670006345,-5.4089754873,1311
104706,171357,235305,7.0767728395,-3.7435709577,-5.5010991574000005,1312
104482,171300,235290,7.2299134859,-3.6897324492,-5.5369914964,1313
104532,171377,235245,7.2335027198,-3.6299118841999998,-5.4245288342,1314
104920,171382,235340,7.1090759446,-3.6993037396,-5.491527867,1315
105341,171437,235347,7.1330041706000005,-3.7543386594,-5.5489556094,1316
105648,171404,235380,7.154539573999999,-3.7399817238,-5.4735816975,1317
105762,171425,235361,7.1114687672,-3.7531422481,-5.455635527999999,1318
105879,171441,235356,7.1736821548,-3.7519458368,-5.4628139958,1319
106014,171424,235384,7.226324252,-3.6191441825000004,-5.5262237947,1320
106245,171436,235400,7.1198436463,-3.5856446661000003,-5.479563754,1321
106571,171473,235412,7.155735985300001,-3.6382867633,-5.525027383399999,1322
106941,171504,235474,7.1976103808000005,-3.6047872469,-5.4891350444,1323
107329,171559,235461,7.0660051378,-3.6753755136,-5.459224761900001,1324
107710,171595,235462,7.1090759446,-3.7770704741,-5.4257252455,1325
108068,171593,235487,7.129414936699999,-3.6406795858999996,-5.4927242783,1326
108399,171617,235541,7.1210400576,-3.6993037396,-5.4484570602,1327
108721,171635,235483,7.2059852599,-3.7363924898999996,-5.5178489156,1328
109009,171662,235585,7.1461646949,-3.768695595,-5.4520462941,1329
109282,171726,235537,7.2131637277000005,-3.4660035360999997,-5.486742221799999,1330
109558,171743,235544,7.294519696099999,-3.7220355542999997,-5.344369277099999,1331
109590,171713,235567,7.3280192125,-3.6670006345,-5.5609197224,1332
108881,171653,235506,7.142575461000001,-3.6789647475,-5.5728838354,1333
107639,171560,235466,7.1593252192,-3.5234312785000004,-5.4747781088,1334
106529,171478,235405,7.1437718723,-3.7435709577,-5.4341001246000005,1335
105783,171423,235369,7.2227350181,-3.7567314819999997,-5.5118668590999995,1336
105404,171388,235309,7.198806792099999,-3.7232319655999997,-5.3826544387,1337
105306,171411,235289,7.1760749774,-3.6311082955,-5.3730831483,1338
105503,171392,235291,7.104290299400001,-3.7076786186999997,-5.3611190353,1339
105874,171410,235367,7.1030938881,-3.6993037396,-5.479563754,1340
106305,171412,235402,7.2035924373,-3.6945180944,-5.5728838354,1341
106533,171417,235332,7.1820570339,-3.7016965622000004,-5.5716874241,1342
106698,171435,235389,7.1342005819,-3.5641092626999997,-5.4364929472,1343
106841,171424,235368,7.1485575175,-3.5485559157999997,-5.3371908093,1344
107008,171463,235419,7.0516482022,-3.7770704741,-5.5369914964,1345
107260,171493,235452,7.2047888486,-3.8249269261,-5.3515477449,1346
107578,171512,235392,7.1330041706000005,-3.6909288605,-5.5680981902,1347
107963,171568,235438,7.0672015491,-3.6825539814000003,-5.587240771,1348
108281,171552,235472,7.0193450971,-3.6837503927,-5.4963135121999995,1349
108701,171598,235481,7.2897340509,-3.5880374887,-5.491527867,1350
109041,171648,235581,7.0815584846999995,-3.6251262389999996,-5.5728838354,1351
109442,171659,235522,7.125825702799999,-3.7112678526000002,-5.5082776252,1352
109679,171679,235558,7.2275206633,-3.7854453531999996,-5.5609197224,1353
109987,171732,235576,7.1282185253999995,-3.8117664018,-5.472385286200001,1354
110249,171769,235602,7.094719009,-3.4947174072999996,-5.4783673427,1355
110568,171789,235583,7.2299134859,-3.6047872469,-5.4221360116,1356
110754,171739,235604,7.0660051378,-3.7280176108,-5.486742221799999,1357
110388,171736,235623,7.2203421955,-3.7256247882,-5.563312545,1358
109392,171667,235489,7.1569323966,-3.6191441825000004,-5.4604211732,1359
108243,171586,235429,7.0959154203,-3.6634114006,-5.3180482284999995,1360
107529,171409,235421,7.3148586882,-3.7184463204,-5.5298130286000005,1361
107098,171485,235414,7.1760749774,-3.7495530142,-5.5441699642,1362
107041,171500,235369,7.2681986475,-3.649054465,-5.4520462941,1363
107270,171506,235329,7.0839513072999996,-3.7136606752,-5.4221360116,1364
107588,171506,235385,7.202396026,-3.6335011181000003,-5.4628139958,1365
107854,171562,235403,7.1318077593,-3.5617164401,-5.3994041969,1366
107909,171541,235390,7.183253445199999,-3.7818561193,-5.539384319,1367
107897,171498,235400,7.1246292915,-3.6717862797,-5.5800623032,1368
107844,171496,235419,7.3184479221,-3.7064822074,-5.4628139958,1369
107900,171522,235386,7.1928247355999995,-3.7052857961,-5.582455125799999,1370
108060,171511,235393,7.1521467514,-3.6801611588,-5.4400821811,1371
108290,171540,235448,7.1784678,-3.6418759972,-5.4987063348,1372
108516,171581,235427,7.1952175581999995,-3.7040893848,-5.5226345608,1373
108757,171570,235443,7.3292156238,-3.6897324492,-5.4628139958,1374
109026,171590,235480,7.094719009,-3.5904303113,-5.5058848026,1375
109278,171619,235456,7.1497539288,-3.6873396266,-5.5680981902,1376
109538,171659,235490,6.9690958225,-3.7292140221,-5.4987063348,1377
109787,171634,235486,7.155735985300001,-3.7052857961,-5.5262237947,1378
110000,171663,235560,7.1928247355999995,-3.7016965622000004,-5.553741254599999,1379
110237,171711,235537,7.0767728395,-3.6275190616,-5.426921656799999,1380
109995,171676,235518,7.202396026,-3.6801611588,-5.5118668590999995,1381
108964,171586,235421,7.1174508237000005,-3.5294133349999997,-5.4508498828,1382
107689,171476,235356,7.171289332200001,-3.6550365215,-5.4364929472,1383
106628,171377,235276,7.323233567299999,-3.7399817238,-5.4963135121999995,1384
105964,171318,235292,7.1629144531,-3.6023944243,-5.541777141600001,1385
105592,171309,235225,7.1473611062,-3.6885360378999996,-5.3970113743,1386
105485,171243,235203,7.3016981639,-3.7136606752,-5.4209396003000005,1387
105750,171280,235211,7.0899333638,-3.6478580537000003,-5.491527867,1388
106088,171289,235284,7.2586273571,-3.6909288605,-5.5465627868,1389
106370,171323,235277,7.1342005819,-3.6502508763,-5.5010991574000005,1390
106463,171315,235267,7.0851477186,-3.613162126,-5.3994041969,1391
106504,171339,235283,7.2083780824999995,-3.6275190616,-5.513063270399999,1392
106597,171347,235337,7.1808606226,-3.7674991837,-5.4233324229,1393
106773,171263,235305,7.381857721,-3.7387853125,-5.4065826647,1394
107055,171371,235293,7.1401826384,-3.613162126,-5.4029934308,1395
107382,171380,235361,7.106683122,-3.7040893848,-5.5657053676,1396
107717,171443,235417,7.237091953699999,-3.732803256,-5.4819565766,1397
108057,171460,235415,7.1605216305,-3.8117664018,-5.4951171009,1398
108395,171481,235414,7.1880390904,-3.6418759972,-5.430510890700001,1399
108666,171509,235400,7.171289332200001,-3.6837503927,-5.5202417382,1400
108986,171534,235428,7.190431913,-3.7830525306,-5.4855458105,1401
109263,171565,235490,7.1760749774,-3.6550365215,-5.575276658,1402
109520,171633,235472,7.0935225977,-3.7256247882,-5.430510890700001,1403
109761,171627,235557,6.9858455806999995,-3.6837503927,-5.3874400839,1404
110014,171668,235559,7.141379049699999,-3.6921252718,-5.4293144793999994,1405
109992,171711,235522,7.265805824899999,-3.6957145057000003,-5.6231331099999995,1406
109181,171576,235465,7.1521467514,-3.5760733757,-5.570491012800001,1407
107804,171445,235419,7.158128807899999,-3.5617164401,-5.444867826299999,1408
106556,171380,235306,7.223931429399999,-3.7399817238,-5.4388857698,1409
105555,171267,235229,7.1856462678,-3.7005001509,-5.5489556094,1410
105031,171202,235206,7.363911551499999,-3.7746776515,-5.541777141600001,1411
104715,171166,235217,7.125825702799999,-3.7459637803,-5.5561340772,1412
104830,171156,235170,7.1030938881,-3.7435709577,-5.443671415,1413
105132,171213,235240,7.1820570339,-3.8297125713,-5.5932228275,1414
105484,171272,235191,7.1533431627,-3.7746776515,-5.430510890700001,1415
105676,171250,235223,7.118647235,-3.6681970457999995,-5.4089754873,1416
105737,171238,235240,7.2634130023,-3.6418759972,-5.5525448433,1417
105791,171226,235247,7.154539573999999,-3.6789647475,-5.4628139958,1418
105940,171281,235262,7.1688965096,-3.7016965622000004,-5.5178489156,1419
106141,171262,235272,7.214360139,-3.7663027724,-5.4699924636,1420
106480,171310,235255,7.2454668328,-3.5605200288,-5.5070812139,1421
106803,171359,235320,7.1796642112999995,-3.7232319655999997,-5.4735816975,1422
107150,171378,235325,7.1150580011,-3.649054465,-5.4388857698,1423
107524,171405,235391,7.0540410248,-3.6765719249,-5.5812587145,1424
107841,171468,235392,7.2646094136,-3.6693934571,-5.525027383399999,1425
108156,171475,235406,7.171289332200001,-3.6466616424,-5.5345986738,1426
108455,171510,235454,7.130611348,-3.6155549486,-5.5106704478,1427
108781,171520,235482,7.2191457842,-3.7112678526000002,-5.4652068183999996,1428
108990,171591,235486,7.2035924373,-3.7016965622000004,-5.513063270399999,1429
109331,171571,235561,7.0815584846999995,-3.6418759972,-5.4963135121999995,1430
109629,171622,235493,7.1210400576,-3.6287154729,-5.3994041969,1431
109809,171660,235520,7.2442704215000004,-3.6945180944,-5.5345986738,1432
109257,171591,235432,7.2095744938,-3.6047872469,-5.4855458105,1433
108015,171472,235440,7.1928247355999995,-3.6897324492,-5.4472606489,1434
106657,171384,235301,7.104290299400001,-3.7052857961,-5.3706903257,1435
105648,171282,235273,7.190431913,-3.7005001509,-5.5812587145,1436
105072,171172,235206,7.1688965096,-3.6670006345,-5.540580730299999,1437
104821,171233,235182,7.1880390904,-3.6155549486,-5.5214381495,1438
104895,171189,235220,6.9547388869,-3.6993037396,-5.3611190353,1439
105270,171191,235206,7.158128807899999,-3.6251262389999996,-5.5178489156,1440
105624,171294,235252,7.3184479221,-3.6921252718,-5.444867826299999,1441
105811,171266,235244,7.3184479221,-3.684946804,-5.484349399199999,1442
105868,171296,235257,7.1736821548,-3.7136606752,-5.4364929472,1443
105904,171307,235272,7.1808606226,-3.6969109170000003,-5.599204884000001,1444
105994,171224,235280,7.0995046541999995,-3.6358939407,-5.5202417382,1445
106216,171334,235302,7.2705914701,-3.7160534978000004,-5.491527867,1446
106591,171344,235351,7.2801627605000006,-3.8584264425,-5.5058848026,1447
106868,171383,235287,7.2562345345,-3.7136606752,-5.5178489156,1448
107265,171401,235323,7.1784678,-3.82851616,-5.491527867,1449
107626,171438,235396,7.2155565503000005,-3.6957145057000003,-5.4496534715000005,1450
107959,171462,235425,7.0851477186,-3.6993037396,-5.3994041969,1451
108270,171508,235415,7.3256263899,-3.6095728921,-5.4819565766,1452
108577,171556,235462,7.3519474385,-3.7256247882,-5.4927242783,1453
108860,171584,235510,7.196413969499999,-3.6358939407,-5.539384319,1454
109145,171620,235550,7.094719009,-3.7495530142,-5.5322058512000005,1455
109395,171644,235484,7.1641108644,-3.6921252718,-5.3659046805,1456
109543,171656,235568,7.226324252,-3.6526436989,-5.5202417382,1457
109067,171571,235471,7.073183605600001,-3.5617164401,-5.513063270399999,1458
107860,171481,235448,7.1282185253999995,-3.6789647475,-5.3539405675,1459
106590,171425,235322,7.2454668328,-3.6550365215,-5.443671415,1460
105751,171324,235274,7.1174508237000005,-3.6861432153,-5.4819565766,1461
105398,171284,235293,7.1748785661,-3.6514472876,-5.539384319,1462
105266,171274,235272,7.2323063085,-3.768695595,-5.513063270399999,1463
105550,171229,235250,7.1736821548,-3.5940195452,-5.4939206895999995,1464
105912,171325,235320,7.1198436463,-3.816552047,-5.539384319,1465
106150,171312,235309,7.082754896,-3.8775690233,-5.5465627868,1466
106247,171287,235263,7.0504517909,-3.7567314819999997,-5.444867826299999,1467
106248,171327,235246,7.1365934045,-3.6777683362,-5.467599641,1468
106330,171366,235339,7.1282185253999995,-3.7040893848,-5.4963135121999995,1469
106508,171355,235368,7.1569323966,-3.7232319655999997,-5.5010991574000005,1470
106730,171398,235332,7.2418775989,-3.6047872469,-5.4017970195,1471
107053,171334,235383,7.1234328802,-3.7483566029,-5.4819565766,1472
107371,171475,235411,7.1868426791,-3.6119657146999997,-5.5489556094,1473
107710,171474,235416,7.3148586882,-3.6191441825000004,-5.4233324229,1474
108072,171535,235437,7.0660051378,-3.6418759972,-5.3994041969,1475
108361,171517,235485,7.2969125187,-3.6550365215,-5.5046883913,1476
108672,171583,235517,7.166503687,-3.6897324492,-5.472385286200001,1477
108956,171607,235533,7.2095744938,-3.7232319655999997,-5.472385286200001,1478
109264,171676,235518,7.106683122,-3.8057843452999998,-5.4963135121999995,1479
109532,171632,235547,7.0683979604,-3.6813575701,-5.4747781088,1480
109796,171670,235586,7.1784678,-3.7256247882,-5.4293144793999994,1481
109890,171662,235565,7.2705914701,-3.7028929734999996,-5.513063270399999,1482
109262,171632,235551,7.2227350181,-3.6119657146999997,-5.5680981902,1483
107857,171500,235421,7.1892355017,-3.5856446661000003,-5.4819565766,1484
106456,171355,235336,7.1892355017,-3.6538401101999995,-5.2893343573,1485
105402,171307,235257,7.274180704,-3.7040893848,-5.563312545,1486
104807,171253,235188,7.267002236200001,-3.5593236175,-5.528616617299999,1487
104501,171155,235180,7.0516482022,-3.5593236175,-5.5800623032,1488
104463,171212,235169,7.1748785661,-3.8129628130999995,-5.3982077855999995,1489
104761,171190,235226,7.2107709050999995,-3.6023944243,-5.472385286200001,1490
105155,171257,235239,7.129414936699999,-3.7531422481,-5.426921656799999,1491
105412,171243,235234,7.1365934045,-3.6658042232,-5.4017970195,1492
105516,171263,235214,7.1054867107,-3.6765719249,-5.5178489156,1493
105635,171240,235236,7.1162544124,-3.720839143,-5.515456093,1494
105771,171279,235270,7.3016981639,-3.6945180944,-5.5585268998,1495
105973,171217,235239,7.1054867107,-3.7076786186999997,-5.3874400839,1496
106233,171338,235285,7.1282185253999995,-3.5880374887,-5.5010991574000005,1497
106675,171355,235314,7.167700098299999,-3.6574293441,-5.4568319393,1498
107065,171379,235408,7.2466632441,-3.6562329328,-5.4927242783,1499
107428,171351,235431,7.2346991311,-3.6251262389999996,-5.3826544387,1500
107794,171473,235366,7.0803620734,-3.7758740628,-5.5166525043000005,1501
108108,171518,235449,7.070790783,-3.7256247882,-5.6004012953,1502
108411,171452,235468,7.1401826384,-3.565305674,-5.4113683099,1503
108734,171550,235491,7.1976103808000005,-3.6981073283,-5.4281180681,1504
109055,171588,235476,7.088736952500001,-3.7615171272,-5.6099725857,1505
109330,171612,235527,7.141379049699999,-3.6837503927,-5.4699924636,1506
109629,171636,235551,7.094719009,-3.7890345870999997,-5.4927242783,1507
109842,171681,235547,7.087540541199999,-3.637090352,-5.5345986738,1508
110085,171708,235561,7.046862557000001,-3.6921252718,-5.4759745201,1509
110029,171695,235573,7.0672015491,-3.6418759972,-5.5728838354,1510
109110,171592,235457,7.075576428200001,-3.5234312785000004,-5.513063270399999,1511
107687,171475,235445,7.1270221141,-3.7052857961,-5.417350366399999,1512
106426,171373,235311,7.1940211469,-3.7304104334000003,-5.4604211732,1513
105543,171281,235279,7.250252477999999,-3.6466616424,-5.426921656799999,1514
105090,171219,235222,7.2287170746000005,-3.7890345870999997,-5.4604211732,1515
104915,171205,235267,7.1473611062,-3.7363924898999996,-5.553741254599999,1516
105049,171244,235184,7.1820570339,-3.7399817238,-5.3802616161,1517
105456,171285,235300,7.1162544124,-3.7112678526000002,-5.563312545,1518
