green,red,IR,acc_x,acc_y,acc_z,sample_index
123395,207179,266221,1.7742779578999999,9.3942215276,2.2660030021999997,1
123078,207116,266157,1.8161523534,9.399007172800001,2.1212372348999997,2
122704,207042,266103,1.6582260617999998,9.4731846734,2.1511475174,3
122461,206979,266047,1.8125631194999998,9.4025964067,2.2683958248,4
122381,206996,266074,1.7371892076000002,9.3188476157,2.1954147355,5
122441,207012,266080,1.8735800958,9.631110965,2.165504453,6
122646,207013,266033,1.6749758199999998,9.5066841898,2.2683958248,7
122762,206987,265979,1.7790636031,9.3547399547,2.2313070745,8
123026,207027,265972,1.8269200550999998,9.4863451977,2.1475582835,9
123165,206955,265992,1.7048861025,9.4360959231,2.1930219129,10
123291,206942,265917,1.7994025952000001,9.6993064091,2.3365912689,11
123406,206914,265902,1.7419748528,9.4145605197,2.0602202586000002,12
123528,206842,265937,1.6342978358,9.6957171752,2.2408783649,13
123462,206829,265886,1.7168502155,9.5820581017,2.2097716711,14
123041,206748,265776,1.6797614652,9.3702933016,2.0841484846,15
122562,206705,265723,1.8257236438,9.367900479,2.2002003807,16
122263,206681,265647,1.603191142,9.487541608999999,2.1607188078,17
122017,206574,265649,1.6474583601,9.367900479,2.141576227,18
122059,206604,265650,1.663011707,9.3726861242,2.1008982428,19
122227,206575,265631,1.6677973521999998,9.4181497536,2.1332013479,20
122447,206571,265621,1.5696916256,9.415756931,2.105683888,21
122600,206515,265580,1.7623138449,9.4217389875,2.177468566,22
122773,206539,265630,1.6893327556000002,9.487541608999999,2.0961125976,23
122850,206592,265612,1.7072789251,9.5485585853,1.9836499354,24
122999,206520,265560,1.7455640867,9.4241318101,2.2085752598,25
123111,206549,265610,1.7180466268,9.3427758417,2.0841484846,26
123074,206482,265580,1.7276179172000001,9.3487578982,2.1128623558,27
122702,206418,265483,1.7419748528,9.4791667299,2.1367905818,28
122103,206387,265481,1.8556339263000001,9.4707918508,2.1750757434,29
121610,206240,265422,1.8113667082,9.4301138666,2.0721843716,30
121380,206198,265368,1.8149559420999999,9.4899344316,2.1104695332,31
121371,206206,265363,1.770688724,9.3415794304,2.0650059038,32
121522,206204,265346,1.5960126741999998,9.4887380203,2.1152551784,33
121725,206209,265388,1.7635102562,9.5198447141,2.1116659445,34
121950,206253,265341,1.7371892076000002,9.367900479,2.2037896146,35
122077,206214,265344,1.7515461432000001,9.439685157,2.1008982428,36
122200,206291,265386,1.5481562222,9.4372923344,2.1547367513,37
122261,206181,265347,1.6785650538999999,9.4588277378,2.1092731219,38
122481,206228,265343,1.7001004573,9.415756931,2.0195422744,39
122394,206168,265319,1.55533469,9.3607220112,2.1128623558,40
122126,206102,265314,1.6606188843999998,9.5198447141,2.1870398563999998,41
121444,205999,265238,1.7192430381,9.509077012399999,2.1714865095,42
120877,205905,265199,1.6761722313,9.3655076564,2.1738793321000003,43
120675,205846,265136,1.7455640867,9.4444708022,2.0961125976,44
120589,205816,265105,1.5768700934,9.4301138666,2.0123638066000002,45
120749,205784,265149,1.7814564256999998,9.4420779796,2.093719775,46
120984,205787,265118,1.6007983194,9.4660062056,2.0195422744,47
121226,205775,265123,1.6737794087,9.4660062056,2.141576227,48
121407,205812,265160,1.7455640867,9.4863451977,2.1224336462,49
121532,205821,265094,1.6534404165999999,9.376275358100001,2.045863323,50
121623,205791,265108,1.6953148121,9.5246303593,2.1439690496,51
121769,205807,265147,1.6115660211,9.5126662463,1.9956140484,52
121819,205779,265176,1.5852449725,9.4133641084,2.0506489682,53
121529,205695,265152,1.6558332392,9.564111932200001,2.2109680824,54
120866,205602,265034,1.6869399330000001,9.439685157,2.081755662,55
120218,205502,264953,1.6953148121,9.451649269999999,2.081755662,56
119798,205409,264991,1.6283157793,9.477970318599999,2.1978075581,57
119713,205376,264937,1.5768700934,9.353543543399999,2.1595223965,58
119816,205330,264894,1.6091731985,9.5916293921,2.1260228801,59
120078,205366,265021,1.6079767872,9.4540420926,2.0590238472999998,60
120352,205387,265012,1.7647066674999998,9.4265246327,2.1559331626,61
120569,205411,265117,1.7120645703,9.3942215276,1.9836499354,62
120767,205462,265068,1.5170495284,9.4289174553,2.1104695332,63
120841,205473,265131,1.6582260617999998,9.3595255999,2.0889341298,64
120934,205494,265214,1.6462619487999999,9.5509514079,2.0865413072,65
120998,205493,265206,1.6701901747999999,9.5054877785,2.0913269524,66
120987,205434,265304,1.6354942471,9.4588277378,2.0829520733,67
120406,205399,265263,1.567298803,9.420542576199999,2.1272192914,68
119629,205210,265231,1.6737794087,9.3463650756,2.0985054202,69
119086,205225,265229,1.6115660211,9.5365944723,2.1008982428,70
118822,205183,265208,1.5649059803999998,9.6382894328,1.9908284031999999,71
118876,205143,265277,1.3986048097,9.4863451977,2.1212372348999997,72
119133,205208,265303,1.5601203352,9.509077012399999,2.0650059038,73
119430,205242,265261,1.5601203352,9.5461657627,2.1547367513,74
119711,205250,265328,1.7419748528,9.562915520899999,2.0602202586000002,75
119915,205257,265349,1.5361921092,9.4767739073,2.0769700168,76
120031,205266,265342,1.5505490447999999,9.6179504407,2.0614166699,77
120174,205295,265393,1.5397813431,9.4289174553,2.129612114,78
120267,205360,265348,1.6797614652,9.4731846734,2.1643080417,79
120434,205244,265394,1.5337992866,9.5808616904,2.045863323,80
120217,205340,265397,1.5182459396999999,9.5330052384,2.0769700168,81
119519,205186,265297,1.6558332392,9.499505722,2.0602202586000002,82
118797,205093,265278,1.7240286833,9.5294160045,2.03389921,83
118324,205053,265225,1.5960126741999998,9.4121676971,2.0410776778,84
118199,204982,265221,1.5696916256,9.415756931,2.1032910654,85
118341,204997,265240,1.7611174336,9.511469835,2.1212372348999997,86
118661,204975,265269,1.6007983194,9.4049892293,2.081755662,87
119037,205042,265282,1.6115660211,9.7160561673,2.1667008643,88
119336,205118,265284,1.6187444889,9.3487578982,2.141576227,89
119535,205144,265360,1.6677973521999998,9.5940222147,2.129612114,90
119702,205110,265332,1.5816557385999999,9.495916488099999,2.1032910654,91
119847,205157,265367,1.6474583601,9.522237536699999,2.1511475174,92
119986,205120,265328,1.615155255,9.475577496,2.1427726383,93
120172,205178,265401,1.5122638832,9.4229353988,2.0267207422,94
120061,205172,265390,1.6331014245,9.5138626576,2.1690936869,95
119423,205090,265311,1.6498511827,9.415756931,2.0805592507,96
118694,204984,265313,1.5744772707999999,9.4935236655,2.1714865095,97
118276,204938,265241,1.543370577,9.4133641084,2.0602202586000002,98
118135,204899,265196,1.6965112234000002,9.523433948000001,2.081755662,99
118301,204856,265235,1.5505490447999999,9.4133641084,2.1571295739000003,100
118601,204877,265239,1.5565311013,9.4731846734,2.1714865095,101
119001,204910,265289,1.5218351736,9.510273423700001,2.0530417908,102
119355,204985,265297,1.6127624323999998,9.451649269999999,2.0745771942,103
119597,204987,265300,1.3722837611,9.3595255999,2.0554346134,104
119791,205018,265345,1.6331014245,9.468399028199999,2.069791549,105
119961,205106,265351,1.6271193679999998,9.4612205604,2.057827436,106
120144,205090,265355,1.6223337227999999,9.463613383,2.057827436,107
120354,205136,265382,1.6797614652,9.5425765288,1.998006871,108
120507,205184,265425,1.5218351736,9.5413801175,2.105683888,109
120235,205121,265382,1.6414763036,9.5306124158,2.0434705004000002,110
119552,204975,265349,1.6307086019,9.4588277378,2.0865413072,111
118954,204889,265346,1.6055839645999999,9.5856473356,2.1523439287,112
118645,204833,265287,1.4751751328999998,9.5485585853,2.1475582835,113
118614,204813,265214,1.5218351736,9.4899344316,2.1224336462,114
118843,204820,265227,1.495514125,9.510273423700001,2.093719775,115
119179,204893,265233,1.5828521499000001,9.4600241491,2.0434705004000002,116
119586,204920,265230,1.6007983194,9.4576313265,2.1200408236,117
119907,204967,265318,1.6079767872,9.5557370531,2.0769700168,118
120163,204903,265345,1.4799607781,9.5162554802,2.1403798157,119
120387,204967,265349,1.5816557385999999,9.523433948000001,2.03389921,120
120551,204966,265347,1.6079767872,9.4923272542,2.0829520733,121
120745,205013,265403,1.6307086019,9.5162554802,2.1128623558,122
120987,205020,265409,1.6498511827,9.4624169717,1.9692929998,123
121168,205059,265382,1.5146567058,9.4468636248,2.1284157027,124
120947,205037,265383,1.5409777544,9.3667040677,2.1511475174,125
120330,204896,265375,1.6474583601,9.531808827099999,2.1858434451,126
119770,204820,265332,1.579262916,9.4253282214,2.1080767106,127
119467,204799,265294,1.6115660211,9.5772724565,2.0159530405,128
119375,204746,265260,1.6199409001999998,9.299705034899999,2.1786649773,129
119568,204818,265228,1.6977076347,9.5030949559,2.0554346134,130
119936,204838,265248,1.5385849318,9.487541608999999,2.1032910654,131
120301,204809,265255,1.5577275125999999,9.4731846734,2.237289131,132
120670,204818,265337,1.5972090855,9.463613383,2.1104695332,133
120889,204894,265343,1.5768700934,9.4492564474,2.03389921,134
121082,204913,265334,1.5816557385999999,9.451649269999999,2.0075781614,135
121278,204803,265433,1.6618152957,9.443274390900001,2.1308085253,136
121486,204941,265383,1.5206387623,9.497112899400001,2.1320049366,137
121738,204997,265423,1.6163516663,9.5078806011,2.1320049366,138
121997,204987,265463,1.6642081183,9.4360959231,2.0985054202,139
122086,205007,265495,1.531406464,9.589236569499999,2.1702900981999997,140
121676,204975,265408,1.5146567058,9.5485585853,2.2169501389,141
121082,204859,265365,1.5062818266999998,9.3870430598,2.1164515897,142
120630,204815,265344,1.6498511827,9.4540420926,2.1152551784,143
120448,204748,265349,1.5266208188,9.6394858441,2.1559331626,144
120422,204734,265329,1.6761722313,9.5246303593,2.2265214293,145
120740,204671,265288,1.6319050132,9.4372923344,2.1188444122999996,146
121075,204740,265347,1.6127624323999998,9.3427758417,2.1595223965,147
121405,204776,265390,1.6570296505,9.3738825355,2.1308085253,148
121663,204844,265389,1.7383856189,9.4289174553,2.2002003807,149
121877,204855,265429,1.5696916256,9.427721044,2.0769700168,150
122065,204845,265393,1.6869399330000001,9.4025964067,2.0626130812,151
122235,204806,265392,1.6761722313,9.4229353988,2.2193429615,152
122438,204910,265496,1.4333007374,9.6526463684,2.3330020350000003,153
122679,204966,265545,1.6067803759000001,9.4528456813,2.2073788485,154
122922,204967,265550,1.5565311013,9.468399028199999,2.1619152191,155
122920,204963,265538,1.5529418674,9.4660062056,2.2396819536,156
122495,204923,265566,1.4069796888000001,9.3906322937,2.2899312282,157
121938,204892,265540,1.4416756165,9.468399028199999,2.1320049366,158
121485,204882,265552,1.4691930764,9.3942215276,2.2061824372,159
121265,204793,265482,1.5026925928000001,9.3894358824,2.0327027987,160
121263,204708,265562,1.579262916,9.391828705,2.4741785684,161
121499,204840,265632,1.6091731985,9.3032942688,2.4861426814,162
121818,204789,265636,1.3375878334,9.6813602396,2.3521446158,163
122076,204772,265660,1.2825529136,9.5844509243,2.3940190112999997,164
122226,204632,265514,1.2765708571,9.4576313265,2.2887348169,165
122341,204664,265375,1.2921242039999998,9.3152583818,2.1966111468,166
122513,204703,265403,1.4021940436,9.4672026169,2.3126630429,167
122676,204695,265378,1.5397813431,9.451649269999999,2.1870398563999998,168
122850,204690,265355,1.5062818266999998,9.5940222147,2.1726829208,169
123013,204700,265359,1.4679966650999998,9.2494557603,2.2109680824,170
123228,204778,265377,1.5086746492999998,9.4827559638,2.2002003807,171
123221,204704,265381,1.4177473905,9.4360959231,2.2588245344,172
122808,204678,265337,1.4883356572,9.4420779796,2.3246271559,173
122165,204558,265358,1.6582260617999998,9.5557370531,2.2205393728,174
121680,204535,265261,1.5469598109,9.4360959231,2.2636101795999997,175
121369,204445,265243,1.4333007374,9.495916488099999,2.2660030021999997,176
121293,204427,265207,1.5900306177,9.4863451977,2.1726829208,177
121416,204351,265236,1.4608181972999998,9.2674019298,2.2061824372,178
121690,204423,265226,1.4500504956,9.5330052384,2.2085752598,179
121955,204463,265240,1.5122638832,9.463613383,2.3054845751,180
122163,204435,265286,1.4787643668000001,9.4325066892,2.1930219129,181
122294,204435,265258,1.3411770673,9.5306124158,2.2109680824,182
122400,204441,265251,1.5517454561000001,9.576076045199999,2.2109680824,183
122426,204503,265271,1.4009976323,9.5258267706,2.3341984463,184
122668,204525,265257,1.4931213024,9.5054877785,2.2468604214,185
122875,204469,265276,1.5038890041,9.391828705,2.3389840915,186
123093,204538,265279,1.4069796888000001,9.3738825355,2.2791635265,187
123154,204532,265279,1.2861421475,9.5724868113,2.2456640101,188
122863,204518,265265,1.5565311013,9.290133744499999,2.1738793321000003,189
122219,204406,265203,1.5014961814999999,9.4085784632,2.2468604214,190
121579,204354,265157,1.3770694063,9.4815595525,2.3318056236999998,191
121166,204264,265124,1.4333007374,9.5389872949,2.2743778813,192
120990,204242,265103,1.3770694063,9.3822574146,2.2181465501999997,193
121030,204181,265120,1.4297115034999999,9.4827559638,2.2863419943,194
121231,204136,265057,1.3615160593999998,9.499505722,2.309073809,195
121419,204257,265059,1.4775679554999999,9.562915520899999,2.1942183242,196
121757,204282,265090,1.4811571894,9.531808827099999,2.2097716711,197
121909,204325,265074,1.3914263419,9.499505722,2.4011974791,198
122034,204301,265117,1.4105689227,9.5533442305,2.309073809,199
122146,204317,265112,1.4201402131,9.549754996599999,2.3018953412000003,200
122271,204310,265122,1.4404792052000002,9.4337031005,2.177468566,201
122443,204363,265150,1.495514125,9.497112899400001,2.2037896146,202
122620,204356,265118,1.459621786,9.332008140000001,2.3318056236999998,203
122855,204391,265145,1.2693923893,9.5653083435,2.2600209457,204
122847,204397,265166,1.3866406967,9.5150590689,2.2492532439999997,205
122309,204326,265144,1.4309079148000001,9.4253282214,2.2983061073,206
121636,204217,265131,1.4165509792000002,9.4588277378,2.2827527603999997,207
121015,204137,265061,1.459621786,9.4253282214,2.2229321954,208
120582,204070,265051,1.5002997702,9.3894358824,2.3306092124,209
120520,204025,264931,1.3734801723999999,9.3702933016,2.2935204621,210
120660,204038,264973,1.43569356,9.5054877785,2.225325018,211
120902,204093,264971,1.5302100526999998,9.391828705,2.3138594542,212
121151,204091,264929,1.3591232368,9.531808827099999,2.3437697367,213
121324,204089,264972,1.3710873497999998,9.3511507208,2.2839491717,214
121434,204124,264969,1.4452648504,9.5748796339,2.1487546948,215
121496,204176,265017,1.43569356,9.4707918508,2.3066809864,216
121650,204116,265014,1.4392827939,9.4672026169,2.3198415107,217
121789,204190,265024,1.5230315848999998,9.443274390900001,2.2277178406,218
121952,204260,265084,1.5421741657,9.4612205604,2.3222343333,219
122139,204264,265089,1.4333007374,9.3631148338,2.0709879603,220
122182,204326,265067,1.4572289634,9.3810610033,2.2719850587,221
121858,204257,265113,1.5373885205000002,9.403792818,2.1966111468,222
121156,204162,265029,1.483550012,9.475577496,2.1487546948,223
120444,204079,265028,1.4907284798,9.4097748745,2.1858434451,224
119974,203877,264981,1.43569356,9.5724868113,2.3102702203,225
119787,203890,264964,1.4380863826,9.5485585853,2.1870398563999998,226
119828,203916,264926,1.387837108,9.3391866078,2.2743778813,227
120061,203918,264917,1.5541382787000002,9.5342016497,2.3174486881,228
120331,203953,264966,1.4189438018,9.6131647955,2.213360905,229
120556,203949,264955,1.4811571894,9.3966143502,2.2241286067,230
120726,204009,264885,1.5182459396999999,9.4468636248,2.3066809864,231
120853,203998,264931,1.5230315848999998,9.5342016497,2.2875384056,232
120961,204058,264954,1.4871392459,9.4504528587,2.1870398563999998,233
121090,204036,264967,1.4488540843,9.487541608999999,2.2935204621,234
121284,204134,264953,1.4129617452999998,9.497112899400001,2.3006989299,235
121461,204129,265044,1.4584253747,9.5437729401,2.3988046565,236
121647,204137,265090,1.4536397294999999,9.4061856406,2.285145583,237
121562,204159,265148,1.3651052933,9.5365944723,2.3748764305,238
121025,204153,265112,1.5397813431,9.3750789468,2.2061824372,239
120281,203930,265126,1.4404792052000002,9.456434915200001,2.2779671152,240
119704,203936,265021,1.4775679554999999,9.5365944723,2.2540388892,241
119394,203886,264921,1.4285150922,9.4803631412,2.3545374384,242
119374,203815,264844,1.3674981159,9.4360959231,2.2923240508,243
119540,203843,264873,1.4380863826,9.5521478192,2.189432679,244
119887,203775,264767,1.4739787216,9.562915520899999,2.27318147,245
120108,203788,264873,1.5768700934,9.4887380203,2.3521446158,246
120327,203796,264831,1.6486547714,9.367900479,2.3581266723,247
120526,203873,264875,1.5050854154,9.4983093107,2.3533410271,248
120634,203815,264953,1.4632110199,9.399007172800001,2.3114666316,249
120816,203861,264905,1.5086746492999998,9.3655076564,2.3150558654999998,250
121018,203894,264922,1.5756736821000001,9.5342016497,2.3509482045,251
121244,203929,264967,1.387837108,9.564111932200001,2.3509482045,252
121452,203941,265010,1.567298803,9.3595255999,2.297109696,253
121680,203978,264981,1.4368899712999998,9.4624169717,2.3916261887,254
121538,203993,265004,1.5002997702,9.3942215276,2.3330020350000003,255
120942,203897,264957,1.43569356,9.4827559638,2.2875384056,256
120294,203776,264949,1.495514125,9.5018985446,2.3485553819,257
119874,203587,264880,1.5517454561000001,9.4588277378,2.3042881638,258
119677,203589,264861,1.4452648504,9.5030949559,2.2719850587,259
119761,203634,264909,1.4500504956,9.675378183100001,2.2636101795999997,260
119975,203626,264812,1.4691930764,9.4935236655,2.3724836079,261
120265,203650,264825,1.507478238,9.468399028199999,2.3138594542,262
120589,203665,264871,1.5708880369,9.511469835,2.3377876802,263
120821,203737,264856,1.4668002538,9.3954179389,2.3413769141,264
121035,203765,264915,1.5026925928000001,9.5018985446,2.3234307446,265
121157,203754,264948,1.4069796888000001,9.3367937852,2.3066809864,266
121349,203797,264986,1.3555340029,9.420542576199999,2.3880369548,267
121536,203907,264988,1.5218351736,9.3655076564,2.3461625592999997,268
121754,203910,264998,1.4727823103,9.439685157,2.3545374384,269
122002,203894,265041,1.5098710606,9.4815595525,2.4370898181,270
122228,203927,265081,1.3483555351,9.4169533423,2.3473589706,271
122166,203922,265073,1.4237294470000001,9.4899344316,2.356930261,272
121686,203756,265048,1.5601203352,9.4863451977,2.321037922,273
121082,203780,264993,1.4105689227,9.4444708022,2.3282163898,274
120658,203711,265004,1.3974083984,9.4229353988,2.3892333661,275
120417,203717,264922,1.4715858990000001,9.379864592,2.3509482045,276
120501,203593,264898,1.4907284798,9.4540420926,2.2995025186,277
120733,203650,264886,1.4799607781,9.4911308429,2.2456640101,278
121019,203690,264902,1.5481562222,9.3607220112,2.4323041729,279
121323,203674,264925,1.6677973521999998,9.3822574146,2.4203400599,280
121555,203758,265010,1.4548361408000001,9.391828705,2.2636101795999997,281
121736,203784,264994,1.5708880369,9.5581298757,2.3497517932000003,282
121906,203843,265061,1.4584253747,9.3930251163,2.3748764305,283
122102,203882,265072,1.4895320685,9.4241318101,2.2995025186,284
122282,203885,265147,1.6091731985,9.451649269999999,2.3641087288000002,285
122482,203950,265133,1.5505490447999999,9.5342016497,2.3270199785,286
122766,204016,265146,1.4668002538,9.327222494799999,2.4346969955,287
123028,204002,265265,1.459621786,9.468399028199999,2.3940190112999997,288
123058,204047,265206,1.543370577,9.510273423700001,2.3976082452,289
122741,203957,265199,1.5708880369,9.4348995118,2.4191436486,290
122144,203913,265121,1.5266208188,9.4085784632,2.3844477209,291
121701,203823,265126,1.6283157793,9.367900479,2.4514467537,292
121448,203776,265051,1.3950155758,9.4217389875,2.4191436486,293
121430,203729,265032,1.519442351,9.4013999954,2.3736800192,294
121582,203731,265033,1.5924234403000002,9.3415794304,2.3952154226,295
121854,203753,265067,1.6259229567,9.391828705,2.3856441322,296
122124,203772,265099,1.5589239239000001,9.5018985446,2.4586252215,297
122326,203825,265146,1.6737794087,9.2853480993,2.4777678023000003,298
122520,203863,265185,1.6211373115,9.367900479,2.4550359876,299
122668,203908,265159,1.411765334,9.3726861242,2.428714939,300
122845,203906,265213,1.6067803759000001,9.4480600361,2.4311077616,301
122976,203944,265255,1.6067803759000001,9.4145605197,2.4095723582,302
123186,203890,265309,1.5254244074999999,9.410971285799999,2.4741785684,303
123400,204014,265287,1.6570296505,9.2518485829,2.452643165,304
123655,204069,265309,1.6079767872,9.439685157,2.3832513096,305
123800,204068,265377,1.5505490447999999,9.273383986299999,2.3976082452,306
123604,203925,265271,1.5170495284,9.3894358824,2.3030917525,307
123064,203938,265340,1.5541382787000002,9.4695954395,2.3258235672,308
122543,203890,265293,1.5170495284,9.309276325299999,2.2899312282,309
122159,203797,265211,1.5517454561000001,9.3511507208,2.4239292938,310
121982,203703,265194,1.4452648504,9.531808827099999,2.4083759468999997,311
121996,203670,265157,1.5888342063999998,9.3547399547,2.452643165,312
122208,203678,265177,1.5577275125999999,9.3511507208,2.404786713,313
122483,203717,265144,1.5361921092,9.3415794304,2.3353948576,314
122667,203664,265185,1.5864413838,9.3726861242,2.4143580034,315
122871,203784,265259,1.6402798923,9.3966143502,2.4873390927,316
123004,203825,265225,1.5601203352,9.4097748745,2.3904297774,317
123043,203824,265286,1.6199409001999998,9.355936366,2.404786713,318
123323,203871,265246,1.4488540843,9.4049892293,2.4311077616,319
123472,203905,265315,1.6725829974,9.4289174553,2.4119651808,320
123692,203922,265329,1.5038890041,9.4372923344,2.3964118339,321
123904,203951,265313,1.6187444889,9.385846648500001,2.3808584870000002,322
124134,204018,265382,1.6055839645999999,9.242277292499999,2.3389840915,323
124140,204012,265384,1.55533469,9.403792818,2.4562323989,324
123763,203978,265385,1.519442351,9.4492564474,2.3904297774,325
123182,203873,265337,1.6115660211,9.5461657627,2.4358934068,326
122722,203836,265280,1.6905291669,9.451649269999999,2.4394826406999996,327
122396,203728,265233,1.4727823103,9.510273423700001,2.3808584870000002,328
122245,203656,265151,1.6295121905999999,9.4767739073,2.2923240508,329
122342,203656,265168,1.591227029,9.4348995118,2.4586252215,330
122527,203616,265211,1.5876377951,9.4444708022,2.4981067944,331
122760,203650,265177,1.4045868662,9.4468636248,2.3581266723,332
122923,203724,265220,1.4847464232999998,9.2985086236,2.4311077616,333
123056,203791,265277,1.4859428346,9.3870430598,2.4514467537,334
123190,203727,265267,1.5768700934,9.4624169717,2.3282163898,335
123314,203786,265331,1.5720844482,9.3667040677,2.3952154226,336
123456,203736,265363,1.4703894876999999,9.3487578982,2.4945175605000003,337
123640,203811,265352,1.4739787216,9.2614198733,2.4825534475,338
123809,203857,265335,1.4931213024,9.4013999954,2.3784656644,339
124017,203894,265363,1.55533469,9.3966143502,2.3760728418,340
124208,203980,265368,1.55533469,9.4121676971,2.4897319153,341
124231,203940,265440,1.55533469,9.4085784632,2.4131615921,342
123830,203867,265414,1.591227029,9.510273423700001,2.4849462701,343
123195,203797,265379,1.567298803,9.4193461649,2.3964118339,344
122677,203637,265345,1.6187444889,9.353543543399999,2.4430718746,345
122311,203598,265220,1.5601203352,9.468399028199999,2.3832513096,346
122172,203575,265180,1.5984054967999999,9.2937229784,2.3808584870000002,347
122257,203531,265257,1.5134602944999997,9.3942215276,2.4454646972,348
122455,203552,265239,1.5182459396999999,9.3750789468,2.51246373,349
122715,203687,265252,1.5840485612,9.4528456813,2.452643165,350
122884,203669,265240,1.6414763036,9.3260260835,2.368894374,351
122982,203678,265280,1.3854442854000002,9.3248296722,2.4873390927,352
123043,203707,265255,1.5002997702,9.284151688,2.3928226,353
123174,203711,265318,1.5038890041,9.4420779796,2.4119651808,354
123287,203728,265349,1.567298803,9.439685157,2.4382862294,355
123444,203764,265358,1.4201402131,9.379864592,2.4717857458,356
123620,203787,265387,1.4691930764,9.397810761499999,2.5387847786,357
123797,203848,265432,1.5732808595,9.3619184225,2.3928226,358
124027,203896,265443,1.5625131578,9.4504528587,2.4251257050999997,359
124131,203988,265497,1.5266208188,9.4767739073,2.4921247379,360
123959,203912,265525,1.6402798923,9.468399028199999,2.4550359876,361
123408,203830,265407,1.6558332392,9.3930251163,2.4430718746,362
122791,203724,265378,1.6331014245,9.3750789468,2.3856441322,363
122351,203605,265311,1.5565311013,9.4061856406,2.3880369548,364
122101,203596,265236,1.5577275125999999,9.353543543399999,2.3796620756999998,365
122095,203565,265251,1.5493526335,9.3619184225,2.4705893345,366
122267,203589,265289,1.5481562222,9.3774717694,2.4179472373,367
122457,203585,265262,1.591227029,9.3810610033,2.4622144554,368
122621,203628,265327,1.4273186809,9.4408815683,2.4550359876,369
122747,203645,265322,1.5146567058,9.4181497536,2.3641087288000002,370
122823,203656,265345,1.5326028753,9.4181497536,2.4191436486,371
122912,203641,265390,1.5373885205000002,9.4169533423,2.3306092124,372
123031,203700,265370,1.4632110199,9.2973122123,2.3904297774,373
123151,203713,265363,1.6175480776,9.379864592,2.3808584870000002,374
123334,203735,265390,1.4823536007,9.4695954395,2.3330020350000003,375
123513,203775,265449,1.5649059803999998,9.4612205604,2.4478575198,376
123735,203798,265536,1.6713865861,9.427721044,2.428714939,377
123910,203930,265523,1.663011707,9.4983093107,2.4969103831,378
124010,203921,265509,1.5948162629,9.3667040677,2.4849462701,379
123701,203899,265490,1.6342978358,9.2781696315,2.4454646972,380
123113,203700,265496,1.5242279962,9.353543543399999,2.452643165,381
122531,203773,265455,1.7036896912000001,9.3738825355,2.4119651808,382
122191,203702,265317,1.3148560187,9.3415794304,2.5351955446999996,383
122005,203647,265415,1.5816557385999999,9.2817588654,2.4670001006,384
122065,203664,265326,1.6223337227999999,9.5270231819,2.452643165,385
122239,203661,265360,1.5098710606,9.4803631412,2.4825534475,386
122335,203677,265345,1.4775679554999999,9.4707918508,2.3928226,387
122565,203740,265401,1.4883356572,9.4097748745,2.5758735289,388
122671,203730,265401,1.543370577,9.3152583818,2.3234307446,389
122767,203788,265411,1.5768700934,9.4420779796,2.4670001006,390
122815,203729,265433,1.6594224731,9.3379901965,2.5639094158999995,391
122964,203760,265470,1.4500504956,9.3009014462,2.4801606249,392
123064,203857,265474,1.4739787216,9.4121676971,2.5363919559999997,393
123226,203873,265522,1.5290136414,9.3822574146,2.4981067944,394
123398,203879,265565,1.5768700934,9.456434915200001,2.440679052,395
123612,203941,265564,1.5529418674,9.4337031005,2.4143580034,396
123750,203956,265529,1.6103696098,9.399007172800001,2.5184457865,397
123502,203931,265538,1.507478238,9.3224368496,2.4454646972,398
122964,203864,265475,1.6761722313,9.403792818,2.4011974791,399
122325,203760,265425,1.4799607781,9.3487578982,2.4813570362,400
121891,203724,265459,1.5242279962,9.3607220112,2.4155544147,401
121626,203647,265336,1.5972090855,9.3332045513,2.4586252215,402
121625,203615,265358,1.5457633996,9.4217389875,2.4478575198,403
121771,203581,265354,1.5409777544,9.379864592,2.4514467537,404
121954,203613,265352,1.5361921092,9.3631148338,2.5268206656,405
122139,203677,265326,1.5900306177,9.3391866078,2.5304098995,406
122247,203684,265341,1.5361921092,9.3870430598,2.4215364712,407
122321,203685,265288,1.6366906583999998,9.4815595525,2.3545374384,408
122443,203668,265380,1.6498511827,9.3547399547,2.368894374,409
122579,203725,265377,1.579262916,9.4911308429,2.4454646972,410
122725,203755,265429,1.6402798923,9.3810610033,2.5016960283,411
122878,203791,265417,1.5038890041,9.4803631412,2.4143580034,412
123069,203816,265518,1.6438691261999998,9.5042913672,2.4311077616,413
123241,203842,265482,1.5409777544,9.3750789468,2.4813570362,414
123436,203844,265553,1.5637095691,9.3571327773,2.3928226,415
123269,203847,265485,1.4560325521,9.3750789468,2.4119651808,416
122749,203759,265439,1.5266208188,9.3344009626,2.4335005842,417
122130,203720,265404,1.6235301341000001,9.3367937852,2.4741785684,418
121651,203607,265328,1.6115660211,9.3032942688,2.4430718746,419
121349,203570,265287,1.5816557385999999,9.3344009626,2.4143580034,420
121250,203514,265300,1.5122638832,9.3655076564,2.4741785684,421
121365,203458,265239,1.639083481,9.3942215276,2.3497517932000003,422
121578,203496,265252,1.6606188843999998,9.3044906801,2.452643165,423
121772,203573,265253,1.4739787216,9.4444708022,2.3294128011,424
121915,203611,265273,1.5577275125999999,9.4767739073,2.4634108667000003,425
122025,203584,265301,1.5170495284,9.4337031005,2.3928226,426
122124,203580,265292,1.5936198516,9.3870430598,2.4741785684,427
122272,203689,265347,1.591227029,9.4337031005,2.3282163898,428
122415,203651,265354,1.6546368279,9.4444708022,2.416750826,429
122580,203658,265423,1.5708880369,9.4181497536,2.4023938904,430
122794,203613,265422,1.5960126741999998,9.4612205604,2.4215364712,431
122975,203719,265359,1.4691930764,9.2937229784,2.3617159062,432
123191,203791,265442,1.5170495284,9.379864592,2.4394826406999996,433
123161,203764,265436,1.5996019081000001,9.3104727366,2.2839491717,434
122728,203715,265471,1.6043875533,9.286544510599999,2.3318056236999998,435
122130,203630,265354,1.5493526335,9.4265246327,2.4478575198,436
121618,203534,265285,1.55533469,9.455238503899999,2.4897319153,437
121337,203461,265195,1.4201402131,9.477970318599999,2.4478575198,438
121260,203413,265168,1.5649059803999998,9.376275358100001,2.4442682859,439
121392,203422,265164,1.7036896912000001,9.3296153174,2.3856441322,440
121619,203450,265213,1.567298803,9.3595255999,2.5363919559999997,441
121819,203481,265174,1.5230315848999998,9.3726861242,2.4562323989,442
121984,203460,265259,1.4273186809,9.4480600361,2.5639094158999995,443
122117,203494,265227,1.5326028753,9.4013999954,2.5040888509,444
122260,203491,265273,1.519442351,9.399007172800001,2.3497517932000003,445
122386,203505,265247,1.6331014245,9.3930251163,2.4251257050999997,446
122550,203509,265289,1.4763715442,9.420542576199999,2.3796620756999998,447
122752,203484,265238,1.5266208188,9.4217389875,2.4789642136,448
122957,203580,265288,1.5577275125999999,9.3176512044,2.3976082452,449
123165,203624,265342,1.4787643668000001,9.4301138666,2.4000010678,450
123378,203677,265398,1.6055839645999999,9.284151688,2.3784656644,451
123536,203688,265431,1.5266208188,9.3296153174,2.4023938904,452
123390,203686,265381,1.8329021116,9.3631148338,2.5232314317,453
122893,203664,265322,1.6354942471,9.3738825355,2.5016960283,454
122349,203546,265263,1.6761722313,9.443274390900001,2.440679052,455
121999,203442,265205,1.7359927963,9.5485585853,2.3617159062,456
121811,203372,265161,1.7240286833,9.3415794304,2.4143580034,457
121845,203432,265228,1.6522440053,9.4085784632,2.5878376418999998,458
122021,203453,265228,1.615155255,9.4444708022,2.4000010678,459
122250,203471,265237,1.5768700934,9.5258267706,2.4729821571,460
122437,203460,265250,1.6259229567,9.4169533423,2.5495524802999996,461
122554,203508,265258,1.698904046,9.4468636248,2.452643165,462
122685,203417,265309,1.6163516663,9.3738825355,2.4550359876,463
122801,203510,265313,1.4871392459,9.371489712899999,2.5423740125,464
122927,203584,265301,1.615155255,9.3690968903,2.4837498588,465
123103,203611,265374,1.6283157793,9.3044906801,2.4179472373,466
123265,203626,265415,1.639083481,9.3020978575,2.4681965119,467
123364,203679,265455,1.7575281996999998,9.4002035841,2.4191436486,468
123675,203631,265478,1.6701901747999999,9.353543543399999,2.4095723582,469
123872,203746,265486,1.55533469,9.3475614869,2.4095723582,470
123863,203764,265480,1.459621786,9.4899344316,2.4670001006,471
123501,203735,265445,1.5996019081000001,9.3511507208,2.3437697367,472
122948,203604,265421,1.6498511827,9.272187575,2.5112673187,473
122455,203642,265340,1.6043875533,9.3056870914,2.4933211492,474
122125,203532,265300,1.6498511827,9.343972252999999,2.428714939,475
122008,203449,265203,1.6785650538999999,9.3966143502,2.4358934068,476
122054,203339,265184,1.5134602944999997,9.4241318101,2.4311077616,477
122232,203495,265277,1.531406464,9.4444708022,2.3928226,478
122437,203485,265262,1.5421741657,9.2925265671,2.5088744961000002,479
122571,203508,265223,1.615155255,9.4013999954,2.4849462701,480
122636,203529,265268,1.6175480776,9.464809794299999,2.464607278,481
122765,203521,265242,1.6247265454,9.3367937852,2.4969103831,482
122862,203477,265329,1.698904046,9.3212404383,2.4023938904,483
123039,203569,265326,1.5684952143000002,9.4372923344,2.4239292938,484
123242,203628,265323,1.5852449725,9.371489712899999,2.5351955446999996,485
123393,203628,265326,1.579262916,9.3942215276,2.440679052,486
123615,203687,265341,1.6007983194,9.3511507208,2.4777678023000003,487
123860,203627,265383,1.5385849318,9.355936366,2.4741785684,488
123986,203639,265449,1.6618152957,9.4528456813,2.3928226,489
123811,203696,265391,1.5852449725,9.4504528587,2.5495524802999996,490
123323,203642,265366,1.5517454561000001,9.3786681807,2.440679052,491
122730,203613,265314,1.6977076347,9.4372923344,2.4969103831,492
122275,203445,265192,1.4799607781,9.3248296722,2.4239292938,493
122004,203391,265112,1.5924234403000002,9.4013999954,2.464607278,494
121968,203389,265112,1.5649059803999998,9.4085784632,2.3976082452,495
121986,203323,265129,1.5589239239000001,9.4707918508,2.4777678023000003,496
122193,203339,265112,1.6546368279,9.3487578982,2.404786713,497
122393,203366,265110,1.5098710606,9.427721044,2.4215364712,498
122516,203376,265168,1.5409777544,9.4767739073,2.4478575198,499
122629,203417,265174,1.6582260617999998,9.3906322937,2.4263221164,500
122755,203431,265187,1.5744772707999999,9.5030949559,2.4658036893,501
122868,203434,265130,1.5002997702,9.343972252999999,2.4598216327999998,502
122992,203366,265115,1.6749758199999998,9.343972252999999,2.3425733254,503
123166,203336,265082,1.6235301341000001,9.272187575,2.4813570362,504
123357,203395,265087,1.5756736821000001,9.4492564474,2.4622144554,505
123535,203459,265085,1.5002997702,9.4983093107,2.4191436486,506
123759,203388,265068,1.495514125,9.2626162846,2.4119651808,507
123900,203466,265046,1.5170495284,9.3344009626,2.4023938904,508
123795,203461,265105,1.5290136414,9.4935236655,2.488535504,509
123335,203375,265043,1.4656038425,9.4289174553,2.4610180441000002,510
122789,203269,264993,1.5936198516,9.4504528587,2.4813570362,511
122346,203223,264971,1.55533469,9.308079914,2.4191436486,512
122111,203111,264889,1.6594224731,9.4097748745,2.4670001006,513
122039,203129,264827,1.615155255,9.2925265671,2.4837498588,514
122180,203070,264817,1.6666009409,9.391828705,2.4777678023000003,515
122399,203055,264784,1.6402798923,9.4947200768,2.5710878837,516
122578,203090,264888,1.6127624323999998,9.320044027,2.5471596577,517
122745,203110,264816,1.5768700934,9.3571327773,2.5423740125,518
122829,203092,264855,1.5230315848999998,9.3786681807,2.5387847786,519
122903,202997,264878,1.459621786,9.420542576199999,2.4634108667000003,520
123055,203078,264839,1.6378870697,9.4719882621,2.5758735289,521
123214,203132,264909,1.5625131578,9.438488745699999,2.5459632464,522
123386,203185,264926,1.5732808595,9.4348995118,2.4861426814,523
123582,203194,264926,1.5948162629,9.5246303593,2.5076780847999998,524
123807,203280,264979,1.4763715442,9.2829552767,2.5567309481,525
124004,203291,265052,1.6354942471,9.3607220112,2.5112673187,526
124162,203351,265049,1.4524433182,9.3726861242,2.5184457865,527
124230,203264,265076,1.6007983194,9.2674019298,2.51246373,528
123905,203281,265044,1.7431712641,9.4672026169,2.5268206656,529
123434,203239,265031,1.4416756165,9.4444708022,2.5830519966999996,530
123034,203235,264937,1.5696916256,9.3882394711,2.6117658679000004,531
122802,203163,264947,1.5984054967999999,9.5030949559,2.4717857458,532
122760,203084,264842,1.543370577,9.3702933016,2.500499617,533
122886,203123,264852,1.6055839645999999,9.367900479,2.5208386090999997,534
123110,203145,264869,1.6079767872,9.2566342281,2.572284295,535
123335,203173,264911,1.4871392459,9.353543543399999,2.5196421978,536
123468,203184,264933,1.6103696098,9.2913301558,2.4741785684,537
123576,203194,264978,1.6127624323999998,9.4289174553,2.4693929232,538
123690,203230,264973,1.6713865861,9.4241318101,2.4825534475,539
123840,203244,264984,1.5445669883000002,9.236295236,2.4035903017,540
123997,203281,265028,1.5337992866,9.384650237199999,2.6273192148,541
124163,203323,265031,1.6378870697,9.2015993083,2.5339991334,542
124364,203351,265100,1.4715858990000001,9.3750789468,2.4777678023000003,543
124550,203443,265137,1.5469598109,9.2709911637,2.4933211492,544
124775,203478,265159,1.4919248910999998,9.272187575,2.4801606249,545
124894,203504,265185,1.5290136414,9.3750789468,2.4957139718,546
124660,203474,265120,1.5409777544,9.3750789468,2.500499617,547
124185,203430,265098,1.4787643668000001,9.3774717694,2.4574288102,548
123745,203293,265038,1.5206387623,9.391828705,2.51246373,549
123481,203304,264951,1.5852449725,9.343972252999999,2.5148565526000004,550
123306,203261,264857,1.5086746492999998,9.3463650756,2.4813570362,551
123333,203105,264886,1.483550012,9.3774717694,2.4574288102,552
123523,203137,264958,1.5601203352,9.4181497536,2.5292134882000004,553
123719,203214,264942,1.5361921092,9.2590270507,2.5543381254999997,554
123899,203265,264936,1.6666009409,9.385846648500001,2.5112673187,555
124006,203240,264991,1.5361921092,9.2985086236,2.3557338497,556
124109,203295,264986,1.5290136414,9.4743810847,2.5543381254999997,557
124253,203307,264948,1.6331014245,9.320044027,2.5232314317,558
124402,203238,264992,1.6546368279,9.343972252999999,2.4693929232,559
124557,203344,265041,1.6582260617999998,9.3894358824,2.5926232871,560
124734,203308,265033,1.4883356572,9.353543543399999,2.51246373,561
124928,203436,265071,1.5972090855,9.3822574146,2.4370898181,562
125138,203504,265047,1.4620146086,9.4887380203,2.4382862294,563
125226,203477,265095,1.4344971487,9.4863451977,2.4729821571,564
124976,203471,265051,1.5541382787000002,9.332008140000001,2.4957139718,565
124514,203442,265072,1.7419748528,9.4181497536,2.4478575198,566
124042,203338,264964,1.5050854154,9.5246303593,2.5363919559999997,567
123755,203226,264909,1.5708880369,9.379864592,2.51246373,568
123634,203189,264875,1.5840485612,9.296115801,2.5196421978,569
123679,203204,264889,1.5637095691,9.2506521716,2.4478575198,570
123807,203224,264856,1.5481562222,9.274580397600001,2.4023938904,571
123984,203240,264872,1.5888342063999998,9.4121676971,2.5806591741,572
124154,203256,264856,1.4512469069,9.3224368496,2.4717857458,573
124299,203269,264870,1.6618152957,9.5054877785,2.5052852621999997,574
124355,203308,264881,1.531406464,9.397810761499999,2.5268206656,575
124559,203338,264973,1.4811571894,9.5126662463,2.4717857458,576
124702,203359,264976,1.4500504956,9.3487578982,2.4083759468999997,577
124854,203331,264970,1.5696916256,9.3296153174,2.5052852621999997,578
125026,203337,264981,1.6259229567,9.4528456813,2.5686950610999997,579
125231,203478,265070,1.6007983194,9.272187575,2.5495524802999996,580
125452,203542,265121,1.4668002538,9.4145605197,2.5052852621999997,581
125468,203583,265099,1.6007983194,9.4229353988,2.5986053435999996,582
125160,203562,265087,1.6211373115,9.4301138666,2.5627130046,583
124687,203478,265007,1.6043875533,9.427721044,2.4095723582,584
124287,203336,264977,1.5098710606,9.320044027,2.4430718746,585
124054,203326,264998,1.6091731985,9.468399028199999,2.5088744961000002,586
123918,203342,264921,1.4751751328999998,9.4289174553,2.5495524802999996,587
124004,203376,264943,1.6019947307,9.367900479,2.5399811898999998,588
124171,203370,264912,1.6414763036,9.2685983411,2.5339991334,589
124353,203256,264917,1.4811571894,9.3547399547,2.5830519966999996,590
124522,203357,264979,1.5385849318,9.4911308429,2.5459632464,591
124630,203375,264960,1.6163516663,9.403792818,2.4789642136,592
124729,203519,265013,1.4093725114000002,9.4229353988,2.4741785684,593
124857,203570,264998,1.5505490447999999,9.4169533423,2.5686950610999997,594
125000,203604,265007,1.5481562222,9.4372923344,2.4119651808,595
125187,203591,265075,1.6127624323999998,9.3367937852,2.5411776012,596
125354,203663,265109,1.6055839645999999,9.274580397600001,2.5878376418999998,597
125593,203747,265201,1.5577275125999999,9.4348995118,2.5292134882000004,598
125725,203769,265220,1.5708880369,9.3487578982,2.4358934068,599
125765,203782,265195,1.5182459396999999,9.3726861242,2.5830519966999996,600
125468,203777,265235,1.6642081183,9.2374916473,2.4837498588,601
124987,203760,265231,1.5373885205000002,9.2662055185,2.5926232871,602
124601,203752,265198,1.5828521499000001,9.376275358100001,2.488535504,603
124395,203708,265142,1.495514125,9.410971285799999,2.5710878837,604
124296,203722,265181,1.5888342063999998,9.3487578982,2.6452653843,605
124368,203749,265188,1.6713865861,9.265009107200001,2.6548366747000003,606
124518,203760,265194,1.4799607781,9.4348995118,2.4849462701,607
124706,203731,265200,1.7144573929,9.3344009626,2.5028924396,608
124859,203757,265224,1.6666009409,9.3009014462,2.4191436486,609
124962,203845,265256,1.4273186809,9.3487578982,2.51246373,610
125061,203934,265281,1.5936198516,9.3296153174,2.5674986498,611
125185,203996,265361,1.5266208188,9.3104727366,2.488535504,612
125305,204062,265384,1.5625131578,9.3786681807,2.5447668351,613
125471,204115,265452,1.6917255782,9.3786681807,2.5998017549,614
125643,204176,265452,1.4823536007,9.3152583818,2.4861426814,615
125838,204192,265509,1.6977076347,9.2674019298,2.4239292938,616
125994,204289,265536,1.5625131578,9.4935236655,2.5447668351,617
125921,204294,265538,1.567298803,9.4145605197,2.5351955446999996,618
125529,204272,265518,1.5457633996,9.3954179389,2.4215364712,619
124981,204289,265456,1.579262916,9.320044027,2.5375883673,620
124601,204282,265424,1.615155255,9.5389872949,2.4837498588,621
124360,204274,265435,1.5242279962,9.3942215276,2.5028924396,622
124323,204232,265427,1.4632110199,9.3212404383,2.500499617,623
124382,204263,265414,1.6007983194,9.345168664300001,2.476571391,624
124606,204308,265505,1.5266208188,9.4408815683,2.4358934068,625
124773,204251,265493,1.6259229567,9.4444708022,2.4478575198,626
124902,204349,265467,1.6749758199999998,9.3774717694,2.4957139718,627
124995,204420,265595,1.5230315848999998,9.355936366,2.5339991334,628
125108,204452,265573,1.5696916256,9.384650237199999,2.4454646972,629
125235,204471,265573,1.5565311013,9.3822574146,2.5567309481,630
125341,204543,265600,1.579262916,9.3870430598,2.4705893345,631
125520,204586,265618,1.5146567058,9.3296153174,2.5112673187,632
125687,204620,265639,1.6378870697,9.3367937852,2.4251257050999997,633
125914,204672,265704,1.5014961814999999,9.3104727366,2.5507488916,634
125984,204716,265705,1.5708880369,9.355936366,2.4837498588,635
125887,204743,265692,1.5864413838,9.343972252999999,2.5256242543,636
125488,204750,265709,1.4943177136999999,9.3619184225,2.5184457865,637
124960,204699,265702,1.4201402131,9.290133744499999,2.5316063108,638
124539,204676,265704,1.5756736821000001,9.495916488099999,2.5256242543,639
124286,204687,265687,1.7491533206,9.3738825355,2.5375883673,640
124223,204713,265706,1.5373885205000002,9.3774717694,2.3892333661,641
124326,204767,265714,1.5266208188,9.353543543399999,2.488535504,642
124493,204768,265750,1.507478238,9.410971285799999,2.3760728418,643
124715,204778,265746,1.5780665047,9.308079914,2.4873390927,644
124885,204834,265827,1.5361921092,9.3224368496,2.5555345367999998,645
124986,204892,265809,1.4560325521,9.3750789468,2.4909283265999997,646
125079,204906,265887,1.5086746492999998,9.3631148338,2.5196421978,647
125238,204973,265870,1.6055839645999999,9.4133641084,2.5196421978,648
125384,205001,265940,1.6103696098,9.3702933016,2.4981067944,649
125542,205030,265928,1.5768700934,9.2889373332,2.5100709074,650
125718,205092,266001,1.5361921092,9.4025964067,2.4622144554,651
125909,205149,265957,1.6522440053,9.3583291886,2.4705893345,652
126095,205208,266057,1.5565311013,9.2566342281,2.4586252215,653
126086,205235,266078,1.4141581566,9.274580397600001,2.4155544147,654
125742,205201,266014,1.5146567058,9.403792818,2.4478575198,655
125252,205215,265975,1.5505490447999999,9.290133744499999,2.4813570362,656
124776,205158,266010,1.495514125,9.4337031005,2.4550359876,657
124491,205148,265965,1.4057832774999999,9.3738825355,2.5830519966999996,658
124423,205125,265983,1.5481562222,9.3870430598,2.4598216327999998,659
124487,205173,266019,1.6067803759000001,9.3702933016,2.4550359876,660
124674,205199,266003,1.5170495284,9.456434915200001,2.4717857458,661
124886,205121,266086,1.5254244074999999,9.3152583818,2.4454646972,662
124993,205261,266053,1.5505490447999999,9.4061856406,2.4837498588,663
125109,205302,266096,1.5936198516,9.4719882621,2.4119651808,664
125206,205329,266124,1.6307086019,9.3547399547,2.5435704238000003,665
125311,205337,266109,1.4931213024,9.2267239456,2.5698914723999997,666
125431,205367,266145,1.5122638832,9.4791667299,2.5172493752,667
125616,205375,266184,1.5613167465000002,9.3176512044,2.4969103831,668
125746,205417,266257,1.4344971487,9.3774717694,2.5710878837,669
125941,205589,266257,1.6701901747999999,9.399007172800001,2.4717857458,670
126166,205569,266269,1.4979069476,9.3774717694,2.4119651808,671
126260,205584,266299,1.591227029,9.497112899400001,2.5339991334,672
126128,205553,266227,1.6522440053,9.4372923344,2.4837498588,673
125679,205550,266253,1.6366906583999998,9.343972252999999,2.416750826,674
125131,205489,266245,1.6474583601,9.5282195932,2.4837498588,675
124727,205521,266200,1.5326028753,9.3702933016,2.4263221164,676
124571,205456,266207,1.6331014245,9.407382051899999,2.4670001006,677
124546,205523,266234,1.4620146086,9.4325066892,2.4825534475,678
124676,205539,266279,1.6570296505,9.2913301558,2.5471596577,679
124844,205563,266242,1.6570296505,9.3942215276,2.6249263922,680
125048,205570,266274,1.6510475939999998,9.4229353988,2.488535504,681
125084,205610,266289,1.495514125,9.3774717694,2.500499617,682
125161,205655,266278,1.6235301341000001,9.4229353988,2.4981067944,683
125258,205645,266318,1.5337992866,9.379864592,2.4502503424,684
125357,205747,266381,1.5170495284,9.3367937852,2.4741785684,685
125494,205730,266337,1.5170495284,9.4061856406,2.5363919559999997,686
125634,205736,266410,1.6007983194,9.327222494799999,2.452643165,687
125780,205806,266404,1.4500504956,9.371489712899999,2.476571391,688
125958,205822,266435,1.6079767872,9.2805624541,2.4550359876,689
126110,205855,266454,1.6713865861,9.5030949559,2.5064816735,690
126193,205878,266462,1.6127624323999998,9.5007021333,2.6021945774999997,691
126062,205882,266448,1.55533469,9.3894358824,2.5256242543,692
125607,205849,266418,1.5625131578,9.332008140000001,2.4957139718,693
124994,205800,266403,1.5744772707999999,9.2805624541,2.4335005842,694
124584,205746,266338,1.4632110199,9.4624169717,2.4861426814,695
124342,205727,266404,1.7252250946,9.4540420926,2.51246373,696
124267,205749,266374,1.6426727149,9.2913301558,2.416750826,697
124424,205777,266367,1.5002997702,9.3810610033,2.4837498588,698
124643,205833,266420,1.6953148121,9.3224368496,2.5459632464,699
124703,205750,266370,1.531406464,9.2769732202,2.4502503424,700
124783,205799,266418,1.55533469,9.343972252999999,2.476571391,701
124847,205820,266389,1.5086746492999998,9.379864592,2.5028924396,702
124915,205803,266422,1.6666009409,9.3032942688,2.464607278,703
125007,205824,266428,1.6163516663,9.2614198733,2.5304098995,704
125153,205834,266444,1.5409777544,9.3930251163,2.5184457865,705
125275,205931,266473,1.567298803,9.327222494799999,2.4813570362,706
125411,205938,266474,1.5876377951,9.403792818,2.500499617,707
125567,205985,266568,1.6115660211,9.5078806011,2.4251257050999997,708
125745,205991,266555,1.5266208188,9.3655076564,2.5220350203999997,709
125901,206054,266554,1.5266208188,9.3942215276,2.4574288102,710
125840,206042,266542,1.4907284798,9.397810761499999,2.4909283265999997,711
125416,205957,266498,1.483550012,9.376275358100001,2.428714939,712
124781,205886,266477,1.5888342063999998,9.260223461999999,2.4191436486,713
124232,205897,266435,1.5924234403000002,9.391828705,2.4873390927,714
123885,205826,266445,1.6307086019,9.2769732202,2.4143580034,715
123719,205800,266381,1.6187444889,9.4025964067,2.4382862294,716
123743,205819,266392,1.5768700934,9.4253282214,2.5232314317,717
123860,205813,266376,1.5098710606,9.4480600361,2.3976082452,718
124031,205820,266391,1.4907284798,9.3655076564,2.4693929232,719
124157,205778,266318,1.5984054967999999,9.4049892293,2.5172493752,720
124215,205821,266397,1.6833506991,9.4025964067,2.3856441322,721
124293,205824,266404,1.5924234403000002,9.3690968903,2.5710878837,722
124392,205815,266400,1.5960126741999998,9.4899344316,2.5256242543,723
124518,205853,266452,1.4380863826,9.3631148338,2.5710878837,724
124663,205777,266440,1.4931213024,9.3966143502,2.464607278,725
124812,205868,266457,1.5625131578,9.3104727366,2.5567309481,726
124970,205911,266512,1.5696916256,9.2913301558,2.5292134882000004,727
125152,205970,266469,1.6043875533,9.4337031005,2.3629123174999997,728
125372,206018,266539,1.6079767872,9.439685157,2.4825534475,729
125507,206042,266520,1.5098710606,9.3702933016,2.464607278,730
125415,205979,266513,1.5744772707999999,9.4025964067,2.4478575198,731
124941,205899,266472,1.6283157793,9.4911308429,2.6309084487,732
124351,205780,266451,1.6283157793,9.4348995118,2.4670001006,733
123899,205813,266420,1.5529418674,9.3224368496,2.5627130046,734
123571,205782,266327,1.5864413838,9.355936366,2.5112673187,735
123474,205738,266322,1.5529418674,9.4133641084,2.3856441322,736
123566,205741,266366,1.5888342063999998,9.4719882621,2.4693929232,737
123615,205747,266341,1.567298803,9.4791667299,2.5184457865,738
123879,205589,266306,1.5146567058,9.353543543399999,2.4933211492,739
124003,205764,266326,1.5373885205000002,9.355936366,2.452643165,740
124101,205755,266324,1.5661023917,9.4217389875,2.5112673187,741
124192,205663,266385,1.5278172301,9.4133641084,2.5639094158999995,742
124305,205777,266376,1.6259229567,9.3607220112,2.440679052,743
124428,205777,266392,1.6749758199999998,9.510273423700001,2.4538395763,744
124591,205792,266401,1.4177473905,9.3774717694,2.5100709074,745
124781,205818,266399,1.5122638832,9.340383019099999,2.5507488916,746
124961,205859,266440,1.5481562222,9.3415794304,2.5220350203999997,747
125151,205887,266434,1.6067803759000001,9.443274390900001,2.4370898181,748
125331,205901,266424,1.5984054967999999,9.420542576199999,2.5339991334,749
125541,205956,266502,1.5038890041,9.4528456813,2.476571391,750
125631,205968,266504,1.6618152957,9.3511507208,2.5328027221,751
125382,205953,266491,1.5266208188,9.2709911637,2.452643165,752
124846,205858,266467,1.5756736821000001,9.384650237199999,2.4693929232,753
124285,205799,266448,1.5601203352,9.4265246327,2.4622144554,754
123897,205749,266292,1.4775679554999999,9.3631148338,2.5316063108,755
123702,205681,266318,1.579262916,9.3284189061,2.5686950610999997,756
123704,205611,266316,1.5170495284,9.4408815683,2.4873390927,757
123869,205626,266294,1.6331014245,9.2985086236,2.6165515131,758
124047,205732,266306,1.5361921092,9.4444708022,2.6213371583000002,759
124196,205724,266336,1.5158531170999998,9.427721044,2.5519453029,760
124329,205706,266317,1.6055839645999999,9.3487578982,2.440679052,761
124442,205720,266286,1.531406464,9.3140619705,2.4586252215,762
124505,205737,266352,1.6055839645999999,9.3032942688,2.4909283265999997,763
124685,205698,266350,1.5852449725,9.4612205604,2.4837498588,764
124824,205714,266324,1.6079767872,9.5569334644,2.4454646972,765
124961,205738,266360,1.6713865861,9.367900479,2.4550359876,766
125131,205790,266397,1.4751751328999998,9.4803631412,2.5734807063,767
125326,205808,266385,1.5002997702,9.353543543399999,2.4693929232,768
125510,205850,266433,1.5888342063999998,9.4085784632,2.4861426814,769
125726,205864,266452,1.6127624323999998,9.3009014462,2.4215364712,770
125883,205869,266435,1.6247265454,9.345168664300001,2.476571391,771
125745,205850,266436,1.5481562222,9.2889373332,2.5028924396,772
125380,205676,266420,1.5960126741999998,9.509077012399999,2.4622144554,773
124821,205603,266350,1.4608181972999998,9.3176512044,2.5292134882000004,774
124349,205631,266324,1.5924234403000002,9.4325066892,2.4789642136,775
124077,205539,266300,1.495514125,9.327222494799999,2.4454646972,776
123984,205550,266249,1.5421741657,9.427721044,2.4490539311,777
124086,205673,266303,1.5290136414,9.3164547931,2.452643165,778
124245,205571,266279,1.5086746492999998,9.4839523751,2.476571391,779
124435,205568,266238,1.6546368279,9.456434915200001,2.5160529638999996,780
124559,205601,266210,1.5517454561000001,9.3726861242,2.4382862294,781
124606,205587,266270,1.55533469,9.403792818,2.5052852621999997,782
124754,205535,266291,1.5266208188,9.3415794304,2.488535504,783
124876,205617,266272,1.6199409001999998,9.3499543095,2.6249263922,784
124999,205621,266281,1.5637095691,9.4815595525,2.4837498588,785
125207,205646,266280,1.7180466268,9.4181497536,2.4789642136,786
125356,205686,266275,1.4560325521,9.3188476157,2.5208386090999997,787
125525,205701,266349,1.5613167465000002,9.3128655592,2.4825534475,788
125699,205762,266334,1.5601203352,9.4815595525,2.5280170769,789
125906,205794,266365,1.5373885205000002,9.2674019298,2.4418754632999997,790
126079,205814,266391,1.5122638832,9.2315095908,2.3976082452,791
126214,205780,266397,1.5505490447999999,9.4181497536,2.5495524802999996,792
126049,205749,266321,1.4679966650999998,9.403792818,2.5136601413,793
125562,205723,266326,1.6594224731,9.3822574146,2.5794627628,794
125018,205648,266274,1.5816557385999999,9.391828705,2.4861426814,795
124564,205566,266257,1.5481562222,9.2494557603,2.5064816735,796
124336,205523,266227,1.6007983194,9.3140619705,2.3856441322,797
124265,205461,266231,1.3938191645,9.3882394711,2.4969103831,798
124371,205482,266209,1.6103696098,9.4743810847,2.4933211492,799
124557,205489,266182,1.5110674719,9.343972252999999,2.4586252215,800
124703,205497,266207,1.639083481,9.4181497536,2.4502503424,801
124829,205548,266202,1.4500504956,9.5018985446,2.4861426814,802
124913,205558,266216,1.6426727149,9.4887380203,2.4478575198,803
124980,205548,266195,1.5385849318,9.3152583818,2.5028924396,804
125069,205550,266159,1.5828521499000001,9.332008140000001,2.5028924396,805
125214,205564,266177,1.6342978358,9.4013999954,2.5974089322999996,806
125352,205621,266203,1.5158531170999998,9.3104727366,2.4789642136,807
125516,205567,266200,1.5170495284,9.371489712899999,2.5148565526000004,808
125676,205576,266268,1.4895320685,9.420542576199999,2.5016960283,809
125834,205668,266232,1.6307086019,9.391828705,2.4909283265999997,810
126018,205644,266287,1.507478238,9.3248296722,2.4957139718,811
126195,205752,266329,1.5290136414,9.3248296722,2.4311077616,812
126348,205742,266361,1.4895320685,9.379864592,2.5579273594000003,813
126135,205688,266336,1.5708880369,9.510273423700001,2.3976082452,814
125583,205601,266254,1.5840485612,9.3655076564,2.5160529638999996,815
125024,205554,266252,1.4895320685,9.4480600361,2.464607278,816
124622,205527,266133,1.5337992866,9.4097748745,2.5100709074,817
124408,205439,266174,1.4703894876999999,9.407382051899999,2.5519453029,818
124347,205458,266111,1.6007983194,9.3870430598,2.5100709074,819
124419,205401,266137,1.5050854154,9.3966143502,2.4275185276999998,820
124545,205439,266073,1.6498511827,9.4193461649,2.4335005842,821
124744,205399,266048,1.5732808595,9.3224368496,2.5028924396,822
124812,205403,266091,1.5577275125999999,9.4085784632,2.5543381254999997,823
124863,205470,266123,1.4333007374,9.3930251163,2.4083759468999997,824
124910,205409,266070,1.5421741657,9.420542576199999,2.5052852621999997,825
125021,205426,266097,1.4644074312,9.3523471321,2.4598216327999998,826
125114,205407,266114,1.5960126741999998,9.4815595525,2.476571391,827
125260,205476,266109,1.4763715442,9.3750789468,2.4430718746,828
125435,205471,266135,1.5218351736,9.3583291886,2.5244278430000002,829
125582,205480,266113,1.5361921092,9.3487578982,2.4358934068,830
125741,205522,266190,1.5661023917,9.5270231819,2.4335005842,831
125923,205559,266213,1.6414763036,9.3224368496,2.5016960283,832
126076,205610,266207,1.4297115034999999,9.4181497536,2.3736800192,833
126165,205562,266203,1.5924234403000002,9.4468636248,2.51246373,834
125916,205558,266170,1.531406464,9.4313102779,2.4981067944,835
125356,205472,266132,1.5852449725,9.2566342281,2.4813570362,836
124657,205417,266080,1.4883356572,9.355936366,2.4598216327999998,837
124325,205339,266009,1.4333007374,9.4444708022,2.5328027221,838
124066,205279,265974,1.6007983194,9.3116691479,2.4873390927,839
123998,205232,265968,1.5242279962,9.5078806011,2.5531417142,840
124080,205205,265977,1.5840485612,9.2829552767,2.4239292938,841
124223,205206,265963,1.5708880369,9.4121676971,2.4119651808,842
124340,205180,265936,1.6785650538999999,9.3044906801,2.5052852621999997,843
124393,205198,265993,1.5206387623,9.4013999954,2.476571391,844
124451,205211,265934,1.5146567058,9.2590270507,2.5160529638999996,845
124504,205219,265982,1.5373885205000002,9.376275358100001,2.5148565526000004,846
124562,205244,265934,1.6235301341000001,9.464809794299999,2.5615165933,847
124678,205250,265935,1.5385849318,9.4588277378,2.5830519966999996,848
124812,205153,265999,1.4500504956,9.248259349,2.464607278,849
125015,205274,265999,1.4069796888000001,9.391828705,2.4442682859,850
125083,205295,265987,1.5816557385999999,9.5054877785,2.4239292938,851
125313,205377,266025,1.4691930764,9.3260260835,2.464607278,852
125441,205329,266033,1.6606188843999998,9.4169533423,2.5028924396,853
125667,205422,266082,1.5768700934,9.3523471321,2.6057838114000003,854
125783,205362,266031,1.5409777544,9.4468636248,2.4454646972,855
125611,205375,266102,1.6067803759000001,9.3248296722,2.5232314317,856
125126,205288,266024,1.5146567058,9.399007172800001,2.4681965119,857
124504,205218,265963,1.5601203352,9.367900479,2.4574288102,858
124009,205228,265918,1.6426727149,9.2518485829,2.4502503424,859
123601,205064,265923,1.5218351736,9.3607220112,2.440679052,860
123635,205040,265881,1.5984054967999999,9.410971285799999,2.4837498588,861
123632,205075,265860,1.6618152957,9.4013999954,2.4502503424,862
123700,205013,265836,1.5732808595,9.3296153174,2.5232314317,863
123934,205094,265843,1.6235301341000001,9.2303131795,2.6117658679000004,864
123997,205041,265828,1.3651052933,9.4480600361,2.4382862294,865
124031,205035,265813,1.5349956979000001,9.379864592,2.5710878837,866
124102,205056,265818,1.4512469069,9.3487578982,2.5064816735,867
124224,205052,265874,1.579262916,9.2697947524,2.5328027221,868
124262,205053,265831,1.6283157793,9.2638126959,2.5615165933,869
124445,205107,265863,1.5242279962,9.3726861242,2.4323041729,870
124600,205105,265887,1.6127624323999998,9.3571327773,2.4574288102,871
124770,205156,265877,1.3866406967,9.3224368496,2.5064816735,872
124890,205130,265895,1.5720844482,9.343972252999999,2.4801606249,873
125119,205174,265951,1.5876377951,9.3954179389,2.5148565526000004,874
125276,205199,266023,1.6055839645999999,9.4360959231,2.3904297774,875
125416,205229,266001,1.5732808595,9.4863451977,2.4670001006,876
125179,205222,265995,1.4787643668000001,9.399007172800001,2.4789642136,877
124724,205162,266020,1.5625131578,9.3116691479,2.4011974791,878
124082,205053,265925,1.5421741657,9.3104727366,2.5567309481,879
123583,205005,265876,1.5529418674,9.4241318101,2.5375883673,880
123296,204909,265763,1.6486547714,9.3870430598,2.5076780847999998,881
123236,204914,265794,1.6474583601,9.399007172800001,2.4502503424,882
123286,204860,265786,1.6737794087,9.3906322937,2.5256242543,883
123488,204879,265780,1.5828521499000001,9.3032942688,2.5100709074,884
123640,204919,265779,1.55533469,9.3870430598,2.5567309481,885
123733,204907,265752,1.5122638832,9.420542576199999,2.4275185276999998,886
123789,204873,265800,1.6175480776,9.4767739073,2.4598216327999998,887
123886,204939,265816,1.5960126741999998,9.3128655592,2.4598216327999998,888
123983,204956,265819,1.5768700934,9.2829552767,2.4023938904,889
124093,204962,265848,1.6522440053,9.3379901965,2.5447668351,890
124250,204968,265918,1.5481562222,9.3870430598,2.4789642136,891
124345,205052,265896,1.6845471104,9.332008140000001,2.5028924396,892
124552,205002,265958,1.6331014245,9.3188476157,2.4909283265999997,893
124715,205063,265954,1.6354942471,9.4660062056,2.6045874001,894
124923,205091,265987,1.5876377951,9.3020978575,2.4622144554,895
125055,205124,266050,1.5888342063999998,9.308079914,2.4837498588,896
124829,205098,265999,1.7288143285,9.3655076564,2.4622144554,897
124437,205092,266014,1.6761722313,9.4887380203,2.4083759468999997,898
123765,204991,265885,1.6342978358,9.3009014462,2.5674986498,899
123406,204888,265891,1.5732808595,9.4013999954,2.5686950610999997,900
123097,204831,265821,1.6857435217,9.2518485829,2.3868405435,901
123132,204833,265852,1.603191142,9.308079914,2.4598216327999998,902
123182,204786,265797,1.6642081183,9.407382051899999,2.4454646972,903
123366,204795,265818,1.5206387623,9.4121676971,2.5950161097,904
123425,204763,265798,1.5936198516,9.3906322937,2.4753749797,905
123630,204828,265787,1.6175480776,9.3415794304,2.5363919559999997,906
123722,204863,265789,1.6091731985,9.2877409219,2.5495524802999996,907
123750,204850,265829,1.4141581566,9.4169533423,2.5435704238000003,908
123825,204852,265855,1.5972090855,9.4672026169,2.5579273594000003,909
123953,204886,265853,1.6833506991,9.2638126959,2.5351955446999996,910
124083,204857,265918,1.6115660211,9.3667040677,2.5686950610999997,911
124249,204775,265871,1.6342978358,9.403792818,2.5304098995,912
124363,204922,265920,1.6426727149,9.3667040677,2.5280170769,913
124621,204967,265996,1.5996019081000001,9.296115801,2.4454646972,914
124721,204986,265983,1.5457633996,9.410971285799999,2.4789642136,915
124572,204974,265953,1.5457633996,9.407382051899999,2.5244278430000002,916
124041,204877,265870,1.6761722313,9.391828705,2.5663022385,917
123384,204761,265778,1.6019947307,9.4504528587,2.4693929232,918
122991,204556,265775,1.5577275125999999,9.3906322937,2.4981067944,919
122760,204622,265725,1.5756736821000001,9.4133641084,2.5112673187,920
122633,204535,265682,1.5206387623,9.4061856406,2.5615165933,921
122728,204516,265658,1.6295121905999999,9.3128655592,2.5399811898999998,922
122915,204514,265651,1.5409777544,9.371489712899999,2.5088744961000002,923
123000,204565,265641,1.7312071511,9.3152583818,2.5627130046,924
123162,204559,265625,1.43569356,9.353543543399999,2.3712871966,925
123190,204556,265679,1.6378870697,9.455238503899999,2.4909283265999997,926
123410,204503,265702,1.6247265454,9.4444708022,2.5567309481,927
123431,204542,265687,1.5780665047,9.3942215276,2.4335005842,928
123643,204577,265752,1.5876377951,9.4504528587,2.4909283265999997,929
123799,204567,265689,1.5936198516,9.4588277378,2.5052852621999997,930
123978,204616,265752,1.6331014245,9.5533442305,2.4813570362,931
124199,204630,265737,1.5840485612,9.3511507208,2.5447668351,932
124365,204652,265781,1.5948162629,9.4743810847,2.428714939,933
124371,204665,265837,1.6546368279,9.3870430598,2.4921247379,934
123967,204616,265730,1.5170495284,9.4420779796,2.4418754632999997,935
123400,204524,265679,1.6666009409,9.296115801,2.5316063108,936
122979,204397,265641,1.6402798923,9.371489712899999,2.5076780847999998,937
122665,204300,265534,1.4907284798,9.3128655592,2.5854448193,938
122567,204285,265505,1.5146567058,9.2889373332,2.5423740125,939
122546,204215,265497,1.639083481,9.4672026169,2.5052852621999997,940
122799,204247,265453,1.531406464,9.3690968903,2.4430718746,941
123001,204246,265467,1.591227029,9.3128655592,2.5351955446999996,942
123176,204211,265499,1.5780665047,9.5018985446,2.4000010678,943
123332,204311,265529,1.6666009409,9.355936366,2.5698914723999997,944
123365,204335,265541,1.5601203352,9.3834538259,2.5076780847999998,945
123502,204175,265536,1.6259229567,9.3009014462,2.5375883673,946
123637,204326,265567,1.6378870697,9.3344009626,2.3964118339,947
123776,204345,265576,1.6354942471,9.3367937852,2.5567309481,948
124025,204337,265595,1.5780665047,9.320044027,2.5459632464,949
124222,204363,265620,1.6199409001999998,9.2231347117,2.5615165933,950
124425,204442,265655,1.5696916256,9.384650237199999,2.5172493752,951
124380,204436,265633,1.5661023917,9.247062937699999,2.5567309481,952
124075,204364,265647,1.5601203352,9.2793660428,2.5328027221,953
123593,204304,265621,1.5996019081000001,9.3391866078,2.6237299809,954
123159,204239,265563,1.5577275125999999,9.3248296722,2.5806591741,955
123001,204200,265464,1.5816557385999999,9.3631148338,2.5280170769,956
122965,204134,265506,1.6426727149,9.308079914,2.5148565526000004,957
123087,204085,265452,1.698904046,9.464809794299999,2.5519453029,958
123354,204217,265486,1.5158531170999998,9.3571327773,2.5471596577,959
123498,204206,265490,1.5290136414,9.2913301558,2.6153551018,960
123646,204209,265510,1.5577275125999999,9.2374916473,2.5172493752,961
123755,204254,265566,1.4309079148000001,9.3391866078,2.5112673187,962
123866,204261,265580,1.5361921092,9.4002035841,2.5698914723999997,963
123982,204318,265661,1.6677973521999998,9.2697947524,2.500499617,964
124179,204386,265653,1.4727823103,9.4145605197,2.4933211492,965
124281,204365,265663,1.6929219895,9.3607220112,2.5639094158999995,966
124503,204471,265639,1.5840485612,9.399007172800001,2.5507488916,967
124691,204494,265729,1.5720844482,9.3487578982,2.4634108667000003,968
124870,204475,265729,1.6295121905999999,9.439685157,2.5148565526000004,969
124754,204500,265759,1.5158531170999998,9.3583291886,2.5806591741,970
124235,204417,265722,1.6402798923,9.3810610033,2.4849462701,971
123785,204478,265693,1.4249258583,9.274580397600001,2.5112673187,972
123427,204352,265678,1.5290136414,9.4169533423,2.5734807063,973
123241,204288,265590,1.6929219895,9.355936366,2.6476582069,974
123215,204276,265554,1.603191142,9.4265246327,2.560320182,975
123350,204293,265623,1.5960126741999998,9.4121676971,2.5232314317,976
123561,204336,265673,1.5768700934,9.4695954395,2.5363919559999997,977
123741,204398,265641,1.3782658175999998,9.4372923344,2.4957139718,978
123878,204353,265633,1.5936198516,9.3068835027,2.5435704238000003,979
124001,204422,265697,1.5421741657,9.355936366,2.5244278430000002,980
124086,204690,265925,1.4931213024,9.5844509243,2.6931218363,981
124277,205371,266475,1.6271193679999998,9.3044906801,2.5567309481,982
124531,206047,267040,1.5601203352,9.3475614869,2.5806591741,983
124988,206605,267459,1.5577275125999999,9.1968136631,2.6428725617,984
125530,206816,267633,1.6761722313,9.3140619705,2.5579273594000003,985
126042,207000,267748,1.5601203352,9.2674019298,2.5842484079999997,986
126250,207078,267854,1.6223337227999999,9.4097748745,2.6691936103000002,987
126073,207035,267743,1.5696916256,9.3870430598,2.5758735289,988
125455,206687,267421,1.5948162629,9.2434737038,2.5052852621999997,989
124862,206077,267014,1.5541382787000002,9.487541608999999,2.6033909887999998,990
124453,205636,266646,1.4560325521,9.4707918508,2.548356069,991
124202,205471,266499,1.5828521499000001,9.4887380203,2.5579273594000003,992
124181,205284,266386,1.5720844482,9.3786681807,2.5579273594000003,993
124253,205280,266292,1.4823536007,9.4456672135,2.5902304645,994
124413,205233,266307,1.6462619487999999,9.4935236655,2.5052852621999997,995
124662,205272,266289,1.5266208188,9.3870430598,2.5555345367999998,996
124670,205274,266294,1.3950155758,9.3487578982,2.4789642136,997
124822,205327,266278,1.567298803,9.296115801,2.5435704238000003,998
124970,205346,266351,1.5804593273,9.299705034899999,2.4837498588,999
125118,205355,266327,1.4344971487,9.4337031005,2.6309084487,1000
125271,205519,266493,1.483550012,9.4672026169,2.5555345367999998,1001
125507,205505,266496,1.4632110199,9.3224368496,2.6309084487,1002
125726,205520,266551,1.543370577,9.3655076564,2.5950161097,1003
125981,205704,266549,1.615155255,9.385846648500001,2.6452653843,1004
126201,205638,266521,1.5349956979000001,9.2925265671,2.5196421978,1005
126207,205629,266578,1.6618152957,9.3188476157,2.5555345367999998,1006
125917,205604,266549,1.567298803,9.4002035841,2.5435704238000003,1007
125403,205611,266512,1.7048861025,9.3523471321,2.5531417142,1008
125206,205644,266503,1.5577275125999999,9.296115801,2.6021945774999997,1009
124988,205599,266514,1.6893327556000002,9.2877409219,2.6500510295,1010
125020,205678,266491,1.519442351,9.355936366,2.6057838114000003,1011
125124,205636,266492,1.6414763036,9.439685157,2.5148565526000004,1012
125377,205732,266530,1.6785650538999999,9.4911308429,2.6356940939,1013
125603,205684,266612,1.6103696098,9.3248296722,2.5459632464,1014
125787,205784,266557,1.6666009409,9.3547399547,2.6368905052,1015
125918,205819,266638,1.6953148121,9.415756931,2.6524438520999998,1016
126058,205821,266667,1.6307086019,9.3667040677,2.5794627628,1017
126231,205848,266714,1.5302100526999998,9.2817588654,2.5172493752,1018
126394,205880,266760,1.5840485612,9.3463650756,2.5770699402,1019
126591,205942,266801,1.6331014245,9.3415794304,2.6057838114000003,1020
126778,205950,266780,1.5888342063999998,9.2985086236,2.5531417142,1021
127022,205992,266876,1.5900306177,9.3583291886,2.5268206656,1022
127255,206206,266826,1.4943177136999999,9.410971285799999,2.5531417142,1023
127389,206160,266840,1.6450655375,9.3248296722,2.6105694566,1024
127328,206148,266862,1.7132609816000002,9.379864592,2.5363919559999997,1025
126983,206121,266791,1.5888342063999998,9.3188476157,2.6153551018,1026
126608,206156,266839,1.6019947307,9.4145605197,2.5627130046,1027
126377,206158,266880,1.6115660211,9.3631148338,2.6009981662,1028
126177,206140,266919,1.495514125,9.3631148338,2.5435704238000003,1029
126297,206162,266879,1.5637095691,9.3104727366,2.5076780847999998,1030
126467,206214,266925,1.5565311013,9.4372923344,2.6189443356999997,1031
126635,206203,266879,1.6881363443,9.4002035841,2.6416761504,1032
126854,206231,266925,1.5170495284,9.330811728699999,2.5794627628,1033
126947,206252,266923,1.6103696098,9.3487578982,2.5579273594000003,1034
127084,206267,266949,1.5469598109,9.4013999954,2.4861426814,1035
127154,206332,266953,1.5756736821000001,9.4061856406,2.5974089322999996,1036
127310,206389,267010,1.7359927963,9.376275358100001,2.6069802227000003,1037
127449,206417,267037,1.6007983194,9.3379901965,2.6309084487,1038
127621,206494,267090,1.6510475939999998,9.3942215276,2.5746771176,1039
127835,206610,267138,1.5661023917,9.4325066892,2.6799613119999997,1040
128042,206708,267251,1.5493526335,9.3152583818,2.6404797391000003,1041
128187,206777,267341,1.5397813431,9.3966143502,2.476571391,1042
128383,206877,267343,1.6043875533,9.3631148338,2.5375883673,1043
128103,206864,267316,1.5708880369,9.3009014462,2.5411776012,1044
127781,206870,267393,1.6498511827,9.3152583818,2.5148565526000004,1045
127309,206780,267390,1.6498511827,9.443274390900001,2.5794627628,1046
127001,206865,267351,1.6677973521999998,9.5150590689,2.6057838114000003,1047
126835,206854,267331,1.5122638832,9.3966143502,2.5770699402,1048
126789,206713,267296,1.4273186809,9.2793660428,2.5363919559999997,1049
126935,206784,267284,1.6235301341000001,9.4025964067,2.5052852621999997,1050
127058,206779,267277,1.519442351,9.4085784632,2.5363919559999997,1051
127147,206828,267252,1.5146567058,9.2973122123,2.5710878837,1052
127248,206824,267341,1.5266208188,9.3236332609,2.5926232871,1053
127289,206773,267322,1.5840485612,9.4133641084,2.6428725617,1054
127399,206885,267351,1.6893327556000002,9.3224368496,2.4382862294,1055
127411,206893,267366,1.543370577,9.391828705,2.6404797391000003,1056
127596,206939,267376,1.6546368279,9.3583291886,2.5507488916,1057
127748,206997,267374,1.6175480776,9.3116691479,2.7074787719,1058
127903,206993,267379,1.5505490447999999,9.4480600361,2.548356069,1059
128069,207003,267412,1.7479569093,9.343972252999999,2.5268206656,1060
128222,207026,267469,1.5110674719,9.3248296722,2.548356069,1061
128303,207068,267501,1.4428720278,9.330811728699999,2.5830519966999996,1062
128061,206981,267442,1.5242279962,9.4468636248,2.4693929232,1063
127499,206964,267404,1.6689937635,9.284151688,2.5399811898999998,1064
126942,206887,267380,1.4691930764,9.3009014462,2.5244278430000002,1065
126556,206886,267339,1.495514125,9.4241318101,2.6225335696,1066
126278,206865,267298,1.5146567058,9.4313102779,2.5986053435999996,1067
126199,206863,267337,1.5529418674,9.3547399547,2.6715864329,1068
126251,206771,267334,1.5457633996,9.403792818,2.5387847786,1069
126337,206906,267291,1.3914263419,9.4624169717,2.5818555854,1070
126404,206883,267286,1.6043875533,9.4061856406,2.5698914723999997,1071
126484,206821,267272,1.6139588437,9.327222494799999,2.6979074815,1072
126516,206776,267270,1.6307086019,9.4145605197,2.5531417142,1073
126562,206830,267327,1.6965112234000002,9.3774717694,2.4741785684,1074
126632,206879,267258,1.5361921092,9.242277292499999,2.5519453029,1075
126723,206903,267255,1.5960126741999998,9.2817588654,2.5710878837,1076
126915,206923,267303,1.5589239239000001,9.3810610033,2.5818555854,1077
126921,206910,267303,1.543370577,9.371489712899999,2.5651058272,1078
127201,206975,267332,1.6331014245,9.332008140000001,2.572284295,1079
127311,206986,267329,1.4009976323,9.3009014462,2.5328027221,1080
127462,207012,267362,1.5337992866,9.4588277378,2.6213371583000002,1081
127335,207015,267318,1.5158531170999998,9.4002035841,2.6500510295,1082
126831,206902,267286,1.5505490447999999,9.2781696315,2.5758735289,1083
126266,206897,267236,1.4644074312,9.385846648500001,2.5507488916,1084
125783,206840,267212,1.5828521499000001,9.4049892293,2.572284295,1085
125476,206828,267238,1.6498511827,9.6023970938,2.6392833278,1086
125336,206798,267170,1.5732808595,9.4289174553,2.5842484079999997,1087
125426,206825,267220,1.5361921092,9.2709911637,2.4717857458,1088
125416,206823,267227,1.4907284798,9.2973122123,2.5878376418999998,1089
125619,206836,267237,1.5601203352,9.2255275343,2.5292134882000004,1090
125690,206868,267179,1.6378870697,9.384650237199999,2.5028924396,1091
125741,206866,267170,1.6570296505,9.3104727366,2.500499617,1092
125775,206785,267203,1.5996019081000001,9.3702933016,2.5770699402,1093
125869,206856,267195,1.6701901747999999,9.2506521716,2.5196421978,1094
125918,206891,267199,1.6570296505,9.376275358100001,2.6129622792,1095
126044,206915,267204,1.483550012,9.511469835,2.6225335696,1096
126207,206958,267190,1.5864413838,9.3702933016,2.5076780847999998,1097
126335,206926,267209,1.6079767872,9.3032942688,2.5770699402,1098
126504,206995,267295,1.6570296505,9.2913301558,2.5268206656,1099
126637,207015,267285,1.5230315848999998,9.3786681807,2.5555345367999998,1100
126674,206981,267229,1.6642081183,9.4049892293,2.6057838114000003,1101
126290,206966,267263,1.6414763036,9.4229353988,2.5950161097,1102
125715,206878,267176,1.5948162629,9.2506521716,2.6141586905,1103
125194,206889,267232,1.603191142,9.367900479,2.6045874001,1104
124910,206838,267135,1.6809578765,9.3702933016,2.6153551018,1105
124689,206805,267072,1.579262916,9.2267239456,2.5555345367999998,1106
124711,206797,267157,1.6127624323999998,9.4815595525,2.572284295,1107
124822,206766,267115,1.5768700934,9.2530449942,2.5615165933,1108
124938,206795,267069,1.6103696098,9.4468636248,2.4658036893,1109
125053,206790,267103,1.6821542877999998,9.232706002099999,2.5686950610999997,1110
125049,206802,267090,1.5948162629,9.399007172800001,2.4933211492,1111
125105,206910,267077,1.5649059803999998,9.415756931,2.4957139718,1112
125151,206817,267119,1.5326028753,9.3523471321,2.5555345367999998,1113
125258,206850,267139,1.4488540843,9.438488745699999,2.5316063108,1114
125370,206860,267093,1.5385849318,9.4229353988,2.5375883673,1115
125476,206863,267161,1.4943177136999999,9.407382051899999,2.5842484079999997,1116
125626,206910,267177,1.5756736821000001,9.4241318101,2.4741785684,1117
125809,206981,267128,1.6677973521999998,9.2494557603,2.4670001006,1118
125977,206938,267200,1.4668002538,9.4911308429,2.5220350203999997,1119
125967,206924,267206,1.5876377951,9.4444708022,2.560320182,1120
125648,206855,267110,1.5613167465000002,9.376275358100001,2.6141586905,1121
124898,206793,267057,1.7168502155,9.3822574146,2.6213371583000002,1122
124428,206711,267004,1.6079767872,9.2781696315,2.5591237707,1123
123971,206673,267010,1.5098710606,9.4169533423,2.5411776012,1124
123773,206647,266901,1.579262916,9.3547399547,2.5674986498,1125
123726,206623,266990,1.6055839645999999,9.3667040677,2.5196421978,1126
123861,206620,266899,1.6905291669,9.475577496,2.5674986498,1127
124030,206607,266909,1.5254244074999999,9.3499543095,2.6428725617,1128
124028,206594,266871,1.6342978358,9.3894358824,2.5710878837,1129
124232,206598,266883,1.6319050132,9.2638126959,2.5866412306,1130
124313,206616,266860,1.6474583601,9.3056870914,2.4598216327999998,1131
124381,206614,266894,1.579262916,9.327222494799999,2.4598216327999998,1132
124425,206595,266925,1.5828521499000001,9.3009014462,2.560320182,1133
124648,206631,266909,1.5696916256,9.4456672135,2.5244278430000002,1134
124792,206645,266899,1.5278172301,9.353543543399999,2.6285156261,1135
124987,206657,266909,1.6331014245,9.4049892293,2.5842484079999997,1136
125152,206636,266915,1.4943177136999999,9.3702933016,2.5196421978,1137
125359,206747,266942,1.591227029,9.2817588654,2.4921247379,1138
125500,206651,266938,1.5266208188,9.3595255999,2.4693929232,1139
125310,206670,266892,1.5266208188,9.391828705,2.6105694566,1140
124794,206564,266825,1.5900306177,9.3248296722,2.5770699402,1141
124234,206523,266839,1.5900306177,9.3344009626,2.5411776012,1142
123833,206467,266720,1.6881363443,9.4480600361,2.5770699402,1143
123608,206445,266761,1.6103696098,9.2398844699,2.5579273594000003,1144
123595,206424,266655,1.543370577,9.4456672135,2.6177479243999997,1145
123655,206406,266678,1.5649059803999998,9.407382051899999,2.5555345367999998,1146
123955,206433,266706,1.6606188843999998,9.3726861242,2.5651058272,1147
124046,206413,266636,1.531406464,9.3726861242,2.5782663514999995,1148
124317,206414,266680,1.5924234403000002,9.3056870914,2.6177479243999997,1149
124386,206405,266690,1.6785650538999999,9.3631148338,2.5627130046,1150
124553,206422,266699,1.4979069476,9.4145605197,2.5782663514999995,1151
124569,206460,266710,1.5888342063999998,9.3547399547,2.5316063108,1152
124835,206477,266686,1.5984054967999999,9.3966143502,2.5268206656,1153
125008,206433,266701,1.5936198516,9.2386880586,2.6596223199,1154
125095,206374,266670,1.5589239239000001,9.2614198733,2.4693929232,1155
125315,206397,266631,1.4979069476,9.5294160045,2.3605194949,1156
125493,206348,266548,1.5146567058,9.410971285799999,2.3760728418,1157
125708,206362,266559,1.4715858990000001,9.4731846734,2.3856441322,1158
125746,206358,266542,1.4213366244,9.3463650756,2.5016960283,1159
125517,206327,266565,1.6163516663,9.353543543399999,2.5674986498,1160
125051,206310,266597,1.5326028753,9.3726861242,2.5651058272,1161
124646,206295,266488,1.5481562222,9.2554378168,2.5986053435999996,1162
124395,206257,266553,1.5888342063999998,9.3822574146,2.5627130046,1163
124354,206267,266501,1.6175480776,9.384650237199999,2.6380869165,1164
124410,206259,266489,1.639083481,9.332008140000001,2.5806591741,1165
124636,206301,266547,1.5158531170999998,9.3619184225,2.5052852621999997,1166
124852,206330,266525,1.5146567058,9.4145605197,2.6261228035000004,1167
124926,206309,266539,1.4967105363,9.345168664300001,2.5268206656,1168
125122,206344,266518,1.5720844482,9.3726861242,2.6141586905,1169
125266,206293,266532,1.5361921092,9.367900479,2.5818555854,1170
125467,206351,266530,1.5218351736,9.475577496,2.6105694566,1171
125525,206358,266617,1.5732808595,9.3930251163,2.572284295,1172
125763,206484,266584,1.615155255,9.4408815683,2.572284295,1173
125866,206436,266614,1.6785650538999999,9.2781696315,2.4370898181,1174
126189,206503,266654,1.5708880369,9.3882394711,2.6213371583000002,1175
126382,206511,266670,1.5385849318,9.3882394711,2.5531417142,1176
126573,206505,266681,1.5326028753,9.2697947524,2.5974089322999996,1177
126764,206534,266689,1.5541382787000002,9.3726861242,2.5387847786,1178
126634,206502,266673,1.6175480776,9.3810610033,2.5674986498,1179
126278,206505,266627,1.519442351,9.2410808812,2.5459632464,1180
125824,206397,266618,1.5876377951,9.2638126959,2.5220350203999997,1181
125499,206339,266575,1.5876377951,9.5078806011,2.6117658679000004,1182
125316,206314,266497,1.543370577,9.220741889100001,2.6057838114000003,1183
125281,206276,266476,1.5696916256,9.3391866078,2.4933211492,1184
125392,206226,266494,1.5481562222,9.4588277378,2.6141586905,1185
125595,206217,266431,1.5122638832,9.3774717694,2.5770699402,1186
125743,206231,266448,1.6486547714,9.399007172800001,2.6333012713,1187
125898,206226,266413,1.5625131578,9.3882394711,2.4813570362,1188
126010,206242,266494,1.5337992866,9.397810761499999,2.5555345367999998,1189
126135,206325,266461,1.6043875533,9.3966143502,2.5052852621999997,1190
126279,206269,266480,1.5505490447999999,9.4660062056,2.4861426814,1191
126496,206336,266440,1.567298803,9.2350988247,2.488535504,1192
126616,206343,266517,1.4285150922,9.4025964067,2.6261228035000004,1193
126842,206350,266508,1.4249258583,9.3643112451,2.5782663514999995,1194
126948,206372,266569,1.5385849318,9.343972252999999,2.6009981662,1195
127205,206379,266571,1.7024932798999999,9.353543543399999,2.5160529638999996,1196
127387,206424,266580,1.55533469,9.3834538259,2.5387847786,1197
127385,206416,266569,1.591227029,9.4540420926,2.5555345367999998,1198
127122,206372,266527,1.5349956979000001,9.3248296722,2.5363919559999997,1199
126679,206304,266503,1.5266208188,9.2781696315,2.5627130046,1200
126354,206283,266408,1.5756736821000001,9.3774717694,2.5208386090999997,1201
126131,206121,266348,1.6498511827,9.3738825355,2.4741785684,1202
126076,206241,266416,1.6103696098,9.3379901965,2.488535504,1203
126160,206176,266358,1.4392827939,9.4791667299,2.5387847786,1204
126271,206182,266318,1.6235301341000001,9.3966143502,2.4933211492,1205
126497,206206,266349,1.5900306177,9.4923272542,2.5339991334,1206
126623,206199,266301,1.6079767872,9.2386880586,2.5615165933,1207
126727,206186,266321,1.6283157793,9.320044027,2.4921247379,1208
126738,206181,266285,1.5218351736,9.2781696315,2.5627130046,1209
126946,206258,266370,1.6414763036,9.385846648500001,2.4897319153,1210
127059,206277,266363,1.6570296505,9.407382051899999,2.5292134882000004,1211
127185,206231,266329,1.603191142,9.4229353988,2.4813570362,1212
127346,206278,266380,1.5541382787000002,9.4468636248,2.6117658679000004,1213
127540,206292,266349,1.5888342063999998,9.3631148338,2.5579273594000003,1214
127709,206332,266440,1.6091731985,9.3344009626,2.4849462701,1215
127857,206328,266411,1.5816557385999999,9.3966143502,2.620140747,1216
127805,206308,266378,1.4943177136999999,9.3104727366,2.5435704238000003,1217
127473,206300,266325,1.5888342063999998,9.3415794304,2.6703900216,1218
127051,206279,266311,1.639083481,9.3667040677,2.5196421978,1219
126707,206203,266203,1.6522440053,9.510273423700001,2.5160529638999996,1220
126460,206111,266238,1.6175480776,9.3367937852,2.4502503424,1221
126392,206130,266165,1.5720844482,9.248259349,2.5112673187,1222
126472,206085,266197,1.5900306177,9.343972252999999,2.4897319153,1223
126590,206123,266226,1.6642081183,9.371489712899999,2.5100709074,1224
126720,206084,266202,1.6785650538999999,9.3750789468,2.5304098995,1225
126789,206070,266163,1.6342978358,9.3966143502,2.6249263922,1226
126844,206133,266207,1.6642081183,9.2697947524,2.5363919559999997,1227
126896,206088,266187,1.6881363443,9.3619184225,2.5986053435999996,1228
126980,206129,266222,1.4656038425,9.3176512044,2.5531417142,1229
127042,206136,266228,1.5409777544,9.3128655592,2.5076780847999998,1230
127191,206154,266231,1.5744772707999999,9.2171526552,2.6021945774999997,1231
127285,206173,266252,1.5744772707999999,9.3583291886,2.5423740125,1232
127484,206192,266269,1.6642081183,9.3942215276,2.560320182,1233
127601,206231,266344,1.5218351736,9.274580397600001,2.4933211492,1234
127694,206251,266319,1.5529418674,9.355936366,2.5531417142,1235
127417,206176,266277,1.6977076347,9.2889373332,2.5686950610999997,1236
126942,206172,266224,1.3962119871,9.443274390900001,2.51246373,1237
126336,206055,266178,1.5349956979000001,9.4002035841,2.5028924396,1238
126016,205980,266036,1.519442351,9.4229353988,2.4909283265999997,1239
125741,205942,266019,1.5146567058,9.2805624541,2.5698914723999997,1240
125645,205869,265993,1.5756736821000001,9.2626162846,2.4610180441000002,1241
125661,205856,266008,1.6163516663,9.3547399547,2.5842484079999997,1242
125753,205872,265995,1.5110674719,9.320044027,2.5220350203999997,1243
125866,205892,266003,1.6737794087,9.2985086236,2.6033909887999998,1244
125891,205863,265990,1.5517454561000001,9.3391866078,2.51246373,1245
125913,205771,266027,1.6378870697,9.3511507208,2.5734807063,1246
125898,205876,265976,1.5481562222,9.4408815683,2.4705893345,1247
126010,205871,265961,1.519442351,9.284151688,2.5579273594000003,1248
126093,205816,265991,1.567298803,9.385846648500001,2.5387847786,1249
126186,205876,265983,1.6247265454,9.2937229784,2.5639094158999995,1250
126321,205922,266016,1.5122638832,9.3631148338,2.5698914723999997,1251
126463,205921,266067,1.5493526335,9.3643112451,2.6165515131,1252
126513,205941,266079,1.4979069476,9.4576313265,2.5196421978,1253
126597,205945,266054,1.615155255,9.3296153174,2.5471596577,1254
126251,205856,265973,1.6331014245,9.284151688,2.5794627628,1255
125626,205857,265985,1.4703894876999999,9.3786681807,2.6392833278,1256
124999,205713,265858,1.4691930764,9.3726861242,2.5591237707,1257
124550,205663,265853,1.531406464,9.3750789468,2.5411776012,1258
124248,205535,265781,1.5888342063999998,9.403792818,2.5339991334,1259
124184,205526,265763,1.5577275125999999,9.3631148338,2.4358934068,1260
124223,205502,265714,1.6450655375,9.4767739073,2.5028924396,1261
124313,205505,265714,1.543370577,9.3966143502,2.6105694566,1262
124364,205497,265722,1.6067803759000001,9.3906322937,2.4598216327999998,1263
124447,205498,265740,1.43569356,9.4049892293,2.5591237707,1264
124441,205509,265737,1.5254244074999999,9.4169533423,2.4861426814,1265
124467,205451,265743,1.5481562222,9.3655076564,2.6428725617,1266
124573,205555,265807,1.4775679554999999,9.2219383004,2.5184457865,1267
124626,205544,265754,1.387837108,9.3152583818,2.5280170769,1268
124810,205531,265786,1.6677973521999998,9.3954179389,2.5938196984,1269
124838,205552,265833,1.5457633996,9.3128655592,2.5698914723999997,1270
125076,205584,265833,1.6187444889,9.2554378168,2.5974089322999996,1271
125269,205664,265870,1.5481562222,9.340383019099999,2.6165515131,1272
125292,205576,265873,1.579262916,9.4947200768,2.5950161097,1273
124995,205600,265847,1.543370577,9.376275358100001,2.560320182,1274
124278,205505,265755,1.5936198516,9.4372923344,2.500499617,1275
123734,205419,265680,1.5684952143000002,9.3870430598,2.5268206656,1276
123293,205334,265625,1.567298803,9.4313102779,2.5663022385,1277
123083,205247,265656,1.5002997702,9.3487578982,2.5794627628,1278
123039,205247,265637,1.5756736821000001,9.3822574146,2.6213371583000002,1279
123185,205264,265608,1.5481562222,9.3056870914,2.4957139718,1280
123278,205243,265610,1.5337992866,9.2973122123,2.5172493752,1281
123495,205269,265645,1.5756736821000001,9.2374916473,2.5698914723999997,1282
123525,205276,265607,1.5505490447999999,9.376275358100001,2.548356069,1283
123590,205302,265638,1.6486547714,9.4025964067,2.5100709074,1284
123642,205356,265649,1.5421741657,9.4013999954,2.5950161097,1285
123746,205259,265638,1.5900306177,9.475577496,2.5663022385,1286
123874,205440,265723,1.6606188843999998,9.260223461999999,2.5459632464,1287
124021,205430,265740,1.5457633996,9.4265246327,2.5363919559999997,1288
124191,205320,265752,1.603191142,9.371489712899999,2.5316063108,1289
124371,205334,265768,1.4763715442,9.4528456813,2.6057838114000003,1290
124576,205515,265807,1.6881363443,9.3260260835,2.5411776012,1291
124759,205519,265855,1.5744772707999999,9.3152583818,2.5555345367999998,1292
124736,205497,265884,1.531406464,9.2315095908,2.6153551018,1293
124345,205450,265809,1.4691930764,9.355936366,2.6093730453,1294
123731,205377,265808,1.6618152957,9.3344009626,2.5986053435999996,1295
123176,205292,265786,1.6067803759000001,9.3894358824,2.4945175605000003,1296
122829,205210,265654,1.5900306177,9.343972252999999,2.6368905052,1297
122668,205141,265684,1.5481562222,9.353543543399999,2.5890340532,1298
122751,205171,265662,1.6354942471,9.3152583818,2.4562323989,1299
122852,205165,265660,1.4823536007,9.3750789468,2.5866412306,1300
123109,205175,265673,1.5936198516,9.353543543399999,2.6213371583000002,1301
123206,205191,265689,1.615155255,9.4253282214,2.5411776012,1302
123282,205205,265687,1.5768700934,9.2709911637,2.6261228035000004,1303
123321,205224,265688,1.4919248910999998,9.3607220112,2.5579273594000003,1304
123518,205244,265723,1.4799607781,9.3248296722,2.500499617,1305
123563,205241,265775,1.6546368279,9.308079914,2.5758735289,1306
123779,205314,265775,1.5457633996,9.3954179389,2.5507488916,1307
123992,205264,265791,1.6007983194,9.3774717694,2.5339991334,1308
124185,205324,265804,1.5936198516,9.2985086236,2.6105694566,1309
124394,205382,265832,1.6319050132,9.407382051899999,2.6165515131,1310
124604,205431,265889,1.615155255,9.3463650756,2.5040888509,1311
124858,205430,265903,1.5182459396999999,9.3212404383,2.5064816735,1312
124827,205437,265953,1.6761722313,9.3726861242,2.5591237707,1313
124400,205371,265914,1.5529418674,9.265009107200001,2.5914268758000003,1314
123866,205307,265912,1.5960126741999998,9.3104727366,2.548356069,1315
123377,205273,265784,1.6247265454,9.327222494799999,2.608176634,1316
123081,205174,265802,1.6007983194,9.367900479,2.6009981662,1317
122876,205114,265780,1.6019947307,9.3367937852,2.5495524802999996,1318
122985,205102,265763,1.6941184008,9.438488745699999,2.5567309481,1319
123209,205122,265716,1.6594224731,9.3344009626,2.5196421978,1320
123445,205122,265736,1.5086746492999998,9.3643112451,2.5435704238000003,1321
123597,205160,265745,1.6199409001999998,9.284151688,2.5926232871,1322
123681,205161,265730,1.6199409001999998,9.2578306394,2.5938196984,1323
123761,205188,265814,1.5206387623,9.371489712899999,2.6057838114000003,1324
123915,205201,265825,1.5098710606,9.4576313265,2.5878376418999998,1325
124057,205204,265886,1.6582260617999998,9.367900479,2.6237299809,1326
124283,205284,265819,1.5302100526999998,9.309276325299999,2.5292134882000004,1327
124448,205251,265885,1.6127624323999998,9.3738825355,2.5363919559999997,1328
124643,205355,265911,1.5601203352,9.3056870914,2.7314069979,1329
124873,205379,265950,1.7024932798999999,9.3487578982,2.5746771176,1330
125092,205407,265965,1.6689937635,9.2769732202,2.5974089322999996,1331
125280,205373,266000,1.6582260617999998,9.3284189061,2.5076780847999998,1332
125151,205412,266015,1.5601203352,9.2985086236,2.5591237707,1333
124586,205346,265960,1.6199409001999998,9.3487578982,2.6093730453,1334
124190,205278,265969,1.6199409001999998,9.3355973739,2.5459632464,1335
123876,205262,265854,1.5457633996,9.5700939887,2.6225335696,1336
123711,205132,265822,1.6713865861,9.21236701,2.560320182,1337
123739,205120,265838,1.6091731985,9.3344009626,2.6141586905,1338
123879,205138,265862,1.5649059803999998,9.3224368496,2.5627130046,1339
124014,205167,265828,1.6187444889,9.3487578982,2.5758735289,1340
124322,205202,265848,1.6331014245,9.3248296722,2.6333012713,1341
124382,205167,265835,1.5888342063999998,9.4528456813,2.4263221164,1342
124503,205195,265861,1.4787643668000001,9.3224368496,2.6297120374,1343
124631,205277,265889,1.6007983194,9.3224368496,2.5507488916,1344
124672,205234,265914,1.5900306177,9.4791667299,2.5435704238000003,1345
124933,205260,265891,1.7443676754000002,9.353543543399999,2.4825534475,1346
125094,205265,266001,1.6725829974,9.4337031005,2.6225335696,1347
125310,205291,265925,1.6211373115,9.3296153174,2.5339991334,1348
125526,205318,266015,1.6845471104,9.3631148338,2.5866412306,1349
125742,205380,266050,1.6821542877999998,9.3009014462,2.5052852621999997,1350
125885,205403,266107,1.5086746492999998,9.3738825355,2.5196421978,1351
125795,205383,266030,1.5290136414,9.410971285799999,2.5818555854,1352
125375,205313,265972,1.5206387623,9.3726861242,2.608176634,1353
124879,205205,265962,1.5038890041,9.4420779796,2.5698914723999997,1354
124556,205187,265969,1.5744772707999999,9.3726861242,2.500499617,1355
124349,205086,265786,1.5326028753,9.399007172800001,2.5674986498,1356
124314,205024,265768,1.5948162629,9.248259349,2.6356940939,1357
124432,205052,265776,1.5290136414,9.4013999954,2.5375883673,1358
124661,205044,265744,1.6331014245,9.2877409219,2.5974089322999996,1359
124795,205037,265757,1.6283157793,9.4444708022,2.6524438520999998,1360
124904,205058,265825,1.6749758199999998,9.274580397600001,2.5088744961000002,1361
124993,204973,265805,1.5948162629,9.391828705,2.6021945774999997,1362
125113,205135,265814,1.5242279962,9.3583291886,2.572284295,1363
125141,205062,265891,1.5122638832,9.3391866078,2.5651058272,1364
125382,205123,265857,1.567298803,9.3511507208,2.4598216327999998,1365
125550,205172,265921,1.6283157793,9.3415794304,2.5363919559999997,1366
125725,205222,265897,1.5696916256,9.320044027,2.548356069,1367
125915,205200,265926,1.5290136414,9.4420779796,2.5459632464,1368
126150,205277,265896,1.6606188843999998,9.3128655592,2.5184457865,1369
126212,205267,265958,1.5026925928000001,9.3966143502,2.51246373,1370
126160,205265,265967,1.5876377951,9.2913301558,2.5268206656,1371
125777,205210,265916,1.4919248910999998,9.3367937852,2.5196421978,1372
125311,205128,265889,1.5768700934,9.3332045513,2.5435704238000003,1373
124886,205059,265850,1.5481562222,9.510273423700001,2.4981067944,1374
124721,205007,265767,1.5732808595,9.2913301558,2.5495524802999996,1375
124661,204948,265733,1.6606188843999998,9.2566342281,2.6045874001,1376
124760,204947,265651,1.5720844482,9.4097748745,2.6069802227000003,1377
124931,204950,265779,1.5840485612,9.2793660428,2.5938196984,1378
125080,204975,265749,1.531406464,9.2398844699,2.5674986498,1379
125171,204972,265737,1.7742779578999999,9.3643112451,2.5543381254999997,1380
125252,204976,265761,1.6259229567,9.2027957196,2.5734807063,1381
125356,205009,265782,1.4727823103,9.410971285799999,2.4861426814,1382
125445,205034,265810,1.5373885205000002,9.2985086236,2.5100709074,1383
125593,205034,265771,1.6259229567,9.2769732202,2.6333012713,1384
125817,205090,265829,1.6163516663,9.265009107200001,2.5938196984,1385
125968,205092,265852,1.6271193679999998,9.4217389875,2.6177479243999997,1386
126167,205190,265886,1.5014961814999999,9.4229353988,2.620140747,1387
126287,205222,265945,1.5206387623,9.320044027,2.5674986498,1388
126616,205185,265894,1.6199409001999998,9.4241318101,2.5495524802999996,1389
126656,205233,265923,1.5505490447999999,9.1609213241,2.500499617,1390
126414,205177,265919,1.6402798923,9.286544510599999,2.5411776012,1391
125881,205130,265901,1.519442351,9.3367937852,2.4981067944,1392
125573,205103,265821,1.6522440053,9.4576313265,2.6189443356999997,1393
125196,204988,265779,1.4428720278,9.3738825355,2.5746771176,1394
125137,204972,265791,1.579262916,9.3930251163,2.4861426814,1395
125020,204958,265754,1.5960126741999998,9.4337031005,2.5794627628,1396
125249,204931,265717,1.5696916256,9.376275358100001,2.5806591741,1397
125439,204959,265757,1.5242279962,9.2530449942,2.5710878837,1398
125546,204970,265765,1.5780665047,9.3463650756,2.5435704238000003,1399
125639,205005,265825,1.6055839645999999,9.4049892293,2.5710878837,1400
125722,204966,265779,1.5649059803999998,9.340383019099999,2.5926232871,1401
125880,205071,265814,1.5122638832,9.4097748745,2.560320182,1402
125941,205096,265857,1.5649059803999998,9.3870430598,2.5411776012,1403
126159,205139,265906,1.4608181972999998,9.456434915200001,2.5531417142,1404
126334,205138,265898,1.6139588437,9.2709911637,2.4837498588,1405
126553,205152,265924,1.5242279962,9.3367937852,2.5435704238000003,1406
126641,205216,265935,1.6247265454,9.3738825355,2.5555345367999998,1407
126922,205307,266005,1.5708880369,9.3188476157,2.6105694566,1408
127109,205350,266033,1.5960126741999998,9.2889373332,2.6309084487,1409
127291,205265,266045,1.5565311013,9.4468636248,2.6476582069,1410
127284,205372,266102,1.6019947307,9.3152583818,2.6213371583000002,1411
126961,205308,266074,1.519442351,9.3487578982,2.5292134882000004,1412
126576,205351,266089,1.5744772707999999,9.3726861242,2.5794627628,1413
126208,205218,266011,1.6654045296,9.3870430598,2.5196421978,1414
125948,205150,265935,1.6307086019,9.3487578982,2.5531417142,1415
125937,205193,265931,1.6091731985,9.3487578982,2.5076780847999998,1416
126004,205135,265941,1.6594224731,9.3595255999,2.5268206656,1417
126157,205176,265917,1.5720844482,9.232706002099999,2.5495524802999996,1418
126313,205146,265947,1.5481562222,9.3954179389,2.5435704238000003,1419
126397,205148,265970,1.6079767872,9.3009014462,2.5842484079999997,1420
126487,205204,266020,1.4895320685,9.510273423700001,2.5746771176,1421
126518,205238,266004,1.6139588437,9.535398061,2.6153551018,1422
126661,205288,266051,1.6474583601,9.3236332609,2.5172493752,1423
126787,205339,266009,1.6534404165999999,9.2279203569,2.5148565526000004,1424
126948,205324,266088,1.5828521499000001,9.4528456813,2.548356069,1425
127118,205347,266091,1.5409777544,9.4612205604,2.6668007876999997,1426
127272,205456,266150,1.5684952143000002,9.3236332609,2.6907290137,1427
127429,205426,266154,1.5684952143000002,9.3009014462,2.6009981662,1428
127638,205504,266170,1.5984054967999999,9.3487578982,2.4981067944,1429
127830,205506,266187,1.6594224731,9.2458665264,2.5196421978,1430
127918,205559,266257,1.5696916256,9.2781696315,2.5459632464,1431
127788,205544,266233,1.6079767872,9.3260260835,2.560320182,1432
127387,205489,266215,1.55533469,9.4408815683,2.6009981662,1433
126984,205440,266129,1.5014961814999999,9.4193461649,2.548356069,1434
126700,205420,266173,1.5960126741999998,9.4839523751,2.5387847786,1435
126514,205382,266117,1.6067803759000001,9.3583291886,2.5076780847999998,1436
126535,205354,266032,1.6079767872,9.4013999954,2.5746771176,1437
126613,205341,266110,1.6426727149,9.4767739073,2.6069802227000003,1438
126753,205296,266111,1.4811571894,9.3344009626,2.4981067944,1439
126936,205378,266105,1.5254244074999999,9.3583291886,2.5938196984,1440
126913,205399,266109,1.5876377951,9.343972252999999,2.5411776012,1441
127031,205442,266170,1.5996019081000001,9.4719882621,2.5686950610999997,1442
127131,205318,266174,1.6199409001999998,9.410971285799999,2.5579273594000003,1443
127247,205352,266164,1.5290136414,9.3415794304,2.6524438520999998,1444
127376,205480,266212,1.4536397294999999,9.327222494799999,2.6213371583000002,1445
127542,205492,266210,1.5601203352,9.4528456813,2.6691936103000002,1446
127580,205523,266242,1.6474583601,9.379864592,2.596212521,1447
127817,205590,266298,1.519442351,9.4002035841,2.5387847786,1448
128089,205602,266330,1.5601203352,9.355936366,2.5651058272,1449
128205,205701,266339,1.7001004573,9.308079914,2.5316063108,1450
128402,205622,266333,1.4081761001,9.4325066892,2.4897319153,1451
128465,205756,266369,1.5625131578,9.3834538259,2.5794627628,1452
128284,205697,266331,1.591227029,9.3499543095,2.6452653843,1453
127910,205638,266311,1.6905291669,9.4719882621,2.5555345367999998,1454
127510,205642,266308,1.5804593273,9.3463650756,2.6033909887999998,1455
127269,205577,266270,1.5649059803999998,9.4707918508,2.6069802227000003,1456
127042,205564,266236,1.5649059803999998,9.4863451977,2.608176634,1457
127048,205534,266151,1.5577275125999999,9.3128655592,2.4239292938,1458
127160,205516,266253,1.6163516663,9.4480600361,2.5076780847999998,1459
127283,205521,266217,1.5972090855,9.308079914,2.6153551018,1460
127391,205477,266239,1.5613167465000002,9.384650237199999,2.5890340532,1461
127462,205543,266242,1.6247265454,9.384650237199999,2.6356940939,1462
127540,205565,266239,1.6785650538999999,9.296115801,2.5411776012,1463
127586,205559,266238,1.5804593273,9.3774717694,2.6141586905,1464
127688,205528,266259,1.5864413838,9.4061856406,2.560320182,1465
127805,205600,266284,1.6295121905999999,9.403792818,2.51246373,1466
127888,205614,266374,1.483550012,9.3379901965,2.5627130046,1467
128147,205729,266336,1.6019947307,9.4660062056,2.620140747,1468
128245,205772,266396,1.567298803,9.3906322937,2.5651058272,1469
128418,205733,266418,1.6534404165999999,9.330811728699999,2.596212521,1470
128617,205815,266394,1.4668002538,9.2183490665,2.5531417142,1471
128689,205861,266443,1.5170495284,9.3248296722,2.500499617,1472
128837,205894,266478,1.6283157793,9.379864592,2.5555345367999998,1473
128551,205827,266469,1.5098710606,9.410971285799999,2.5627130046,1474
128183,205855,266427,1.6941184008,9.4719882621,2.6416761504,1475
127728,205717,266421,1.7012968686,9.3523471321,2.5244278430000002,1476
127475,205710,266359,1.5984054967999999,9.509077012399999,2.5770699402,1477
127302,205656,266321,1.4751751328999998,9.248259349,2.5770699402,1478
127258,205586,266321,1.5720844482,9.3726861242,2.5555345367999998,1479
127311,205577,266276,1.5613167465000002,9.410971285799999,2.5794627628,1480
127429,205614,266315,1.5026925928000001,9.379864592,2.5339991334,1481
127486,205557,266290,1.5385849318,9.2781696315,2.6057838114000003,1482
127550,205648,266281,1.6510475939999998,9.327222494799999,2.5076780847999998,1483
127527,205628,266302,1.5888342063999998,9.403792818,2.5890340532,1484
127589,205666,266290,1.6127624323999998,9.3834538259,2.5196421978,1485
127688,205707,266324,1.5936198516,9.3966143502,2.5507488916,1486
127754,205703,266342,1.6067803759000001,9.3966143502,2.5866412306,1487
127868,205753,266347,1.5804593273,9.3930251163,2.5268206656,1488
128005,205777,266359,1.6666009409,9.4169533423,2.5531417142,1489
128126,205713,266378,1.7383856189,9.451649269999999,2.4741785684,1490
128309,205848,266467,1.567298803,9.3415794304,2.5363919559999997,1491
128468,205875,266421,1.531406464,9.3726861242,2.5746771176,1492
128548,205881,266481,1.5302100526999998,9.397810761499999,2.5339991334,1493
128619,205912,266520,1.5529418674,9.443274390900001,2.6009981662,1494
128399,205927,266470,1.6498511827,9.3009014462,2.6356940939,1495
127915,205904,266436,1.6522440053,9.3391866078,2.5316063108,1496
127394,205739,266383,1.4177473905,9.3104727366,2.5100709074,1497
127028,205773,266371,1.5900306177,9.3631148338,2.4861426814,1498
126782,205680,266311,1.639083481,9.353543543399999,2.5531417142,1499
126605,205628,266253,1.6271193679999998,9.3415794304,2.6021945774999997,1500
126683,205664,266289,1.5876377951,9.367900479,2.51246373,1501
126746,205616,266264,1.5864413838,9.384650237199999,2.5148565526000004,1502
126759,205627,266285,1.5684952143000002,9.3415794304,2.5411776012,1503
126819,205628,266224,1.6163516663,9.3367937852,2.6033909887999998,1504
126847,205629,266278,1.5170495284,9.2530449942,2.6285156261,1505
126871,205649,266259,1.6295121905999999,9.3906322937,2.5172493752,1506
126919,205687,266228,1.591227029,9.391828705,2.6009981662,1507
126983,205647,266259,1.6977076347,9.4133641084,2.6344976826,1508
127103,205667,266292,1.7395820302,9.3583291886,2.6165515131,1509
127197,205740,266349,1.6103696098,9.3702933016,2.6368905052,1510
127314,205795,266331,1.5864413838,9.2279203569,2.7074787719,1511
127442,205786,266355,1.6941184008,9.4672026169,2.5423740125,1512
127610,205836,266383,1.6522440053,9.2626162846,2.5782663514999995,1513
127618,205864,266430,1.5565311013,9.3511507208,2.5686950610999997,1514
127769,205912,266448,1.5828521499000001,9.4013999954,2.5674986498,1515
127435,205813,266375,1.6259229567,9.2913301558,2.5339991334,1516
127039,205816,266413,1.6079767872,9.286544510599999,2.5531417142,1517
126343,205688,266304,1.5960126741999998,9.438488745699999,2.5112673187,1518
