green,red,IR,acc_x,acc_y,acc_z,sample_index
109427,205555,270316,-1.9477575963999998,-5.5046883913,7.6821569573,1
107680,205278,270205,-1.7934205387,-5.484349399199999,7.735995465799999,2
107065,205231,270248,-1.7982061838999999,-5.3611190353,7.8975109913,3
107224,205274,270281,-1.7730815466,-5.2833523008,7.8879397009000005,4
107580,205322,270344,-1.9046867896,-5.5010991574000005,7.846065305400001,5
108030,205551,270536,-1.7383856189,-5.5274202059999995,7.832904781100001,6
108701,205642,270569,-1.8747765071,-5.5728838354,7.8149586116,7
109320,205791,270688,-1.3076775509,-5.3563333901,7.9812597822999996,8
109871,205856,270773,-1.7814564256999998,-5.426921656799999,7.7479595788,9
110149,205928,270858,-1.7898313048,-5.4687960523,7.7970124421,10
110116,205947,270862,-2.0039889275,-5.4017970195,7.740781111,11
110207,205978,270867,-1.8951154991999999,-5.6147582309,7.7575308692,12
110393,206022,270911,-1.8711872732,-5.541777141600001,7.8341011924,13
110655,206077,270978,-2.1487546948,-5.5764730692999995,7.788637563,14
110964,206124,271067,-1.9166509025999998,-5.5322058512000005,7.8424760715,15
111339,206208,271100,-1.8927226765999998,-5.5369914964,7.7120672398000005,16
111699,206304,271165,-1.8687944506,-5.599204884000001,7.695317481599999,17
112116,206370,271196,-1.9298114269,-5.443671415,7.7312098206,18
112491,206459,271270,-1.8640088054,-5.563312545,7.6295148601000005,19
112907,206532,271298,-1.9645073545999998,-5.5800623032,7.7144600624,20
113217,206555,271350,-1.8616159827999998,-5.5800623032,7.7694949822,21
113643,206602,271409,-1.9130616687,-5.5944192388,7.7455667562,22
113961,206713,271462,-1.9226329591,-5.4735816975,7.7575308692,23
114179,206713,271460,-1.8843477975,-5.4257252455,7.7192457076,24
113513,206570,271365,-0.945164927,-5.513063270399999,7.8029944985999995,25
111375,206110,271119,-1.9740786449999999,-5.760720409499999,7.7144600624,26
109538,205913,270996,-1.9250257817,-5.5082776252,7.6713892556,27
108818,205834,271017,-1.9405791285999998,-5.5944192388,7.7120672398000005,28
108894,205814,271018,-2.0063817501,-5.5860443597,7.804190909899999,29
109155,205876,271098,-2.0554346134,-5.5728838354,7.7539416353,30
109563,205880,271157,-1.9992032822999999,-5.6075797630999995,7.6857461912,31
110066,206035,271186,-2.0494525569,-5.5657053676,7.7144600624,32
110721,206207,271322,-1.9764714676,-5.4783673427,7.7024959494,33
111232,206297,271384,-2.0111673952999998,-5.6291151665,7.7096744172000005,34
111479,206225,271423,-1.9956140484,-5.6279187552000005,7.6857461912,35
111507,206312,271408,-1.9860427579999997,-5.5645089563,7.7024959494,36
111644,206380,271447,-2.0255243308999997,-5.4831529879,7.7072815945999995,37
111760,206371,271496,-1.9393827173,-5.611168996999999,7.6713892556,38
112114,206429,271552,-2.0051853388,-5.5082776252,7.6163543358,39
112355,206441,271522,-2.0362920326,-5.665007505499999,7.635496916599999,40
112679,206534,271622,-1.9393827173,-5.6434721021,7.7096744172000005,41
113129,206534,271671,-2.0434705004000002,-5.5238309721,7.621139981,42
113530,206667,271734,-1.9453647738,-5.710471134900001,7.8376904263,43
113921,206780,271773,-2.0422740890999997,-5.6757752072,7.6845497799,44
114323,206787,271766,-1.9764714676,-5.4257252455,7.721638530200001,45
114694,206872,271837,-1.8723836845000001,-5.5322058512000005,7.7515488127,46
115038,206927,271881,-1.9740786449999999,-5.4771709314,7.6139615132000005,47
115340,206947,271902,-1.962114532,-5.515456093,7.721638530200001,48
115742,207005,271941,-1.9154544913,-5.5190453269,7.5637122386,49
115979,207041,271959,-2.0542382021,-5.539384319,7.6725856669,50
115953,206886,271888,-2.0003996936,-5.4963135121999995,7.683353368600001,51
114370,206695,271744,-2.021935097,-5.6925249654,7.7072815945999995,52
111994,206302,271572,-1.9692929998,-5.649454158599999,7.7443703449,53
110552,206114,271405,-2.0183458631,-5.5214381495,7.625925626199999,54
110115,206046,271478,-2.0255243308999997,-5.5788658919,7.6163543358,55
110215,206071,271482,-2.0123638066000002,-5.5369914964,7.6905318364,56
110508,206140,271507,-2.0231315083,-5.5310094399,7.6402825618,57
110880,206210,271580,-1.8879370314,-5.6171510535,7.720442118899999,58
111459,206314,271686,-2.0171494518,-5.539384319,7.6713892556,59
112018,206370,271695,-2.0003996936,-5.5214381495,7.654639497399999,60
112361,206453,271698,-2.009970984,-5.659025449,7.624729214899999,61
112468,206450,271749,-2.021935097,-5.5477591981,7.6283184488,62
112473,206441,271736,-1.9848463467,-5.540580730299999,7.7383882884,63
112537,206472,271757,-2.1427726383,-5.4735816975,7.633104094,64
112686,206504,271849,-1.9908284031999999,-5.6039905292,7.6737820782,65
112943,206535,271855,-2.0051853388,-5.5238309721,7.749155990099999,66
113273,206586,271841,-2.057827436,-5.5968120614000005,7.6713892556,67
113533,206651,271855,-1.9692929998,-5.5573304885,7.6271220375,68
113955,206700,271898,-1.9848463467,-5.6147582309,7.7862447404,69
114297,206725,271920,-1.9441683625,-5.538187907699999,7.7264241754,70
114545,206727,271921,-2.0279171535,-5.5609197224,7.6761749007999995,71
114749,206743,271957,-2.0446669117,-5.5716874241,7.7072815945999995,72
115019,206787,271898,-2.0267207422,-5.6123654083000005,7.6295148601000005,73
115216,206758,271979,-2.0255243308999997,-5.5429735529,7.7563344578999995,74
115351,206723,271880,-1.9884355805999998,-5.5932228275,7.666603610399999,75
115521,206732,271829,-2.0027925162,-5.5202417382,7.6414789731,76
115560,206738,271816,-1.9334006607999998,-5.487938633100001,7.7347990545,77
115590,206727,271787,-1.9692929998,-5.515456093,7.8101729664,78
114909,206509,271661,-1.91425808,-5.6398828682,7.763512925700001,79
112567,206044,271401,-1.7563317884,-5.595615650099999,7.7120672398000005,80
110208,205622,271176,-1.7335999736999999,-5.5657053676,7.6642107878,81
109038,205442,271004,-1.9130616687,-5.5202417382,7.777869861299999,82
108695,205375,271024,-1.8544375149999999,-5.528616617299999,7.8173514342,83
108619,205380,270992,-1.8999011444,-5.7439706513,7.7192457076,84
108823,205354,270952,-1.8927226765999998,-5.525027383399999,7.7395846997,85
109147,205405,270940,-1.8233308212,-5.649454158599999,7.735995465799999,86
109601,205437,270959,-1.8137595308,-5.551348432,7.779066272600001,87
109822,205463,271001,-1.8388841681,-5.6506505699,7.848458128,88
109894,205396,270918,-1.842473402,-5.5561340772,7.6977103042,89
109713,205355,270833,-1.770688724,-5.5369914964,7.728816998,90
109536,205243,270841,-1.8245272325,-5.551348432,7.7096744172000005,91
109506,205186,270743,-1.6881363443,-5.5202417382,7.8269227246,92
109604,205177,270764,-1.6331014245,-5.467599641,7.704888771999999,93
109718,205188,270773,-1.7395820302,-5.4987063348,7.7682985709,94
109907,205197,270738,-1.7730815466,-5.570491012800001,7.8520473619,95
110095,205202,270757,-1.8568303376,-5.4963135121999995,7.8029944985999995,96
110273,205224,270780,-1.7419748528,-5.5202417382,7.8376904263,97
110581,205266,270773,-1.6127624323999998,-5.4006006081999995,7.8400832489,98
110788,205293,270811,-1.8819549749,-5.5477591981,7.7072815945999995,99
110966,205320,270813,-1.8747765071,-5.4963135121999995,7.8628150636,100
111191,205313,270786,-1.7455640867,-5.4364929472,7.9310105077,101
111233,205319,270771,-1.7288143285,-5.50349198,7.7982088534,102
111457,205326,270819,-1.7958133612999998,-5.3228338737000005,7.7718878047999995,103
111611,205325,270800,-1.6199409001999998,-5.3946185517,7.8281191359,104
111708,205321,270783,-1.7312071511,-5.459224761900001,7.9310105077,105
110931,205139,270701,-1.7204394494000002,-5.419743189,7.7419775223,106
108863,204775,270461,-1.6821542877999998,-5.4352965359,7.746763167499999,107
107056,204467,270295,-1.7264215058999999,-5.426921656799999,7.7934232082,108
106497,204407,270343,-1.7324035624,-5.4699924636,7.8257263133,109
106483,204496,270396,-1.7575281996999998,-5.5202417382,7.819744256799999,110
106863,204605,270428,-1.7994025952000001,-5.3778687935,7.7838519178,111
107361,204738,270567,-1.8783657409999999,-5.2666025426,7.764709337,112
108051,204918,270694,-1.6450655375,-5.4532427054,7.8544401845,113
108651,205088,270789,-1.7922241274,-5.5262237947,7.7383882884,114
109143,205209,270923,-1.8257236438,-5.553741254599999,7.832904781100001,115
109351,205274,270988,-1.8305092889999999,-5.5477591981,7.874779176600001,116
109550,205348,271013,-1.7060825138000002,-5.3730831483,7.7742806274,117
109670,205318,271084,-1.8472590472,-5.4520462941,7.6785677234,118
109829,205487,271140,-1.8640088054,-5.5058848026,7.8592258297,119
110167,205567,271199,-1.8939190879,-5.3300123415,7.7599236918,120
110531,205635,271261,-1.4464612617,-5.5728838354,7.762316514399999,121
110972,205752,271363,-1.9250257817,-5.551348432,7.733602643199999,122
111358,205869,271422,-1.7503497318999999,-5.5070812139,7.7096744172000005,123
111917,205971,271436,-1.8939190879,-5.575276658,7.716852885,124
112250,206068,271545,-1.9046867896,-5.539384319,7.7718878047999995,125
112762,206155,271658,-1.9405791285999998,-5.6554362151,7.7455667562,126
113141,206186,271715,-1.8939190879,-5.587240771,7.7144600624,127
113510,206324,271721,-2.0171494518,-5.5525448433,7.7946196195,128
113995,206432,271806,-1.8975083218,-5.4927242783,7.7024959494,129
114247,206440,271816,-1.8149559420999999,-5.4699924636,7.7120672398000005,130
113837,206339,271733,-1.938186306,-5.541777141600001,7.692924659,131
111776,205916,271587,-1.9764714676,-5.624329521299999,7.704888771999999,132
109694,205581,271413,-1.9836499354,-5.6446685134,7.6498538522,133
108736,205526,271353,-1.8999011444,-5.551348432,7.6905318364,134
108593,205534,271356,-1.8807585636,-5.6422756908,7.7120672398000005,135
108856,205632,271441,-2.0039889275,-5.5657053676,7.6139615132000005,136
109278,205695,271486,-1.8245272325,-5.6183474648,7.633104094,137
109847,205786,271549,-2.0398812665,-5.5896335936,7.7036923607,138
110425,205902,271623,-2.0003996936,-5.5716874241,7.7431739336,139
111066,206018,271694,-2.0506489682,-5.5680981902,7.721638530200001,140
111335,206040,271787,-1.9573288867999998,-5.6398828682,7.692924659,141
111541,206033,271785,-1.9896319919,-5.6004012953,7.7515488127,142
111574,206091,271808,-1.8723836845000001,-5.6135618196,7.6019974002,143
111799,206124,271804,-2.0051853388,-5.5716874241,7.7120672398000005,144
111933,206187,271827,-1.9609181207,-5.5800623032,7.7300134093,145
112350,206228,271936,-1.9740786449999999,-5.513063270399999,7.7347990545,146
112688,206292,271940,-1.8388841681,-5.551348432,7.6187471584,147
113137,206384,272030,-1.9334006607999998,-5.6757752072,7.7192457076,148
113520,206476,272081,-2.0470597343,-5.6279187552000005,7.621139981,149
113935,206542,272103,-1.8819549749,-5.6255259326000004,7.7096744172000005,150
114361,206602,272162,-1.9752750562999999,-5.649454158599999,7.6103722793,151
114761,206699,272186,-1.9669001771999999,-5.5776694806,7.645068207,152
115281,206735,272228,-2.1032910654,-5.6973106106,7.6642107878,153
115536,206804,272246,-1.9405791285999998,-5.6087761744,7.6905318364,154
115943,206867,272290,-2.0769700168,-5.5968120614000005,7.6809605460000006,155
116224,206922,272306,-2.009970984,-5.4652068183999996,7.573283529,156
116632,206943,272352,-1.9932212258000002,-5.5489556094,7.708478005899999,157
116825,206976,272382,-1.9860427579999997,-5.4628139958,7.716852885,158
116309,206826,272259,-1.9860427579999997,-5.7116675462,7.735995465799999,159
114133,206428,272039,-1.9896319919,-5.6853464976,7.5948189324,160
111897,206060,271920,-1.9357934834,-5.5214381495,7.5996045776,161
110831,205973,271811,-1.9716858223999998,-5.6255259326000004,7.7001031268,162
110658,205935,271819,-1.9633109433,-5.5118668590999995,7.7395846997,163
110870,205966,271836,-2.0554346134,-5.6099725857,7.6091758679999995,164
111270,206088,271905,-2.0051853388,-5.6063833518,7.625925626199999,165
111777,206150,272050,-1.9238293703999998,-5.651846981199999,7.7443703449,166
112386,206291,272021,-2.093719775,-5.563312545,7.704888771999999,167
112959,206343,272062,-1.91425808,-5.6123654083000005,7.7120672398000005,168
113297,206410,272097,-1.9082760235,-5.599204884000001,7.621139981,169
113228,206356,272138,-2.0506489682,-5.6303115778,7.7072815945999995,170
113346,206365,272088,-2.0135602179,-5.7403814174,7.6821569573,171
113254,206331,272148,-2.0267207422,-5.670989562,7.6498538522,172
113414,206373,272082,-1.9669001771999999,-5.5310094399,7.7659057483,173
113639,206364,272081,-1.9082760235,-5.6063833518,7.7264241754,174
113809,206419,272096,-2.0003996936,-5.6183474648,7.6426753844,175
114087,206413,272110,-1.8532411037,-5.6327044004,7.7024959494,176
114454,206443,272121,-1.8675980393,-5.582455125799999,7.6474610296,177
114717,206478,272127,-1.9597217094,-5.5369914964,7.666603610399999,178
114942,206452,272107,-1.962114532,-5.6769716185,7.6809605460000006,179
115172,206501,272117,-2.0015961049,-5.444867826299999,7.7730842161,180
115357,206524,272133,-1.9884355805999998,-5.5310094399,7.6785677234,181
115740,206533,272161,-1.8711872732,-5.5920264161999995,7.704888771999999,182
115786,206533,272082,-1.8652052167000002,-5.6195438761,7.692924659,183
115955,206573,272115,-1.9106688461,-5.4352965359,7.6558359087,184
116183,206556,272114,-1.9453647738,-5.5178489156,7.7144600624,185
116193,206453,272070,-1.9094724347999998,-5.4975099235,7.750352401400001,186
115507,206310,271954,-1.9286150156,-5.5728838354,7.7742806274,187
113213,205889,271716,-1.7862420709,-5.569294601499999,7.6498538522,188
111002,205532,271477,-1.9082760235,-5.551348432,7.7072815945999995,189
109931,205383,271391,-1.7659030788,-5.553741254599999,7.6881390138,190
109614,205307,271343,-2.0135602179,-5.4400821811,7.7144600624,191
109725,205341,271356,-1.8089738856,-5.5022955687,7.7862447404,192
110062,205372,271377,-1.7635102562,-5.5429735529,7.7240313528,193
110429,205454,271394,-1.9166509025999998,-5.5848479484,7.752745224,194
111004,205515,271437,-1.8340985228999998,-5.5585268998,7.7862447404,195
111271,205525,271432,-1.9357934834,-5.5645089563,7.7599236918,196
111400,205493,271416,-1.7850456596,-5.528616617299999,7.77667345,197
111224,205462,271327,-1.8293128776999998,-5.569294601499999,7.7192457076,198
111142,205408,271343,-1.8077774743,-5.6135618196,7.7096744172000005,199
111131,205392,271343,-1.7778671918,-5.5477591981,7.752745224,200
111213,205379,271248,-1.8352949342,-5.3970113743,7.775477038699999,201
111371,205347,271307,-1.8975083218,-5.5094740364999994,7.7120672398000005,202
111529,205360,271267,-1.9130616687,-5.5597233111,7.7694949822,203
111662,205419,271258,-1.6498511827,-5.479563754,7.7826555065,204
111945,205413,271242,-1.7072789251,-5.4233324229,7.8149586116,205
112176,205419,271284,-1.7694923127,-5.4496534715000005,7.762316514399999,206
112430,205473,271280,-1.8520446924,-5.4616175845,7.7994052647,207
112684,205472,271321,-1.7599210223,-5.5106704478,7.7814590952,208
112974,205488,271351,-1.7730815466,-5.4975099235,7.824529902,209
113186,205493,271310,-1.7036896912000001,-5.4819565766,7.8017980873,210
113319,205542,271344,-1.7479569093,-5.4472606489,7.7120672398000005,211
113533,205559,271333,-1.7994025952000001,-5.4891350444,7.8388868376,212
113680,205594,271404,-1.7766707805,-5.3934221404,7.8652078862,213
113131,205476,271286,-1.6845471104,-5.4939206895999995,7.750352401400001,214
110994,205082,271109,-1.7431712641,-5.6327044004,7.7024959494,215
109108,204796,270946,-1.7383856189,-5.5058848026,7.8017980873,216
108406,204750,270989,-1.6833506991,-5.4281180681,7.716852885,217
108417,204890,270992,-1.8496518698,-5.5298130286000005,7.8173514342,218
108870,205004,271122,-1.8616159827999998,-5.4975099235,7.7551380466,219
109436,205154,271246,-1.8771693297,-5.6195438761,7.7431739336,220
110076,205277,271307,-1.8759729184,-5.5274202059999995,7.8173514342,221
110695,205464,271428,-1.8831513862,-5.5334022625,7.7264241754,222
111290,205567,271522,-1.9238293703999998,-5.6123654083000005,7.7347990545,223
111632,205668,271573,-2.0111673952999998,-5.5369914964,7.7671021596,224
111671,205738,271654,-1.8747765071,-5.563312545,7.735995465799999,225
111797,205743,271705,-1.8771693297,-5.6039905292,7.6713892556,226
111895,205779,271702,-1.9357934834,-5.5848479484,7.692924659,227
112173,205861,271797,-1.806581063,-5.4400821811,7.6881390138,228
112527,205958,271846,-1.9286150156,-5.499902746099999,7.716852885,229
112823,206031,271906,-1.8855442087999998,-5.525027383399999,7.7001031268,230
113236,206113,271954,-1.9429719511999999,-5.554937665900001,7.7383882884,231
113622,206192,271995,-1.9501504189999999,-5.5166525043000005,7.606783045399999,232
114046,206262,272072,-1.9286150156,-5.4568319393,7.6319076827,233
114453,206389,272173,-1.9932212258000002,-5.6327044004,7.6785677234,234
114820,206437,272202,-1.9573288867999998,-5.528616617299999,7.6642107878,235
115228,206513,272183,-1.9645073545999998,-5.5740802467,7.7706913935,236
115562,206625,272265,-2.1320049366,-5.6183474648,7.6115686905999995,237
115958,206623,272295,-2.0530417908,-5.5178489156,7.6785677234,238
115988,206573,272292,-2.4442682859,-5.6183474648,7.654639497399999,239
114530,206332,272132,-1.9800607015,-5.7284173044,7.704888771999999,240
111932,205900,271919,-2.0626130812,-5.611168996999999,7.6498538522,241
110157,205627,271808,-1.9860427579999997,-5.553741254599999,7.6761749007999995,242
109596,205575,271766,-1.9525432416,-5.5561340772,7.645068207,243
109674,205626,271792,-2.081755662,-5.4233324229,7.6905318364,244
110024,205707,271811,-1.9010975557,-5.4819565766,7.6462646183,245
110505,205770,271889,-1.9812571127999998,-5.5429735529,7.65703232,246
111073,205973,271988,-1.9692929998,-5.6039905292,7.7228349415,247
111715,206051,272049,-1.962114532,-5.6602218603,7.6594251426,248
112300,206094,272139,-1.9716858223999998,-5.635097223,7.6307112714,249
112402,206139,272139,-1.9956140484,-5.7631132321,7.635496916599999,250
112409,206121,272161,-1.9968104597,-5.5441699642,7.6426753844,251
112420,206183,272153,-2.009970984,-5.5298130286000005,7.7383882884,252
112605,206188,272177,-1.9549360641999998,-5.6219366987,7.8065837325,253
112705,206239,272183,-2.0506489682,-5.6015977066,7.5804619967999995,254
113054,206262,272263,-1.9680965885,-5.5477591981,7.7072815945999995,255
113445,206301,272288,-2.0709879603,-5.5106704478,7.7036923607,256
113765,206408,272305,-2.1320049366,-5.5190453269,7.606783045399999,257
114212,206477,272313,-2.0781664281,-5.5453663755000004,7.6618179652,258
114512,206425,272385,-1.8915262653,-5.5848479484,7.654639497399999,259
114956,206548,272398,-2.0985054202,-5.651846981199999,7.721638530200001,260
115353,206636,272444,-1.9932212258000002,-5.6135618196,7.6737820782,261
115656,206697,272492,-1.9884355805999998,-5.6422756908,7.7240313528,262
115999,206729,272462,-1.9704894111,-5.710471134900001,7.7443703449,263
116424,206757,272540,-1.9633109433,-5.5764730692999995,7.573283529,264
116669,206825,272503,-2.0913269524,-5.6913285541,7.7898339743,265
116769,206793,272546,-1.9322042495,-5.6865429089,7.6761749007999995,266
115394,206519,272356,-2.0673987264,-5.5908300049,7.7120672398000005,267
112777,206038,272103,-2.009970984,-5.611168996999999,7.5756763516,268
110688,205771,271977,-2.0291135648000003,-5.6039905292,7.621139981,269
110068,205719,271916,-1.9872391693,-5.6542398038,7.6187471584,270
109994,205753,271971,-2.0362920326,-5.6303115778,7.7443703449,271
110304,205801,271969,-2.0913269524,-5.6638110942,7.668996433,272
110812,205809,272063,-1.9441683625,-5.5896335936,7.6426753844,273
111331,205990,272099,-2.1020946541,-5.5848479484,7.635496916599999,274
111988,206067,272148,-2.0422740890999997,-5.539384319,7.6402825618,275
112425,206159,272170,-2.0195422744,-5.4951171009,7.7036923607,276
112557,206094,272191,-1.9525432416,-5.6183474648,7.6319076827,277
112526,206096,272173,-2.0805592507,-5.5848479484,7.6426753844,278
112407,206028,272153,-2.03389921,-5.515456093,7.621139981,279
112368,206021,272081,-2.0602202586000002,-5.5082776252,7.6115686905999995,280
112517,206038,272073,-1.782652837,-5.647061336,7.6713892556,281
112579,206035,272110,-1.9393827173,-5.583651537100001,7.721638530200001,282
112733,206015,272103,-2.0733807828999997,-5.693721376699999,7.785048329099999,283
112991,206041,272123,-1.8999011444,-5.4664032297,7.6785677234,284
113243,206091,272099,-1.9956140484,-5.6745787959,7.6941210703,285
113480,206056,272106,-2.1116659445,-5.455635527999999,7.637889739199999,286
113718,206111,272097,-2.0518453795,-5.4855458105,7.654639497399999,287
113974,206145,272074,-1.9645073545999998,-5.6841500863,7.721638530200001,288
114186,206161,272111,-1.8532411037,-5.5429735529,7.749155990099999,289
114473,206155,272073,-2.0362920326,-5.570491012800001,7.7312098206,290
114591,206137,272094,-1.8017954178,-5.6805608524,7.6618179652,291
114796,206156,272015,-1.8939190879,-5.5190453269,7.6965138929000005,292
114913,206143,272021,-1.8149559420999999,-5.5561340772,7.6905318364,293
114642,206061,271996,-1.8245272325,-5.649454158599999,7.7192457076,294
112858,205695,271741,-1.8269200550999998,-5.735595772199999,7.6594251426,295
110158,205206,271475,-1.8281164664,-5.6745787959,7.6905318364,296
108552,204919,271239,-1.9034903783000001,-5.4855458105,7.668996433,297
107992,204864,271230,-1.9680965885,-5.6195438761,7.7539416353,298
108094,204852,271219,-1.818545176,-5.4771709314,7.7694949822,299
108302,204899,271231,-1.8759729184,-5.5680981902,7.7024959494,300
108683,204885,271253,-1.8975083218,-5.5310094399,7.692924659,301
109170,204992,271317,-1.79461695,-5.5764730692999995,7.7694949822,302
109700,205080,271310,-1.7599210223,-5.541777141600001,7.7551380466,303
109926,205065,271294,-1.734796385,-5.6015977066,7.7264241754,304
109950,205017,271290,-1.8041882404,-5.4831529879,7.7970124421,305
109814,204964,271231,-1.7288143285,-5.4687960523,7.7383882884,306
109653,204915,271195,-1.8795621523000001,-5.5776694806,7.728816998,307
109643,204888,271125,-1.8496518698,-5.6458649247,7.7718878047999995,308
109763,204874,271222,-1.7886348934999998,-5.5082776252,7.764709337,309
109906,204934,271192,-1.7730815466,-5.5178489156,7.8759755879,310
110149,204913,271182,-1.8233308212,-5.5680981902,7.7958160308,311
110415,204931,271179,-1.7898313048,-5.611168996999999,7.7862447404,312
110666,204994,271147,-1.7383856189,-5.515456093,7.7001031268,313
110921,204992,271190,-1.7443676754000002,-5.4341001246000005,7.7659057483,314
111243,205093,271215,-1.7036896912000001,-5.491527867,7.8496545393,315
111543,205139,271265,-1.7874384822,-5.446064237599999,7.8101729664,316
111869,205227,271296,-1.8939190879,-5.4364929472,7.7096744172000005,317
112187,205238,271308,-1.7324035624,-5.624329521299999,7.667800021700001,318
112517,205323,271393,-1.7419748528,-5.587240771,7.7898339743,319
112797,205370,271393,-1.7120645703,-5.455635527999999,7.7240313528,320
112733,205346,271425,-1.8329021116,-5.6554362151,7.764709337,321
110868,205022,271250,-1.7072789251,-5.553741254599999,7.8017980873,322
108765,204629,271054,-1.9345970721,-5.3970113743,7.7898339743,323
107617,204546,271003,-1.8520446924,-5.4341001246000005,7.7862447404,324
107527,204558,271071,-1.8257236438,-5.5776694806,7.7240313528,325
107888,204712,271185,-1.7623138449,-5.486742221799999,7.7240313528,326
108402,204844,271265,-1.9525432416,-5.5477591981,7.7096744172000005,327
109055,204992,271348,-1.8329021116,-5.6279187552000005,7.7958160308,328
109821,205167,271465,-1.8376877568,-5.499902746099999,7.7108708285,329
110526,205289,271565,-1.9585252981,-5.5489556094,7.6737820782,330
110924,205382,271662,-1.9357934834,-5.659025449,7.737191877099999,331
111082,205425,271647,-1.8807585636,-5.666203916800001,7.7671021596,332
111188,205480,271716,-1.8711872732,-5.5429735529,7.695317481599999,333
111350,205533,271735,-1.9010975557,-5.7020962558,7.7001031268,334
111531,205553,271813,-1.9166509025999998,-5.5310094399,7.7144600624,335
111801,205605,271865,-1.8508482811000002,-5.5561340772,7.6307112714,336
112130,205713,271929,-1.8879370314,-5.528616617299999,7.6977103042,337
112501,205798,271974,-1.8975083218,-5.587240771,7.683353368600001,338
112927,205870,272035,-2.0231315083,-5.5609197224,7.645068207,339
113366,205979,272064,-1.8999011444,-5.6039905292,7.6366933279,340
113755,206061,272128,-1.9525432416,-5.525027383399999,7.6283184488,341
114255,206158,272183,-2.0291135648000003,-5.4783673427,7.6905318364,342
114662,206198,272254,-1.8759729184,-5.5453663755000004,7.6905318364,343
115012,206269,272259,-2.0303099761,-5.7296137157,7.692924659,344
115386,206344,272309,-1.8652052167000002,-5.6063833518,7.666603610399999,345
115790,206389,272321,-1.9034903783000001,-5.5178489156,7.6881390138,346
116046,206397,272361,-1.8652052167000002,-5.5345986738,7.718049296299999,347
115149,206219,272227,-2.105683888,-5.6757752072,7.7012995381,348
112641,205720,272021,-1.722832272,-5.5489556094,7.654639497399999,349
110455,205431,271772,-2.045863323,-5.575276658,7.6881390138,350
109559,205331,271758,-1.9238293703999998,-5.635097223,7.695317481599999,351
109437,205364,271776,-2.0051853388,-5.6183474648,7.6283184488,352
109736,205397,271834,-1.938186306,-5.6159546422,7.6187471584,353
110268,205480,271925,-2.0075781614,-5.6255259326000004,7.6307112714,354
110784,205620,271966,-1.9920248145,-5.4927242783,7.6618179652,355
111450,205738,272062,-1.9214365478,-5.620740287399999,7.7252277641000004,356
112042,205873,272112,-2.0494525569,-5.5274202059999995,7.6426753844,357
112354,205893,272103,-2.105683888,-5.6279187552000005,7.6498538522,358
112405,205873,272141,-2.1164515897,-5.694917788000001,7.6618179652,359
112447,205858,272161,-2.0135602179,-5.5968120614000005,7.6630143765,360
112521,205941,272184,-1.9298114269,-5.4352965359,7.7132636511,361
112713,205950,272188,-2.0171494518,-5.575276658,7.6642107878,362
112987,205994,272212,-1.9106688461,-5.637490045600001,7.6642107878,363
113253,206064,272265,-2.1499511061,-5.635097223,7.6486574409,364
113602,206084,272255,-1.9357934834,-5.6901321428,7.6881390138,365
114026,206181,272322,-1.9728822337,-5.5944192388,7.7240313528,366
114446,206219,272346,-1.9609181207,-5.6877393201999995,7.6594251426,367
114806,206313,272389,-2.1032910654,-5.587240771,7.635496916599999,368
115158,206373,272456,-2.0673987264,-5.4759745201,7.6438717957,369
115530,206382,272431,-2.0279171535,-5.5645089563,7.7156564737,370
115984,206487,272481,-1.9704894111,-5.6482577473,7.6857461912,371
116172,206493,272484,-1.9250257817,-5.6183474648,7.6965138929000005,372
116458,206505,272526,-2.0207386857,-5.5310094399,7.6163543358,373
116731,206549,272532,-1.9692929998,-5.4903314557,7.6462646183,374
116824,206542,272565,-1.9764714676,-5.5345986738,7.721638530200001,375
116022,206290,272333,-1.9549360641999998,-5.7415778287,7.6582287313,376
113456,205824,272074,-1.8867406201,-5.6183474648,7.6881390138,377
111187,205457,271814,-1.9633109433,-5.5441699642,7.65703232,378
110078,205308,271786,-1.9884355805999998,-5.5800623032,7.7264241754,379
109830,205265,271775,-2.03389921,-5.5190453269,7.7192457076,380
109981,205311,271758,-2.0255243308999997,-5.5334022625,7.7024959494,381
110225,205350,271773,-1.9645073545999998,-5.5884371823,7.7036923607,382
110713,205357,271753,-1.9669001771999999,-5.4927242783,7.65703232,383
111185,205465,271842,-2.0087745727,-5.6542398038,7.7192457076,384
111647,205532,271871,-1.8388841681,-5.5812587145,7.6043902228,385
111823,205537,271859,-1.9597217094,-5.647061336,7.683353368600001,386
111745,205466,271818,-1.9597217094,-5.599204884000001,7.7192457076,387
111536,205378,271723,-1.8759729184,-5.4209396003000005,7.775477038699999,388
111467,205337,271716,-1.9788642901999998,-5.653043392499999,7.6199435697,389
111406,205296,271701,-1.8556339263000001,-5.6159546422,7.785048329099999,390
111559,205236,271718,-1.9716858223999998,-5.4759745201,7.7611201031,391
111647,205308,271676,-1.8412769907000002,-5.4293144793999994,7.7192457076,392
111764,205349,271626,-1.8927226765999998,-5.4903314557,7.77667345,393
112041,205356,271663,-1.8209379986,-5.4664032297,7.7264241754,394
112289,205322,271617,-1.7922241274,-5.5238309721,7.764709337,395
112468,205297,271637,-1.79461695,-5.50349198,7.683353368600001,396
112659,205371,271651,-1.8628123941,-5.363511857900001,7.7682985709,397
113011,205370,271599,-1.8628123941,-5.5932228275,7.8352976037,398
113075,205387,271593,-1.7407784414999998,-5.4568319393,7.666603610399999,399
113291,205397,271635,-1.758724611,-5.4496534715000005,7.6809605460000006,400
113450,205395,271587,-1.806581063,-5.525027383399999,7.8436724828,401
113642,205397,271578,-1.7443676754000002,-5.5908300049,7.812565789,402
112988,205189,271474,-1.806581063,-5.6901321428,7.704888771999999,403
110792,204737,271151,-1.806581063,-5.4987063348,7.7001031268,404
108712,204373,270954,-1.6450655375,-5.4544391167,7.7312098206,405
107810,204227,270937,-1.8544375149999999,-5.4352965359,7.7706913935,406
107616,204271,270827,-1.7838492483,-5.4257252455,7.752745224,407
107815,204272,270882,-1.7503497318999999,-5.553741254599999,7.716852885,408
108230,204373,270926,-1.7647066674999998,-5.4963135121999995,7.7575308692,409
108696,204458,271010,-1.6402798923,-5.50349198,7.7718878047999995,410
109418,204581,271113,-1.7539389658,-5.4987063348,7.750352401400001,411
109856,204723,271182,-1.6079767872,-5.5501520207,7.7563344578999995,412
110072,204790,271175,-1.8592231602,-5.4065826647,7.721638530200001,413
110153,204811,271270,-1.7515461432000001,-5.5441699642,7.7240313528,414
110243,204822,271253,-1.7898313048,-5.5082776252,7.6809605460000006,415
110448,204922,271289,-1.9214365478,-5.570491012800001,7.7072815945999995,416
110670,205006,271395,-1.7407784414999998,-5.6231331099999995,7.7814590952,417
110954,205095,271512,-1.7910277161,-5.4664032297,7.7838519178,418
111298,205157,271502,-1.818545176,-5.5441699642,7.763512925700001,419
111760,205264,271625,-1.7001004573,-5.575276658,7.6809605460000006,420
112225,205390,271677,-1.8987047331,-5.5357950851,7.7742806274,421
112699,205514,271756,-1.8759729184,-5.5010991574000005,7.775477038699999,422
113239,205608,271812,-1.8843477975,-5.6434721021,7.8113693777,423
113706,205717,271894,-2.1236300575,-5.528616617299999,7.7551380466,424
114138,205796,271999,-1.9214365478,-5.5334022625,7.7096744172000005,425
114525,205864,271976,-1.9836499354,-5.5621161337,7.6737820782,426
114928,205991,272037,-1.8233308212,-5.430510890700001,7.7252277641000004,427
115221,205992,272106,-1.8508482811000002,-5.5214381495,7.7515488127,428
114626,205831,272037,-1.9357934834,-5.662614682899999,7.6809605460000006,429
112334,205439,271765,-1.9489540077,-5.538187907699999,7.7276205867,430
110288,205167,271640,-1.9441683625,-5.6506505699,7.621139981,431
109454,205059,271634,-1.9310078382,-5.553741254599999,7.6642107878,432
109355,205086,271659,-2.0865413072,-5.6075797630999995,7.6785677234,433
109647,205160,271698,-1.9214365478,-5.6219366987,7.6366933279,434
110078,205305,271757,-1.9166509025999998,-5.6255259326000004,7.5948189324,435
110757,205396,271820,-2.0853448959,-5.5058848026,7.6522466748,436
111401,205538,271921,-1.9357934834,-5.582455125799999,7.7024959494,437
112028,205707,271970,-1.9513468303000001,-5.5944192388,7.7060851833,438
112395,205730,272062,-2.0386848552,-5.6087761744,7.606783045399999,439
112489,205728,272082,-1.9166509025999998,-5.4975099235,7.667800021700001,440
112524,205736,272046,-1.9513468303000001,-5.5298130286000005,7.6965138929000005,441
112646,205779,272103,-1.9956140484,-5.5298130286000005,7.6187471584,442
112820,205776,272109,-1.8640088054,-5.5980084727,7.549355303,443
113026,205846,272121,-1.9214365478,-5.5764730692999995,7.668996433,444
113335,205876,272176,-1.9262221929999999,-5.554937665900001,7.6785677234,445
113670,205971,272231,-1.7814564256999998,-5.554937665900001,7.7156564737,446
114010,206016,272253,-1.9800607015,-5.5776694806,7.7539416353,447
114502,206062,272278,-2.009970984,-5.5262237947,7.6019974002,448
114809,206148,272341,-2.0039889275,-5.6231331099999995,7.6989067155,449
115189,206227,272363,-1.9872391693,-5.6267223439,7.633104094,450
115613,206244,272450,-1.938186306,-5.5680981902,7.666603610399999,451
115919,206326,272446,-2.0913269524,-5.6446685134,7.65703232,452
116257,206378,272481,-1.9573288867999998,-5.6171510535,7.7132636511,453
116668,206432,272503,-2.1188444122999996,-5.595615650099999,7.6558359087,454
116938,206386,272511,-1.9477575963999998,-5.6004012953,7.6486574409,455
116829,206407,272476,-2.1008982428,-5.6063833518,7.7419775223,456
115185,206047,272246,-2.0255243308999997,-5.6434721021,7.668996433,457
112597,205624,272058,-2.0362920326,-5.4496534715000005,7.651050263499999,458
110872,205370,271920,-2.03389921,-5.651846981199999,7.6893354250999995,459
110297,205350,271900,-2.0805592507,-5.5645089563,7.6426753844,460
110312,205388,271862,-1.9489540077,-5.6733823846,7.683353368600001,461
110615,205516,271953,-2.1020946541,-5.6506505699,7.6869426025,462
111051,205580,271995,-2.0949161863,-5.7822558129,7.6618179652,463
111669,205665,272080,-2.0362920326,-5.4807601652999995,7.718049296299999,464
112225,205730,272140,-1.9561324755,-5.569294601499999,7.762316514399999,465
112683,205819,272139,-2.0171494518,-5.7116675462,7.5481588917,466
112854,205730,272133,-2.0003996936,-5.5070812139,7.6713892556,467
112796,205762,272170,-1.998006871,-5.670989562,7.645068207,468
112825,205663,272081,-1.9489540077,-5.5477591981,7.6785677234,469
112718,205702,272038,-2.1343977592,-5.5776694806,7.6785677234,470
112819,205679,272101,-2.0386848552,-5.6063833518,7.584051230699999,471
113009,205719,272070,-1.9848463467,-5.6434721021,7.6785677234,472
113081,205720,272027,-1.9549360641999998,-5.6183474648,7.6414789731,473
113314,205711,272050,-1.9573288867999998,-5.5010991574000005,7.6761749007999995,474
113533,205770,271982,-1.9645073545999998,-5.5094740364999994,7.6821569573,475
113761,205761,272044,-2.0853448959,-5.5788658919,7.7706913935,476
113968,205776,272086,-1.8975083218,-5.5944192388,7.6881390138,477
114213,205772,272059,-1.9716858223999998,-5.5944192388,7.720442118899999,478
114390,205809,272074,-1.9166509025999998,-5.5657053676,7.7395846997,479
114679,205801,272004,-1.8951154991999999,-5.570491012800001,7.721638530200001,480
114787,205807,272005,-1.9046867896,-5.5441699642,7.6893354250999995,481
115023,205843,272007,-1.938186306,-5.5334022625,7.6498538522,482
115123,205824,271998,-2.0709879603,-5.599204884000001,7.8101729664,483
114791,205692,271909,-1.9645073545999998,-5.732006538299999,7.6283184488,484
112831,205271,271641,-1.7838492483,-5.6542398038,7.6522466748,485
110218,204804,271387,-1.842473402,-5.4951171009,7.785048329099999,486
108672,204581,271231,-1.7766707805,-5.5190453269,7.735995465799999,487
108254,204512,271204,-1.9405791285999998,-5.4807601652999995,7.7192457076,488
108238,204506,271213,-1.9226329591,-5.5202417382,7.721638530200001,489
108486,204571,271221,-1.7276179172000001,-5.651846981199999,7.6905318364,490
108980,204627,271196,-1.7994025952000001,-5.5369914964,7.7515488127,491
109422,204687,271252,-1.8927226765999998,-5.570491012800001,7.695317481599999,492
109957,204771,271296,-1.8053846516999998,-5.611168996999999,7.750352401400001,493
110158,204807,271334,-1.9334006607999998,-5.6039905292,7.721638530200001,494
110180,204772,271338,-1.7647066674999998,-5.636293634299999,7.740781111,495
110026,204684,271261,-1.8819549749,-5.6087761744,7.7383882884,496
109890,204675,271217,-1.734796385,-5.4388857698,7.728816998,497
109889,204591,271223,-1.7730815466,-5.5848479484,7.7120672398000005,498
109993,204621,271146,-1.7730815466,-5.553741254599999,7.6905318364,499
110094,204620,271134,-1.7850456596,-5.4963135121999995,7.7659057483,500
110284,204605,271123,-1.7958133612999998,-5.6159546422,7.6606215538999995,501
110458,204560,271159,-1.8747765071,-5.4520462941,7.7682985709,502
110655,204629,271134,-1.7982061838999999,-5.5585268998,7.7659057483,503
110929,204658,271113,-1.7994025952000001,-5.4771709314,7.7682985709,504
111222,204710,271122,-1.7874384822,-5.5310094399,7.8113693777,505
111462,204760,271183,-1.8783657409999999,-5.5345986738,7.7455667562,506
111761,204800,271245,-1.842473402,-5.5046883913,7.7479595788,507
112042,204857,271294,-1.7778671918,-5.665007505499999,7.6462646183,508
112295,204954,271300,-1.9393827173,-5.5944192388,7.777869861299999,509
112570,204988,271313,-1.8436698133,-5.5106704478,7.7431739336,510
112584,204952,271333,-1.818545176,-5.553741254599999,7.7575308692,511
110965,204677,271178,-1.842473402,-5.7020962558,7.6977103042,512
108754,204272,271021,-1.8891334427000002,-5.5728838354,7.7096744172000005,513
107543,204181,270960,-1.758724611,-5.459224761900001,7.7838519178,514
107445,204239,270953,-1.8891334427000002,-5.5274202059999995,7.7479595788,515
107750,204381,271054,-1.9214365478,-5.5058848026,7.622336392299999,516
108360,204540,271220,-1.9238293703999998,-5.6961141993,7.653443086099999,517
108898,204685,271235,-1.9501504189999999,-5.6255259326000004,7.7479595788,518
109633,204885,271399,-1.8209379986,-5.637490045600001,7.7312098206,519
110347,204980,271479,-1.8951154991999999,-5.541777141600001,7.6438717957,520
110854,205090,271568,-1.962114532,-5.6446685134,7.7383882884,521
111091,205129,271676,-1.7240286833,-5.5800623032,7.6965138929000005,522
111082,205149,271624,-1.8496518698,-5.5274202059999995,7.7240313528,523
111201,205211,271644,-1.998006871,-5.5142596817000005,7.6618179652,524
111358,205275,271702,-2.009970984,-5.6841500863,7.6582287313,525
111653,205297,271748,-1.9405791285999998,-5.6578290377,7.6809605460000006,526
111999,205396,271788,-1.8735800958,-5.5776694806,7.721638530200001,527
112328,205479,271886,-1.9920248145,-5.653043392499999,7.6606215538999995,528
112728,205531,271900,-1.9106688461,-5.5310094399,7.6749784895,529
113202,205631,271947,-1.9788642901999998,-5.6231331099999995,7.6618179652,530
113633,205752,272012,-1.9609181207,-5.6410792795,7.692924659,531
114101,205778,272088,-1.9202401365000001,-5.582455125799999,7.7001031268,532
114578,205906,272102,-1.9453647738,-5.649454158599999,7.6977103042,533
114922,205895,272161,-1.8915262653,-5.7176496027,7.635496916599999,534
115323,206052,272273,-1.842473402,-5.5896335936,7.621139981,535
115718,206094,272228,-1.9812571127999998,-5.3706903257,7.6893354250999995,536
115982,206110,272307,-1.9070796122,-5.4400821811,7.6857461912,537
114990,205883,272157,-1.9645073545999998,-5.6877393201999995,7.668996433,538
112373,205416,271859,-1.9609181207,-5.637490045600001,7.6582287313,539
110342,205142,271723,-1.8675980393,-5.4113683099,7.6402825618,540
109441,205023,271676,-1.8508482811000002,-5.6183474648,7.666603610399999,541
109395,205036,271729,-2.0530417908,-5.5896335936,7.7024959494,542
109721,205169,271751,-1.7682959014000001,-5.5740802467,7.7036923607,543
110244,205194,271820,-1.8987047331,-5.6327044004,7.668996433,544
110730,205334,271875,-1.9441683625,-5.5776694806,7.597211754999999,545
111460,205494,271971,-1.8687944506,-5.566901778899999,7.6713892556,546
112086,205565,272063,-2.0626130812,-5.6063833518,7.625925626199999,547
112437,205671,272103,-2.1140587671,-5.6231331099999995,7.6235328036,548
112667,205620,272079,-1.9226329591,-5.651846981199999,7.645068207,549
112694,205582,272112,-2.0410776778,-5.4951171009,7.6642107878,550
112749,205635,272120,-2.0542382021,-5.443671415,7.704888771999999,551
112921,205631,272108,-1.9920248145,-5.6721859733,7.635496916599999,552
113126,205713,272131,-2.0554346134,-5.6542398038,7.6043902228,553
113458,205800,272155,-1.9369898947,-5.633900811699999,7.704888771999999,554
113765,205833,272195,-2.0482561456,-5.6219366987,7.5900332872,555
114112,205894,272229,-1.8508482811000002,-5.6255259326000004,7.6977103042,556
114479,205877,272333,-2.0638094925,-5.637490045600001,7.6151579245,557
114859,206015,272272,-2.0506489682,-5.6398828682,7.606783045399999,558
115148,206016,272329,-1.9130616687,-5.5022955687,7.6737820782,559
115577,206103,272262,-1.9489540077,-5.4783673427,7.7120672398000005,560
115825,206090,272348,-1.9776678789,-5.6410792795,7.6295148601000005,561
116152,206060,272327,-1.9501504189999999,-5.5142596817000005,7.6163543358,562
116265,206110,272316,-1.9369898947,-5.5369914964,7.721638530200001,563
116389,206064,272320,-1.9836499354,-5.5680981902,7.6809605460000006,564
115396,205835,272130,-2.081755662,-5.6853464976,7.7252277641000004,565
112767,205336,271857,-1.9106688461,-5.6027941179,7.6426753844,566
110486,204936,271628,-1.8879370314,-5.6135618196,7.6091758679999995,567
109491,204798,271507,-1.9932212258000002,-5.5298130286000005,7.7551380466,568
109233,204814,271496,-1.9848463467,-5.6255259326000004,7.6737820782,569
109460,204849,271532,-1.9525432416,-5.678168029799999,7.7312098206,570
109754,204860,271539,-1.9716858223999998,-5.6171510535,7.637889739199999,571
110125,204930,271572,-1.8592231602,-5.4412785924,7.7730842161,572
110778,205020,271645,-1.9058832009,-5.6303115778,7.645068207,573
111177,205099,271654,-1.9106688461,-5.5944192388,7.7611201031,574
111301,205078,271595,-1.9357934834,-5.670989562,7.621139981,575
111285,205017,271616,-1.8604195715,-5.5812587145,7.708478005899999,576
111136,204973,271538,-1.9728822337,-5.553741254599999,7.7383882884,577
111001,204948,271493,-1.9597217094,-5.5465627868,7.7814590952,578
111019,204931,271534,-1.8628123941,-5.5621161337,7.666603610399999,579
111121,204933,271460,-1.9310078382,-5.5238309721,7.737191877099999,580
111294,204987,271465,-1.8257236438,-5.5573304885,7.7312098206,581
111385,204894,271451,-1.8376877568,-5.551348432,7.7706913935,582
111636,204943,271463,-1.7455640867,-5.4329037133,7.704888771999999,583
111809,204950,271444,-1.8113667082,-5.620740287399999,7.733602643199999,584
112086,204988,271442,-1.866401628,-5.5800623032,7.7539416353,585
112297,205018,271495,-1.8209379986,-5.4687960523,7.7383882884,586
112520,205043,271453,-1.8520446924,-5.499902746099999,7.6857461912,587
112786,205044,271436,-1.9357934834,-5.5489556094,7.6008009889000006,588
112913,205046,271445,-1.7850456596,-5.515456093,7.704888771999999,589
113025,205014,271410,-2.0315063874,-5.5022955687,7.7718878047999995,590
112747,204923,271353,-1.8281164664,-5.682953675,7.7431739336,591
110909,204401,271101,-1.866401628,-5.538187907699999,7.6402825618,592
108396,204058,270809,-1.7395820302,-5.4951171009,7.746763167499999,593
107094,203822,270693,-1.8388841681,-5.6279187552000005,7.8017980873,594
106711,203784,270661,-1.7910277161,-5.5082776252,7.733602643199999,595
106879,203831,270682,-1.8891334427000002,-5.4472606489,7.8053873212000005,596
107188,203887,270763,-1.7383856189,-5.5046883913,7.7838519178,597
107514,203922,270684,-1.7599210223,-5.4113683099,7.7742806274,598
108146,204035,270798,-1.7754743692000001,-5.681757263700001,7.8089765551,599
108621,204100,270847,-1.8975083218,-5.5465627868,7.7994052647,600
108819,204145,270852,-1.6450655375,-5.5465627868,7.785048329099999,601
108837,204147,270804,-1.6713865861,-5.513063270399999,7.8341011924,602
108750,204091,270831,-1.8161523534,-5.583651537100001,7.625925626199999,603
108762,204139,270780,-1.7970097726,-5.5202417382,7.7730842161,604
108887,204165,270849,-1.8101702968999998,-5.5262237947,7.7694949822,605
109125,204258,270886,-1.8652052167000002,-5.5369914964,7.750352401400001,606
109506,204348,271046,-1.8867406201,-5.5262237947,7.6761749007999995,607
109882,204433,271089,-1.8687944506,-5.4520462941,7.7671021596,608
110286,204566,271150,-1.7790636031,-5.4747781088,7.721638530200001,609
110771,204643,271244,-1.8281164664,-5.5022955687,7.7659057483,610
111230,204820,271333,-1.8556339263000001,-5.5070812139,7.7706913935,611
111747,204979,271464,-1.7958133612999998,-5.6219366987,7.7874411516999995,612
112200,205060,271462,-1.8293128776999998,-5.4819565766,7.6857461912,613
112705,205162,271626,-1.8640088054,-5.5298130286000005,7.6594251426,614
113106,205234,271666,-1.7898313048,-5.7176496027,7.6905318364,615
113525,205324,271661,-1.8735800958,-5.4149575438,7.740781111,616
113530,205332,271683,-1.8939190879,-5.563312545,7.728816998,617
112088,204994,271536,-1.962114532,-5.611168996999999,7.6977103042,618
109502,204600,271349,-1.9549360641999998,-5.5645089563,7.635496916599999,619
108004,204430,271227,-1.9034903783000001,-5.5357950851,7.7455667562,620
107584,204411,271204,-1.9836499354,-5.6458649247,7.735995465799999,621
107832,204477,271290,-1.9597217094,-5.6853464976,7.749155990099999,622
108233,204610,271403,-1.7886348934999998,-5.5812587145,7.635496916599999,623
108912,204726,271465,-1.8400805794,-5.666203916800001,7.6713892556,624
109533,204845,271585,-1.8340985228999998,-5.6961141993,7.645068207,625
110242,205041,271674,-1.8556339263000001,-5.5310094399,7.728816998,626
110803,205187,271689,-1.8508482811000002,-5.666203916800001,7.6235328036,627
111022,205158,271754,-1.8771693297,-5.659025449,7.6713892556,628
111075,205133,271761,-2.0554346134,-5.6087761744,7.6713892556,629
111152,205198,271754,-1.8735800958,-5.7343993608999995,7.6474610296,630
111285,205219,271843,-2.0039889275,-5.6087761744,7.6151579245,631
111514,205289,271856,-1.9537396529,-5.5334022625,7.7036923607,632
111753,205347,271894,-1.9788642901999998,-5.540580730299999,7.7120672398000005,633
112140,205411,271899,-1.8867406201,-5.636293634299999,7.6522466748,634
112505,205465,271986,-1.9872391693,-5.5776694806,7.7730842161,635
112986,205569,272038,-1.9345970721,-5.587240771,7.6749784895,636
113341,205664,272061,-1.9513468303000001,-5.5621161337,7.6618179652,637
113807,205722,272150,-1.9788642901999998,-5.5908300049,7.6809605460000006,638
114249,205794,272172,-2.1008982428,-5.554937665900001,7.637889739199999,639
114629,205887,272233,-2.0650059038,-5.6039905292,7.6857461912,640
114920,205911,272270,-1.9704894111,-5.6398828682,7.637889739199999,641
115276,205984,272271,-2.0147566292,-5.5788658919,7.5637122386,642
115638,206008,272336,-1.9034903783000001,-5.4472606489,7.6905318364,643
115852,206096,272309,-1.9716858223999998,-5.5848479484,7.6283184488,644
115291,205833,272248,-2.0626130812,-5.6805608524,7.6498538522,645
112699,205406,271978,-1.890329854,-5.6901321428,7.6785677234,646
110209,204988,271760,-2.0362920326,-5.5441699642,7.6965138929000005,647
109037,204838,271667,-2.0111673952999998,-5.651846981199999,7.633104094,648
108835,204878,271627,-2.117648001,-5.5477591981,7.6594251426,649
109043,204917,271613,-2.0961125976,-5.5764730692999995,7.6091758679999995,650
109494,204944,271719,-2.1212372348999997,-5.6674003281,7.7132636511,651
109951,205026,271775,-1.9824535241,-5.5082776252,7.6091758679999995,652
110562,205107,271824,-2.0315063874,-5.5764730692999995,7.635496916599999,653
111010,205189,271802,-2.0745771942,-5.6171510535,7.635496916599999,654
111338,205211,271819,-1.9322042495,-5.6291151665,7.749155990099999,655
111369,205165,271797,-1.9501504189999999,-5.5310094399,7.6905318364,656
111155,205087,271732,-1.9369898947,-5.6303115778,7.6307112714,657
111032,205038,271660,-1.9932212258000002,-5.5585268998,7.6917282476999995,658
111004,205019,271704,-2.0171494518,-5.471188874899999,7.720442118899999,659
111066,205012,271702,-2.0255243308999997,-5.637490045600001,7.6235328036,660
111224,205044,271697,-1.8783657409999999,-5.541777141600001,7.654639497399999,661
111535,205062,271637,-1.962114532,-5.541777141600001,7.692924659,662
111692,205060,271653,-1.9657037659,-5.620740287399999,7.6474610296,663
111826,205095,271657,-1.8340985228999998,-5.7008998445,7.718049296299999,664
112156,205088,271656,-1.9956140484,-5.5501520207,7.7264241754,665
112443,205109,271700,-1.9453647738,-5.735595772199999,7.7431739336,666
112667,205156,271688,-1.8472590472,-5.636293634299999,7.6809605460000006,667
112856,205173,271679,-2.0003996936,-5.4963135121999995,7.6737820782,668
113067,205235,271660,-1.9453647738,-5.5238309721,7.635496916599999,669
113141,205169,271617,-1.8460626359,-5.587240771,7.7395846997,670
113335,205203,271635,-1.962114532,-5.486742221799999,7.7814590952,671
113058,205058,271548,-1.818545176,-5.6638110942,7.791030385599999,672
111228,204671,271322,-2.0015961049,-5.6303115778,7.704888771999999,673
108627,204162,271040,-1.8149559420999999,-5.4927242783,7.6785677234,674
107028,203909,270845,-1.8496518698,-5.3515477449,7.7144600624,675
106743,203850,270803,-1.8580267489000002,-5.5585268998,7.8137622003,676
106808,203901,270840,-1.8388841681,-5.4939206895999995,7.716852885,677
107110,203923,270809,-1.8329021116,-5.487938633100001,7.6426753844,678
107510,204004,270839,-1.8652052167000002,-5.4532427054,7.6977103042,679
108106,204122,270944,-1.8352949342,-5.575276658,7.6977103042,680
108610,204227,270974,-1.8879370314,-5.5022955687,7.7264241754,681
108970,204209,270986,-1.6929219895,-5.5202417382,7.7024959494,682
108955,204197,270937,-1.7898313048,-5.5944192388,7.704888771999999,683
108787,204155,270929,-1.8281164664,-5.5082776252,7.6737820782,684
108739,204109,270923,-1.7766707805,-5.5561340772,7.7443703449,685
108822,204209,270954,-1.7072789251,-5.515456093,7.7455667562,686
108934,204231,271019,-1.7407784414999998,-5.5489556094,7.645068207,687
109227,204287,271007,-1.6366906583999998,-5.5214381495,7.7826555065,688
109564,204394,271078,-1.7850456596,-5.4125647212,7.7072815945999995,689
109892,204495,271124,-1.7682959014000001,-5.5585268998,7.7599236918,690
110380,204613,271244,-1.8939190879,-5.4233324229,7.7024959494,691
110845,204706,271316,-1.8867406201,-5.4281180681,7.6737820782,692
111361,204854,271427,-1.8687944506,-5.4400821811,7.7551380466,693
111852,204995,271532,-1.938186306,-5.5238309721,7.7001031268,694
112350,205081,271589,-1.8939190879,-5.499902746099999,7.7072815945999995,695
112713,205194,271626,-1.9274186043000001,-5.6063833518,7.668996433,696
113169,205274,271685,-1.9669001771999999,-5.5106704478,7.7072815945999995,697
113193,205246,271700,-1.9166509025999998,-5.5896335936,7.721638530200001,698
111457,204891,271553,-2.0243279196,-5.620740287399999,7.6498538522,699
108983,204535,271312,-1.7527425545,-5.6398828682,7.6857461912,700
107577,204415,271210,-2.0446669117,-5.5657053676,7.597211754999999,701
107335,204407,271251,-1.9525432416,-5.6446685134,7.8065837325,702
107642,204501,271376,-1.8987047331,-5.665007505499999,7.7312098206,703
108198,204614,271436,-1.9094724347999998,-5.637490045600001,7.6713892556,704
108865,204761,271525,-1.9286150156,-5.4616175845,7.6881390138,705
109586,204936,271620,-1.8819549749,-5.5166525043000005,7.7539416353,706
110386,205110,271712,-1.9860427579999997,-5.587240771,7.6713892556,707
110837,205203,271786,-1.8675980393,-5.6877393201999995,7.6941210703,708
111063,205222,271833,-1.9908284031999999,-5.6446685134,7.6283184488,709
111170,205189,271815,-1.962114532,-5.5489556094,7.653443086099999,710
111125,205223,271835,-2.0039889275,-5.6303115778,7.6043902228,711
111362,205346,271864,-1.9597217094,-5.6757752072,7.746763167499999,712
111579,205309,271927,-2.0961125976,-5.5609197224,7.6366933279,713
111901,205392,271948,-1.9932212258000002,-5.5477591981,7.65703232,714
112278,205500,272007,-1.9704894111,-5.6255259326000004,7.6809605460000006,715
112620,205573,272035,-2.1188444122999996,-5.6733823846,7.6235328036,716
113059,205639,272029,-1.9453647738,-5.5896335936,7.7144600624,717
113533,205735,272151,-1.9250257817,-5.6015977066,7.606783045399999,718
113951,205817,272156,-1.818545176,-5.566901778899999,7.6965138929000005,719
114384,205872,272222,-2.0554346134,-5.637490045600001,7.6498538522,720
114795,205934,272262,-2.009970984,-5.5621161337,7.683353368600001,721
115175,206008,272331,-2.0470597343,-5.693721376699999,7.5948189324,722
115552,206072,272357,-2.0781664281,-5.5932228275,7.7132636511,723
115811,206105,272377,-1.9597217094,-5.50349198,7.6881390138,724
115685,205948,272341,-2.0554346134,-5.818148151899999,7.7252277641000004,725
113621,205625,272083,-2.1248264688,-5.659025449,7.5876404646,726
110948,205207,271829,-1.9764714676,-5.587240771,7.6965138929000005,727
109349,205029,271710,-1.9369898947,-5.5345986738,7.6917282476999995,728
108940,205001,271721,-1.9860427579999997,-5.5848479484,7.7120672398000005,729
109195,205065,271766,-2.0602202586000002,-5.595615650099999,7.7264241754,730
109659,205168,271818,-2.0327027987,-5.5944192388,7.635496916599999,731
110207,205311,271924,-1.9561324755,-5.5860443597,7.6654071991,732
110863,205378,271997,-1.8556339263000001,-5.6087761744,7.7395846997,733
111621,205486,271998,-2.0267207422,-5.5501520207,7.666603610399999,734
112175,205531,272091,-1.8843477975,-5.6303115778,7.6187471584,735
112311,205502,272049,-1.9740786449999999,-5.5932228275,7.6905318364,736
112089,205513,271985,-2.0243279196,-5.541777141600001,7.6498538522,737
112034,205435,271969,-2.0673987264,-5.6063833518,7.6749784895,738
112106,205423,271974,-1.9764714676,-5.6327044004,7.6809605460000006,739
112200,205437,271970,-1.8580267489000002,-5.7128639575,7.6821569573,740
112385,205406,271960,-2.0291135648000003,-5.5429735529,7.6857461912,741
112543,205454,271948,-2.0183458631,-5.5178489156,7.720442118899999,742
112780,205470,271964,-2.0051853388,-5.4759745201,7.6713892556,743
113104,205500,271957,-1.9812571127999998,-5.5489556094,7.625925626199999,744
113367,205534,271981,-1.9788642901999998,-5.5310094399,7.692924659,745
113624,205565,271953,-1.8927226765999998,-5.5369914964,7.708478005899999,746
113902,205613,271968,-1.8675980393,-5.6889357315,7.716852885,747
114335,205610,271942,-1.9393827173,-5.6063833518,7.8281191359,748
114365,205599,271879,-1.8496518698,-5.620740287399999,7.7036923607,749
114607,205635,271925,-1.9932212258000002,-5.5728838354,7.6594251426,750
114763,205609,271917,-2.0721843716,-5.5322058512000005,7.733602643199999,751
114843,205569,271862,-1.9118652574,-5.599204884000001,7.764709337,752
113589,205280,271692,-1.8867406201,-5.6685967394,7.6366933279,753
110925,204770,271345,-1.9405791285999998,-5.563312545,7.6163543358,754
108831,204459,271145,-1.8317057003,-5.539384319,7.666603610399999,755
108049,204361,271118,-1.8340985228999998,-5.541777141600001,7.6474610296,756
108101,204356,271123,-1.8927226765999998,-5.479563754,7.6713892556,757
108265,204404,271112,-1.8496518698,-5.5680981902,7.7240313528,758
108598,204478,271126,-1.9609181207,-5.6135618196,7.7694949822,759
109120,204570,271160,-1.9214365478,-5.5860443597,7.7455667562,760
109697,204629,271231,-1.8209379986,-5.5046883913,7.7479595788,761
110129,204642,271213,-1.9214365478,-5.6865429089,7.654639497399999,762
110157,204639,271231,-1.6235301341000001,-5.5441699642,7.6977103042,763
110004,204584,271163,-1.8460626359,-5.4963135121999995,7.6761749007999995,764
109862,204527,271085,-1.8305092889999999,-5.5310094399,7.7599236918,765
109821,204484,271070,-1.8831513862,-5.4329037133,7.749155990099999,766
109888,204476,271046,-1.7635102562,-5.553741254599999,7.8520473619,767
109931,204456,271022,-1.8137595308,-5.4807601652999995,7.6977103042,768
110100,204461,271013,-1.8245272325,-5.4699924636,7.716852885,769
110370,204475,270998,-1.6642081183,-5.5884371823,7.7551380466,770
110586,204484,271019,-1.6953148121,-5.444867826299999,7.6845497799,771
110822,204507,271050,-1.7371892076000002,-5.595615650099999,7.7419775223,772
111097,204587,271073,-1.8735800958,-5.5369914964,7.8173514342,773
111372,204626,271131,-1.6917255782,-5.6015977066,7.7862447404,774
111656,204676,271130,-1.7563317884,-5.6183474648,7.6618179652,775
111961,204740,271175,-1.7922241274,-5.582455125799999,7.6905318364,776
112292,204815,271222,-1.8496518698,-5.491527867,7.7575308692,777
112497,204832,271238,-1.8400805794,-5.7224352479,7.7312098206,778
111433,204618,271129,-1.806581063,-5.5561340772,7.7228349415,779
109056,204214,270932,-1.722832272,-5.5585268998,7.7611201031,780
107602,204076,270862,-1.8089738856,-5.5609197224,7.7802626839,781
107291,204149,270870,-1.8173487647,-5.513063270399999,7.716852885,782
107653,204245,270973,-1.7766707805,-5.5489556094,7.7575308692,783
108154,204428,271117,-1.8867406201,-5.5178489156,7.6713892556,784
108841,204574,271166,-2.009970984,-5.5645089563,7.668996433,785
109484,204711,271305,-1.7742779578999999,-5.5022955687,7.7024959494,786
110270,204943,271474,-1.9310078382,-5.5968120614000005,7.733602643199999,787
110826,205042,271506,-1.91425808,-5.5477591981,7.7240313528,788
111135,205066,271521,-1.9178473139,-5.582455125799999,7.666603610399999,789
111227,205097,271568,-1.9453647738,-5.5980084727,7.6761749007999995,790
111360,205054,271579,-1.9453647738,-5.670989562,7.7443703449,791
111519,205145,271651,-1.9669001771999999,-5.5944192388,7.6761749007999995,792
111796,205237,271747,-1.8257236438,-5.3862436726,7.721638530200001,793
112181,205357,271709,-1.9334006607999998,-5.7140603688,7.6989067155,794
112459,205406,271848,-2.0015961049,-5.5609197224,7.7539416353,795
112903,205541,271864,-1.938186306,-5.4855458105,7.6941210703,796
113365,205543,271958,-1.9812571127999998,-5.5010991574000005,7.6498538522,797
113736,205709,271986,-1.9764714676,-5.5298130286000005,7.704888771999999,798
114185,205805,272064,-1.9561324755,-5.554937665900001,7.7264241754,799
114618,205889,272076,-1.9250257817,-5.5501520207,7.7264241754,800
114984,205961,272166,-1.9190437251999999,-5.582455125799999,7.6522466748,801
115444,206010,272260,-1.9070796122,-5.6745787959,7.6917282476999995,802
115738,206085,272241,-2.0470597343,-5.5441699642,7.6965138929000005,803
115654,205996,272203,-2.045863323,-5.6291151665,7.683353368600001,804
113944,205600,271954,-2.0626130812,-5.528616617299999,7.6522466748,805
111262,205248,271761,-1.9692929998,-5.6015977066,7.6773713121,806
109565,205049,271660,-1.9154544913,-5.5920264161999995,7.7156564737,807
109084,204958,271669,-1.9764714676,-5.6255259326000004,7.6594251426,808
109180,205055,271589,-2.0267207422,-5.6733823846,7.6402825618,809
109486,205138,271719,-1.9992032822999999,-5.4783673427,7.637889739199999,810
110030,205229,271763,-1.9298114269,-5.5357950851,7.5637122386,811
110733,205322,271846,-1.9836499354,-5.6255259326000004,7.6426753844,812
111334,205447,271972,-1.9585252981,-5.5884371823,7.7001031268,813
111868,205572,271959,-2.1008982428,-5.5800623032,7.6977103042,814
111987,205546,271962,-2.1355941704999997,-5.5800623032,7.6091758679999995,815
112014,205485,271915,-2.0350956213,-5.670989562,7.6977103042,816
112037,205481,271940,-2.0159530405,-5.611168996999999,7.749155990099999,817
112030,205477,271901,-1.9968104597,-5.6566326264,7.692924659,818
112068,205377,271913,-2.0518453795,-5.6757752072,7.721638530200001,819
112176,205479,271900,-1.8987047331,-5.538187907699999,7.6737820782,820
112424,205521,271922,-2.0027925162,-5.659025449,7.637889739199999,821
112715,205510,271907,-2.0135602179,-5.5776694806,7.654639497399999,822
112928,205545,271918,-1.9501504189999999,-5.6267223439,7.7036923607,823
113187,205532,271928,-1.9537396529,-5.5968120614000005,7.692924659,824
113415,205540,271916,-1.91425808,-5.6398828682,7.692924659,825
113647,205570,271955,-1.9525432416,-5.6327044004,7.7072815945999995,826
113850,205610,271957,-1.9429719511999999,-5.6685967394,7.7395846997,827
114096,205539,271938,-1.9034903783000001,-5.6159546422,7.5601230047,828
114243,205588,271904,-1.8508482811000002,-5.4903314557,7.6618179652,829
114373,205594,271890,-2.0542382021,-5.472385286200001,7.8065837325,830
113730,205405,271754,-1.8628123941,-5.611168996999999,7.683353368600001,831
111344,204821,271451,-1.9405791285999998,-5.651846981199999,7.6187471584,832
108842,204530,271216,-1.866401628,-5.6219366987,7.7324062319,833
107685,204353,271071,-1.8951154991999999,-5.5884371823,7.683353368600001,834
107364,204294,271090,-1.9633109433,-5.4939206895999995,7.7730842161,835
107520,204322,271066,-1.8317057003,-5.6135618196,7.645068207,836
107789,204321,271081,-1.9022939669999999,-5.5920264161999995,7.6905318364,837
108211,204382,271085,-1.9525432416,-5.575276658,7.6713892556,838
108750,204520,271162,-1.8281164664,-5.5609197224,7.7814590952,839
109198,204529,271151,-1.8352949342,-5.4951171009,7.7599236918,840
109304,204447,271155,-1.7934205387,-5.5585268998,7.7096744172000005,841
109184,204434,271074,-1.7659030788,-5.4903314557,7.6857461912,842
109004,204388,271039,-1.8759729184,-5.4352965359,7.6977103042,843
108913,204352,270971,-1.8831513862,-5.5226345608,7.7120672398000005,844
108980,204347,270994,-1.7682959014000001,-5.4903314557,7.7324062319,845
109096,204234,270965,-1.6953148121,-5.5190453269,7.728816998,846
109283,204320,271024,-1.6869399330000001,-5.4987063348,7.7659057483,847
109482,204351,270969,-1.806581063,-5.540580730299999,7.6737820782,848
109677,204347,271017,-1.7288143285,-5.5489556094,7.775477038699999,849
109961,204376,270981,-1.7802600144,-5.515456093,7.749155990099999,850
110118,204365,270952,-1.7527425545,-5.6327044004,7.7383882884,851
110417,204432,270971,-1.7623138449,-5.551348432,7.788637563,852
110608,204427,270954,-1.8005990065,-5.6446685134,7.666603610399999,853
110793,204426,270959,-1.7001004573,-5.4735816975,7.6857461912,854
110995,204472,270994,-1.7515461432000001,-5.5800623032,7.7479595788,855
111102,204458,270948,-1.7072789251,-5.540580730299999,7.812565789,856
110811,204368,270950,-1.7264215058999999,-5.665007505499999,7.7072815945999995,857
108933,204031,270701,-1.8448662246,-5.554937665900001,7.6642107878,858
106666,203654,270456,-1.6749758199999998,-5.4604211732,7.7192457076,859
105642,203444,270495,-1.7647066674999998,-5.4664032297,7.7659057483,860
105587,203583,270466,-1.8305092889999999,-5.4783673427,7.6857461912,861
105943,203715,270567,-1.7910277161,-5.563312545,7.762316514399999,862
106440,203818,270706,-1.7730815466,-5.6578290377,7.733602643199999,863
107130,203979,270790,-1.7407784414999998,-5.6422756908,7.7144600624,864
107887,204161,270920,-1.8113667082,-5.5489556094,7.740781111,865
108545,204321,271027,-1.8149559420999999,-5.442475003699999,7.6594251426,866
108915,204392,271065,-1.8053846516999998,-5.5812587145,7.735995465799999,867
109067,204445,271123,-1.7790636031,-5.6004012953,7.7826555065,868
109176,204467,271204,-1.9094724347999998,-5.611168996999999,7.7970124421,869
109314,204517,271203,-1.9489540077,-5.5070812139,7.692924659,870
109548,204633,271244,-1.8999011444,-5.4532427054,7.6737820782,871
109877,204694,271336,-1.8795621523000001,-5.587240771,7.7539416353,872
110310,204795,271452,-1.9046867896,-5.5716874241,7.5900332872,873
110729,204897,271500,-1.9417755399,-5.4903314557,7.654639497399999,874
111205,205000,271566,-2.0195422744,-5.5621161337,7.666603610399999,875
111579,205096,271642,-2.0051853388,-5.6638110942,7.716852885,876
112056,205211,271669,-1.8975083218,-5.5932228275,7.6785677234,877
112392,205268,271735,-1.9692929998,-5.6327044004,7.692924659,878
112953,205382,271764,-2.0733807828999997,-5.6877393201999995,7.65703232,879
113268,205443,271874,-1.9058832009,-5.5968120614000005,7.6725856669,880
113688,205505,271901,-2.0542382021,-5.575276658,7.692924659,881
113981,205566,271921,-1.9357934834,-5.5609197224,7.683353368600001,882
114032,205564,271893,-1.8951154991999999,-5.5298130286000005,7.721638530200001,883
112468,205196,271749,-2.0135602179,-5.693721376699999,7.6785677234,884
109743,204786,271519,-1.8113667082,-5.5477591981,7.6486574409,885
108082,204533,271388,-2.021935097,-5.5322058512000005,7.654639497399999,886
107728,204513,271410,-1.9800607015,-5.5585268998,7.6905318364,887
107810,204574,271408,-1.9645073545999998,-5.665007505499999,7.718049296299999,888
108238,204640,271503,-2.0315063874,-5.678168029799999,7.6115686905999995,889
108753,204776,271512,-1.7994025952000001,-5.5657053676,7.639086150500001,890
109450,204894,271594,-1.9322042495,-5.554937665900001,7.708478005899999,891
110182,205035,271715,-1.9908284031999999,-5.5489556094,7.6761749007999995,892
110634,205092,271756,-1.9956140484,-5.6961141993,7.6187471584,893
110843,205143,271750,-2.1044874766999997,-5.5728838354,7.6295148601000005,894
110782,205104,271739,-1.866401628,-5.5657053676,7.6869426025,895
110807,205153,271776,-1.91425808,-5.5788658919,7.6869426025,896
110955,205111,271810,-1.9800607015,-5.6674003281,7.639086150500001,897
111180,205191,271800,-1.9549360641999998,-5.6889357315,7.625925626199999,898
111495,205224,271880,-2.0614166699,-5.694917788000001,7.5792655855,899
111828,205343,271933,-2.1320049366,-5.649454158599999,7.7228349415,900
112257,205386,271975,-2.045863323,-5.6291151665,7.6857461912,901
112664,205472,271997,-1.8508482811000002,-5.6135618196,7.6594251426,902
113062,205526,272082,-1.9561324755,-5.605186940499999,7.6498538522,903
113507,205599,272051,-1.8963119105000001,-5.710471134900001,7.539784012599999,904
113943,205645,272115,-2.105683888,-5.6542398038,7.692924659,905
114297,205766,272175,-2.0195422744,-5.6566326264,7.6773713121,906
114624,205766,272167,-1.9956140484,-5.649454158599999,7.6785677234,907
114932,205816,272179,-1.8999011444,-5.6554362151,7.668996433,908
115269,205830,272216,-2.0303099761,-5.5920264161999995,7.568497883799999,909
115526,205885,272192,-1.8891334427000002,-5.5070812139,7.6965138929000005,910
115620,205828,272154,-1.9489540077,-5.5621161337,7.7192457076,911
114475,205565,271971,-1.9465611851,-5.7702916999,7.7072815945999995,912
111643,205020,271666,-2.0590238472999998,-5.599204884000001,7.597211754999999,913
109305,204628,271426,-1.9836499354,-5.599204884000001,7.6402825618,914
108320,204518,271366,-1.9274186043000001,-5.6279187552000005,7.653443086099999,915
108163,204486,271353,-1.9106688461,-5.6913285541,7.6642107878,916
108475,204513,271361,-2.0075781614,-5.6614182716,7.6558359087,917
108794,204581,271353,-1.9262221929999999,-5.599204884000001,7.6558359087,918
109240,204621,271414,-1.9549360641999998,-5.6087761744,7.6283184488,919
109844,204751,271492,-1.9657037659,-5.5453663755000004,7.720442118899999,920
110212,204774,271483,-1.9022939669999999,-5.7152567801,7.6809605460000006,921
110257,204723,271486,-1.9357934834,-5.4951171009,7.7276205867,922
110065,204669,271399,-2.0027925162,-5.635097223,7.6630143765,923
109987,204630,271365,-1.8604195715,-5.6446685134,7.6594251426,924
109850,204554,271280,-1.9908284031999999,-5.4927242783,7.6989067155,925
109902,204576,271322,-1.8089738856,-5.5142596817000005,7.7276205867,926
109953,204550,271275,-1.8125631194999998,-5.670989562,7.692924659,927
110154,204582,271274,-1.9166509025999998,-5.575276658,7.7024959494,928
110322,204576,271271,-1.9022939669999999,-5.570491012800001,7.7156564737,929
110581,204612,271296,-1.8819549749,-5.582455125799999,7.720442118899999,930
110850,204641,271303,-1.8568303376,-5.7631132321,7.733602643199999,931
111091,204555,271327,-1.8125631194999998,-5.525027383399999,7.6905318364,932
111301,204677,271310,-1.8329021116,-5.5322058512000005,7.7072815945999995,933
111552,204690,271331,-1.8520446924,-5.5920264161999995,7.752745224,934
111753,204714,271294,-1.8723836845000001,-5.5645089563,7.666603610399999,935
111954,204731,271289,-1.8209379986,-5.5501520207,7.6343005053,936
112065,204709,271223,-1.8687944506,-5.599204884000001,7.7455667562,937
112244,204738,271299,-1.8807585636,-5.6566326264,7.7898339743,938
112398,204684,271277,-1.7096717476999999,-5.446064237599999,7.8640114749,939
111877,204562,271126,-1.8137595308,-5.7188460139999995,7.764709337,940
109684,204047,270812,-1.6606188843999998,-5.681757263700001,7.692924659,941
107280,203614,270512,-1.6953148121,-5.5310094399,7.7252277641000004,942
106145,203467,270447,-1.9369898947,-5.6279187552000005,7.764709337,943
105840,203446,270426,-1.7252250946,-5.4137611324999995,7.7192457076,944
106024,203479,270448,-1.7802600144,-5.4257252455,7.7694949822,945
106402,203542,270495,-1.8245272325,-5.5274202059999995,7.7001031268,946
106877,203615,270540,-1.8329021116,-5.4783673427,7.7551380466,947
107428,203762,270655,-1.7790636031,-5.662614682899999,7.764709337,948
107989,203917,270686,-1.8161523534,-5.484349399199999,7.7671021596,949
108200,203916,270693,-1.8675980393,-5.5345986738,7.775477038699999,950
108232,203937,270764,-1.8472590472,-5.4939206895999995,7.7060851833,951
108258,203984,270778,-1.8675980393,-5.4759745201,7.7300134093,952
108371,204013,270825,-1.7635102562,-5.6135618196,7.7551380466,953
108639,204066,270922,-1.8305092889999999,-5.5848479484,7.7479595788,954
109045,204242,270967,-1.8640088054,-5.4616175845,7.622336392299999,955
109416,204342,271067,-1.7276179172000001,-5.5728838354,7.749155990099999,956
109850,204467,271172,-1.8699908619,-5.471188874899999,7.7383882884,957
110322,204609,271261,-1.890329854,-5.4987063348,7.6905318364,958
110877,204723,271388,-1.7383856189,-5.4293144793999994,7.666603610399999,959
111336,204857,271414,-1.8376877568,-5.551348432,7.8065837325,960
111840,204961,271532,-2.0231315083,-5.566901778899999,7.7192457076,961
112324,205040,271595,-2.0051853388,-5.5274202059999995,7.749155990099999,962
112749,205125,271613,-2.0291135648000003,-5.6087761744,7.7036923607,963
113189,205254,271702,-1.8747765071,-5.5441699642,7.6785677234,964
113592,205316,271763,-1.9058832009,-5.4903314557,7.7671021596,965
113759,205357,271746,-1.9022939669999999,-5.679364441100001,7.7240313528,966
112345,205025,271603,-1.9046867896,-5.5357950851,7.8017980873,967
109694,204511,271321,-1.9764714676,-5.5166525043000005,7.5996045776,968
107963,204375,271172,-1.9716858223999998,-5.587240771,7.654639497399999,969
107486,204304,271221,-1.7575281996999998,-5.587240771,7.7096744172000005,970
107649,204366,271292,-1.8963119105000001,-5.4783673427,7.7706913935,971
108073,204476,271322,-1.818545176,-5.541777141600001,7.6642107878,972
108639,204613,271422,-2.0997018315,-5.582455125799999,7.5637122386,973
109318,204663,271435,-2.0027925162,-5.563312545,7.7419775223,974
110108,204906,271623,-1.7611174336,-5.7391850061000005,7.6809605460000006,975
110644,205001,271684,-2.069791549,-5.5944192388,7.65703232,976
110880,205046,271700,-1.9573288867999998,-5.6757752072,7.5756763516,977
110898,205046,271678,-1.8580267489000002,-5.6267223439,7.5924261098,978
110933,205133,271679,-1.8436698133,-5.605186940499999,7.6845497799,979
111119,205066,271733,-1.9082760235,-5.6398828682,7.6486574409,980
111364,205135,271762,-1.9645073545999998,-5.635097223,7.749155990099999,981
111639,205231,271839,-1.8364913454999998,-5.5441699642,7.6737820782,982
111976,205271,271860,-1.9178473139,-5.5848479484,7.7108708285,983
112406,205337,271937,-1.9812571127999998,-5.6291151665,7.7072815945999995,984
112781,205435,271975,-1.9968104597,-5.538187907699999,7.5517481256,985
113260,205511,272012,-1.9202401365000001,-5.716453191399999,7.7347990545,986
113660,205584,272055,-2.0650059038,-5.6398828682,7.6618179652,987
114068,205737,272118,-1.9202401365000001,-5.637490045600001,7.6857461912,988
114533,205726,272173,-2.0051853388,-5.6159546422,7.625925626199999,989
114995,205790,272201,-1.9908284031999999,-5.6063833518,7.606783045399999,990
115207,205854,272231,-1.9968104597,-5.5357950851,7.597211754999999,991
115635,205939,272273,-1.9860427579999997,-5.6063833518,7.639086150500001,992
115930,205972,272288,-2.0255243308999997,-5.5082776252,7.7539416353,993
116068,205965,272277,-1.9561324755,-5.430510890700001,7.733602643199999,994
114678,205627,272070,-1.9944176371,-5.6841500863,7.6187471584,995
111865,205133,271795,-2.0386848552,-5.6877393201999995,7.6271220375,996
109658,204811,271622,-1.9094724347999998,-5.5645089563,7.7060851833,997
108964,204732,271543,-1.9525432416,-5.5501520207,7.7156564737,998
108872,204753,271541,-1.9680965885,-5.5429735529,7.621139981,999
109205,204772,271575,-1.9692929998,-5.6853464976,7.6307112714,1000
109619,204855,271606,-2.0051853388,-5.6231331099999995,7.639086150500001,1001
110116,204940,271634,-1.9070796122,-5.5142596817000005,7.637889739199999,1002
110737,205016,271705,-1.9513468303000001,-5.624329521299999,7.6474610296,1003
111228,205124,271742,-1.9130616687,-5.5118668590999995,7.6630143765,1004
111373,205071,271707,-1.9334006607999998,-5.5501520207,7.635496916599999,1005
111281,204993,271661,-1.9669001771999999,-5.4233324229,7.6163543358,1006
111242,204949,271659,-1.8532411037,-5.6327044004,7.668996433,1007
111187,204921,271601,-1.998006871,-5.6159546422,7.7072815945999995,1008
111090,204908,271577,-1.9070796122,-5.6015977066,7.7024959494,1009
111309,204920,271558,-1.8340985228999998,-5.570491012800001,7.683353368600001,1010
111344,204913,271561,-1.9597217094,-5.6063833518,7.6809605460000006,1011
111496,204958,271550,-1.9357934834,-5.5884371823,7.728816998,1012
111790,204897,271539,-1.8975083218,-5.528616617299999,7.6737820782,1013
112061,205000,271539,-1.9992032822999999,-5.5561340772,7.683353368600001,1014
112256,205011,271563,-1.8819549749,-5.5764730692999995,7.6498538522,1015
112545,205038,271562,-1.8616159827999998,-5.5621161337,7.7144600624,1016
112759,205052,271545,-1.8484554585000001,-5.7080783123000005,7.7395846997,1017
112963,205046,271585,-1.9118652574,-5.4664032297,7.7264241754,1018
113253,205071,271552,-1.8329021116,-5.5621161337,7.7240313528,1019
113391,205064,271502,-1.8089738856,-5.553741254599999,7.6977103042,1020
113541,205114,271463,-2.0015961049,-5.487938633100001,7.7431739336,1021
113554,205030,271456,-1.8376877568,-5.539384319,7.8149586116,1022
112067,204645,271236,-1.8340985228999998,-5.6087761744,7.666603610399999,1023
109359,204114,270920,-1.7850456596,-5.6853464976,7.6079794567,1024
107492,203821,270755,-1.8460626359,-5.5298130286000005,7.7599236918,1025
106836,203771,270717,-1.91425808,-5.6159546422,7.7347990545,1026
106882,203801,270680,-1.9238293703999998,-5.6219366987,7.6761749007999995,1027
107244,203814,270744,-1.9992032822999999,-5.395814963,7.633104094,1028
107686,203919,270762,-1.7838492483,-5.653043392499999,7.7347990545,1029
108108,203994,270798,-1.9501504189999999,-5.6398828682,7.7659057483,1030
108730,204097,270837,-1.8257236438,-5.4185467777000005,7.7024959494,1031
109147,204159,270843,-1.818545176,-5.5597233111,7.7611201031,1032
109168,204103,270829,-1.8472590472,-5.5142596817000005,7.7479595788,1033
109091,204049,270804,-1.7503497318999999,-5.4640104071,7.752745224,1034
109003,204005,270775,-1.8376877568,-5.4807601652999995,7.8149586116,1035
108998,203947,270761,-1.7563317884,-5.4209396003000005,7.752745224,1036
109039,203967,270715,-1.7635102562,-5.4975099235,7.720442118899999,1037
109085,203936,270665,-1.6450655375,-5.6087761744,7.8017980873,1038
109279,203983,270662,-1.6773686425999998,-5.6506505699,7.65703232,1039
109436,204028,270731,-1.8161523534,-5.6231331099999995,7.7874411516999995,1040
109714,204055,270763,-1.8544375149999999,-5.583651537100001,7.6761749007999995,1041
110084,204146,270798,-1.8029918290999998,-5.5776694806,7.764709337,1042
110491,204250,270901,-1.6857435217,-5.4963135121999995,7.8305119585,1043
110836,204336,270910,-1.8161523534,-5.649454158599999,7.733602643199999,1044
111255,204440,270936,-1.7443676754000002,-5.4352965359,7.683353368600001,1045
111680,204587,271101,-1.7922241274,-5.4927242783,7.7144600624,1046
112130,204679,271161,-1.8867406201,-5.5573304885,7.8221370794,1047
112297,204727,271234,-1.7359927963,-5.6015977066,7.8424760715,1048
111012,204442,271065,-1.8400805794,-5.7260244818,7.704888771999999,1049
108619,204032,270885,-1.8281164664,-5.5884371823,7.6773713121,1050
107158,203882,270803,-1.866401628,-5.5657053676,7.692924659,1051
106946,203928,270817,-1.9130616687,-5.4089754873,7.721638530200001,1052
107272,204081,270938,-1.8699908619,-5.553741254599999,7.6857461912,1053
107806,204233,271026,-1.9657037659,-5.647061336,7.683353368600001,1054
108445,204368,271120,-1.9118652574,-5.6159546422,7.7587272805,1055
109229,204535,271254,-1.8652052167000002,-5.486742221799999,7.7240313528,1056
110101,204744,271346,-1.8604195715,-5.649454158599999,7.7395846997,1057
110659,204836,271473,-1.9477575963999998,-5.678168029799999,7.6235328036,1058
111006,204915,271474,-1.9453647738,-5.6733823846,7.6594251426,1059
111192,204917,271525,-1.9130616687,-5.4628139958,7.695317481599999,1060
111229,204926,271496,-1.8987047331,-5.5561340772,7.6558359087,1061
111372,205021,271579,-1.9226329591,-5.5728838354,7.6606215538999995,1062
111698,205059,271626,-1.9453647738,-5.5166525043000005,7.7192457076,1063
111923,205185,271665,-1.9226329591,-5.5022955687,7.763512925700001,1064
112390,205239,271753,-1.9956140484,-5.4963135121999995,7.645068207,1065
112652,205314,271821,-2.0291135648000003,-5.666203916800001,7.668996433,1066
113042,205411,271876,-1.9154544913,-5.554937665900001,7.5996045776,1067
113624,205457,271871,-1.9609181207,-5.659025449,7.6235328036,1068
113954,205568,271949,-1.9920248145,-5.5369914964,7.6618179652,1069
114401,205616,272003,-2.021935097,-5.50349198,7.733602643199999,1070
114839,205675,272062,-2.1068802992999998,-5.745167062599999,7.5756763516,1071
115244,205771,272119,-1.9692929998,-5.5597233111,7.746763167499999,1072
115476,205791,272109,-1.9274186043000001,-5.570491012800001,7.7120672398000005,1073
115414,205738,272078,-2.0386848552,-5.694917788000001,7.667800021700001,1074
113446,205324,271825,-1.9130616687,-5.7212388366,7.6618179652,1075
110529,204857,271546,-2.021935097,-5.538187907699999,7.6893354250999995,1076
108841,204671,271427,-1.9597217094,-5.5310094399,7.708478005899999,1077
108430,204595,271470,-2.0051853388,-5.563312545,7.625925626199999,1078
108494,204675,271506,-2.03389921,-5.5621161337,7.6642107878,1079
108850,204743,271497,-2.0470597343,-5.6733823846,7.6773713121,1080
109540,204866,271622,-2.1284157027,-5.5214381495,7.6989067155,1081
110179,204956,271687,-2.0386848552,-5.5908300049,7.6773713121,1082
110823,205100,271724,-1.9680965885,-5.6195438761,7.6043902228,1083
111295,205167,271748,-1.9429719511999999,-5.6099725857,7.6163543358,1084
111577,205167,271770,-2.0470597343,-5.7248280705,7.6725856669,1085
111475,205095,271787,-1.9992032822999999,-5.587240771,7.621139981,1086
111381,205079,271735,-1.9884355805999998,-5.5322058512000005,7.6498538522,1087
111385,205081,271676,-1.9274186043000001,-5.6925249654,7.668996433,1088
111468,205057,271658,-2.0841484846,-5.5968120614000005,7.6426753844,1089
111592,205065,271676,-2.0123638066000002,-5.6123654083000005,7.625925626199999,1090
111732,205099,271673,-1.8388841681,-5.5585268998,7.6139615132000005,1091
111938,205091,271711,-1.9286150156,-5.6255259326000004,7.668996433,1092
112152,205142,271652,-1.8867406201,-5.6327044004,7.6845497799,1093
112415,205105,271677,-1.9369898947,-5.4831529879,7.704888771999999,1094
112708,205160,271687,-1.9465611851,-5.5896335936,7.6498538522,1095
112941,205206,271703,-1.9740786449999999,-5.513063270399999,7.7156564737,1096
113142,205208,271649,-1.9585252981,-5.6398828682,7.7587272805,1097
113339,205204,271700,-1.9058832009,-5.5645089563,7.6307112714,1098
113565,205183,271662,-1.9692929998,-5.566901778899999,7.6630143765,1099
113649,205214,271698,-1.9585252981,-5.3790652048,7.7922267969000005,1100
113743,205211,271662,-1.962114532,-5.5214381495,7.6965138929000005,1101
112512,204892,271424,-1.9094724347999998,-5.5525448433,7.695317481599999,1102
109590,204304,271088,-1.8640088054,-5.479563754,7.633104094,1103
107361,203931,270845,-1.7551353771,-5.5657053676,7.7312098206,1104
106534,203831,270777,-1.938186306,-5.570491012800001,7.65703232,1105
106444,203860,270777,-1.9262221929999999,-5.6123654083000005,7.6881390138,1106
106670,203872,270774,-1.8999011444,-5.6183474648,7.65703232,1107
106993,203925,270765,-1.938186306,-5.5776694806,7.6474610296,1108
107464,204012,270862,-1.9238293703999998,-5.5585268998,7.721638530200001,1109
108078,204079,270912,-1.9573288867999998,-5.4903314557,7.6809605460000006,1110
108534,204109,270927,-1.8616159827999998,-5.620740287399999,7.779066272600001,1111
108608,204106,270922,-1.8376877568,-5.4783673427,7.683353368600001,1112
108390,204046,270855,-1.6713865861,-5.5884371823,7.7383882884,1113
108291,204021,270811,-1.9405791285999998,-5.5800623032,7.7611201031,1114
108186,203971,270828,-1.8460626359,-5.551348432,7.7024959494,1115
108253,203993,270830,-1.7623138449,-5.499902746099999,7.7383882884,1116
108359,204018,270794,-1.866401628,-5.6087761744,7.7659057483,1117
108516,203996,270790,-1.8005990065,-5.6422756908,7.733602643199999,1118
108718,204015,270823,-1.8041882404,-5.5920264161999995,7.737191877099999,1119
109000,204082,270806,-1.8819549749,-5.5501520207,7.716852885,1120
109268,204104,270856,-1.7635102562,-5.4975099235,7.750352401400001,1121
109629,204217,270914,-1.8999011444,-5.6446685134,7.721638530200001,1122
109959,204275,270966,-1.8041882404,-5.4975099235,7.6785677234,1123
110372,204360,270987,-1.7383856189,-5.5645089563,7.6857461912,1124
110700,204452,271088,-1.746760498,-5.4855458105,7.7694949822,1125
110985,204522,271158,-1.8472590472,-5.499902746099999,7.7934232082,1126
110877,204513,271143,-1.8484554585000001,-5.710471134900001,7.7312098206,1127
108941,204132,270905,-1.9286150156,-5.6279187552000005,7.6713892556,1128
106778,203791,270705,-1.7910277161,-5.5046883913,7.7036923607,1129
105776,203687,270665,-1.8317057003,-5.5657053676,7.654639497399999,1130
105777,203747,270771,-1.9752750562999999,-5.5082776252,7.695317481599999,1131
106293,203882,270860,-1.8568303376,-5.499902746099999,7.7431739336,1132
106806,204001,270959,-2.0003996936,-5.5238309721,7.7252277641000004,1133
107466,204168,271072,-1.8484554585000001,-5.4987063348,7.7826555065,1134
108278,204349,271172,-1.9669001771999999,-5.682953675,7.7347990545,1135
108944,204481,271227,-1.9130616687,-5.5238309721,7.7431739336,1136
109439,204571,271336,-1.9525432416,-5.5645089563,7.7300134093,1137
109553,204602,271350,-1.9513468303000001,-5.575276658,7.654639497399999,1138
109628,204618,271371,-2.0506489682,-5.5896335936,7.6965138929000005,1139
109821,204666,271412,-1.9764714676,-5.539384319,7.6594251426,1140
109997,204753,271499,-1.9908284031999999,-5.5477591981,7.633104094,1141
110331,204776,271455,-1.9740786449999999,-5.5477591981,7.6809605460000006,1142
110643,204844,271547,-1.9465611851,-5.633900811699999,7.6187471584,1143
110991,204944,271586,-1.7982061838999999,-5.6327044004,7.6977103042,1144
111401,205007,271641,-1.9178473139,-5.4568319393,7.6893354250999995,1145
111827,205114,271695,-1.9932212258000002,-5.6159546422,7.7802626839,1146
112284,205213,271751,-2.0662023151,-5.7224352479,7.6283184488,1147
112724,205210,271787,-2.0374884439,-5.649454158599999,7.695317481599999,1148
113093,205320,271894,-1.8915262653,-5.5968120614000005,7.7300134093,1149
113440,205426,271904,-1.9609181207,-5.5788658919,7.5864440533,1150
113888,205456,271935,-1.962114532,-5.6303115778,7.5744799403,1151
114032,205511,271926,-1.9669001771999999,-5.6267223439,7.633104094,1152
113099,205225,271778,-2.0135602179,-5.6542398038,7.6091758679999995,1153
110459,204729,271509,-2.0506489682,-5.5489556094,7.6426753844,1154
108220,204367,271308,-2.0889341298,-5.5345986738,7.633104094,1155
107366,204349,271267,-1.9860427579999997,-5.599204884000001,7.6582287313,1156
107410,204384,271277,-2.0530417908,-5.7080783123000005,7.6701928443,1157
107706,204415,271332,-2.0865413072,-5.541777141600001,7.654639497399999,1158
108298,204547,271384,-2.0985054202,-5.7690952886,7.645068207,1159
108874,204697,271466,-1.9764714676,-5.5118668590999995,7.7108708285,1160
109561,204786,271571,-2.093719775,-5.6135618196,7.7012995381,1161
110223,204872,271613,-2.0303099761,-5.666203916800001,7.6881390138,1162
110441,204902,271660,-2.0626130812,-5.6004012953,7.621139981,1163
110491,204920,271644,-2.1092731219,-5.6458649247,7.65703232,1164
110490,204897,271693,-2.0087745727,-5.620740287399999,7.6857461912,1165
110612,204951,271664,-1.9764714676,-5.6901321428,7.6235328036,1166
110827,204950,271669,-2.0889341298,-5.455635527999999,7.621139981,1167
111062,205004,271747,-1.9058832009,-5.5501520207,7.6642107878,1168
111290,205075,271736,-2.1930219129,-5.5561340772,7.5661050612,1169
111728,205117,271770,-1.9932212258000002,-5.7499527078,7.6989067155,1170
112082,205205,271807,-1.9788642901999998,-5.6877393201999995,7.683353368600001,1171
112378,205209,271842,-1.9645073545999998,-5.6446685134,7.6235328036,1172
112791,205307,271825,-2.105683888,-5.563312545,7.6642107878,1173
113054,205311,271839,-2.021935097,-5.6099725857,7.6522466748,1174
113389,205387,271855,-2.0889341298,-5.666203916800001,7.6893354250999995,1175
113638,205334,271845,-1.9944176371,-5.649454158599999,7.708478005899999,1176
113808,205328,271883,-1.866401628,-5.4783673427,7.5780691741999995,1177
114019,205368,271853,-1.9764714676,-5.6015977066,7.6965138929000005,1178
114151,205361,271827,-1.9609181207,-5.6087761744,7.7419775223,1179
112765,204980,271668,-2.0721843716,-5.5980084727,7.633104094,1180
109914,204454,271290,-1.9202401365000001,-5.635097223,7.6163543358,1181
107846,204113,271078,-1.8460626359,-5.6015977066,7.7001031268,1182
107104,204001,270985,-1.8460626359,-5.6123654083000005,7.708478005899999,1183
107047,203936,270980,-2.0123638066000002,-5.679364441100001,7.7312098206,1184
107294,204044,271036,-1.9334006607999998,-5.5896335936,7.6426753844,1185
107663,204096,271032,-1.9286150156,-5.6015977066,7.653443086099999,1186
108160,204207,271046,-1.8699908619,-5.611168996999999,7.7060851833,1187
108697,204275,271088,-2.0374884439,-5.6267223439,7.7694949822,1188
109116,204312,271135,-1.9860427579999997,-5.5860443597,7.7228349415,1189
109195,204309,271076,-1.8460626359,-5.5345986738,7.668996433,1190
109142,204217,271049,-1.9525432416,-5.5298130286000005,7.7024959494,1191
109004,204196,271056,-1.8819549749,-5.5310094399,7.763512925700001,1192
108912,204125,271013,-1.8891334427000002,-5.4376893585,7.6713892556,1193
108951,204127,270964,-2.0350956213,-5.4364929472,7.6977103042,1194
109108,204136,270981,-1.8759729184,-5.539384319,7.6785677234,1195
109276,204204,270960,-1.8137595308,-5.5968120614000005,7.683353368600001,1196
109561,204157,270971,-1.8687944506,-5.611168996999999,7.720442118899999,1197
109741,204242,270972,-1.8879370314,-5.5094740364999994,7.5601230047,1198
110047,204220,270955,-1.8987047331,-5.5214381495,7.7515488127,1199
110274,204257,270995,-1.8735800958,-5.6398828682,7.752745224,1200
110600,204279,271010,-1.8376877568,-5.6255259326000004,7.8424760715,1201
110809,204262,270981,-1.7718851352999998,-5.487938633100001,7.6845497799,1202
110987,204315,270966,-1.7647066674999998,-5.5489556094,7.708478005899999,1203
111215,204315,271033,-1.8352949342,-5.5441699642,7.740781111,1204
111297,204286,270946,-1.7395820302,-5.4400821811,7.8305119585,1205
110676,204138,270834,-1.9082760235,-5.694917788000001,7.704888771999999,1206
108343,203608,270536,-1.7694923127,-5.5585268998,7.7347990545,1207
106306,203301,270375,-1.7324035624,-5.5118668590999995,7.6989067155,1208
105419,203171,270275,-1.8640088054,-5.5920264161999995,7.7479595788,1209
105471,203216,270243,-1.7407784414999998,-5.5896335936,7.750352401400001,1210
105840,203293,270370,-1.7730815466,-5.5226345608,7.695317481599999,1211
106358,203425,270453,-1.9417755399,-5.5106704478,7.668996433,1212
107025,203605,270525,-1.8017954178,-5.3874400839,7.7072815945999995,1213
107756,203787,270669,-1.7443676754000002,-5.6015977066,7.6809605460000006,1214
108512,203953,270783,-1.7982061838999999,-5.6279187552000005,7.7108708285,1215
108840,204057,270864,-1.8592231602,-5.6901321428,7.763512925700001,1216
108986,204102,270929,-1.9082760235,-5.5920264161999995,7.65703232,1217
109069,204183,270998,-1.8867406201,-5.4831529879,7.7132636511,1218
109305,204256,271086,-1.8675980393,-5.666203916800001,7.775477038699999,1219
109606,204300,271114,-2.03389921,-5.491527867,7.6713892556,1220
110000,204427,271153,-1.9740786449999999,-5.538187907699999,7.695317481599999,1221
110498,204529,271261,-1.9872391693,-5.513063270399999,7.668996433,1222
110959,204666,271387,-1.9956140484,-5.6506505699,7.6235328036,1223
111448,204777,271471,-1.7790636031,-5.5920264161999995,7.746763167499999,1224
111897,204827,271485,-1.9429719511999999,-5.6745787959,7.6713892556,1225
112451,204967,271552,-2.0027925162,-5.583651537100001,7.7431739336,1226
112818,205028,271609,-1.8460626359,-5.5202417382,7.6881390138,1227
113217,205170,271670,-1.9226329591,-5.6219366987,7.6283184488,1228
113744,205220,271747,-1.9716858223999998,-5.6063833518,7.6319076827,1229
114168,205308,271748,-1.9872391693,-5.6685967394,7.6642107878,1230
113853,205204,271730,-2.0183458631,-5.662614682899999,7.6857461912,1231
111749,204798,271450,-2.0027925162,-5.6422756908,7.6737820782,1232
109332,204410,271273,-2.0362920326,-5.5848479484,7.625925626199999,1233
108146,204288,271171,-1.9525432416,-5.633900811699999,7.6474610296,1234
107916,204242,271197,-1.9896319919,-5.540580730299999,7.7096744172000005,1235
108239,204323,271255,-1.9956140484,-5.5190453269,7.7706913935,1236
108681,204465,271304,-1.9800607015,-5.5262237947,7.6235328036,1237
109200,204556,271414,-1.9537396529,-5.6219366987,7.651050263499999,1238
109967,204669,271462,-1.9393827173,-5.6542398038,7.749155990099999,1239
110656,204861,271573,-2.021935097,-5.6183474648,7.7443703449,1240
111086,204915,271598,-1.9082760235,-5.566901778899999,7.6761749007999995,1241
111216,204905,271622,-2.0195422744,-5.6315079891,7.749155990099999,1242
111241,204947,271598,-2.1020946541,-5.6410792795,7.621139981,1243
111392,204963,271650,-1.9968104597,-5.5800623032,7.6737820782,1244
111483,204984,271693,-2.057827436,-5.6327044004,7.6307112714,1245
111765,205007,271692,-2.105683888,-5.5477591981,7.6019974002,1246
112067,205072,271797,-2.0111673952999998,-5.679364441100001,7.6977103042,1247
112494,205178,271784,-2.0638094925,-5.6434721021,7.6043902228,1248
112836,205248,271829,-1.9322042495,-5.6123654083000005,7.6307112714,1249
113230,205341,271884,-1.962114532,-5.6973106106,7.7132636511,1250
113606,205314,271882,-1.9645073545999998,-5.5190453269,7.6283184488,1251
114010,205371,271952,-1.9728822337,-5.5920264161999995,7.7802626839,1252
114361,205442,271918,-1.8891334427000002,-5.4735816975,7.6235328036,1253
114633,205361,271990,-2.021935097,-5.540580730299999,7.6905318364,1254
114886,205511,271946,-1.9836499354,-5.6087761744,7.653443086099999,1255
115198,205531,271971,-2.045863323,-5.575276658,7.7395846997,1256
115264,205485,271927,-1.9130616687,-5.6721859733,7.7192457076,1257
114369,205232,271795,-2.0075781614,-5.6279187552000005,7.720442118899999,1258
111749,204742,271470,-2.0159530405,-5.6195438761,7.543373246500001,1259
109278,204349,271211,-1.8723836845000001,-5.582455125799999,7.6163543358,1260
108243,204178,271150,-1.9956140484,-5.5848479484,7.7443703449,1261
108003,204157,271094,-2.021935097,-5.4233324229,7.6402825618,1262
108186,204195,271170,-2.0410776778,-5.540580730299999,7.695317481599999,1263
108502,204245,271125,-1.8652052167000002,-5.659025449,7.635496916599999,1264
109049,204285,271158,-1.9298114269,-5.6195438761,7.7096744172000005,1265
109583,204409,271231,-1.9752750562999999,-5.6446685134,7.6989067155,1266
109971,204440,271188,-1.9058832009,-5.6027941179,7.7479595788,1267
110090,204409,271228,-1.9657037659,-5.620740287399999,7.6761749007999995,1268
109961,204392,271214,-1.9262221929999999,-5.5573304885,7.5948189324,1269
109812,204302,271163,-1.7551353771,-5.6554362151,7.7324062319,1270
109762,204255,271143,-1.8879370314,-5.570491012800001,7.654639497399999,1271
109775,204275,271099,-1.8293128776999998,-5.5501520207,7.6761749007999995,1272
109820,204267,271059,-1.8269200550999998,-5.5274202059999995,7.704888771999999,1273
110093,204261,271062,-1.8855442087999998,-5.5908300049,7.6402825618,1274
110218,204289,271025,-1.9334006607999998,-5.5680981902,7.8209406681,1275
110375,204230,271040,-1.8855442087999998,-5.5728838354,7.6905318364,1276
110625,204347,271070,-1.9477575963999998,-5.513063270399999,7.740781111,1277
110916,204350,271073,-1.8843477975,-5.647061336,7.8209406681,1278
111170,204368,271070,-1.8269200550999998,-5.6004012953,7.844868894099999,1279
111319,204393,271046,-1.7407784414999998,-5.575276658,7.5948189324,1280
111592,204403,271048,-1.8089738856,-5.599204884000001,7.7563344578999995,1281
111759,204378,271017,-1.8412769907000002,-5.4233324229,7.716852885,1282
111782,204385,271027,-1.758724611,-5.6147582309,7.7694949822,1283
111117,204171,270922,-1.9022939669999999,-5.6446685134,7.5744799403,1284
108666,203629,270612,-1.7084753364,-5.4161539550999995,7.6965138929000005,1285
106477,203346,270441,-1.8580267489000002,-5.5369914964,7.7120672398000005,1286
105617,203196,270296,-1.8305092889999999,-5.587240771,7.7383882884,1287
105524,203207,270318,-1.7060825138000002,-5.6099725857,7.7264241754,1288
105807,203292,270375,-1.9094724347999998,-5.6961141993,7.728816998,1289
106162,203359,270394,-1.8017954178,-5.6063833518,7.65703232,1290
106739,203519,270439,-1.7934205387,-5.5094740364999994,7.6498538522,1291
107411,203642,270580,-1.7970097726,-5.6159546422,7.7072815945999995,1292
108038,203718,270658,-1.8687944506,-5.587240771,7.6773713121,1293
108275,203796,270674,-1.8329021116,-5.4376893585,7.622336392299999,1294
108433,203857,270706,-1.8137595308,-5.595615650099999,7.6785677234,1295
108370,203902,270793,-1.7479569093,-5.5202417382,7.6594251426,1296
108633,203985,270864,-1.79461695,-5.5369914964,7.6761749007999995,1297
108993,204056,270890,-1.9465611851,-5.5046883913,7.7946196195,1298
109285,204178,270938,-1.9238293703999998,-5.595615650099999,7.683353368600001,1299
109808,204297,271105,-1.7982061838999999,-5.5082776252,7.7455667562,1300
110245,204415,271177,-1.8257236438,-5.693721376699999,7.7228349415,1301
110797,204541,271279,-1.9453647738,-5.50349198,7.6809605460000006,1302
111164,204641,271367,-1.9836499354,-5.6542398038,7.708478005899999,1303
111715,204756,271419,-1.9477575963999998,-5.6398828682,7.721638530200001,1304
112204,204874,271481,-1.9322042495,-5.499902746099999,7.6761749007999995,1305
112635,204928,271543,-2.0255243308999997,-5.6015977066,7.7659057483,1306
113088,205067,271627,-1.9573288867999998,-5.487938633100001,7.6893354250999995,1307
113484,205149,271664,-1.9405791285999998,-5.553741254599999,7.7036923607,1308
113659,205123,271647,-2.081755662,-5.7678988773,7.7144600624,1309
112106,204749,271466,-1.9489540077,-5.7367921835,7.6522466748,1310
109408,204358,271230,-1.8472590472,-5.6015977066,7.5804619967999995,1311
107803,204128,271142,-1.9082760235,-5.735595772199999,7.6402825618,1312
107377,204113,271110,-1.9884355805999998,-5.659025449,7.7024959494,1313
107555,204195,271147,-1.9322042495,-5.7224352479,7.7192457076,1314
108089,204321,271212,-1.9238293703999998,-5.647061336,7.6594251426,1315
108624,204450,271335,-2.0853448959,-5.6973106106,7.5948189324,1316
109324,204560,271404,-2.0626130812,-5.6865429089,7.6498538522,1317
110086,204756,271515,-1.9728822337,-5.670989562,7.6283184488,1318
110606,204816,271559,-1.9477575963999998,-5.7044890784,7.5984081663000005,1319
110795,204821,271573,-2.0051853388,-5.6171510535,7.6761749007999995,1320
110871,204788,271590,-1.9513468303000001,-5.5944192388,7.6713892556,1321
110965,204840,271591,-2.0793628394,-5.5357950851,7.6498538522,1322
111054,204888,271641,-2.0506489682,-5.5896335936,7.5924261098,1323
111374,204917,271649,-2.0482561456,-5.5968120614000005,7.637889739199999,1324
111641,205045,271684,-1.9800607015,-5.7379885948,7.6701928443,1325
112026,205047,271759,-1.9704894111,-5.6877393201999995,7.6307112714,1326
112406,205138,271773,-2.1379869930999997,-5.6267223439,7.6115686905999995,1327
112860,205215,271850,-2.0147566292,-5.4664032297,7.5756763516,1328
113317,205221,271880,-1.9537396529,-5.5764730692999995,7.7060851833,1329
113669,205337,271862,-1.9932212258000002,-5.5525448433,7.7300134093,1330
114114,205366,271956,-2.0841484846,-5.6015977066,7.6785677234,1331
114436,205465,272037,-1.9130616687,-5.570491012800001,7.6019974002,1332
114940,205561,272020,-2.0350956213,-5.6027941179,7.6773713121,1333
115268,205616,272059,-2.0745771942,-5.6027941179,7.6414789731,1334
115573,205608,272105,-2.0303099761,-5.611168996999999,7.5948189324,1335
114887,205465,271965,-2.0374884439,-5.6697931507,7.7072815945999995,1336
112393,204936,271684,-1.8364913454999998,-5.6315079891,7.6307112714,1337
109917,204564,271466,-2.0781664281,-5.587240771,7.556533770800001,1338
108743,204407,271374,-2.0650059038,-5.611168996999999,7.6905318364,1339
108600,204394,271404,-2.0793628394,-5.4951171009,7.6881390138,1340
108796,204420,271416,-2.045863323,-5.5561340772,7.6917282476999995,1341
109165,204496,271406,-2.0410776778,-5.6506505699,7.6462646183,1342
109599,204492,271444,-2.105683888,-5.5178489156,7.708478005899999,1343
110235,204690,271503,-1.9633109433,-5.6267223439,7.6618179652,1344
110796,204779,271529,-1.8448662246,-5.5788658919,7.6965138929000005,1345
111011,204777,271546,-1.9633109433,-5.7248280705,7.6749784895,1346
110987,204737,271482,-1.9740786449999999,-5.5645089563,7.635496916599999,1347
110926,204666,271495,-1.8460626359,-5.5920264161999995,7.6474610296,1348
110888,204641,271435,-1.9178473139,-5.5477591981,7.6881390138,1349
110929,204596,271390,-2.0650059038,-5.575276658,7.7300134093,1350
110955,204631,271430,-2.0554346134,-5.471188874899999,7.6498538522,1351
111076,204690,271353,-1.998006871,-5.5944192388,7.645068207,1352
111315,204681,271393,-2.0829520733,-5.5489556094,7.6594251426,1353
111550,204683,271423,-1.8975083218,-5.6638110942,7.7156564737,1354
111847,204725,271412,-1.8616159827999998,-5.539384319,7.683353368600001,1355
112035,204696,271419,-2.0207386857,-5.566901778899999,7.704888771999999,1356
112303,204736,271371,-1.8747765071,-5.5980084727,7.6235328036,1357
112502,204749,271454,-1.8687944506,-5.747559885199999,7.6713892556,1358
112790,204688,271409,-1.8711872732,-5.5345986738,7.6498538522,1359
112874,204748,271373,-1.9884355805999998,-5.6315079891,7.6163543358,1360
113078,204737,271342,-1.8448662246,-5.563312545,7.8185478454999995,1361
113008,204662,271339,-1.9369898947,-5.766702466,7.764709337,1362
111379,204292,271046,-1.8317057003,-5.659025449,7.637889739199999,1363
108758,203819,270793,-1.8101702968999998,-5.6135618196,7.733602643199999,1364
107072,203512,270652,-1.8269200550999998,-5.5740802467,7.692924659,1365
106665,203498,270505,-1.8388841681,-5.6015977066,7.7551380466,1366
106692,203522,270549,-1.9525432416,-5.513063270399999,7.651050263499999,1367
106983,203587,270559,-1.8029918290999998,-5.732006538299999,7.654639497399999,1368
107403,203623,270581,-1.8795621523000001,-5.499902746099999,7.7312098206,1369
107951,203713,270630,-1.8364913454999998,-5.5106704478,7.733602643199999,1370
108452,203798,270680,-1.9082760235,-5.6159546422,7.7659057483,1371
108740,203815,270703,-1.7024932798999999,-5.5501520207,7.692924659,1372
108725,203777,270643,-1.9561324755,-5.4472606489,7.6905318364,1373
108612,203712,270603,-1.8077774743,-5.5501520207,7.7347990545,1374
108563,203657,270611,-1.8879370314,-5.5357950851,7.6917282476999995,1375
108521,203675,270563,-1.7790636031,-5.6578290377,7.7742806274,1376
108589,203712,270603,-1.8137595308,-5.5657053676,7.750352401400001,1377
108809,203747,270596,-1.7563317884,-5.6159546422,7.666603610399999,1378
109047,203791,270596,-1.7814564256999998,-5.587240771,7.6809605460000006,1379
109416,203850,270639,-1.7168502155,-5.5489556094,7.7096744172000005,1380
109687,203943,270781,-1.8819549749,-5.651846981199999,7.7802626839,1381
110158,204052,270747,-1.7862420709,-5.5920264161999995,7.785048329099999,1382
110576,204182,270858,-1.806581063,-5.525027383399999,7.7264241754,1383
111030,204260,270985,-1.818545176,-5.5896335936,7.7072815945999995,1384
111418,204360,271029,-1.8197415872999998,-5.5058848026,7.720442118899999,1385
111836,204504,271128,-1.8125631194999998,-5.6063833518,7.7264241754,1386
112262,204576,271213,-1.8783657409999999,-5.4987063348,7.8185478454999995,1387
112085,204531,271153,-1.7862420709,-5.6697931507,7.764709337,1388
110072,204123,270961,-1.8281164664,-5.6877393201999995,7.692924659,1389
107776,203816,270814,-1.9537396529,-5.4975099235,7.7443703449,1390
106977,203725,270768,-1.8412769907000002,-5.5860443597,7.720442118899999,1391
106952,203805,270799,-2.0231315083,-5.620740287399999,7.7264241754,1392
107378,203944,270907,-1.9932212258000002,-5.5489556094,7.695317481599999,1393
107977,204059,271059,-1.9800607015,-5.6506505699,7.65703232,1394
108634,204219,271065,-2.0291135648000003,-5.6458649247,7.6905318364,1395
109331,204385,271221,-1.938186306,-5.5597233111,7.668996433,1396
110007,204551,271315,-1.9788642901999998,-5.6733823846,7.6881390138,1397
110404,204617,271375,-2.0865413072,-5.4855458105,7.6785677234,1398
110609,204646,271373,-1.998006871,-5.587240771,7.6821569573,1399
110636,204658,271411,-2.0793628394,-5.5896335936,7.683353368600001,1400
110765,204696,271428,-1.9489540077,-5.5788658919,7.6857461912,1401
110955,204742,271470,-1.9262221929999999,-5.575276658,7.6857461912,1402
111322,204820,271537,-1.9776678789,-5.7415778287,7.6307112714,1403
111630,204824,271571,-1.9872391693,-5.5166525043000005,7.645068207,1404
112025,204999,271670,-1.9334006607999998,-5.5453663755000004,7.6977103042,1405
112467,204999,271714,-1.8795621523000001,-5.563312545,7.6235328036,1406
112940,205180,271723,-1.8963119105000001,-5.5585268998,7.6402825618,1407
113386,205227,271837,-2.0482561456,-5.541777141600001,7.6701928443,1408
113877,205337,271835,-2.0626130812,-5.4927242783,7.654639497399999,1409
114330,205448,271926,-1.8496518698,-5.5573304885,7.6642107878,1410
114769,205513,271963,-1.9609181207,-5.6279187552000005,7.6079794567,1411
115072,205564,272027,-2.0039889275,-5.5489556094,7.6115686905999995,1412
115435,205638,272046,-1.9501504189999999,-5.3970113743,7.6474610296,1413
115400,205458,271966,-1.9908284031999999,-5.4975099235,7.7060851833,1414
113377,205157,271769,-2.1966111468,-5.679364441100001,7.5661050612,1415
110545,204753,271476,-1.9058832009,-5.5525448433,7.5996045776,1416
108947,204511,271352,-2.0638094925,-5.6386864569,7.6905318364,1417
108543,204505,271394,-2.0709879603,-5.635097223,7.7072815945999995,1418
108694,204557,271440,-2.0350956213,-5.6231331099999995,7.645068207,1419
109053,204629,271479,-2.0602202586000002,-5.5920264161999995,7.635496916599999,1420
109715,204718,271547,-1.9190437251999999,-5.6685967394,7.6989067155,1421
110361,204843,271593,-1.9513468303000001,-5.5429735529,7.6235328036,1422
111044,205012,271690,-1.9896319919,-5.6063833518,7.6139615132000005,1423
111527,204999,271676,-1.9549360641999998,-5.6721859733,7.5780691741999995,1424
111698,205028,271667,-2.0709879603,-5.666203916800001,7.6163543358,1425
111666,205027,271652,-2.0566310246999997,-5.6482577473,7.6115686905999995,1426
111662,204991,271649,-1.8508482811000002,-5.682953675,7.6881390138,1427
111720,205009,271636,-1.9405791285999998,-5.4257252455,7.5996045776,1428
111790,204987,271628,-2.1092731219,-5.6685967394,7.5804619967999995,1429
111962,205012,271631,-1.8723836845000001,-5.5118668590999995,7.6642107878,1430
112185,205065,271642,-1.8831513862,-5.5274202059999995,7.7192457076,1431
112554,205035,271643,-1.9334006607999998,-5.5262237947,7.6869426025,1432
112844,205093,271673,-1.9752750562999999,-5.5764730692999995,7.606783045399999,1433
113113,205133,271669,-1.9202401365000001,-5.6446685134,7.5948189324,1434
113405,205183,271691,-1.9669001771999999,-5.5166525043000005,7.695317481599999,1435
113721,205232,271719,-1.9405791285999998,-5.5920264161999995,7.7300134093,1436
114025,205233,271696,-2.0039889275,-5.6327044004,7.7300134093,1437
114128,205244,271687,-1.9058832009,-5.6039905292,7.606783045399999,1438
114398,205243,271697,-1.9082760235,-5.459224761900001,7.679764134699999,1439
114559,205275,271696,-1.9010975557,-5.5465627868,7.728816998,1440
114236,205171,271587,-1.9932212258000002,-5.8695938378,7.6905318364,1441
112164,204688,271347,-1.9716858223999998,-5.6542398038,7.5948189324,1442
109575,204241,271045,-1.9453647738,-5.5896335936,7.6749784895,1443
108153,204108,270901,-1.8723836845000001,-5.5609197224,7.654639497399999,1444
107897,204098,270878,-1.9764714676,-5.5094740364999994,7.6965138929000005,1445
108017,204081,270885,-1.7994025952000001,-5.5465627868,7.733602643199999,1446
108357,204146,270917,-1.9393827173,-5.4939206895999995,7.6713892556,1447
108796,204188,270931,-1.9250257817,-5.563312545,7.6857461912,1448
109357,204257,271009,-1.9190437251999999,-5.6267223439,7.7922267969000005,1449
109903,204364,271024,-1.7790636031,-5.6303115778,7.6642107878,1450
110088,204374,271057,-1.9441683625,-5.6135618196,7.728816998,1451
110120,204341,271005,-1.9166509025999998,-5.5776694806,7.695317481599999,1452
110077,204293,270958,-1.7359927963,-5.5716874241,7.7682985709,1453
110049,204288,270950,-1.8807585636,-5.678168029799999,7.7419775223,1454
110113,204305,270931,-1.7958133612999998,-5.5944192388,7.77667345,1455
110191,204295,270954,-1.8209379986,-5.5680981902,7.6402825618,1456
110416,204283,270912,-1.8233308212,-5.5070812139,7.7862447404,1457
110655,204342,270956,-1.9597217094,-5.4652068183999996,7.7383882884,1458
110858,204377,270945,-1.8831513862,-5.6039905292,7.8113693777,1459
111159,204372,270956,-1.7670994901,-5.467599641,7.779066272600001,1460
111367,204422,270959,-1.8951154991999999,-5.499902746099999,7.7240313528,1461
111628,204403,270933,-1.7790636031,-5.553741254599999,7.7862447404,1462
111898,204426,271010,-1.8640088054,-5.487938633100001,7.77667345,1463
112243,204466,270959,-1.8041882404,-5.5465627868,7.7479595788,1464
112340,204464,270947,-1.7024932798999999,-5.5800623032,7.7802626839,1465
112598,204512,270954,-1.7132609816000002,-5.419743189,7.7958160308,1466
112637,204519,270951,-1.8041882404,-5.6039905292,7.804190909899999,1467
111482,204196,270777,-1.7994025952000001,-5.5178489156,7.7192457076,1468
109091,203749,270520,-1.7659030788,-5.5142596817000005,7.6725856669,1469
107384,203567,270368,-1.806581063,-5.50349198,7.716852885,1470
106918,203538,270348,-1.9094724347999998,-5.4616175845,7.8065837325,1471
107024,203603,270408,-1.8257236438,-5.4939206895999995,7.733602643199999,1472
107514,203742,270466,-1.7730815466,-5.637490045600001,7.779066272600001,1473
107996,203885,270620,-1.7443676754000002,-5.5657053676,7.7587272805,1474
108704,204056,270736,-1.7922241274,-5.4687960523,7.7240313528,1475
109496,204231,270812,-1.7994025952000001,-5.4508498828,7.651050263499999,1476
110029,204393,270999,-1.7850456596,-5.6027941179,7.6785677234,1477
110373,204442,271035,-1.8412769907000002,-5.4329037133,7.6857461912,1478
110552,204526,271095,-1.9752750562999999,-5.4400821811,7.740781111,1479
110677,204571,271127,-1.9669001771999999,-5.5334022625,7.7587272805,1480
110940,204680,271219,-1.9417755399,-5.5968120614000005,7.692924659,1481
111257,204696,271270,-1.9166509025999998,-5.745167062599999,7.6977103042,1482
111628,204855,271330,-1.9776678789,-5.5908300049,7.692924659,1483
112103,204962,271372,-1.8699908619,-5.6279187552000005,7.716852885,1484
112505,205047,271480,-1.9298114269,-5.6015977066,7.7671021596,1485
112973,205151,271530,-1.9238293703999998,-5.5070812139,7.721638530200001,1486
113404,205242,271663,-2.0075781614,-5.6566326264,7.7001031268,1487
113984,205355,271698,-1.9525432416,-5.5609197224,7.7383882884,1488
114351,205499,271734,-1.9274186043000001,-5.5800623032,7.6869426025,1489
114788,205541,271860,-1.8484554585000001,-5.6087761744,7.6151579245,1490
115254,205619,271814,-1.8472590472,-5.637490045600001,7.6522466748,1491
115614,205686,271920,-1.9836499354,-5.5489556094,7.7240313528,1492
115686,205688,271908,-1.9513468303000001,-5.595615650099999,7.6857461912,1493
114172,205341,271750,-2.1164515897,-5.5884371823,7.6043902228,1494
111640,204998,271497,-1.9322042495,-5.6063833518,7.5816584081,1495
110033,204760,271401,-1.9836499354,-5.486742221799999,7.597211754999999,1496
109590,204742,271374,-1.9944176371,-5.5860443597,7.683353368600001,1497
109589,204819,271433,-2.1080767106,-5.5860443597,7.695317481599999,1498
110004,204900,271473,-1.9896319919,-5.4975099235,7.572087117700001,1499
110546,204998,271553,-2.0123638066000002,-5.554937665900001,7.7228349415,1500
111146,205133,271644,-1.9298114269,-5.5369914964,7.695317481599999,1501
111849,205281,271759,-2.0135602179,-5.611168996999999,7.6618179652,1502
112404,205317,271806,-1.9417755399,-5.6542398038,7.666603610399999,1503
112729,205365,271827,-1.9429719511999999,-5.6015977066,7.704888771999999,1504
112681,205400,271824,-2.0949161863,-5.563312545,7.584051230699999,1505
112789,205409,271812,-1.9764714676,-5.665007505499999,7.633104094,1506
112964,205440,271840,-2.0051853388,-5.74277424,7.6725856669,1507
113205,205494,271921,-1.8927226765999998,-5.4687960523,7.683353368600001,1508
113491,205552,271885,-2.0003996936,-5.6901321428,7.6713892556,1509
113813,205609,271993,-1.8699908619,-5.670989562,7.5864440533,1510
114196,205658,271964,-1.9082760235,-5.6757752072,7.6498538522,1511
114614,205708,272078,-2.0961125976,-5.5142596817000005,7.668996433,1512
114963,205776,272110,-1.9824535241,-5.649454158599999,7.6402825618,1513
115264,205847,272079,-2.0638094925,-5.6446685134,7.6522466748,1514
115649,205843,272111,-1.9034903783000001,-5.6961141993,7.695317481599999,1515
115924,205891,272120,-1.9465611851,-5.679364441100001,7.606783045399999,1516
116137,205897,272134,-1.9094724347999998,-5.6458649247,7.6091758679999995,1517
116403,205876,272096,-1.9968104597,-5.487938633100001,7.6151579245,1518
