green,red,IR,acc_x,acc_y,acc_z,sample_index
98547,196000,248025,1.3064811396,8.6476608764,-4.6875394734,1
98847,196033,248070,1.2729816232,8.7828553533,-4.5667019321,2
99117,196099,248108,1.3328021881999998,8.7122670866,-4.637290198800001,3
99401,196163,248088,1.5732808595,8.8223369262,-4.6983071751,4
99714,196182,248108,1.4775679554999999,8.8378902731,-4.6253260858,5
100004,196238,248188,1.3244273091,8.9120677737,-4.6468614892,6
100284,196274,248217,1.4201402131,8.7673020064,-4.5882373355,7
100592,196320,248212,1.3507483577,8.7888374098,-4.5858445129,8
100852,196387,248225,1.3567304141999998,8.805587167999999,-4.6325045536000005,9
101161,196387,248265,1.4261222696,8.7840517646,-4.637290198800001,10
101402,196352,248258,1.3710873497999998,8.7517486595,-4.642075844,11
101157,196430,248252,1.2502498085,8.6668034572,-4.5655055207999995,12
100017,196317,248196,1.4141581566,8.876175434699999,-4.6755753604,13
98728,196083,248046,1.4608181972999998,8.7266240222,-4.677968183,14
97889,195959,247975,1.3974083984,8.8139620471,-4.6265224971,15
97423,195856,247945,1.3591232368,8.7385881352,-4.6803610056,16
97158,195815,247857,1.4285150922,8.9096749511,-4.6229332632,17
97103,195783,247881,1.2717852119000002,8.781658942,-4.6444686666,18
97222,195810,247886,1.4859428346,8.859425676499999,-4.6396830214,19
97430,195833,247865,1.4273186809,8.7050886188,-4.594219392,20
97570,195870,247883,1.5445669883000002,8.745766603,-4.6636112473999995,21
97707,195867,247951,1.3842478741,8.7134634979,-4.705485642899999,22
97867,195941,247923,1.3830514628000001,8.781658942,-4.7282174576000005,23
98116,195908,247972,1.3399806559999998,8.8366938618,-4.6301117309999995,24
98340,195990,247967,1.3974083984,8.872586200799999,-4.6133619728,25
98608,196021,247994,1.3854442854000002,8.8163548697,-4.6660040700000005,26
98877,196062,248035,1.3304093655999998,8.7673020064,-4.6169512067000005,27
99158,196110,248070,1.4237294470000001,8.7038922075,-4.6468614892,28
99446,196144,248100,1.304088317,8.7960158776,-4.5355952383,29
99723,196137,248112,1.4285150922,8.9001036607,-4.6193440293,30
100034,196205,248181,1.3076775509,8.833104627900001,-4.7174497559,31
100352,196285,248120,1.3854442854000002,8.8510507974,-4.6217368519,32
100664,196297,248203,1.4021940436,8.769694829,-4.6444686666,33
100967,196348,248227,1.3399806559999998,8.685946038,-4.6564327796,34
101280,196433,248304,1.3232308977999998,8.8821574912,-4.6277189084,35
101549,196478,248353,1.3495519463999999,8.8343010392,-4.547559351299999,36
101859,196476,248324,1.2933206153,8.7302132561,-4.7210389898,37
102183,196541,248349,1.3100703735,8.7708912403,-4.6660040700000005,38
102328,196616,248373,1.3339985995,8.8390866844,-4.6157547954,39
101731,196519,248355,1.3986048097,8.8558364426,-4.5786660451,40
100464,196317,248226,1.2598210989,8.7433737804,-4.6815574169,41
99370,196174,248075,1.3447663012,8.6464644651,-4.5798624564,42
98750,196068,248079,1.3471591237999998,8.7708912403,-4.6516471344,43
98437,196042,248053,1.5230315848999998,8.8008015228,-4.6660040700000005,44
98328,196029,248008,1.3639088819999998,8.7242311996,-4.6959143525,45
98317,196009,248007,1.2382856955,8.818747692299999,-4.6660040700000005,46
98567,196043,247990,1.4249258583,8.774480474199999,-4.6528435457,47
98682,196052,248033,1.3375878334,8.8678005556,-4.5714875773,48
98781,196069,248047,1.3507483577,8.8008015228,-4.6325045536000005,49
98877,196056,248060,1.3052847283,8.7840517646,-4.6995035864000005,50
99023,196084,248053,1.2813565023,8.8151584584,-4.7030928203,51
99192,196098,248084,1.2789636797000001,8.8031943454,-4.594219392,52
99349,196125,248065,1.3567304141999998,8.769694829,-4.5403808835,53
99521,196144,248105,1.4273186809,8.841479506999999,-4.6169512067000005,54
99697,196197,248145,1.3543375915999998,8.6883388606,-4.6660040700000005,55
99876,196209,248118,1.4440684390999998,8.8438723296,-4.677968183,56
100087,196234,248159,1.3471591237999998,8.9647098709,-4.6325045536000005,57
100300,196278,248167,1.4560325521,8.864211321700001,-4.654039957,58
100537,196318,248210,1.4512469069,8.721838377,-4.6971107638,59
100774,196360,248242,1.4512469069,8.805587167999999,-4.6983071751,60
100982,196397,248223,1.4237294470000001,8.7960158776,-4.6396830214,61
101205,196408,248264,1.351944769,8.7314096674,-4.5954158033,62
101449,196413,248303,1.4033904549,8.885746725099999,-4.6815574169,63
101633,196482,248352,1.3112667848,8.931210354500001,-4.713860522,64
101246,196433,248269,1.567298803,8.8211405149,-4.6025942711,65
100099,196275,248159,1.4237294470000001,8.8486579748,-4.6923251185999995,66
98894,196115,248062,1.4273186809,8.6392859973,-4.6707897152,67
98163,196036,247984,1.4249258583,8.7349989013,-4.637290198800001,68
97762,195944,247944,1.4213366244,8.7146599092,-4.7006999977,69
97578,195887,247936,1.4799607781,8.717052731799999,-4.6947179412,70
97566,195887,247941,1.3136596074,8.8378902731,-4.642075844,71
97718,195928,247946,1.4141581566,8.7864445872,-4.6205404406,72
97876,195943,247966,1.4201402131,8.7182491431,-4.6516471344,73
97960,195923,247987,1.5936198516,8.7433737804,-4.618147618,74
98086,195961,247964,1.3962119871,8.6129649487,-4.6229332632,75
98259,195959,247990,1.4476576730000001,8.7912302324,-4.6564327796,76
98462,196012,248034,1.2957134379000002,8.8019979341,-4.6157547954,77
98703,196019,248036,1.4620146086,8.8235333375,-4.6049870937,78
98946,196033,248065,1.3974083984,8.7014993849,-4.6002014485,79
99198,196072,248091,1.5062818266999998,8.8043907567,-4.6875394734,80
99460,196125,248097,1.4285150922,8.8031943454,-4.654039957,81
99733,196183,248119,1.4261222696,8.819944103600001,-4.5810588676999995,82
100024,196214,248177,1.3770694063,8.6871424493,-4.6935215299,83
100288,196258,248131,1.3471591237999998,8.7924266437,-4.589433746799999,84
100570,196299,248209,1.3686945272,8.817551281,-4.6612184248,85
100865,196362,248253,1.4691930764,8.7840517646,-4.618147618,86
101118,196386,248252,1.3387842447,8.6751783363,-4.5882373355,87
101407,196436,248290,1.4297115034999999,8.769694829,-4.642075844,88
101682,196454,248307,1.3986048097,8.6476608764,-4.7066820542,89
101951,196519,248364,1.3938191645,8.841479506999999,-4.6815574169,90
101863,196517,248357,1.4428720278,8.7960158776,-4.6528435457,91
100911,196386,248234,1.4500504956,8.7792661194,-4.701896409,92
99437,196206,248153,1.4309079148000001,8.7158563205,-4.6277189084,93
98432,196026,248017,1.3974083984,8.833104627900001,-4.5595234643,94
97833,195927,247971,1.5517454561000001,8.8570328539,-4.677968183,95
97468,195877,247914,1.4344971487,8.8259261601,-4.701896409,96
97311,195810,247915,1.4201402131,8.721838377,-4.6456650779,97
97338,195855,247893,1.4368899712999998,8.926424709299999,-4.6564327796,98
97446,195859,247922,1.4333007374,8.8043907567,-4.654039957,99
97626,195872,247920,1.4392827939,8.7505522482,-4.6145583840999995,100
97749,195877,247949,1.4309079148000001,8.8546400313,-4.6325045536000005,101
97865,195890,247942,1.3686945272,8.695517328400001,-4.6588256022,102
98041,195929,247917,1.375872995,8.7158563205,-4.6707897152,103
98248,195932,248039,1.3866406967,8.7900338211,-4.5834516903,104
98497,195989,248027,1.4727823103,8.8139620471,-4.6049870937,105
98731,195985,248008,1.3698909385,8.8139620471,-4.6145583840999995,106
99019,196052,248078,1.3100703735,8.8833539025,-4.5738803999,107
99245,196121,248088,1.4285150922,8.7876409985,-4.705485642899999,108
99504,196136,248102,1.3998012210000002,8.9599242257,-4.6121655615,109
99781,196190,248115,1.3830514628000001,8.6967137397,-4.6468614892,110
100103,196221,248154,1.3950155758,8.8366938618,-4.671986126499999,111
100379,196245,248151,1.5110674719,8.7876409985,-4.7210389898,112
100680,196321,248201,1.4129617452999998,8.7373917239,-4.5379880609,113
100962,196341,248238,1.5397813431,8.7182491431,-4.5930229807,114
101235,196385,248257,1.3543375915999998,8.764909183799999,-4.5738803999,115
101513,196430,248278,1.3543375915999998,8.8881395477,-4.6025942711,116
101810,196496,248349,1.3962119871,8.7230347883,-4.5906301581,117
101957,196498,248319,1.5278172301,8.7912302324,-4.6707897152,118
101362,196424,248326,1.2861421475,8.7601235386,-4.6289153197,119
100039,196250,248123,1.4105689227,8.7589271273,-4.5858445129,120
98842,196098,248072,1.4141581566,8.6799639815,-4.7306102802,121
98136,195972,247993,1.3794622289,8.8570328539,-4.6468614892,122
97783,195916,247944,1.3579268255,8.6871424493,-4.6588256022,123
97589,195867,247959,1.3088739621999999,8.7158563205,-4.6803610056,124
97587,195864,247930,1.5278172301,8.8163548697,-4.6133619728,125
97764,195889,247963,1.2957134379000002,8.7840517646,-4.5870409242,126
97871,195891,247956,1.3423734786,8.8713897895,-4.6636112473999995,127
98059,195893,247917,1.4644074312,8.818747692299999,-4.6169512067000005,128
98188,195944,247950,1.3926227532000002,8.7864445872,-4.6492543118,129
98337,195973,248006,1.4895320685,8.7756768855,-4.6600220135,130
98592,195985,248043,1.459621786,8.7900338211,-4.5427737061,131
98839,196026,248086,1.4380863826,8.7541414821,-4.6133619728,132
99077,196048,248094,1.3734801723999999,8.9120677737,-4.7724846757,133
99355,196097,248071,1.3375878334,8.7864445872,-4.6707897152,134
99628,196111,248059,1.3423734786,8.829515394,-4.5535414078,135
99882,196179,248124,1.3663017045999999,8.8031943454,-4.6013978598,136
100188,196220,248185,1.328016543,8.9001036607,-4.5367916496,137
100495,196282,248180,1.4572289634,8.6823568041,-4.5834516903,138
100792,196302,248245,1.3316057769,8.7708912403,-4.6516471344,139
101105,196367,248254,1.4237294470000001,8.752945070800001,-4.618147618,140
101404,196404,248289,1.3351950108,8.8618184991,-4.5762732225,141
101689,196464,248312,1.2143574695,8.8510507974,-4.6289153197,142
101998,196532,248363,1.5385849318,8.7505522482,-4.6253260858,143
102294,196522,248376,1.4380863826,8.9766739839,-4.637290198800001,144
102467,196555,248430,1.4428720278,8.8917287816,-4.5726839886,145
101942,196499,248324,1.4344971487,8.8785682573,-4.6205404406,146
100714,196333,248243,1.3507483577,8.7553378934,-4.5427737061,147
99635,196209,248169,1.4931213024,8.833104627900001,-4.6253260858,148
99025,196111,248118,1.2813565023,8.805587167999999,-4.5750768112,149
98706,196051,248060,1.3232308977999998,8.9120677737,-4.6612184248,150
98583,196017,248028,1.3746765837,8.7864445872,-4.5619162869,151
98625,196018,248005,1.3830514628000001,8.9455672901,-4.5870409242,152
98749,196037,247998,1.3423734786,8.8390866844,-4.6205404406,153
98822,196028,248071,1.3399806559999998,8.774480474199999,-4.6791645943,154
98849,196053,248021,1.351944769,8.8689969669,-4.6911287073,155
98929,196081,248088,1.3483555351,8.8127656358,-4.5774696338,156
99041,196084,248060,1.3830514628000001,8.7661055951,-4.5762732225,157
99205,196131,248101,1.4045868662,8.7888374098,-4.6289153197,158
99370,196137,248113,1.375872995,8.9096749511,-4.6337009649,159
99532,196203,248074,1.3890335193,8.9587278144,-4.5547378191000005,160
99762,196190,248127,1.2825529136,8.641678819900001,-4.6325045536000005,161
99947,196217,248161,1.4321043261,8.8570328539,-4.713860522,162
100160,196223,248192,1.4069796888000001,8.8845503138,-4.5714875773,163
100426,196285,248222,1.3579268255,8.916853418899999,-4.6301117309999995,164
100655,196316,248239,1.4668002538,8.876175434699999,-4.5499521739,165
100890,196369,248250,1.4189438018,8.8151584584,-4.6193440293,166
101147,196405,248295,1.3663017045999999,8.8606220878,-4.6947179412,167
101417,196446,248316,1.4392827939,8.8235333375,-4.6109691502,168
101704,196478,248292,1.3160524299999998,8.8008015228,-4.5930229807,169
101796,196486,248331,1.3100703735,8.769694829,-4.5786660451,170
101137,196407,248261,1.4428720278,8.8666041443,-4.6803610056,171
99859,196260,248168,1.3136596074,8.829515394,-4.7186461672,172
98795,196060,248074,1.4512469069,8.7780697081,-4.6683968926,173
98188,195987,247966,1.3220344865,8.7768732968,-4.689932296,174
97856,195918,247988,1.3088739621999999,8.8151584584,-4.6301117309999995,175
97684,195887,247933,1.4249258583,8.7852481759,-4.7066820542,176
97735,195895,247895,1.4069796888000001,8.7673020064,-4.6851466508,177
97893,195923,247955,1.3914263419,8.757730716,-4.6133619728,178
98042,195900,247912,1.4213366244,8.8008015228,-4.6636112473999995,179
98133,195942,247991,1.4548361408000001,8.7553378934,-4.6564327796,180
98258,195957,247970,1.4811571894,8.720641965699999,-4.6923251185999995,181
98420,195974,248016,1.4309079148000001,8.7266240222,-4.6791645943,182
98653,195972,248031,1.483550012,8.8606220878,-4.6959143525,183
98893,195994,248039,1.4656038425,8.8343010392,-4.6875394734,184
99143,196030,248058,1.4309079148000001,8.8689969669,-4.5930229807,185
99373,196088,248065,1.411765334,8.7409809578,-4.6947179412,186
99648,196142,248108,1.4141581566,8.8438723296,-4.6109691502,187
99926,196144,248135,1.3543375915999998,8.8008015228,-4.606183505,188
100196,196190,248225,1.4488540843,8.7864445872,-4.7066820542,189
100494,196256,248193,1.483550012,8.8630149104,-4.609772738899999,190
100784,196306,248238,1.4392827939,8.7840517646,-4.7186461672,191
101081,196337,248276,1.3902299306,8.805587167999999,-4.6025942711,192
101373,196376,248259,1.3663017045999999,8.8271225714,-4.5906301581,193
101637,196438,248295,1.3316057769,8.805587167999999,-4.713860522,194
101896,196485,248329,1.3375878334,8.8570328539,-4.6516471344,195
102187,196501,248381,1.3794622289,8.739784546500001,-4.6384866101,196
101957,196489,248341,1.4703894876999999,8.7409809578,-4.7282174576000005,197
100864,196342,248252,1.3830514628000001,8.7409809578,-4.6731825378,198
99544,196197,248100,1.3854442854000002,8.769694829,-4.677968183,199
98640,196038,248069,1.3926227532000002,8.9240318867,-4.5762732225,200
98121,195941,248007,1.3782658175999998,8.7732840629,-4.7090748768,201
97801,195882,247921,1.3387842447,8.7601235386,-4.6169512067000005,202
97699,195887,247946,1.3148560187,8.7026957962,-4.6516471344,203
97807,195888,247925,1.3495519463999999,8.752945070800001,-4.6492543118,204
97960,195893,247942,1.3842478741,8.717052731799999,-4.6516471344,205
98084,195910,247973,1.2705888006,8.781658942,-4.6301117309999995,206
98185,195900,248011,1.4093725114000002,8.7756768855,-4.6683968926,207
98323,195901,247976,1.3208380752,8.748159425599999,-4.713860522,208
98469,195968,247966,1.4225330357,8.7912302324,-4.5810588676999995,209
98761,195976,248044,1.4021940436,8.781658942,-4.654039957,210
98989,196017,248024,1.4309079148000001,8.8271225714,-4.5415772948,211
99219,196047,248037,1.3112667848,8.7445701917,-4.6133619728,212
99469,196088,248084,1.3435698899,8.7960158776,-4.6660040700000005,213
99740,196135,248082,1.4464612617,8.819944103600001,-4.6707897152,214
100006,196099,248144,1.375872995,8.764909183799999,-4.6301117309999995,215
100305,196220,248145,1.4727823103,8.9001036607,-4.6360937875,216
100605,196254,248159,1.3160524299999998,8.7314096674,-4.654039957,217
100899,196292,248191,1.3890335193,8.774480474199999,-4.6492543118,218
101239,196368,248282,1.3447663012,8.8809610799,-4.6037906824000006,219
101524,196418,248258,1.3447663012,8.8606220878,-4.7078784655,220
101816,196481,248296,1.5038890041,8.9288175319,-4.6337009649,221
102126,196465,248314,1.387837108,8.8510507974,-4.6564327796,222
102399,196521,248352,1.304088317,8.8390866844,-4.7066820542,223
102275,196520,248341,1.3651052933,8.764909183799999,-4.654039957,224
101276,196375,248251,1.4141581566,8.7625163612,-4.677968183,225
99967,196192,248172,1.4380863826,8.793623055,-4.5619162869,226
99083,196067,248077,1.4057832774999999,8.8235333375,-4.654039957,227
98544,195994,248007,1.43569356,8.7637127725,-4.6612184248,228
98345,195956,247983,1.3986048097,8.781658942,-4.6348973762,229
98278,195927,248020,1.5134602944999997,8.6775711589,-4.654039957,230
98393,196003,247992,1.375872995,8.8953180155,-4.5930229807,231
98542,195969,247995,1.2957134379000002,8.8917287816,-4.5918265694,232
98691,195970,247990,1.328016543,8.7122670866,-4.6516471344,233
98751,195973,248007,1.4907284798,8.876175434699999,-4.547559351299999,234
98963,196003,248044,1.3842478741,8.828318982699999,-4.754538506199999,235
99159,196042,248044,1.3028919057000001,8.829515394,-4.6121655615,236
99357,196131,248064,1.5218351736,8.7385881352,-4.6002014485,237
99617,196109,248121,1.3890335193,8.7720876516,-4.6121655615,238
99847,196158,248128,1.3339985995,8.8713897895,-4.6971107638,239
100071,196076,248150,1.3411770673,8.8079799906,-4.606183505,240
100338,196216,248193,1.3950155758,8.7864445872,-4.6085763276,241
100624,196270,248214,1.4333007374,8.7302132561,-4.5678983434,242
100880,196314,248245,1.244267752,8.8809610799,-4.6528435457,243
101157,196353,248193,1.3806586402,8.7290168448,-4.547559351299999,244
101444,196385,248306,1.4344971487,8.8486579748,-4.5834516903,245
101713,196484,248249,1.3304093655999998,8.819944103600001,-4.654039957,246
101967,196467,248296,1.3543375915999998,8.8235333375,-4.642075844,247
102196,196508,248320,1.4608181972999998,8.7960158776,-4.677968183,248
102387,196531,248370,1.5302100526999998,8.8127656358,-4.5260239479,249
102096,196513,248388,1.3710873497999998,8.8666041443,-4.6037906824000006,250
101017,196341,248270,1.3591232368,8.8881395477,-4.6731825378,251
99793,196231,248149,1.3112667848,8.7984087002,-4.6277189084,252
99031,196113,248082,1.3830514628000001,8.7026957962,-4.6755753604,253
98627,196033,248039,1.3220344865,8.8402830957,-4.5906301581,254
98428,195980,248022,1.2849457361999999,8.7278204335,-4.6935215299,255
98438,195984,247979,1.4177473905,8.7984087002,-4.6755753604,256
98556,195972,247965,1.4464612617,8.7720876516,-4.6193440293,257
98651,196003,248045,1.4105689227,8.8366938618,-4.5846481016,258
98719,195928,248022,1.2681959779999998,8.7517486595,-4.5882373355,259
98801,196010,248028,1.3806586402,8.8091764019,-4.6313081423,260
98953,196024,248026,1.3244273091,8.7912302324,-4.6205404406,261
99149,196075,248027,1.2586246876,8.748159425599999,-4.618147618,262
99385,196055,248067,1.3663017045999999,8.885746725099999,-4.677968183,263
99620,196145,248077,1.2765708571,8.7326060787,-4.5954158033,264
99839,196191,248113,1.3639088819999998,8.828318982699999,-4.6360937875,265
100065,196197,248116,1.411765334,8.793623055,-4.6971107638,266
100337,196219,248165,1.4416756165,8.8343010392,-4.6803610056,267
100599,196286,248152,1.5649059803999998,8.774480474199999,-4.6995035864000005,268
100874,196240,248234,1.3627124707,8.7984087002,-4.6253260858,269
101159,196335,248244,1.4428720278,8.8235333375,-4.582255279,270
101434,196392,248304,1.5218351736,8.805587167999999,-4.7700918531,271
101717,196456,248294,1.3375878334,8.717052731799999,-4.6564327796,272
102003,196506,248320,1.3387842447,8.7505522482,-4.6576291909,273
102206,196478,248325,1.3375878334,8.7948194663,-4.6468614892,274
101841,196475,248296,1.4249258583,8.7541414821,-4.6325045536000005,275
100689,196306,248231,1.351944769,8.889335959,-4.5882373355,276
99436,196127,248055,1.3292129543,8.769694829,-4.6851466508,277
98602,196030,247983,1.3962119871,8.8271225714,-4.6384866101,278
98132,195941,247923,1.4069796888000001,8.8091764019,-4.594219392,279
97842,195875,247922,1.507478238,8.8570328539,-4.6923251185999995,280
97759,195850,247899,1.4488540843,8.8666041443,-4.5858445129,281
97860,195842,247857,1.3028919057000001,8.872586200799999,-4.618147618,282
97946,195895,247928,1.4392827939,8.7122670866,-4.6444686666,283
98114,195887,247986,1.4799607781,8.7960158776,-4.689932296,284
98222,195895,247930,1.3316057769,8.8151584584,-4.6923251185999995,285
98345,195911,247951,1.3854442854000002,8.8259261601,-4.609772738899999,286
98543,195956,247958,1.5038890041,8.872586200799999,-4.6959143525,287
98751,195976,247996,1.5337992866,8.831908216599999,-4.6947179412,288
98990,196016,248020,1.387837108,8.8235333375,-4.7258246349999995,289
99238,196032,248010,1.3639088819999998,8.774480474199999,-4.6313081423,290
99480,196085,248053,1.3639088819999998,8.7517486595,-4.6672004813,291
99745,196118,248075,1.375872995,8.829515394,-4.5260239479,292
100030,196162,248100,1.4021940436,8.7505522482,-4.5966122146,293
100312,196206,248149,1.4392827939,8.8558364426,-4.6025942711,294
100606,196222,248137,1.4392827939,8.833104627900001,-4.609772738899999,295
100897,196310,248227,1.4201402131,8.7409809578,-4.6636112473999995,296
101159,196353,248207,1.351944769,8.7637127725,-4.6827538282,297
101442,196375,248240,1.3663017045999999,8.7661055951,-4.6444686666,298
101736,196447,248248,1.4165509792000002,8.85344362,-4.7318066915,299
101990,196471,248299,1.4859428346,8.7840517646,-4.6444686666,300
101671,196418,248321,1.4333007374,8.8881395477,-4.6396830214,301
100552,196246,248187,1.3950155758,8.7326060787,-4.6731825378,302
99259,196105,248022,1.4368899712999998,8.8917287816,-4.654039957,303
98401,195969,247970,1.3663017045999999,8.7912302324,-4.6325045536000005,304
97918,195866,247893,1.3100703735,8.8031943454,-4.6767717716999995,305
97575,195817,247919,1.5278172301,8.6560357555,-4.5523449965,306
97550,195796,247914,1.4213366244,8.8582292652,-4.6516471344,307
97663,195821,247863,1.4572289634,8.805587167999999,-4.5619162869,308
97812,195859,247935,1.5984054967999999,8.7625163612,-4.6612184248,309
97932,195857,247862,1.4404792052000002,8.6596249894,-4.7042892316,310
98048,195877,247913,1.3304093655999998,8.8582292652,-4.677968183,311
98184,195889,247972,1.4177473905,8.8402830957,-4.6289153197,312
98403,195907,247922,1.3411770673,8.8666041443,-4.6564327796,313
98644,195943,247961,1.3986048097,8.7673020064,-4.5619162869,314
98882,195969,248059,1.3351950108,8.7326060787,-4.6157547954,315
99125,196016,248039,1.3603196481,8.8378902731,-4.5619162869,316
99389,196066,248041,1.3938191645,8.748159425599999,-4.7210389898,317
99655,196097,248035,1.3160524299999998,8.7984087002,-4.5978086259,318
99933,196150,248097,1.3998012210000002,8.7505522482,-4.7114676994,319
100241,196189,248174,1.3016954943999999,8.6679998685,-4.5595234643,320
100552,196228,248152,1.4045868662,8.8354974505,-4.6396830214,321
100825,196261,248174,1.2263215825,8.7960158776,-4.6289153197,322
101143,196323,248219,1.3351950108,8.7828553533,-4.5930229807,323
101469,196341,248211,1.4201402131,8.8019979341,-4.5499521739,324
101747,196416,248245,1.3567304141999998,8.8522472087,-4.7186461672,325
101662,196393,248246,1.3591232368,8.697910151,-4.547559351299999,326
100743,196286,248163,1.4177473905,8.7792661194,-4.6217368519,327
99446,196099,248040,1.3543375915999998,8.889335959,-4.5690947547,328
98600,195990,248001,1.4225330357,8.8343010392,-4.6301117309999995,329
98177,195821,247920,1.4823536007,8.7804625307,-4.6396830214,330
97946,195885,247831,1.304088317,8.8235333375,-4.5966122146,331
97902,195815,247873,1.3016954943999999,8.8809610799,-4.6073799163,332
98051,195875,247910,1.3531411803,8.764909183799999,-4.6277189084,333
98235,195916,247919,1.4368899712999998,8.7314096674,-4.6013978598,334
98389,195890,247946,1.3806586402,8.7804625307,-4.6851466508,335
98529,195956,247951,1.2669995667,8.73380249,-4.5834516903,336
98704,195967,248008,1.4129617452999998,8.7984087002,-4.677968183,337
98903,195991,247982,1.2921242039999998,8.7625163612,-4.6348973762,338
99104,196031,247997,1.4237294470000001,8.8390866844,-4.7066820542,339
99329,196022,248019,1.4153545679,8.8343010392,-4.642075844,340
99580,196051,248035,1.3854442854000002,8.7361953126,-4.5870409242,341
99828,196138,248106,1.3375878334,8.7864445872,-4.6157547954,342
100093,196136,248068,1.3351950108,8.6751783363,-4.7030928203,343
100341,196212,248123,1.4775679554999999,8.8307118053,-4.5523449965,344
100600,196244,248133,1.4021940436,8.8031943454,-4.6492543118,345
100885,196276,248159,1.4488540843,8.8450687409,-4.6133619728,346
101088,196349,248169,1.3435698899,8.774480474199999,-4.7234318124,347
101313,196352,248191,1.4153545679,8.8115692245,-4.6827538282,348
101563,196401,248285,1.4416756165,8.7684984177,-4.6803610056,349
101641,196389,248219,1.483550012,8.9096749511,-4.6444686666,350
101050,196336,248225,1.3770694063,8.8378902731,-4.5643091095,351
99831,196160,248099,1.4536397294999999,8.8666041443,-4.6253260858,352
98767,196009,248030,1.3806586402,8.717052731799999,-4.6504507231,353
98150,195928,247927,1.3818550514999999,8.7768732968,-4.6133619728,354
97844,195895,247908,1.4416756165,8.7792661194,-4.5631126982,355
97743,195857,247897,1.4141581566,8.8426759183,-4.5762732225,356
97822,195859,247929,1.3722837611,8.8151584584,-4.6348973762,357
97963,195847,247909,1.3806586402,8.8701933782,-4.6205404406,358
98020,195869,247852,1.4344971487,8.7876409985,-4.5870409242,359
98135,195841,247908,1.256231865,8.7792661194,-4.5571306417,360
98276,195915,247946,1.4285150922,8.7194455544,-4.642075844,361
98457,195927,247962,1.3627124707,8.8354974505,-4.6348973762,362
98694,195958,247941,1.4344971487,8.8929251929,-4.6109691502,363
98919,195983,247998,1.4009976323,8.8115692245,-4.6301117309999995,364
99146,196050,247977,1.4727823103,8.7637127725,-4.5906301581,365
99374,196060,248028,1.5445669883000002,8.781658942,-4.689932296,366
99618,196087,248043,1.3555340029,8.7888374098,-4.6731825378,367
99840,196136,248095,1.3986048097,8.8079799906,-4.705485642899999,368
100137,196185,248100,1.4476576730000001,8.918049830200001,-4.6025942711,369
100420,196223,248118,1.2669995667,8.8474615635,-4.5595234643,370
100690,196288,248153,1.3184452526,8.6919280945,-4.6660040700000005,371
101005,196315,248166,1.3914263419,8.709874264,-4.6037906824000006,372
101251,196336,248181,1.3974083984,8.9503529353,-4.6384866101,373
101369,196364,248225,1.4476576730000001,8.7409809578,-4.701896409,374
100773,196278,248157,1.3926227532000002,8.695517328400001,-4.5571306417,375
99497,196126,248058,1.3734801723999999,8.828318982699999,-4.6133619728,376
98357,195972,247942,1.3998012210000002,8.8426759183,-4.6731825378,377
97690,195795,247897,1.4464612617,8.8809610799,-4.6707897152,378
97303,195781,247872,1.4333007374,8.828318982699999,-4.6707897152,379
97070,195747,247808,1.4632110199,8.7254276109,-4.6109691502,380
97074,195736,247781,1.4584253747,8.7122670866,-4.7246282237,381
97273,195743,247824,1.3890335193,8.8749790234,-4.6384866101,382
97405,195730,247818,1.4656038425,8.7541414821,-4.609772738899999,383
97531,195796,247889,1.3842478741,8.7661055951,-4.5834516903,384
97646,195779,247841,1.3986048097,8.7661055951,-4.6133619728,385
97833,195830,247845,1.2885349701,8.8115692245,-4.6360937875,386
98025,195862,247921,1.4285150922,8.831908216599999,-4.6564327796,387
98270,195860,247928,1.4177473905,8.85344362,-4.5906301581,388
98508,195896,247954,1.3746765837,8.7062850301,-4.7330031028,389
98739,195934,248000,1.4656038425,8.818747692299999,-4.6492543118,390
99017,195983,247963,1.5266208188,8.7110706753,-4.5930229807,391
99263,196017,248014,1.4273186809,8.685946038,-4.6073799163,392
99545,196073,248039,1.4488540843,8.8259261601,-4.7114676994,393
99848,196103,248042,1.4093725114000002,8.8008015228,-4.5834516903,394
100131,196169,248115,1.4249258583,8.654839344200001,-4.6157547954,395
100420,196230,248118,1.4608181972999998,8.9336031771,-4.6875394734,396
100708,196231,248153,1.3351950108,8.859425676499999,-4.5798624564,397
100993,196287,248174,1.4871392459,8.8031943454,-4.713860522,398
101184,196303,248203,1.4201402131,8.6775711589,-4.642075844,399
100733,196281,248154,1.4261222696,8.8247297488,-4.6313081423,400
99547,196148,248055,1.3734801723999999,8.7146599092,-4.6444686666,401
98382,195957,247960,1.4943177136999999,8.6476608764,-4.6588256022,402
97650,195846,247950,1.2729816232,8.829515394,-4.6229332632,403
97256,195747,247829,1.5278172301,8.8785682573,-4.6636112473999995,404
97013,195721,247783,1.4141581566,8.8103728132,-4.677968183,405
97011,195712,247830,1.4261222696,8.7110706753,-4.701896409,406
97199,195691,247799,1.4165509792000002,8.6727855137,-4.6743789491,407
97346,195749,247821,1.4021940436,8.8043907567,-4.6301117309999995,408
97502,195773,247845,1.4668002538,8.7266240222,-4.6157547954,409
97628,195771,247854,1.3232308977999998,8.7792661194,-4.643272255299999,410
97808,195818,247922,1.2119646469,8.7888374098,-4.6241296745,411
98028,195855,247932,1.3998012210000002,8.774480474199999,-4.6851466508,412
98276,195879,247914,1.4368899712999998,8.7888374098,-4.6301117309999995,413
98524,195917,247929,1.4189438018,8.641678819900001,-4.6277189084,414
98765,195940,247976,1.4249258583,8.8426759183,-4.6971107638,415
99039,196010,247985,1.5182459396999999,8.805587167999999,-4.6360937875,416
99299,196015,248068,1.4237294470000001,8.7565343047,-4.6612184248,417
99588,196040,248065,1.4440684390999998,8.8510507974,-4.6827538282,418
99871,196115,248118,1.3292129543,8.7290168448,-4.6169512067000005,419
100169,196139,248153,1.5397813431,8.7792661194,-4.6253260858,420
100450,196196,248141,1.3806586402,8.781658942,-4.689932296,421
100747,196243,248172,1.3890335193,8.9276211206,-4.7090748768,422
101046,196309,248226,1.4321043261,8.8438723296,-4.6109691502,423
101320,196304,248183,1.3292129543,8.7254276109,-4.594219392,424
101180,196302,248180,1.2669995667,8.8689969669,-4.5978086259,425
100199,196200,248125,1.4931213024,8.8127656358,-4.6683968926,426
98952,196014,248012,1.4129617452999998,8.8079799906,-4.6325045536000005,427
98157,195913,247976,1.3160524299999998,8.793623055,-4.654039957,428
97696,195809,247909,1.5086746492999998,8.8618184991,-4.6277189084,429
97441,195696,247851,1.4344971487,8.8366938618,-4.5643091095,430
97372,195771,247848,1.4452648504,8.7421773691,-4.6707897152,431
97533,195768,247827,1.4991033588999998,8.7996051115,-4.5930229807,432
97737,195836,247864,1.3674981159,8.7828553533,-4.6564327796,433
97865,195802,247902,1.3663017045999999,8.8833539025,-4.6959143525,434
98008,195847,247937,1.3974083984,8.877371846,-4.6085763276,435
98180,195883,247904,1.3615160593999998,8.7852481759,-4.5499521739,436
98388,195879,247968,1.3136596074,8.8139620471,-4.6564327796,437
98623,195911,247959,1.4500504956,8.885746725099999,-4.705485642899999,438
98870,195932,247972,1.3854442854000002,8.685946038,-4.654039957,439
99108,196000,248038,1.3292129543,8.7553378934,-4.6073799163,440
99409,196063,248062,1.2921242039999998,8.8977108381,-4.6085763276,441
99681,196092,248111,1.4416756165,8.7661055951,-4.5631126982,442
99977,196121,248084,1.4333007374,8.829515394,-4.6755753604,443
100281,196194,248166,1.4249258583,8.721838377,-4.6516471344,444
100601,196222,248150,1.5326028753,8.8127656358,-4.5212383027000005,445
100877,196283,248176,1.4213366244,8.8354974505,-4.6564327796,446
101194,196345,248223,1.4644074312,8.673981925,-4.5726839886,447
101493,196379,248230,1.3459627125,8.7421773691,-4.6013978598,448
101781,196418,248247,1.3902299306,8.7720876516,-4.6301117309999995,449
101824,196441,248283,1.3256237203999999,8.8031943454,-4.6983071751,450
101086,196301,248246,1.3375878334,8.877371846,-4.6301117309999995,451
99878,196185,248148,1.3100703735,8.831908216599999,-4.5834516903,452
99009,196076,248056,1.3507483577,8.8307118053,-4.6588256022,453
98546,195992,248021,1.3232308977999998,8.8008015228,-4.5990050372,454
98334,195941,247972,1.2825529136,8.9766739839,-4.642075844,455
98278,195938,247936,1.4608181972999998,8.748159425599999,-4.6396830214,456
98437,195950,247982,1.3615160593999998,8.8689969669,-4.5140598349,457
98640,195945,248015,1.4069796888000001,8.8546400313,-4.6229332632,458
98694,195968,247993,1.3471591237999998,8.7888374098,-4.6755753604,459
98771,195992,248052,1.3328021881999998,8.8522472087,-4.6707897152,460
98888,195909,248046,1.4572289634,8.805587167999999,-4.6229332632,461
99076,196017,248048,1.3818550514999999,8.9072821285,-4.6827538282,462
99218,196026,248082,1.5026925928000001,8.818747692299999,-4.6193440293,463
99373,196063,248081,1.4069796888000001,8.841479506999999,-4.6971107638,464
99556,196111,248075,1.4632110199,8.752945070800001,-4.6875394734,465
99740,196124,248074,1.4727823103,8.877371846,-4.5678983434,466
99942,196147,248124,1.4847464232999998,8.7720876516,-4.7102712880999995,467
100140,196201,248100,1.3854442854000002,8.8211405149,-4.6755753604,468
100373,196232,248135,1.387837108,8.864211321700001,-4.6145583840999995,469
100602,196263,248185,1.3208380752,8.8785682573,-4.6564327796,470
100824,196283,248200,1.4572289634,8.9144605963,-4.6325045536000005,471
101082,196356,248221,1.4500504956,8.8713897895,-4.6277189084,472
101252,196338,248222,1.3734801723999999,8.9048893059,-4.6612184248,473
100838,196328,248231,1.3004990831,8.8378902731,-4.6995035864000005,474
99756,196179,248121,1.4548361408000001,8.8211405149,-4.6923251185999995,475
98647,196007,248027,1.3064811396,8.6763747476,-4.5978086259,476
97966,195906,247957,1.3339985995,8.8307118053,-4.6755753604,477
97605,195860,247923,1.5864413838,8.9240318867,-4.637290198800001,478
97417,195804,247889,1.3902299306,8.8366938618,-4.6827538282,479
97441,195790,247885,1.5326028753,8.7182491431,-4.6289153197,480
97631,195799,247867,1.4943177136999999,8.829515394,-4.606183505,481
97771,195827,247914,1.531406464,8.7984087002,-4.6731825378,482
97910,195830,247883,1.4165509792000002,8.7409809578,-4.6971107638,483
98051,195863,247936,1.4285150922,8.8402830957,-4.6492543118,484
98243,195931,247900,1.3686945272,8.6440716425,-4.5798624564,485
98450,195906,248002,1.4943177136999999,8.7409809578,-4.6289153197,486
98706,195945,248002,1.2777672683999999,8.8426759183,-4.701896409,487
98954,196043,248032,1.5158531170999998,8.757730716,-4.547559351299999,488
99177,196026,248080,1.4536397294999999,8.817551281,-4.6301117309999995,489
99434,196071,248063,1.4045868662,8.7050886188,-4.6875394734,490
99698,196163,248100,1.4584253747,8.7960158776,-4.6337009649,491
99981,196165,248138,1.4811571894,8.8929251929,-4.5978086259,492
100273,196184,248170,1.5696916256,8.8582292652,-4.6229332632,493
100574,196226,248223,1.3938191645,8.889335959,-4.6169512067000005,494
100887,196294,248211,1.4871392459,8.7158563205,-4.6923251185999995,495
101148,196365,248245,1.4021940436,8.774480474199999,-4.7294138689,496
101454,196383,248206,1.5397813431,8.85344362,-4.689932296,497
101720,196389,248310,1.3974083984,8.8079799906,-4.6827538282,498
101862,196433,248331,1.3543375915999998,8.7768732968,-4.5738803999,499
101263,196301,248270,1.3447663012,8.73380249,-4.6073799163,500
99943,196170,248161,1.4416756165,8.7385881352,-4.7581277401,501
98765,196020,248043,1.3232308977999998,8.7840517646,-4.6588256022,502
97992,195888,247959,1.4632110199,8.681160392799999,-4.5882373355,503
97612,195847,247911,1.4225330357,8.8378902731,-4.618147618,504
97338,195765,247920,1.4153545679,8.745766603,-4.6947179412,505
97304,195784,247878,1.2358928729,8.708677852700001,-4.6277189084,506
97462,195771,247902,1.3698909385,8.7373917239,-4.7090748768,507
97644,195793,247872,1.3998012210000002,8.8079799906,-4.6731825378,508
97762,195812,247901,1.2598210989,8.7924266437,-4.6025942711,509
97889,195825,247905,1.4452648504,8.781658942,-4.7449672158,510
98042,195835,247979,1.4404792052000002,8.7673020064,-4.6624148361,511
98233,195894,247908,1.328016543,8.6763747476,-4.643272255299999,512
98474,195936,247985,1.4273186809,8.7792661194,-4.6013978598,513
98698,195943,247938,1.4309079148000001,8.7601235386,-4.654039957,514
98950,196012,248014,1.4644074312,8.6919280945,-4.618147618,515
99238,196019,248042,1.3902299306,8.8366938618,-4.618147618,516
99507,196055,248085,1.4524433182,8.8115692245,-4.7306102802,517
99765,196128,248112,1.3172488413,8.8881395477,-4.6217368519,518
100066,196165,248101,1.3974083984,8.7792661194,-4.6660040700000005,519
100358,196186,248146,1.4249258583,8.6907316832,-4.6037906824000006,520
100649,196262,248156,1.4883356572,8.6668034572,-4.6588256022,521
100930,196319,248200,1.3351950108,8.7003029736,-4.7114676994,522
101214,196329,248249,1.3603196481,8.8259261601,-4.6109691502,523
101504,196373,248278,1.3459627125,8.9048893059,-4.7306102802,524
101742,196435,248264,1.3854442854000002,8.8474615635,-4.6492543118,525
101336,196368,248250,1.3663017045999999,8.7601235386,-4.6707897152,526
100168,196220,248173,1.3447663012,8.7864445872,-4.6516471344,527
98943,196051,248041,1.351944769,8.817551281,-4.5595234643,528
98168,195924,247999,1.4380863826,8.8043907567,-4.689932296,529
97740,195858,247968,1.4309079148000001,8.7673020064,-4.754538506199999,530
97471,195816,247859,1.4105689227,8.7732840629,-4.6301117309999995,531
97416,195787,247846,1.5182459396999999,8.7373917239,-4.5798624564,532
97573,195798,247935,1.4428720278,8.8211405149,-4.6229332632,533
97747,195792,247900,1.4727823103,8.748159425599999,-4.6935215299,534
97874,195824,247928,1.3196416639,8.685946038,-4.5990050372,535
98013,195880,247993,1.375872995,8.6751783363,-4.6492543118,536
98189,195875,247935,1.3375878334,8.8438723296,-4.6456650779,537
98371,195920,247945,1.3304093655999998,8.9383888223,-4.6301117309999995,538
98613,195914,248026,1.3304093655999998,8.6213398278,-4.6851466508,539
98830,195973,247983,1.3686945272,8.8091764019,-4.6947179412,540
99023,196018,248014,1.4608181972999998,8.7122670866,-4.6133619728,541
99337,196066,248051,1.43569356,8.748159425599999,-4.6923251185999995,542
99611,196074,248049,1.3615160593999998,8.8151584584,-4.6731825378,543
99880,196144,248110,1.3651052933,8.831908216599999,-4.6277189084,544
100126,196200,248146,1.5086746492999998,8.7433737804,-4.6767717716999995,545
100450,196207,248201,1.4823536007,8.8809610799,-4.5451665287,546
100723,196249,248216,1.4991033588999998,8.8103728132,-4.6444686666,547
100985,196289,248199,1.3974083984,8.8510507974,-4.5870409242,548
101287,196364,248230,1.3124631961,8.793623055,-4.643272255299999,549
101562,196385,248273,1.3160524299999998,8.8546400313,-4.5762732225,550
101473,196378,248320,1.3615160593999998,8.7026957962,-4.6660040700000005,551
100556,196264,248213,1.4416756165,8.8905323703,-4.6121655615,552
99268,196096,248091,1.4009976323,8.7266240222,-4.582255279,553
98398,195978,248000,1.4512469069,8.7984087002,-4.6636112473999995,554
97927,195880,247960,1.2574282763000002,8.8127656358,-4.6971107638,555
97649,195853,247896,1.4201402131,8.6907316832,-4.7090748768,556
97578,195808,247899,1.3974083984,8.7888374098,-4.547559351299999,557
97722,195887,247944,1.3914263419,8.8785682573,-4.6767717716999995,558
97905,195836,247894,1.4285150922,8.7768732968,-4.618147618,559
98059,195858,247908,1.220339526,8.7888374098,-4.6253260858,560
98186,195891,247967,1.2945170266,8.7242311996,-4.6408794327,561
98356,195906,247974,1.3710873497999998,8.7026957962,-4.5870409242,562
98581,195946,248004,1.5002997702,8.7553378934,-4.6636112473999995,563
98829,195985,248011,1.3256237203999999,8.8354974505,-4.594219392,564
99081,196043,248054,1.3866406967,8.9001036607,-4.6636112473999995,565
99336,196045,248065,1.3866406967,8.805587167999999,-4.5918265694,566
99605,196104,248045,1.3782658175999998,8.841479506999999,-4.4829531411,567
99891,196123,248084,1.3208380752,8.7625163612,-4.6624148361,568
100182,196172,248136,1.3782658175999998,8.7912302324,-4.5870409242,569
100493,196212,248133,1.2346964616,8.7266240222,-4.637290198800001,570
100828,196268,248191,1.2897313814,8.8606220878,-4.6444686666,571
101119,196328,248206,1.2610175101999999,8.7804625307,-4.6516471344,572
101416,196347,248227,1.411765334,8.7661055951,-4.6492543118,573
101724,196415,248314,1.4847464232999998,8.7625163612,-4.6193440293,574
102046,196480,248249,1.3471591237999998,8.749355836900001,-4.6995035864000005,575
102312,196504,248325,1.4141581566,8.819944103600001,-4.5738803999,576
102020,196434,248305,1.2669995667,8.841479506999999,-4.6516471344,577
100943,196306,248232,1.5349956979000001,8.831908216599999,-4.6313081423,578
99822,196189,248089,1.3112667848,8.9671026935,-4.6037906824000006,579
99130,196040,248085,1.3854442854000002,8.8701933782,-4.7030928203,580
98782,195989,248007,1.3483555351,8.8450687409,-4.5631126982,581
98622,195974,247966,1.4297115034999999,8.7876409985,-4.6253260858,582
98673,195996,248012,1.4823536007,8.8378902731,-4.5655055207999995,583
98861,196031,247987,1.3663017045999999,8.7541414821,-4.5786660451,584
99001,196018,247977,1.3124631961,8.793623055,-4.6277189084,585
99107,196012,248020,1.4536397294999999,8.752945070800001,-4.6947179412,586
99219,196064,248015,1.3423734786,8.7409809578,-4.6731825378,587
99410,196087,248066,1.2167502921,8.8869431364,-4.5690947547,588
99588,196112,248085,1.3064811396,8.6835532154,-4.5774696338,589
99770,196151,248100,1.3710873497999998,8.6464644651,-4.6588256022,590
99944,196167,248069,1.4380863826,8.73380249,-4.5786660451,591
100121,196183,248147,1.3950155758,8.806783579300001,-4.5798624564,592
100308,196262,248169,1.3088739621999999,8.7780697081,-4.6516471344,593
100521,196251,248169,1.3363914221,8.829515394,-4.6971107638,594
100708,196276,248159,1.4644074312,8.8426759183,-4.6145583840999995,595
100865,196328,248201,1.3244273091,8.8103728132,-4.654039957,596
101136,196351,248208,1.4656038425,8.748159425599999,-4.589433746799999,597
101357,196379,248233,1.3579268255,8.8498543861,-4.6085763276,598
101574,196421,248268,1.3950155758,8.8450687409,-4.6707897152,599
101711,196427,248302,1.4632110199,8.9001036607,-4.6085763276,600
101167,196353,248213,1.2251251712,8.6727855137,-4.5786660451,601
100008,196195,248143,1.4524433182,8.831908216599999,-4.654039957,602
98918,196069,248049,1.3124631961,8.7003029736,-4.5762732225,603
98297,196001,248000,1.4189438018,8.748159425599999,-4.6851466508,604
97991,195905,247955,1.2705888006,8.764909183799999,-4.6576291909,605
97821,195918,247921,1.3950155758,8.6572321668,-4.7042892316,606
97912,195887,247921,1.351944769,8.8474615635,-4.7294138689,607
98078,195919,247947,1.4871392459,8.7888374098,-4.6444686666,608
98189,195929,247958,1.43569356,8.829515394,-4.7102712880999995,609
98313,195934,247957,1.4656038425,8.7673020064,-4.6851466508,610
98456,195946,247961,1.4440684390999998,8.7505522482,-4.6516471344,611
98648,195977,247974,1.4584253747,8.7445701917,-4.6516471344,612
98887,196019,248049,1.4823536007,8.8809610799,-4.6612184248,613
99133,196046,248006,1.4153545679,8.6691962798,-4.5511485852,614
99382,196098,248012,1.304088317,8.695517328400001,-4.6217368519,615
99636,196100,248059,1.4464612617,8.8366938618,-4.618147618,616
99904,196056,248036,1.3184452526,8.745766603,-4.6683968926,617
100204,196209,248132,1.3806586402,8.8247297488,-4.5810588676999995,618
100464,196215,248162,1.4895320685,8.9120677737,-4.5906301581,619
100784,196300,248182,1.3663017045999999,8.7684984177,-4.7102712880999995,620
101079,196296,248168,1.3926227532000002,8.6931245058,-4.7234318124,621
101357,196347,248234,1.387837108,8.877371846,-4.6660040700000005,622
101653,196395,248284,1.3686945272,8.7505522482,-4.6480579005,623
101870,196452,248267,1.2574282763000002,8.8833539025,-4.6516471344,624
101461,196389,248249,1.4775679554999999,8.764909183799999,-4.560719875599999,625
100327,196236,248129,1.3926227532000002,8.757730716,-4.7437708044999995,626
99084,196062,248046,1.3459627125,8.6991065623,-4.6002014485,627
98306,195945,247966,1.2993026717999998,8.7864445872,-4.7114676994,628
97878,195854,247912,1.3471591237999998,8.8354974505,-4.701896409,629
97572,195803,247892,1.3651052933,8.7792661194,-4.6325045536000005,630
97498,195792,247822,1.5170495284,8.819944103600001,-4.6468614892,631
97649,195789,247840,1.4907284798,8.8008015228,-4.6731825378,632
97807,195820,247884,1.3830514628000001,8.8869431364,-4.6396830214,633
97922,195815,247882,1.5696916256,8.7912302324,-4.6863430621,634
98036,195823,247828,1.4201402131,8.7708912403,-4.6085763276,635
98191,195859,247927,1.3782658175999998,8.748159425599999,-4.6325045536000005,636
98400,195903,247941,1.43569356,8.8450687409,-4.6145583840999995,637
98619,195926,247942,1.3304093655999998,8.7014993849,-4.6947179412,638
98851,195958,247975,1.3974083984,8.8307118053,-4.6516471344,639
99110,196009,247993,1.4368899712999998,8.7601235386,-4.6863430621,640
99383,196042,248016,1.3914263419,8.8139620471,-4.6492543118,641
99651,196078,248044,1.5086746492999998,8.8247297488,-4.7330031028,642
99925,196100,248048,1.3339985995,8.7756768855,-4.6348973762,643
100236,196173,248106,1.2933206153,8.8235333375,-4.5355952383,644
100541,196220,248119,1.4392827939,8.7314096674,-4.6851466508,645
100834,196260,248176,1.3531411803,8.7541414821,-4.5978086259,646
101128,196293,248209,1.4560325521,8.709874264,-4.6456650779,647
101390,196335,248214,1.4895320685,8.7661055951,-4.713860522,648
101294,196322,248197,1.3674981159,8.7266240222,-4.6396830214,649
100344,196224,248161,1.3495519463999999,8.8809610799,-4.7090748768,650
99088,196052,248056,1.3316057769,8.7708912403,-4.6839502395,651
98228,195903,247941,1.3447663012,8.7948194663,-4.5834516903,652
97740,195855,247913,1.3782658175999998,8.769694829,-4.6265224971,653
97343,195776,247839,1.3471591237999998,8.7302132561,-4.6731825378,654
97328,195753,247836,1.3088739621999999,8.793623055,-4.6456650779,655
97466,195751,247834,1.4392827939,8.8366938618,-4.6277189084,656
97657,195777,247852,1.3615160593999998,8.970691927399999,-4.6301117309999995,657
97803,195795,247844,1.4584253747,8.6931245058,-4.642075844,658
97930,195820,247839,1.3830514628000001,8.7409809578,-4.5846481016,659
98085,195882,247938,1.3998012210000002,8.7912302324,-4.6002014485,660
98300,195899,247868,1.3794622289,8.805587167999999,-4.5810588676999995,661
98500,195910,247865,1.4321043261,8.8438723296,-4.5810588676999995,662
98768,195905,247929,1.5625131578,8.805587167999999,-4.7617169740000005,663
99022,195983,247976,1.3208380752,8.8031943454,-4.5870409242,664
99285,196030,247990,1.4189438018,8.7637127725,-4.5786660451,665
99563,196059,248046,1.3639088819999998,8.7385881352,-4.6348973762,666
99877,196110,248043,1.3710873497999998,8.828318982699999,-4.547559351299999,667
100202,196143,248079,1.2586246876,8.7134634979,-4.6923251185999995,668
100553,196211,248105,1.4572289634,8.7122670866,-4.618147618,669
100846,196234,248160,1.4392827939,8.8139620471,-4.6875394734,670
101190,196284,248178,1.3950155758,8.721838377,-4.6492543118,671
101521,196346,248216,1.4739787216,8.7924266437,-4.6002014485,672
101726,196366,248221,1.2777672683999999,8.626125473,-4.6995035864000005,673
101181,196269,248146,1.4129617452999998,8.8498543861,-4.7198425785,674
99984,196120,248104,1.3316057769,8.681160392799999,-4.6731825378,675
98991,196019,247988,1.2849457361999999,8.6931245058,-4.5355952383,676
98446,195978,247951,1.4165509792000002,8.7673020064,-4.6827538282,677
98150,195829,247882,1.375872995,8.709874264,-4.6444686666,678
98047,195841,247854,1.3854442854000002,8.7230347883,-4.6157547954,679
98154,195836,247875,1.4129617452999998,8.8450687409,-4.6707897152,680
98355,195906,247895,1.4608181972999998,8.7026957962,-4.7234318124,681
98497,195926,247926,1.4344971487,8.841479506999999,-4.6935215299,682
98630,195921,247987,1.3495519463999999,8.7505522482,-4.677968183,683
98781,195926,247955,1.3854442854000002,8.7673020064,-4.6157547954,684
98933,195981,247922,1.3064811396,8.793623055,-4.6923251185999995,685
99178,195977,247986,1.3471591237999998,8.717052731799999,-4.6348973762,686
99393,196045,247954,1.4153545679,8.8103728132,-4.6325045536000005,687
99647,196056,248040,1.5110674719,8.873782612100001,-4.6205404406,688
99894,196114,248070,1.3950155758,8.7673020064,-4.6037906824000006,689
100143,196133,248048,1.4416756165,8.7445701917,-4.594219392,690
100414,196192,248113,1.4991033588999998,8.8151584584,-4.6827538282,691
100690,196261,248116,1.4440684390999998,8.8151584584,-4.6133619728,692
100971,196295,248149,1.351944769,8.7625163612,-4.6444686666,693
101263,196396,248208,1.2837493249,8.8366938618,-4.6612184248,694
101539,196368,248255,1.3471591237999998,8.8031943454,-4.6348973762,695
101866,196389,248250,1.3136596074,8.774480474199999,-4.6731825378,696
101835,196411,248262,1.4404792052000002,8.7900338211,-4.6037906824000006,697
101039,196296,248163,1.4057832774999999,8.833104627900001,-4.7425743932,698
99840,196168,248051,1.3686945272,8.7780697081,-4.5870409242,699
99022,196046,247951,1.3627124707,8.8151584584,-4.6612184248,700
98580,195962,247923,1.4069796888000001,8.833104627900001,-4.589433746799999,701
98348,195950,247938,1.3663017045999999,8.8127656358,-4.5798624564,702
98314,195926,247916,1.4751751328999998,8.7505522482,-4.6875394734,703
98445,195951,247924,1.4225330357,8.7984087002,-4.7042892316,704
98525,195971,247903,1.2514462198,8.8079799906,-4.6121655615,705
98595,195926,247869,1.3938191645,8.864211321700001,-4.6707897152,706
98661,195944,247919,1.4273186809,8.7960158776,-4.6133619728,707
98802,195990,247967,1.4560325521,8.846265152199999,-4.606183505,708
98965,195998,247972,1.43569356,8.7505522482,-4.6277189084,709
99159,196015,247952,1.3651052933,8.7385881352,-4.6444686666,710
99362,196047,248017,1.3316057769,8.781658942,-4.5978086259,711
99561,196151,248009,1.3328021881999998,8.817551281,-4.547559351299999,712
99784,196098,248021,1.3830514628000001,8.841479506999999,-4.6660040700000005,713
100035,196127,248067,1.3686945272,8.7146599092,-4.7282174576000005,714
100290,196179,248097,1.375872995,8.739784546500001,-4.6827538282,715
100570,196240,248098,1.4261222696,8.9455672901,-4.749752861,716
100847,196282,248148,1.4237294470000001,8.8127656358,-4.6253260858,717
101147,196299,248200,1.4105689227,8.872586200799999,-4.6636112473999995,718
101295,196335,248228,1.4727823103,8.7266240222,-4.589433746799999,719
100731,196280,248146,1.304088317,8.8953180155,-4.689932296,720
99530,196136,248050,1.411765334,8.8103728132,-4.6803610056,721
98510,195960,247935,1.4165509792000002,8.8247297488,-4.6468614892,722
97844,195854,247879,1.3603196481,8.831908216599999,-4.689932296,723
97492,195792,247817,1.4177473905,8.8223369262,-4.5870409242,724
97275,195730,247789,1.3926227532000002,8.8905323703,-4.6480579005,725
97349,195740,247813,1.3974083984,8.7409809578,-4.7150569333,726
97534,195771,247817,1.3268201317000001,8.748159425599999,-4.5451665287,727
97690,195778,247783,1.5014961814999999,8.7014993849,-4.6803610056,728
97838,195814,247819,1.43569356,8.7972122889,-4.6504507231,729
97974,195804,247829,1.3710873497999998,8.8079799906,-4.6516471344,730
98169,195887,247811,1.3998012210000002,8.859425676499999,-4.6444686666,731
98410,195914,247874,1.5960126741999998,8.7637127725,-4.6851466508,732
98662,195951,247911,1.4763715442,8.7433737804,-4.7126641107,733
98910,195960,247917,1.5529418674,8.8378902731,-4.6444686666,734
99153,196017,247955,1.351944769,8.8474615635,-4.6492543118,735
99415,196053,247979,1.3088739621999999,8.8713897895,-4.6325045536000005,736
99711,196080,247984,1.3028919057000001,8.9001036607,-4.6851466508,737
99986,196106,248067,1.5014961814999999,8.7673020064,-4.6396830214,738
100288,196185,248071,1.3292129543,8.73380249,-4.7629133853,739
100568,196201,248086,1.4129617452999998,8.7625163612,-4.5918265694,740
100860,196255,248145,1.375872995,8.864211321700001,-4.6588256022,741
101144,196287,248132,1.3375878334,8.7601235386,-4.6313081423,742
101117,196280,248159,1.4392827939,8.859425676499999,-4.5714875773,743
100266,196208,248050,1.4464612617,8.8019979341,-4.6755753604,744
98976,196010,247950,1.4416756165,8.7732840629,-4.6923251185999995,745
97959,195874,247888,1.3710873497999998,8.769694829,-4.6145583840999995,746
97495,195790,247804,1.4237294470000001,8.8450687409,-4.6707897152,747
97181,195725,247788,1.4560325521,8.8689969669,-4.606183505,748
97037,195712,247773,1.375872995,8.7828553533,-4.6612184248,749
97148,195704,247777,1.3112667848,8.841479506999999,-4.6552363683,750
97343,195740,247706,1.3962119871,8.7409809578,-4.701896409,751
97499,195740,247778,1.4033904549,8.7421773691,-4.6588256022,752
97635,195752,247764,1.3256237203999999,8.745766603,-4.6360937875,753
97793,195782,247794,1.3112667848,8.709874264,-4.6133619728,754
98008,195805,247844,1.4309079148000001,8.8582292652,-4.5870409242,755
98245,195856,247823,1.3543375915999998,8.8378902731,-4.6456650779,756
98516,195880,247874,1.4057832774999999,8.793623055,-4.6516471344,757
98751,195945,247894,1.4967105363,8.7541414821,-4.6995035864000005,758
99032,195952,247878,1.4428720278,8.781658942,-4.6935215299,759
99303,195990,247932,1.304088317,8.7385881352,-4.6887358847,760
99543,196032,248015,1.3304093655999998,8.8917287816,-4.6564327796,761
99870,196065,248015,1.2897313814,8.9156570076,-4.6636112473999995,762
100166,196118,247995,1.4668002538,8.6775711589,-4.7186461672,763
100468,196167,248042,1.4823536007,8.8570328539,-4.6277189084,764
100780,196233,248097,1.3806586402,8.9024964833,-4.606183505,765
100986,196255,248120,1.4321043261,8.781658942,-4.6660040700000005,766
100580,196176,248106,1.4644074312,8.8821574912,-4.6707897152,767
99431,196049,247958,1.4668002538,8.819944103600001,-4.5643091095,768
98337,195891,247797,1.2813565023,8.8211405149,-4.5690947547,769
97708,195782,247770,1.5158531170999998,8.841479506999999,-4.6516471344,770
97398,195750,247807,1.3591232368,8.7469630143,-4.6636112473999995,771
97232,195691,247740,1.4943177136999999,8.8558364426,-4.643272255299999,772
97290,195702,247718,1.3543375915999998,8.8151584584,-4.5978086259,773
97511,195726,247791,1.4536397294999999,8.872586200799999,-4.6013978598,774
97692,195782,247776,1.4081761001,8.774480474199999,-4.6253260858,775
97855,195756,247824,1.4799607781,8.7242311996,-4.6636112473999995,776
98078,195794,247819,1.2287144051,8.9060857172,-4.6169512067000005,777
98237,195836,247819,1.3615160593999998,8.7720876516,-4.6289153197,778
98443,195876,247858,1.3172488413,8.8019979341,-4.5930229807,779
98751,195897,247841,1.4033904549,8.7960158776,-4.609772738899999,780
99004,195983,247914,1.2825529136,8.8390866844,-4.6815574169,781
99307,195987,247928,1.2861421475,8.8977108381,-4.6193440293,782
99573,196038,247948,1.3806586402,8.7409809578,-4.6707897152,783
99839,196077,248001,1.4309079148000001,8.916853418899999,-4.5451665287,784
100195,196124,248028,1.4584253747,8.8079799906,-4.5750768112,785
100518,196163,248028,1.4380863826,8.7900338211,-4.6731825378,786
100813,196229,248034,1.3890335193,8.793623055,-4.6803610056,787
101127,196286,248094,1.3998012210000002,8.8031943454,-4.4781674959,788
101446,196309,248120,1.2658031554,8.8558364426,-4.6707897152,789
101703,196351,248168,1.3495519463999999,8.8929251929,-4.618147618,790
101519,196334,248128,1.3710873497999998,8.7302132561,-4.5332024157,791
100539,196235,248089,1.4261222696,8.7852481759,-4.5774696338,792
99422,196065,247954,1.3316057769,8.7840517646,-4.6468614892,793
98751,195945,247917,1.4512469069,8.7912302324,-4.6157547954,794
98433,195914,247851,1.3184452526,8.7780697081,-4.5954158033,795
98274,195876,247786,1.3770694063,8.8211405149,-4.5966122146,796
98355,195973,247845,1.4464612617,8.7912302324,-4.5499521739,797
98532,195936,247807,1.3495519463999999,8.793623055,-4.5559342304,798
98696,195913,247865,1.2993026717999998,8.7469630143,-4.5978086259,799
98832,195932,247887,1.4823536007,8.931210354500001,-4.6073799163,800
98959,195953,247830,1.3986048097,8.8809610799,-4.7210389898,801
99123,195981,247853,1.3052847283,8.818747692299999,-4.5571306417,802
99308,196018,247901,1.3256237203999999,8.7385881352,-4.6013978598,803
99514,196060,247908,1.3351950108,8.8103728132,-4.654039957,804
99700,196085,247937,1.3160524299999998,8.663214223299999,-4.6348973762,805
99907,196082,247984,1.4093725114000002,8.9587278144,-4.6636112473999995,806
100064,196128,247991,1.4847464232999998,8.8366938618,-4.6073799163,807
100281,196172,247986,1.3806586402,8.7469630143,-4.6133619728,808
100514,196196,248026,1.3256237203999999,8.9575314031,-4.5631126982,809
100744,196219,248067,1.4189438018,8.7553378934,-4.7198425785,810
100975,196286,248071,1.351944769,8.872586200799999,-4.5786660451,811
101168,196327,248084,1.3950155758,8.819944103600001,-4.5810588676999995,812
101460,196330,248099,1.2598210989,8.764909183799999,-4.6827538282,813
101337,196341,248097,1.4632110199,8.7517486595,-4.6145583840999995,814
100425,196222,248062,1.3651052933,8.7780697081,-4.654039957,815
99284,196063,247925,1.4488540843,8.8247297488,-4.6971107638,816
98536,195949,247839,1.3866406967,8.7349989013,-4.6325045536000005,817
98127,195867,247820,1.4045868662,8.8606220878,-4.6875394734,818
97930,195852,247769,1.4105689227,8.7912302324,-4.7126641107,819
97935,195848,247812,1.4069796888000001,8.697910151,-4.6851466508,820
98101,195891,247808,1.3064811396,8.8474615635,-4.5332024157,821
98298,195877,247797,1.3543375915999998,8.8869431364,-4.6851466508,822
98403,195883,247811,1.3854442854000002,8.717052731799999,-4.5810588676999995,823
98538,195906,247818,1.3854442854000002,8.7433737804,-4.5643091095,824
98719,195953,247844,1.4668002538,8.8091764019,-4.6492543118,825
98930,195965,247880,1.3423734786,8.8630149104,-4.6348973762,826
99202,195989,247887,1.3686945272,8.7314096674,-4.5858445129,827
99399,196035,247929,1.3435698899,8.8390866844,-4.5906301581,828
99730,196087,247970,1.4799607781,8.7505522482,-4.6444686666,829
99995,196115,248011,1.3854442854000002,8.8366938618,-4.6313081423,830
100294,196140,247990,1.4632110199,8.7026957962,-4.637290198800001,831
100620,196184,248032,1.43569356,8.7852481759,-4.6301117309999995,832
100879,196228,248024,1.3854442854000002,8.7888374098,-4.6564327796,833
101190,196294,248025,1.3399806559999998,8.7924266437,-4.6193440293,834
101483,196317,248127,1.4823536007,8.7888374098,-4.6157547954,835
101779,196386,248114,1.5134602944999997,8.7385881352,-4.6947179412,836
102086,196407,248159,1.2837493249,8.8008015228,-4.6109691502,837
102376,196441,248184,1.387837108,8.752945070800001,-4.6731825378,838
102398,196469,248217,1.4333007374,8.8079799906,-4.5954158033,839
101618,196374,248113,1.3495519463999999,8.8749790234,-4.6887358847,840
100347,196185,248048,1.5182459396999999,8.8019979341,-4.6085763276,841
99340,196040,247940,1.4392827939,8.7984087002,-4.6923251185999995,842
98733,195962,247819,1.4727823103,8.7625163612,-4.5260239479,843
98324,195895,247864,1.244267752,8.7433737804,-4.6660040700000005,844
98123,195906,247798,1.375872995,8.748159425599999,-4.643272255299999,845
98145,195861,247764,1.4991033588999998,8.8127656358,-4.6492543118,846
98305,195872,247792,1.328016543,8.7361953126,-4.6169512067000005,847
98443,195916,247817,1.4189438018,8.817551281,-4.5978086259,848
98547,195902,247805,1.4440684390999998,8.7026957962,-4.6995035864000005,849
98672,195927,247799,1.3974083984,8.872586200799999,-4.7198425785,850
98840,195944,247844,1.3974083984,8.8450687409,-4.6492543118,851
99060,195954,247872,1.3615160593999998,8.9084785398,-4.7090748768,852
99299,195938,247845,1.3686945272,8.7792661194,-4.609772738899999,853
99526,196033,247897,1.4141581566,8.8354974505,-4.6707897152,854
99798,196070,247928,1.4213366244,8.7290168448,-4.7282174576000005,855
100077,196129,247948,1.4165509792000002,8.9072821285,-4.6827538282,856
100338,196163,247999,1.4105689227,8.8977108381,-4.6444686666,857
100636,196213,247982,1.3663017045999999,8.7290168448,-4.7353959254,858
100931,196279,248012,1.5218351736,8.7014993849,-4.6348973762,859
101229,196282,248099,1.4285150922,8.7601235386,-4.6707897152,860
101508,196316,248069,1.4859428346,8.793623055,-4.6827538282,861
101783,196364,248119,1.4763715442,8.8833539025,-4.6301117309999995,862
102087,196439,248171,1.4632110199,8.7517486595,-4.6875394734,863
102318,196461,248138,1.4572289634,8.8378902731,-4.689932296,864
102093,196398,248154,1.4237294470000001,8.781658942,-4.6851466508,865
101023,196278,248115,1.4524433182,8.817551281,-4.6193440293,866
99811,196136,247947,1.4153545679,8.764909183799999,-4.6875394734,867
99043,196005,247872,1.4261222696,8.8366938618,-4.6468614892,868
98538,195914,247819,1.5002997702,8.8905323703,-4.6947179412,869
98215,195887,247800,1.3854442854000002,8.7421773691,-4.6755753604,870
98146,195810,247760,1.3591232368,8.8713897895,-4.713860522,871
98268,195878,247766,1.4584253747,8.806783579300001,-4.6025942711,872
98431,195894,247784,1.4464612617,8.6835532154,-4.6803610056,873
98571,195913,247810,1.3304093655999998,8.8019979341,-4.5762732225,874
98706,195900,247825,1.4500504956,8.764909183799999,-4.6492543118,875
98874,195908,247797,1.4691930764,8.7996051115,-4.6037906824000006,876
99091,195937,247792,1.3316057769,8.7768732968,-4.6253260858,877
99313,196016,247797,1.4069796888000001,8.8510507974,-4.7042892316,878
99550,196028,247902,1.4488540843,8.8630149104,-4.5535414078,879
99823,196076,247933,1.2430713407,8.8115692245,-4.637290198800001,880
100081,196110,247951,1.2741780345,8.769694829,-4.6468614892,881
100379,196152,247922,1.4297115034999999,8.8570328539,-4.6217368519,882
100678,196213,248002,1.3495519463999999,8.7158563205,-4.5786660451,883
100964,196244,248034,1.5050854154,8.841479506999999,-4.5990050372,884
101244,196303,248114,1.4105689227,8.7038922075,-4.6815574169,885
101596,196340,248096,1.3292129543,8.8247297488,-4.6229332632,886
101892,196387,248118,1.4691930764,8.7517486595,-4.7318066915,887
102183,196429,248165,1.2981062605,8.748159425599999,-4.5906301581,888
102532,196487,248169,1.3842478741,8.819944103600001,-4.6636112473999995,889
102717,196531,248222,1.4261222696,8.8438723296,-4.522434714,890
102342,196439,248197,1.4656038425,8.864211321700001,-4.6492543118,891
101240,196334,248075,1.3136596074,8.829515394,-4.6672004813,892
100123,196164,248002,1.3734801723999999,8.8558364426,-4.6133619728,893
99447,196097,247931,1.4105689227,8.9096749511,-4.637290198800001,894
99085,196082,247891,1.3435698899,8.8809610799,-4.5667019321,895
98911,195957,247821,1.4237294470000001,8.7708912403,-4.6516471344,896
98956,195986,247838,1.5110674719,8.8127656358,-4.609772738899999,897
99128,196014,247843,1.4249258583,8.829515394,-4.6301117309999995,898
99214,196018,247873,1.4093725114000002,8.8498543861,-4.6109691502,899
99376,196011,247856,1.4165509792000002,8.828318982699999,-4.6193440293,900
99483,196057,247892,1.3830514628000001,8.7601235386,-4.6253260858,901
99653,196088,247902,1.4811571894,8.8366938618,-4.6325045536000005,902
99845,196095,247932,1.2933206153,8.8247297488,-4.6875394734,903
100033,196124,247988,1.3962119871,8.8139620471,-4.6301117309999995,904
100253,196145,247972,1.3651052933,8.7385881352,-4.6277189084,905
100453,196192,247979,1.3830514628000001,8.8701933782,-4.4829531411,906
100625,196218,248064,1.4321043261,8.8271225714,-4.701896409,907
100843,196239,248007,1.3902299306,8.846265152199999,-4.5427737061,908
101045,196288,248050,1.3603196481,8.8223369262,-4.5954158033,909
101243,196314,248040,1.4273186809,8.7409809578,-4.748556449700001,910
101434,196353,248051,1.4057832774999999,8.873782612100001,-4.6576291909,911
101656,196379,248104,1.4201402131,8.7684984177,-4.6301117309999995,912
101849,196413,248132,1.5134602944999997,8.8689969669,-4.6265224971,913
101574,196392,248128,1.3722837611,8.833104627900001,-4.5990050372,914
100557,196240,248068,1.3447663012,8.828318982699999,-4.6229332632,915
99383,196100,247943,1.3244273091,8.8019979341,-4.5870409242,916
98624,195980,247864,1.4081761001,8.8343010392,-4.6121655615,917
98205,195906,247838,1.4679966650999998,8.7924266437,-4.6815574169,918
98009,195884,247753,1.4452648504,8.7242311996,-4.6480579005,919
97952,195869,247763,1.3615160593999998,8.8869431364,-4.6815574169,920
98156,195890,247768,1.4847464232999998,8.8271225714,-4.6971107638,921
98289,195873,247796,1.4512469069,8.7864445872,-4.6516471344,922
98391,195912,247830,1.387837108,8.8522472087,-4.637290198800001,923
98493,195917,247820,1.3639088819999998,8.865407733,-4.6564327796,924
98732,195934,247855,1.5397813431,8.7014993849,-4.7270210463,925
98963,196005,247902,1.3543375915999998,8.757730716,-4.677968183,926
99220,196028,247892,1.3639088819999998,8.7960158776,-4.6660040700000005,927
99456,196021,247929,1.5050854154,8.6883388606,-4.7569313288,928
99714,196073,247976,1.4440684390999998,8.8235333375,-4.677968183,929
99973,196131,247937,1.3950155758,8.8091764019,-4.6755753604,930
100241,196135,248038,1.2981062605,8.7003029736,-4.6241296745,931
100510,196214,248002,1.3842478741,8.833104627900001,-4.7210389898,932
100821,196237,248031,1.5062818266999998,8.8582292652,-4.6612184248,933
101106,196290,248046,1.4392827939,8.8031943454,-4.6947179412,934
101388,196324,248099,1.3495519463999999,8.7122670866,-4.5355952383,935
101674,196385,248071,1.3686945272,8.8091764019,-4.6325045536000005,936
101905,196411,248144,1.4333007374,8.7314096674,-4.6516471344,937
101534,196355,248111,1.4440684390999998,8.7601235386,-4.570291166,938
100342,196225,248005,1.4237294470000001,8.7673020064,-4.5595234643,939
99104,195995,247938,1.387837108,8.7146599092,-4.6313081423,940
98308,195927,247870,1.3447663012,8.7888374098,-4.677968183,941
97839,195821,247755,1.3950155758,8.7900338211,-4.7282174576000005,942
97521,195775,247781,1.2717852119000002,8.8618184991,-4.7210389898,943
97431,195746,247723,1.3328021881999998,8.721838377,-4.7162533446,944
97555,195788,247724,1.2346964616,8.818747692299999,-4.7042892316,945
97727,195752,247725,1.4333007374,8.7445701917,-4.637290198800001,946
97839,195789,247778,1.4368899712999998,8.8366938618,-4.6492543118,947
97960,195806,247749,1.3710873497999998,8.885746725099999,-4.6408794327,948
98097,195809,247801,1.3184452526,8.7984087002,-4.5284167705,949
98316,195851,247810,1.4632110199,8.859425676499999,-4.6396830214,950
98532,195915,247845,1.5996019081000001,8.7134634979,-4.7557349175,951
98780,195919,247840,1.4057832774999999,8.685946038,-4.5954158033,952
99009,195977,247832,1.3686945272,8.745766603,-4.5966122146,953
99292,195979,247900,1.3543375915999998,8.8307118053,-4.6217368519,954
99566,196081,247939,1.3579268255,8.6919280945,-4.5978086259,955
99851,196081,247957,1.3136596074,8.7553378934,-4.7162533446,956
100148,196137,247949,1.5230315848999998,8.7290168448,-4.6337009649,957
100443,196091,248030,1.4237294470000001,8.7912302324,-4.5882373355,958
100748,196210,248079,1.4620146086,8.8474615635,-4.5978086259,959
101067,196274,248131,1.4153545679,8.757730716,-4.713860522,960
101341,196290,248099,1.2550354537,8.9204426528,-4.6360937875,961
101101,196287,248067,1.2957134379000002,8.885746725099999,-4.6480579005,962
100120,196131,247969,1.4213366244,8.8713897895,-4.7712882644,963
99030,195999,247901,1.4344971487,8.7720876516,-4.6133619728,964
98320,195942,247863,1.4991033588999998,8.7003029736,-4.713860522,965
97964,195817,247806,1.4787643668000001,8.8558364426,-4.6660040700000005,966
97748,195776,247755,1.5409777544,8.7912302324,-4.6325045536000005,967
97754,195771,247747,1.4081761001,8.7661055951,-4.6277189084,968
97972,195772,247754,1.4871392459,8.73380249,-4.6396830214,969
98167,195811,247803,1.5254244074999999,8.831908216599999,-4.677968183,970
98331,195853,247761,1.3160524299999998,8.7565343047,-4.6025942711,971
98515,195859,247810,1.5661023917,8.9120677737,-4.6923251185999995,972
98744,195871,247862,1.4524433182,8.7924266437,-4.6911287073,973
98987,195941,247861,1.3663017045999999,8.681160392799999,-4.606183505,974
99251,195937,247937,1.3555340029,8.7804625307,-4.6133619728,975
99537,195996,247911,1.2837493249,8.8833539025,-4.6217368519,976
99813,196052,247999,1.3962119871,8.7888374098,-4.6002014485,977
100116,196085,248000,1.3794622289,8.9204426528,-4.6851466508,978
100423,196112,248041,1.4452648504,8.873782612100001,-4.5260239479,979
100756,196196,248020,1.3830514628000001,8.7804625307,-4.5918265694,980
101102,196242,248066,1.3399806559999998,8.73380249,-4.6887358847,981
101455,196292,248093,1.4069796888000001,8.8103728132,-4.7030928203,982
101826,196340,248157,1.3674981159,8.8678005556,-4.6229332632,983
102198,196391,248195,1.4237294470000001,8.7924266437,-4.5667019321,984
102564,196456,248208,1.2634103328,8.846265152199999,-4.5906301581,985
102580,196471,248213,1.4057832774999999,8.833104627900001,-4.6444686666,986
101843,196367,248135,1.4213366244,8.8307118053,-4.6002014485,987
100929,196243,248105,1.2885349701,8.7888374098,-4.5786660451,988
100315,196159,248013,1.387837108,8.9192462415,-4.637290198800001,989
100075,196112,248018,1.351944769,8.8271225714,-4.5726839886,990
99935,196057,247986,1.3292129543,8.829515394,-4.6492543118,991
100031,196059,247968,1.3411770673,8.829515394,-4.7186461672,992
100224,196101,247968,1.3328021881999998,8.9778703952,-4.6396830214,993
100458,196131,247958,1.3483555351,8.8127656358,-4.6492543118,994
100641,196153,247993,1.387837108,8.8618184991,-4.6205404406,995
100864,196173,248034,1.3016954943999999,8.8522472087,-4.5930229807,996
101039,196193,248037,1.3112667848,8.8689969669,-4.6612184248,997
101290,196265,248090,1.4153545679,8.8953180155,-4.642075844,998
101553,196276,248040,1.4093725114000002,8.745766603,-4.6875394734,999
101814,196301,248135,1.3495519463999999,8.7565343047,-4.6157547954,1000
102097,196370,248130,1.4201402131,8.841479506999999,-4.6157547954,1001
102416,196457,248171,1.4249258583,8.7469630143,-4.5068813671,1002
102710,196455,248184,1.3794622289,8.8977108381,-4.6588256022,1003
103049,196521,248237,1.3256237203999999,8.8247297488,-4.5643091095,1004
103353,196553,248262,1.4464612617,8.831908216599999,-4.6408794327,1005
103700,196604,248326,1.375872995,8.793623055,-4.6085763276,1006
104034,196597,248290,1.4488540843,8.8091764019,-4.6289153197,1007
104353,196698,248338,1.3734801723999999,8.7888374098,-4.5068813671,1008
104556,196715,248372,1.3986048097,8.7996051115,-4.6013978598,1009
104206,196719,248324,1.2981062605,8.885746725099999,-4.6444686666,1010
103430,196572,248299,1.5050854154,8.846265152199999,-4.5918265694,1011
102814,196465,248169,1.3256237203999999,8.8618184991,-4.6265224971,1012
102489,196415,248205,1.3603196481,8.6751783363,-4.6396830214,1013
102335,196415,248187,1.2981062605,8.7876409985,-4.6660040700000005,1014
102334,196399,248136,1.3184452526,8.7720876516,-4.618147618,1015
102477,196410,248152,1.328016543,8.8235333375,-4.643272255299999,1016
102634,196372,248172,1.4679966650999998,8.8905323703,-4.6025942711,1017
102715,196446,248162,1.4321043261,8.8474615635,-4.6660040700000005,1018
102813,196482,248193,1.3112667848,8.7661055951,-4.6073799163,1019
102955,196493,248205,1.304088317,8.7756768855,-4.6109691502,1020
103149,196520,248224,1.3136596074,8.831908216599999,-4.5786660451,1021
103330,196552,248260,1.3974083984,8.721838377,-4.5236311253,1022
103524,196554,248247,1.3770694063,8.7194455544,-4.5930229807,1023
103716,196580,248305,1.3136596074,8.7409809578,-4.618147618,1024
103908,196599,248301,1.3722837611,8.8666041443,-4.5978086259,1025
104134,196674,248326,1.4476576730000001,8.6871424493,-4.5846481016,1026
104362,196589,248345,1.4560325521,8.781658942,-4.6468614892,1027
104614,196720,248324,1.3064811396,8.7158563205,-4.6037906824000006,1028
104903,196764,248372,1.3686945272,8.8498543861,-4.5990050372,1029
105166,196793,248392,1.4105689227,8.8139620471,-4.7114676994,1030
105338,196839,248457,1.351944769,8.721838377,-4.6265224971,1031
104963,196811,248420,1.3483555351,8.6321075295,-4.6516471344,1032
104092,196641,248295,1.4261222696,8.7637127725,-4.6025942711,1033
103252,196609,248243,1.4213366244,8.8498543861,-4.6002014485,1034
102723,196463,248173,1.3016954943999999,8.7673020064,-4.547559351299999,1035
102365,196439,248157,1.3567304141999998,8.7960158776,-4.7030928203,1036
102163,196317,248140,1.3686945272,8.7684984177,-4.6013978598,1037
102164,196353,248153,1.3782658175999998,8.7541414821,-4.7330031028,1038
102267,196407,248143,1.4141581566,8.889335959,-4.6217368519,1039
102346,196411,248073,1.4105689227,8.8881395477,-4.6277189084,1040
102410,196450,248138,1.3160524299999998,8.805587167999999,-4.637290198800001,1041
102485,196438,248151,1.2825529136,8.720641965699999,-4.6229332632,1042
102616,196454,248201,1.4093725114000002,8.8163548697,-4.637290198800001,1043
102768,196485,248169,1.4584253747,8.7972122889,-4.6468614892,1044
102966,196525,248226,1.4333007374,8.745766603,-4.6037906824000006,1045
103140,196538,248187,1.3471591237999998,8.7840517646,-4.6073799163,1046
103359,196605,248250,1.4919248910999998,8.8606220878,-4.6803610056,1047
103575,196626,248239,1.4859428346,8.8127656358,-4.6157547954,1048
103793,196601,248250,1.4488540843,8.7003029736,-4.6528435457,1049
104028,196665,248303,1.495514125,8.749355836900001,-4.6157547954,1050
104232,196727,248342,1.4751751328999998,8.8259261601,-4.6325045536000005,1051
104511,196741,248318,1.3663017045999999,8.764909183799999,-4.6600220135,1052
104729,196745,248390,1.4416756165,8.7266240222,-4.6636112473999995,1053
104981,196842,248391,1.4321043261,8.8821574912,-4.6325045536000005,1054
105018,196789,248456,1.3471591237999998,8.818747692299999,-4.6588256022,1055
104423,196720,248335,1.4799607781,8.6715891024,-4.6947179412,1056
103254,196604,248232,1.4895320685,8.7505522482,-4.6468614892,1057
102200,196457,248178,1.3495519463999999,8.859425676499999,-4.5738803999,1058
101497,196362,248148,1.3495519463999999,8.7852481759,-4.5930229807,1059
100952,196289,248056,1.4165509792000002,8.7385881352,-4.671986126499999,1060
100608,196252,248039,1.5756736821000001,8.764909183799999,-4.6492543118,1061
100512,196214,248013,1.387837108,8.7720876516,-4.6875394734,1062
100559,196234,248026,1.4392827939,8.8438723296,-4.5655055207999995,1063
100604,196261,248046,1.4081761001,8.7266240222,-4.5954158033,1064
100535,196209,247995,1.244267752,8.8031943454,-4.6217368519,1065
100634,196221,248030,1.5744772707999999,8.745766603,-4.738985159299999,1066
100729,196232,248063,1.411765334,8.793623055,-4.6396830214,1067
100841,196313,248082,1.5517454561000001,8.7948194663,-4.6971107638,1068
100984,196292,248072,1.4524433182,8.764909183799999,-4.6504507231,1069
101143,196314,248088,1.4321043261,8.7792661194,-4.5834516903,1070
101279,196338,248108,1.4081761001,8.806783579300001,-4.5858445129,1071
101522,196406,248117,1.3830514628000001,8.8343010392,-4.6073799163,1072
101760,196438,248114,1.3926227532000002,8.6213398278,-4.6337009649,1073
101983,196440,248154,1.3160524299999998,8.859425676499999,-4.643272255299999,1074
102202,196468,248194,1.3986048097,8.641678819900001,-4.5212383027000005,1075
102457,196518,248190,1.3411770673,8.7852481759,-4.6253260858,1076
102661,196542,248209,1.5110674719,8.7840517646,-4.5906301581,1077
102907,196607,248253,1.3184452526,8.817551281,-4.5451665287,1078
103155,196642,248261,1.3136596074,8.7876409985,-4.5798624564,1079
103330,196647,248264,1.4524433182,8.8211405149,-4.6241296745,1080
102927,196608,248279,1.4368899712999998,8.7876409985,-4.7090748768,1081
101753,196448,248187,1.4775679554999999,8.695517328400001,-4.6360937875,1082
100485,196305,248084,1.351944769,8.745766603,-4.6121655615,1083
99636,196172,248001,1.3603196481,8.841479506999999,-4.6516471344,1084
99108,196115,247950,1.4380863826,8.7541414821,-4.701896409,1085
98746,196048,247907,1.4093725114000002,8.6165541826,-4.6145583840999995,1086
98626,196002,247879,1.4751751328999998,8.7756768855,-4.6863430621,1087
98741,196044,247905,1.4141581566,8.828318982699999,-4.7078784655,1088
98873,196028,247887,1.3686945272,8.73380249,-4.5379880609,1089
98882,196026,247882,1.4057832774999999,8.7122670866,-4.7114676994,1090
98963,196042,247922,1.4309079148000001,8.9204426528,-4.705485642899999,1091
99099,196066,247936,1.3663017045999999,8.793623055,-4.6444686666,1092
99271,196090,247932,1.328016543,8.709874264,-4.6803610056,1093
99476,196122,247961,1.3998012210000002,8.7720876516,-4.7306102802,1094
99676,196141,247971,1.3112667848,8.781658942,-4.6731825378,1095
99949,196175,248049,1.2717852119000002,8.8139620471,-4.6636112473999995,1096
100182,196202,248069,1.4368899712999998,8.841479506999999,-4.6109691502,1097
100461,196247,248059,1.3627124707,8.7996051115,-4.6995035864000005,1098
100689,196302,248110,1.4177473905,8.8977108381,-4.6360937875,1099
101041,196346,248072,1.2861421475,8.8929251929,-4.6277189084,1100
101318,196401,248150,1.4009976323,8.7792661194,-4.5164526575,1101
101606,196426,248216,1.411765334,8.8809610799,-4.5547378191000005,1102
101886,196466,248150,1.3256237203999999,8.9216390641,-4.6707897152,1103
102164,196544,248214,1.3316057769,8.818747692299999,-4.609772738899999,1104
102450,196552,248276,1.4213366244,8.9240318867,-4.6277189084,1105
102752,196611,248276,1.3423734786,8.8223369262,-4.7521456836,1106
102962,196642,248305,1.3890335193,8.7385881352,-4.6301117309999995,1107
102460,196593,248307,1.3471591237999998,8.8474615635,-4.5906301581,1108
101357,196435,248156,1.3926227532000002,8.8079799906,-4.6803610056,1109
100173,196283,248091,1.3734801723999999,8.793623055,-4.6648076587,1110
99475,196229,248033,1.2526426310999998,8.8139620471,-4.6133619728,1111
99086,196104,247942,1.387837108,8.7062850301,-4.6492543118,1112
98916,196078,247982,1.4656038425,8.745766603,-4.6923251185999995,1113
98935,196079,247910,1.328016543,8.774480474199999,-4.5714875773,1114
99114,196096,247955,1.4237294470000001,8.9060857172,-4.5966122146,1115
99251,196125,247983,1.3830514628000001,8.7768732968,-4.6683968926,1116
99354,196122,247999,1.4093725114000002,8.831908216599999,-4.6253260858,1117
99484,196172,247988,1.4512469069,8.7840517646,-4.6025942711,1118
99610,196176,248038,1.3543375915999998,8.8582292652,-4.6169512067000005,1119
99801,196191,248070,1.4225330357,8.7840517646,-4.5714875773,1120
99946,196246,248084,1.4333007374,8.7673020064,-4.6301117309999995,1121
100189,196242,248099,1.4847464232999998,8.8008015228,-4.6612184248,1122
100404,196289,248091,1.4524433182,8.7625163612,-4.642075844,1123
100638,196296,248145,1.5026925928000001,8.7768732968,-4.6564327796,1124
100826,196335,248100,1.3962119871,8.9084785398,-4.6121655615,1125
101041,196374,248181,1.4045868662,8.818747692299999,-4.606183505,1126
101261,196424,248152,1.2418749294,8.7780697081,-4.7258246349999995,1127
101512,196447,248178,1.3351950108,8.805587167999999,-4.654039957,1128
101677,196474,248193,1.3399806559999998,8.9383888223,-4.5738803999,1129
101890,196482,248209,1.3375878334,8.7194455544,-4.6935215299,1130
102118,196549,248247,1.4488540843,8.8666041443,-4.6121655615,1131
101942,196546,248201,1.5134602944999997,8.7266240222,-4.677968183,1132
101045,196405,248196,1.4009976323,8.9192462415,-4.6911287073,1133
99856,196299,248085,1.2646067441000002,8.6799639815,-4.6193440293,1134
99048,196143,247977,1.3591232368,8.7768732968,-4.6707897152,1135
98618,196084,247922,1.304088317,8.833104627900001,-4.6348973762,1136
98413,195999,247924,1.3663017045999999,8.7290168448,-4.7186461672,1137
98392,196022,247913,1.4703894876999999,8.7840517646,-4.6947179412,1138
98547,196035,247884,1.4392827939,8.781658942,-4.5882373355,1139
98720,196014,247925,1.4249258583,8.8486579748,-4.6923251185999995,1140
98794,196045,247962,1.2789636797000001,8.7924266437,-4.6588256022,1141
98967,196069,247974,1.2921242039999998,8.7864445872,-4.6348973762,1142
99123,196096,247983,1.351944769,8.7505522482,-4.6121655615,1143
99333,196135,247996,1.4967105363,8.7433737804,-4.6636112473999995,1144
99583,196168,248039,1.2705888006,8.6775711589,-4.7114676994,1145
99830,196208,248047,1.3938191645,8.7194455544,-4.6037906824000006,1146
100096,196208,248031,1.2717852119000002,8.7565343047,-4.6337009649,1147
100326,196311,248138,1.4560325521,8.7912302324,-4.618147618,1148
100580,196295,248141,1.3435698899,8.8785682573,-4.689932296,1149
100880,196362,248143,1.4428720278,8.6967137397,-4.6875394734,1150
101172,196399,248164,1.4021940436,8.720641965699999,-4.6683968926,1151
101463,196444,248244,1.3663017045999999,8.8031943454,-4.6037906824000006,1152
101757,196488,248229,1.3854442854000002,8.6871424493,-4.6073799163,1153
102078,196537,248233,1.4368899712999998,8.9407816449,-4.7042892316,1154
102311,196547,248284,1.3902299306,8.7314096674,-4.6025942711,1155
102607,196582,248320,1.4560325521,8.769694829,-4.6468614892,1156
102730,196645,248261,1.4129617452999998,8.7409809578,-4.6923251185999995,1157
102123,196563,248320,1.3710873497999998,8.6919280945,-4.6588256022,1158
100862,196403,248160,1.2729816232,8.774480474199999,-4.6085763276,1159
99804,196271,248079,1.2143574695,8.7888374098,-4.6121655615,1160
99110,196138,248024,1.4297115034999999,8.8307118053,-4.6995035864000005,1161
98717,196072,247943,1.4189438018,8.8618184991,-4.6660040700000005,1162
98487,196020,247995,1.2622139215000001,8.872586200799999,-4.6707897152,1163
98491,196007,247922,1.4548361408000001,8.7972122889,-4.6013978598,1164
98636,196047,247870,1.4057832774999999,8.8031943454,-4.6516471344,1165
98783,196019,247973,1.5768700934,8.7565343047,-4.618147618,1166
98897,196054,247964,1.4057832774999999,8.7122670866,-4.6277189084,1167
99016,196067,247985,1.3663017045999999,8.8498543861,-4.6923251185999995,1168
99157,196115,247965,1.3423734786,8.9001036607,-4.606183505,1169
99361,196126,247949,1.4560325521,8.8498543861,-4.642075844,1170
99589,196175,248046,1.4069796888000001,8.8522472087,-4.6133619728,1171
99821,196180,248056,1.4392827939,8.817551281,-4.6002014485,1172
100064,196216,248054,1.3950155758,8.8378902731,-4.7126641107,1173
100303,196263,248098,1.5050854154,8.709874264,-4.5714875773,1174
100569,196278,248117,1.3698909385,8.7912302324,-4.609772738899999,1175
100849,196325,248159,1.2598210989,8.769694829,-4.6444686666,1176
101119,196366,248168,1.3842478741,8.7720876516,-4.7258246349999995,1177
101418,196425,248201,1.3674981159,8.7720876516,-4.6660040700000005,1178
101665,196459,248244,1.3842478741,8.708677852700001,-4.6037906824000006,1179
101931,196495,248231,1.3507483577,8.8139620471,-4.6803610056,1180
102201,196520,248268,1.3842478741,8.7242311996,-4.5966122146,1181
102500,196571,248275,1.3998012210000002,8.8498543861,-4.677968183,1182
102666,196592,248333,1.3256237203999999,8.7505522482,-4.5379880609,1183
102222,196525,248283,1.3328021881999998,8.757730716,-4.6133619728,1184
101046,196436,248236,1.3124631961,8.9288175319,-4.6169512067000005,1185
99910,196249,248098,1.4285150922,8.7888374098,-4.6923251185999995,1186
99128,196126,248057,1.3998012210000002,8.9120677737,-4.6396830214,1187
98718,196071,247995,1.4392827939,8.8570328539,-4.547559351299999,1188
98473,195994,247939,1.375872995,8.6345003521,-4.6731825378,1189
98452,195985,247948,1.4859428346,8.859425676499999,-4.6875394734,1190
98600,195999,247943,1.3304093655999998,8.7888374098,-4.7162533446,1191
98748,196019,247979,1.4165509792000002,8.7876409985,-4.6588256022,1192
98885,196014,247965,1.3854442854000002,8.8953180155,-4.6851466508,1193
98951,196029,247937,1.3710873497999998,8.8582292652,-4.5810588676999995,1194
99090,196074,247982,1.3998012210000002,8.8151584584,-4.6337009649,1195
99281,196093,247985,1.3363914221,8.7373917239,-4.6851466508,1196
99505,196142,248033,1.2622139215000001,8.9216390641,-4.7641097966,1197
99721,196177,248060,1.4165509792000002,8.695517328400001,-4.6205404406,1198
99938,196179,248083,1.3603196481,8.901300072,-4.5918265694,1199
100241,196235,248077,1.4644074312,8.9635134596,-4.6133619728,1200
100524,196277,248143,1.4560325521,8.7505522482,-4.7066820542,1201
100820,196328,248143,1.4548361408000001,8.7433737804,-4.6660040700000005,1202
101107,196363,248192,1.3627124707,8.8570328539,-4.7186461672,1203
101404,196405,248212,1.4572289634,8.8438723296,-4.6360937875,1204
101688,196466,248236,1.4045868662,8.8139620471,-4.689932296,1205
102012,196480,248231,1.3938191645,8.7290168448,-4.6660040700000005,1206
102303,196526,248273,1.3112667848,8.7314096674,-4.6002014485,1207
102594,196556,248330,1.4309079148000001,8.829515394,-4.5667019321,1208
102666,196591,248304,1.2418749294,8.926424709299999,-4.6289153197,1209
101958,196495,248270,1.4153545679,8.7122670866,-4.6683968926,1210
100731,196300,248174,1.2921242039999998,8.8785682573,-4.637290198800001,1211
99788,196205,248034,1.4069796888000001,8.761319949899999,-4.6205404406,1212
99264,196131,248031,1.3459627125,8.7122670866,-4.6683968926,1213
98993,196064,247980,1.2825529136,8.73380249,-4.5595234643,1214
98892,196058,247987,1.3926227532000002,8.7541414821,-4.6731825378,1215
99051,196081,248020,1.3232308977999998,8.876175434699999,-4.6085763276,1216
99179,196095,247993,1.3304093655999998,8.8582292652,-4.6253260858,1217
99315,196089,247967,1.3926227532000002,8.9001036607,-4.6085763276,1218
99418,196145,248038,1.4297115034999999,8.8438723296,-4.5750768112,1219
99566,196112,248037,1.4560325521,8.7349989013,-4.6815574169,1220
99750,196146,248045,1.4333007374,8.9324067658,-4.6085763276,1221
99929,196207,248106,1.3830514628000001,8.7553378934,-4.6360937875,1222
100160,196231,248109,1.459621786,8.781658942,-4.6133619728,1223
100368,196239,248125,1.2215359373,8.764909183799999,-4.6205404406,1224
100603,196280,248132,1.3375878334,8.889335959,-4.6109691502,1225
100842,196347,248150,1.3698909385,8.7804625307,-4.6480579005,1226
101065,196350,248138,1.4895320685,8.757730716,-4.6516471344,1227
101291,196383,248185,1.5158531170999998,8.6751783363,-4.6827538282,1228
101506,196417,248197,1.3208380752,8.6715891024,-4.606183505,1229
101699,196437,248243,1.4033904549,8.7409809578,-4.6755753604,1230
101907,196487,248223,1.4967105363,8.7373917239,-4.547559351299999,1231
102129,196513,248273,1.4967105363,8.6656070459,-4.6492543118,1232
102144,196514,248292,1.3244273091,8.7900338211,-4.6707897152,1233
101492,196434,248232,1.4512469069,8.7972122889,-4.6660040700000005,1234
100263,196276,248145,1.4751751328999998,8.7385881352,-4.6289153197,1235
99246,196154,248055,1.304088317,8.7984087002,-4.6600220135,1236
98676,195984,247989,1.4751751328999998,8.8031943454,-4.6073799163,1237
98372,195988,247952,1.3423734786,8.757730716,-4.6121655615,1238
98263,195984,247924,1.3136596074,8.7565343047,-4.5427737061,1239
98329,195979,247970,1.5409777544,8.8235333375,-4.609772738899999,1240
98475,196025,247953,1.3591232368,8.9216390641,-4.5523449965,1241
98544,195980,248025,1.4392827939,8.781658942,-4.6468614892,1242
98665,196008,247945,1.4464612617,8.8438723296,-4.642075844,1243
98859,196029,247955,1.3962119871,8.8749790234,-4.6612184248,1244
99034,196063,248020,1.2729816232,8.7194455544,-4.7413779819,1245
99257,196088,248047,1.3782658175999998,8.8522472087,-4.6193440293,1246
99474,196153,248052,1.4261222696,8.769694829,-4.7186461672,1247
99722,196209,248061,1.3471591237999998,8.757730716,-4.6564327796,1248
100012,196209,248101,1.4476576730000001,8.8378902731,-4.637290198800001,1249
100215,196233,248145,1.4703894876999999,8.7122670866,-4.6803610056,1250
100478,196273,248154,1.3710873497999998,8.828318982699999,-4.7042892316,1251
100766,196309,248199,1.4919248910999998,8.864211321700001,-4.5954158033,1252
101090,196346,248160,1.4285150922,8.7840517646,-4.677968183,1253
101338,196397,248200,1.3686945272,8.781658942,-4.6636112473999995,1254
101616,196422,248258,1.4871392459,8.829515394,-4.6253260858,1255
101897,196476,248277,1.4225330357,8.8390866844,-4.5403808835,1256
102163,196537,248283,1.2921242039999998,8.829515394,-4.6229332632,1257
102094,196487,248320,1.4416756165,8.8498543861,-4.6636112473999995,1258
101170,196385,248196,1.3064811396,8.7182491431,-4.6947179412,1259
99839,196210,248088,1.1976077113,8.7732840629,-4.6803610056,1260
98835,196068,247989,1.3567304141999998,8.8247297488,-4.6229332632,1261
98258,195959,247934,1.4009976323,8.7625163612,-4.6289153197,1262
97896,195876,247861,1.4452648504,8.7960158776,-4.7270210463,1263
97704,195879,247867,1.4069796888000001,8.7972122889,-4.6935215299,1264
97774,195881,247902,1.4368899712999998,8.831908216599999,-4.5834516903,1265
97945,195933,247880,1.3986048097,8.7601235386,-4.6695933039,1266
98067,195902,247893,1.3351950108,8.748159425599999,-4.5846481016,1267
98175,195932,247902,1.4321043261,8.7720876516,-4.6552363683,1268
98320,195925,247974,1.4141581566,8.6763747476,-4.6205404406,1269
98510,195954,247936,1.3926227532000002,8.8809610799,-4.5379880609,1270
98700,195992,247930,1.3890335193,8.7840517646,-4.6803610056,1271
98938,196018,247990,1.4045868662,8.8354974505,-4.6923251185999995,1272
99159,196074,247992,1.2981062605,8.6847496267,-4.637290198800001,1273
99445,196098,248006,1.4883356572,8.7541414821,-4.5547378191000005,1274
99727,196136,248069,1.4069796888000001,8.806783579300001,-4.7270210463,1275
100001,196199,248091,1.3351950108,8.9336031771,-4.589433746799999,1276
100289,196234,248117,1.3902299306,8.7960158776,-4.6313081423,1277
100564,196245,248148,1.5326028753,8.7601235386,-4.6624148361,1278
100877,196302,248147,1.3734801723999999,8.7385881352,-4.606183505,1279
101155,196331,248179,1.3112667848,8.831908216599999,-4.6253260858,1280
101411,196387,248199,1.4213366244,8.8235333375,-4.6253260858,1281
101730,196424,248224,1.3375878334,8.7840517646,-4.6588256022,1282
102009,196490,248271,1.4261222696,8.9036928946,-4.6289153197,1283
101925,196470,248240,1.3722837611,8.709874264,-4.6348973762,1284
100935,196342,248207,1.4057832774999999,8.6584285781,-4.5571306417,1285
99616,196144,248086,1.4344971487,8.8008015228,-4.6947179412,1286
98668,196077,248021,1.411765334,8.8558364426,-4.6025942711,1287
98149,195905,247943,1.4141581566,8.7553378934,-4.6444686666,1288
97841,195880,247881,1.3950155758,8.720641965699999,-4.6636112473999995,1289
97680,195848,247852,1.3232308977999998,8.745766603,-4.7353959254,1290
97797,195847,247867,1.4333007374,8.864211321700001,-4.6325045536000005,1291
97968,195866,247946,1.531406464,8.7565343047,-4.5547378191000005,1292
98097,195876,247906,1.4285150922,8.769694829,-4.6480579005,1293
98152,195910,247900,1.4081761001,8.7601235386,-4.6612184248,1294
98366,195901,247945,1.387837108,8.7948194663,-4.6707897152,1295
98560,195961,247973,1.43569356,8.7158563205,-4.7258246349999995,1296
98829,196010,247982,1.3842478741,8.8235333375,-4.6923251185999995,1297
99087,196026,248027,1.4249258583,8.841479506999999,-4.7461636271,1298
99320,196049,248032,1.3603196481,8.781658942,-4.6109691502,1299
99596,196164,248054,1.2646067441000002,8.8079799906,-4.6049870937,1300
99899,196150,248106,1.4392827939,8.8821574912,-4.6851466508,1301
100170,196182,248114,1.3854442854000002,8.8713897895,-4.6157547954,1302
100468,196118,248150,1.3459627125,8.752945070800001,-4.5188454800999995,1303
100807,196270,248094,1.3998012210000002,8.841479506999999,-4.6827538282,1304
101112,196368,248207,1.4632110199,8.774480474199999,-4.582255279,1305
101409,196364,248229,1.4644074312,8.818747692299999,-4.582255279,1306
101675,196418,248259,1.4392827939,8.872586200799999,-4.5846481016,1307
102029,196448,248273,1.2969098492,8.745766603,-4.5547378191000005,1308
102343,196505,248295,1.4069796888000001,8.8809610799,-4.5667019321,1309
102313,196494,248337,1.2897313814,8.9001036607,-4.6013978598,1310
101473,196401,248213,1.2681959779999998,8.8522472087,-4.6636112473999995,1311
100233,196234,248160,1.3016954943999999,8.8043907567,-4.654039957,1312
99347,196134,248098,1.3495519463999999,8.9084785398,-4.6133619728,1313
98891,196047,248000,1.507478238,8.7792661194,-4.642075844,1314
98680,196016,247988,1.2263215825,8.8031943454,-4.5308095931,1315
98628,195980,248004,1.4021940436,8.7553378934,-4.6995035864000005,1316
98780,195998,247981,1.4033904549,8.819944103600001,-4.7066820542,1317
98958,196014,247977,1.4069796888000001,8.7924266437,-4.6755753604,1318
99075,196034,247979,1.4859428346,8.8630149104,-4.637290198800001,1319
99181,196075,248004,1.3351950108,8.7122670866,-4.6085763276,1320
99341,196058,248074,1.4344971487,8.7828553533,-4.5870409242,1321
99528,196128,248094,1.4225330357,8.8008015228,-4.6683968926,1322
99712,196156,248075,1.4033904549,8.7864445872,-4.7090748768,1323
99903,196169,248097,1.3184452526,8.748159425599999,-4.606183505,1324
100036,196217,248125,1.411765334,8.7948194663,-4.6803610056,1325
100304,196240,248146,1.4775679554999999,8.8450687409,-4.6337009649,1326
100508,196253,248134,1.4045868662,8.7553378934,-4.6025942711,1327
100739,196312,248189,1.3986048097,8.8211405149,-4.5858445129,1328
100953,196377,248204,1.3375878334,8.9120677737,-4.6516471344,1329
101178,196361,248229,1.3316057769,8.6093757148,-4.5714875773,1330
101391,196426,248249,1.3950155758,8.764909183799999,-4.5643091095,1331
101613,196432,248275,1.4476576730000001,8.8797646686,-4.6755753604,1332
101866,196473,248290,1.4165509792000002,8.7840517646,-4.6683968926,1333
101771,196459,248302,1.3495519463999999,8.7505522482,-4.7413779819,1334
100914,196367,248167,1.2957134379000002,8.73380249,-4.6803610056,1335
99778,196202,248109,1.4273186809,8.7720876516,-4.6289153197,1336
98973,196095,248055,1.43569356,8.752945070800001,-4.6277189084,1337
98584,196048,248011,1.4093725114000002,8.864211321700001,-4.6971107638,1338
98320,195990,247958,1.5002997702,8.9024964833,-4.5966122146,1339
98377,195983,247953,1.3926227532000002,8.7385881352,-4.5786660451,1340
98541,195976,247938,1.3998012210000002,8.7996051115,-4.701896409,1341
98719,195989,248018,1.4799607781,8.8486579748,-4.5978086259,1342
98851,196046,248036,1.3220344865,8.7960158776,-4.6707897152,1343
98986,196047,248007,1.3184452526,8.819944103600001,-4.6935215299,1344
99183,196068,248015,1.3339985995,8.7673020064,-4.7258246349999995,1345
99401,196083,248052,1.3866406967,8.752945070800001,-4.6851466508,1346
99652,196166,248040,1.4057832774999999,8.7792661194,-4.7042892316,1347
99923,196179,248099,1.328016543,8.7314096674,-4.6851466508,1348
100187,196205,248102,1.3651052933,8.7756768855,-4.6301117309999995,1349
100471,196233,248165,1.4536397294999999,8.8881395477,-4.6217368519,1350
100745,196273,248157,1.3615160593999998,8.7409809578,-4.6660040700000005,1351
101054,196341,248227,1.495514125,8.828318982699999,-4.5595234643,1352
101354,196371,248243,1.4033904549,8.8223369262,-4.6313081423,1353
101672,196430,248198,1.3950155758,8.8008015228,-4.6253260858,1354
101951,196453,248280,1.2861421475,8.8008015228,-4.5559342304,1355
102253,196507,248294,1.3555340029,8.764909183799999,-4.6348973762,1356
102550,196538,248315,1.3998012210000002,8.7242311996,-4.6217368519,1357
102746,196588,248351,1.3244273091,8.859425676499999,-4.654039957,1358
102309,196543,248332,1.4632110199,8.7840517646,-4.589433746799999,1359
101169,196390,248257,1.4392827939,8.8115692245,-4.7569313288,1360
100054,196235,248122,1.4608181972999998,8.7625163612,-4.6731825378,1361
99412,196111,248084,1.387837108,8.8833539025,-4.6971107638,1362
99044,196096,248074,1.4309079148000001,8.8019979341,-4.6229332632,1363
98838,196008,247984,1.4679966650999998,8.8008015228,-4.654039957,1364
98856,196011,248020,1.3866406967,8.7409809578,-4.6923251185999995,1365
99024,196046,248031,1.4368899712999998,8.7553378934,-4.5535414078,1366
99200,196059,248002,1.387837108,8.7708912403,-4.6049870937,1367
99328,196052,248053,1.3830514628000001,8.8378902731,-4.594219392,1368
99450,196093,248032,1.3471591237999998,8.6991065623,-4.6516471344,1369
99642,196097,248039,1.4237294470000001,8.7433737804,-4.6348973762,1370
99863,196139,248076,1.5326028753,8.8103728132,-4.6396830214,1371
100100,196208,248122,1.4440684390999998,8.7409809578,-4.6600220135,1372
100338,196229,248131,1.4309079148000001,8.6679998685,-4.6660040700000005,1373
100589,196242,248182,1.4153545679,8.818747692299999,-4.6384866101,1374
100865,196289,248191,1.3160524299999998,8.8606220878,-4.6133619728,1375
101140,196318,248170,1.3734801723999999,8.7122670866,-4.7066820542,1376
101433,196369,248272,1.4536397294999999,8.8008015228,-4.6337009649,1377
101734,196427,248234,1.411765334,8.757730716,-4.6277189084,1378
102031,196494,248294,1.4703894876999999,8.721838377,-4.5762732225,1379
102319,196537,248293,1.4739787216,8.7948194663,-4.737788748,1380
102609,196583,248325,1.4979069476,8.7469630143,-4.6875394734,1381
102901,196624,248338,1.3854442854000002,8.7625163612,-4.5427737061,1382
103225,196625,248357,1.4201402131,8.6823568041,-4.6612184248,1383
103301,196652,248411,1.3998012210000002,8.7888374098,-4.6552363683,1384
102632,196561,248382,1.4644074312,8.8378902731,-4.5308095931,1385
101428,196422,248226,1.4392827939,8.8127656358,-4.6743789491,1386
100430,196280,248143,1.4895320685,8.7768732968,-4.5332024157,1387
99851,196176,248070,1.4129617452999998,8.7756768855,-4.5762732225,1388
99493,196148,248104,1.4105689227,8.7792661194,-4.637290198800001,1389
99317,196102,248003,1.4703894876999999,8.8031943454,-4.6875394734,1390
99367,196103,248021,1.4177473905,8.8151584584,-4.6588256022,1391
99542,196085,248042,1.4608181972999998,8.7278204335,-4.7282174576000005,1392
99671,196128,248078,1.3304093655999998,8.8223369262,-4.6755753604,1393
99776,196169,248084,1.3639088819999998,8.9407816449,-4.713860522,1394
99916,196162,248039,1.4093725114000002,8.805587167999999,-4.6660040700000005,1395
100121,196188,248086,1.3567304141999998,8.8307118053,-4.5990050372,1396
100320,196227,248162,1.3028919057000001,8.6572321668,-4.5906301581,1397
100581,196234,248189,1.3615160593999998,8.8498543861,-4.6025942711,1398
100814,196260,248128,1.3531411803,8.8079799906,-4.5655055207999995,1399
101037,196325,248195,1.4380863826,8.8079799906,-4.6480579005,1400
101336,196361,248230,1.3651052933,8.7266240222,-4.6492543118,1401
101620,196405,248270,1.3651052933,8.828318982699999,-4.6121655615,1402
101903,196446,248290,1.3710873497999998,8.752945070800001,-4.6348973762,1403
102196,196486,248300,1.2837493249,8.7768732968,-4.6636112473999995,1404
102497,196546,248332,1.3328021881999998,8.7888374098,-4.737788748,1405
102773,196590,248351,1.3435698899,8.8666041443,-4.6169512067000005,1406
103052,196602,248355,1.2981062605,8.6644106346,-4.6492543118,1407
103364,196637,248365,1.5349956979000001,8.752945070800001,-4.7330031028,1408
103603,196704,248446,1.3411770673,8.6847496267,-4.5954158033,1409
103376,196690,248416,1.4237294470000001,8.841479506999999,-4.6731825378,1410
102349,196550,248368,1.351944769,8.9120677737,-4.637290198800001,1411
101201,196419,248223,1.1952148887,8.828318982699999,-4.6791645943,1412
100451,196286,248100,1.4608181972999998,8.7673020064,-4.6444686666,1413
100030,196267,248077,1.2825529136,8.757730716,-4.6157547954,1414
99817,196206,248062,1.3842478741,8.7984087002,-4.6695933039,1415
99831,196196,248105,1.3148560187,8.8091764019,-4.5810588676999995,1416
99949,196175,248114,1.4476576730000001,8.7756768855,-4.6205404406,1417
100067,196239,248109,1.4165509792000002,8.872586200799999,-4.6157547954,1418
100138,196243,248119,1.3950155758,8.8474615635,-4.6827538282,1419
100216,196263,248172,1.387837108,8.7840517646,-4.6636112473999995,1420
100345,196267,248133,1.3854442854000002,8.8785682573,-4.5690947547,1421
100498,196305,248140,1.4536397294999999,8.8211405149,-4.5690947547,1422
100623,196301,248174,1.3926227532000002,8.7385881352,-4.6564327796,1423
100785,196424,248204,1.351944769,8.7768732968,-4.6169512067000005,1424
100979,196345,248217,1.3483555351,8.8474615635,-4.6995035864000005,1425
101112,196393,248211,1.3830514628000001,8.7673020064,-4.6085763276,1426
101295,196407,248216,1.2969098492,8.8091764019,-4.642075844,1427
101481,196464,248280,1.3854442854000002,8.877371846,-4.6241296745,1428
101732,196466,248268,1.3818550514999999,8.8797646686,-4.6337009649,1429
101916,196519,248318,1.4919248910999998,8.709874264,-4.6636112473999995,1430
102127,196520,248296,1.3136596074,8.8582292652,-4.5355952383,1431
102360,196568,248371,1.2646067441000002,8.8091764019,-4.6803610056,1432
102394,196575,248332,1.5062818266999998,8.8713897895,-4.6504507231,1433
101744,196474,248301,1.375872995,8.8343010392,-4.654039957,1434
100450,196334,248164,1.4668002538,8.793623055,-4.6552363683,1435
99526,196213,248069,1.2897313814,8.8833539025,-4.6707897152,1436
98939,196146,248050,1.3854442854000002,8.7888374098,-4.6504507231,1437
98604,196066,247990,1.3603196481,8.864211321700001,-4.6827538282,1438
98408,196026,247964,1.3615160593999998,8.7948194663,-4.6863430621,1439
98538,196045,247952,1.3710873497999998,8.774480474199999,-4.609772738899999,1440
98684,196065,248000,1.3639088819999998,8.8390866844,-4.6923251185999995,1441
98797,196051,248014,1.4775679554999999,8.764909183799999,-4.6169512067000005,1442
98873,196067,248002,1.4189438018,8.697910151,-4.618147618,1443
99021,196081,248009,1.483550012,8.748159425599999,-4.7449672158,1444
99202,196110,248019,1.5266208188,8.916853418899999,-4.5954158033,1445
99424,196151,248023,1.483550012,8.829515394,-4.654039957,1446
99658,196171,248073,1.3304093655999998,8.7589271273,-4.654039957,1447
99906,196135,248080,1.3172488413,8.7385881352,-4.6923251185999995,1448
100121,196233,248099,1.3232308977999998,8.8630149104,-4.6923251185999995,1449
100389,196279,248172,1.4703894876999999,8.8977108381,-4.6253260858,1450
100664,196294,248203,1.2215359373,8.7421773691,-4.6516471344,1451
100924,196355,248174,1.2430713407,8.8223369262,-4.6707897152,1452
101226,196385,248208,1.4237294470000001,8.7960158776,-4.6516471344,1453
101490,196350,248190,1.4021940436,8.864211321700001,-4.6480579005,1454
101754,196457,248259,1.4859428346,8.709874264,-4.6636112473999995,1455
102036,196530,248288,1.4404792052000002,8.819944103600001,-4.5690947547,1456
102311,196545,248322,1.5326028753,8.8510507974,-4.6875394734,1457
102201,196565,248335,1.2646067441000002,8.739784546500001,-4.6444686666,1458
101402,196456,248244,1.4500504956,8.757730716,-4.6995035864000005,1459
100079,196241,248133,1.3459627125,8.721838377,-4.6660040700000005,1460
99094,196163,248018,1.4428720278,8.695517328400001,-4.677968183,1461
98515,196020,247981,1.5302100526999998,8.7266240222,-4.6755753604,1462
98166,195959,247958,1.3615160593999998,8.8354974505,-4.6576291909,1463
97969,195938,247934,1.2370892842,8.7984087002,-4.6348973762,1464
98024,195939,247927,1.3663017045999999,8.8582292652,-4.6337009649,1465
98194,195963,247906,1.4644074312,8.8558364426,-4.5966122146,1466
98333,195954,247966,1.4033904549,8.7984087002,-4.642075844,1467
98426,195960,247935,1.4368899712999998,8.7673020064,-4.6109691502,1468
98507,196000,247978,1.4129617452999998,8.7266240222,-4.6444686666,1469
98745,196021,247992,1.4344971487,8.817551281,-4.6241296745,1470
98977,196038,248039,1.4321043261,8.7924266437,-4.6169512067000005,1471
99223,196115,248008,1.4045868662,8.8989072494,-4.654039957,1472
99461,196141,248047,1.4021940436,8.7864445872,-4.6851466508,1473
99720,196160,248060,1.3064811396,8.7912302324,-4.6085763276,1474
99966,196254,248113,1.4703894876999999,8.7996051115,-4.6803610056,1475
100247,196259,248120,1.4727823103,8.781658942,-4.637290198800001,1476
100513,196279,248137,1.3160524299999998,8.7409809578,-4.6755753604,1477
100804,196341,248186,1.43569356,8.694320917099999,-4.5535414078,1478
101089,196347,248189,1.3902299306,8.819944103600001,-4.6995035864000005,1479
101374,196392,248233,1.4919248910999998,8.9563349918,-4.5966122146,1480
101648,196458,248253,1.5230315848999998,8.818747692299999,-4.5619162869,1481
101944,196477,248305,1.4488540843,8.8103728132,-4.6049870937,1482
101925,196540,248292,1.3615160593999998,8.7864445872,-4.6875394734,1483
101050,196365,248232,1.375872995,8.6775711589,-4.6636112473999995,1484
99819,196190,248075,1.5601203352,8.7553378934,-4.738985159299999,1485
98884,196065,248003,1.4141581566,8.662017812,-4.6037906824000006,1486
98378,195993,247944,1.3926227532000002,8.7290168448,-4.6731825378,1487
98085,195952,247880,1.3124631961,8.7900338211,-4.6157547954,1488
97904,195918,247918,1.4380863826,8.8223369262,-4.643272255299999,1489
98084,195912,247948,1.3615160593999998,8.8259261601,-4.6444686666,1490
98262,195946,247945,1.459621786,8.7864445872,-4.6588256022,1491
98392,195924,247941,1.5098710606,8.864211321700001,-4.6731825378,1492
98531,195967,247972,1.3686945272,8.8235333375,-4.5726839886,1493
98672,195995,247988,1.3375878334,8.7589271273,-4.6073799163,1494
98887,196055,247986,1.4249258583,8.8821574912,-4.6564327796,1495
99145,196043,247984,1.4225330357,8.9001036607,-4.6851466508,1496
99370,196099,248043,1.2777672683999999,8.7792661194,-4.671986126499999,1497
99633,196109,248059,1.4632110199,8.7756768855,-4.6528435457,1498
99900,196171,248088,1.4021940436,8.7625163612,-4.6348973762,1499
100187,196216,248058,1.3926227532000002,8.793623055,-4.654039957,1500
100498,196275,248165,1.4141581566,8.7326060787,-4.5750768112,1501
100805,196334,248156,1.4536397294999999,8.7912302324,-4.7042892316,1502
101111,196346,248180,1.4249258583,8.8821574912,-4.6827538282,1503
101412,196377,248233,1.3686945272,8.7601235386,-4.6803610056,1504
101738,196450,248217,1.2849457361999999,8.8953180155,-4.5643091095,1505
102033,196460,248278,1.4739787216,8.7553378934,-4.6444686666,1506
102348,196440,248307,1.3974083984,8.7864445872,-4.7162533446,1507
102642,196555,248348,1.3722837611,8.7230347883,-4.6157547954,1508
102465,196538,248336,1.3495519463999999,8.8474615635,-4.6803610056,1509
101465,196415,248220,1.3686945272,8.8749790234,-4.6193440293,1510
100321,196259,248143,1.4177473905,8.8546400313,-4.6217368519,1511
99563,196168,248064,1.3579268255,8.8366938618,-4.6444686666,1512
99195,196123,248068,1.2251251712,8.769694829,-4.705485642899999,1513
99015,196057,247991,1.4368899712999998,8.8103728132,-4.6085763276,1514
99012,196117,248012,1.3890335193,8.8008015228,-4.6444686666,1515
99204,196110,248027,1.2969098492,8.6931245058,-4.5978086259,1516
99362,196116,248052,1.4201402131,8.9144605963,-4.5834516903,1517
99472,196166,248035,1.375872995,8.7888374098,-4.6707897152,1518
