green,red,IR,acc_x,acc_y,acc_z,sample_index
110766,217049,252842,2.2229321954,-6.6807606991999995,6.6891355783,1
110867,217015,252813,2.2564317118,-6.6364934811000005,6.8638116281,2
110993,217030,252861,2.1858434451,-6.659225295800001,6.7645094902,3
111103,217042,252853,2.1044874766999997,-6.6783678766,6.6652073523,4
111329,217058,252846,2.1571295739000003,-6.6065831986,6.8075802969999994,5
111534,217058,252826,2.2803599377999997,-6.5264236415,6.798009006599999,6
111679,217079,252909,2.3114666316,-6.6951176348,6.723831506,7
111930,217105,252869,2.3102702203,-6.7058853365,6.7740807806,8
112073,217068,252871,2.2516460665999998,-6.7070817478,6.7812592484,9
112248,217097,252922,2.2109680824,-6.6903319896,6.8075802969999994,10
112402,217149,252886,2.3150558654999998,-6.7465633207,6.8015982405,11
112604,217098,252872,2.2959132847,-6.6341006585,6.7764736032,12
112786,217158,252906,2.2408783649,-6.6233329568,6.771687958,13
112797,217131,252914,2.2636101795999997,-6.5144595285,6.7549381998,14
112615,217088,252930,2.129612114,-6.759723845,6.740581264199999,15
112043,217061,252842,2.1978075581,-6.5742800935,6.897311144500001,16
111558,217032,252914,2.3676979627,-6.723831506,6.7441704981,17
111103,217006,252877,2.2923240508,-6.6484575941,6.7142602155999995,18
110797,216932,252849,2.2743778813,-6.568298037,6.6891355783,19
110676,217007,252853,2.3258235672,-6.6927248122,6.8482582812,20
110685,217037,252904,2.2277178406,-6.7334027964,6.7010996913000005,21
110701,217005,252813,2.1487546948,-6.6855463444,6.7142602155999995,22
110707,216975,252842,2.356930261,-6.759723845,6.7908305388,23
110728,216958,252830,2.2085752598,-6.632904247199999,6.851847515099999,24
110828,216978,252831,2.2085752598,-6.6245293681,6.771687958,25
110934,216999,252844,2.2552353005,-6.7621166676,6.7453669094,26
111112,217025,252860,2.2468604214,-6.8147587648000005,6.7262243286,27
111280,217083,252867,2.1332013479,-6.5730836822,6.798009006599999,28
111409,217041,252896,2.2588245344,-6.687939167000001,6.7465633207,29
111650,217071,252886,2.3653051401,-6.673582231399999,6.8004018292,30
111784,217087,252895,2.3533410271,-6.6305114246,6.7992054179000005,31
112042,217059,252883,2.177468566,-6.6245293681,6.7884377162,32
112221,217100,252928,2.1810577999,-6.5694944482999995,6.7441704981,33
112428,217097,252907,2.2121644937,-6.7310099738,6.783652071000001,34
112620,217122,252927,2.2384855423,-6.5001025929,6.7310099738,35
112826,217155,252940,2.1523439287,-6.6065831986,6.7740807806,36
113006,217156,252953,2.3318056236999998,-6.6604217071,6.782455659699999,37
112997,217131,252929,2.2815563491,-6.795616184,6.783652071000001,38
112636,217091,252898,2.237289131,-6.8255264665,6.6604217071,39
112180,217093,252937,2.2277178406,-6.6915284009,6.8327049343,40
111748,217075,252941,2.2289142519,-6.7657059015,6.836294168199999,41
111419,217043,252936,2.2911276395,-6.5611195692,6.7908305388,42
111259,217074,252889,2.2516460665999998,-6.5096738833000005,6.8638116281,43
111234,217073,252939,2.2959132847,-6.740581264199999,6.7669023128,44
111293,217038,252934,2.2899312282,-6.644868360199999,6.753741788499999,45
111298,217088,252905,2.2648065909,-6.642475537599999,6.7968125953,46
111325,217059,252849,2.0063817501,-6.6305114246,6.9092752575,47
111415,217061,252885,2.2695922361,-6.5228344076,6.7968125953,48
111484,217052,252903,2.0709879603,-6.6987068686999995,6.740581264199999,49
111630,217137,252898,2.165504453,-6.687939167000001,6.7944197726999995,50
111756,217124,252907,2.2743778813,-6.6891355783,6.7501525546,51
111952,217045,252886,2.2767707039,-6.709474570399999,6.7058853365,52
112108,217079,252875,2.1200408236,-6.6723858201,6.7669023128,53
112209,217103,252880,2.2289142519,-6.7130638043,6.8303121117,54
112414,217081,252897,2.3294128011,-6.6699929975,6.7609202563,55
112578,217093,252932,2.2013967919999997,-6.7178494495,6.735795619,56
112696,217098,252899,2.3353948576,-6.7764736032,6.753741788499999,57
112843,217090,252885,2.3964118339,-6.687939167000001,6.7764736032,58
113020,217062,252919,2.2743778813,-6.7070817478,6.7944197726999995,59
113156,217174,252882,2.2947168733999996,-6.7058853365,6.759723845,60
113133,217076,252941,2.2241286067,-6.5850477951999995,6.7968125953,61
112732,217035,252901,2.1966111468,-6.5479590449,6.7884377162,62
112259,217059,252910,2.225325018,-6.6305114246,6.843472636,63
111742,217003,252879,2.2552353005,-6.7214386834,6.7393848529,64
111381,216976,252853,2.3066809864,-6.7992054179000005,6.7680987241,65
111197,217025,252872,2.416750826,-6.6927248122,6.7477597320000005,66
111128,216962,252876,2.1367905818,-6.7118673929999995,6.8339013456,67
111144,216956,252855,2.3844477209,-6.652046828,6.699903279999999,68
111118,216974,252829,2.1870398563999998,-6.6819571105,6.723831506,69
111139,216970,252819,2.2827527603999997,-6.6149580777,6.9116680801,70
111180,216979,252832,2.1523439287,-6.7549381998,6.7621166676,71
111279,217011,252830,2.1750757434,-6.6903319896,6.7884377162,72
111390,217043,252833,2.2564317118,-6.7334027964,6.8075802969999994,73
111527,216989,252846,2.3629123174999997,-6.741777675500001,6.7812592484,74
111700,216979,252844,2.3258235672,-6.7513489659,6.8183479987,75
111876,217008,252882,2.285145583,-6.6568324732,6.7525453772,76
112048,217060,252846,2.2899312282,-6.6065831986,6.81954441,77
112206,217025,252878,2.1798613886,-6.6352970698,6.866204450700001,78
112380,217040,252841,2.2624137683,-6.5958154969,6.783652071000001,79
112555,217093,252877,2.2528424779,-6.753741788499999,6.7166530382000005,80
112726,217062,252879,2.2636101795999997,-6.7992054179000005,6.786044893600001,81
112917,217103,252870,2.2456640101,-6.7609202563,6.8004018292,82
113064,217092,252908,2.27318147,-6.5970119082,6.849454692499999,83
113140,217064,252888,2.2552353005,-6.5479590449,6.8063838857,84
112840,217085,252882,2.3270199785,-6.7645094902,6.8901326766999995,85
112307,216995,252940,2.2444675988,-6.686742755699999,6.8004018292,86
111718,216981,252866,2.0985054202,-6.6951176348,6.8051874744,87
111252,217002,252834,2.3748764305,-6.5527446901,6.8350977569,88
110880,216892,252837,2.3509482045,-6.629315013299999,6.6783678766,89
110645,216928,252800,2.2061824372,-6.6975104574,6.843472636,90
110613,216923,252837,2.2935204621,-6.5934226743,6.699903279999999,91
110650,216955,252804,2.1738793321000003,-6.6484575941,6.8087767083,92
110607,216938,252784,2.2468604214,-6.6125652551,6.7788664257999995,93
110665,216943,252828,2.2887348169,-6.6101724325,6.7501525546,94
110711,216924,252779,2.2420747762,-6.58026215,6.7752771919,95
110864,217001,252827,2.2839491717,-6.6245293681,6.7334027964,96
110960,216989,252784,2.261217357,-6.6352970698,6.823133643899999,97
111130,216932,252834,2.2600209457,-6.6652073523,6.7776700145,98
111357,216997,252847,2.2576281231,-6.675975054,6.7262243286,99
111484,216978,252836,2.1511475174,-6.5587267466,6.8291157004,100
111687,217000,252850,2.2600209457,-6.709474570399999,6.8123659422000005,101
111898,217016,252858,2.2504496553,-6.7621166676,6.7262243286,102
112132,217054,252852,2.189432679,-6.6149580777,6.7764736032,103
112295,217066,252869,2.2624137683,-6.7142602155999995,6.8027946518,104
112498,217072,252840,2.2588245344,-6.642475537599999,6.7669023128,105
112688,217050,252844,2.1212372348999997,-6.613761666399999,6.7669023128,106
112866,217100,252923,2.2624137683,-6.6436719489,6.7310099738,107
112862,217076,252887,2.2097716711,-6.709474570399999,6.7992054179000005,108
112505,217030,252915,2.2564317118,-6.6317078358999995,6.7764736032,109
111955,217005,252915,2.2157537276,-6.6376898924,6.673582231399999,110
111489,217014,252851,2.2875384056,-6.7621166676,6.8614188055,111
111043,217012,252832,2.1882362677000002,-6.6053867873000005,6.7501525546,112
110754,216927,252881,2.1343977592,-6.6221365455,6.7645094902,113
110686,216972,252835,2.237289131,-6.6951176348,6.879364975,114
110693,216966,252849,2.3413769141,-6.576672916100001,6.7812592484,115
110727,216918,252880,2.3581266723,-6.6508504167,6.7992054179000005,116
110781,216995,252882,2.3246271559,-6.756134611099999,6.757331022400001,117
110731,216941,252842,2.2013967919999997,-6.4953169477,6.7082781591,118
110863,216950,252832,2.3234307446,-6.6831535217999996,6.783652071000001,119
110996,216952,252808,2.2073788485,-6.6149580777,6.81954441,120
111151,216991,252875,2.3473589706,-6.5371913432,6.7549381998,121
111224,217015,252847,2.3461625592999997,-6.659225295800001,6.7896341275,122
111527,216997,252878,2.1822542112,-6.658028884499999,6.7908305388,123
111728,217005,252881,2.285145583,-6.703492513900001,6.831508523,124
111924,217016,252854,2.2935204621,-6.7645094902,6.7788664257999995,125
112119,217057,252878,2.2636101795999997,-6.7142602155999995,6.8291157004,126
112277,217064,252922,2.3916261887,-6.6436719489,6.8446690473,127
112481,217051,252853,2.2420747762,-6.7298135625,6.8542403377,128
112674,217090,252888,2.1846470338,-6.642475537599999,6.7932233614,129
112877,217121,252892,2.2468604214,-6.7968125953,6.7932233614,130
112984,217077,252968,2.2301106632,-6.8147587648000005,6.8566331603,131
112829,217043,252877,2.2205393728,-6.5072810607,6.723831506,132
112386,217045,252923,2.2408783649,-6.6149580777,6.7453669094,133
111952,217002,252896,2.1128623558,-6.6987068686999995,6.757331022400001,134
111542,217030,252853,2.0913269524,-6.5431733997,6.7884377162,135
111327,216999,252893,2.1750757434,-6.576672916100001,6.735795619,136
111252,217064,252851,2.2983061073,-6.6807606991999995,6.6305114246,137
111252,216963,252863,2.1116659445,-6.5814585613,6.769295135399999,138
111266,216985,252847,2.3389840915,-6.6807606991999995,6.769295135399999,139
111262,216983,252852,2.2683958248,-6.699903279999999,6.8183479987,140
111269,216943,252829,2.0925233637,-6.5790657387,6.81954441,141
111329,216870,252840,2.1032910654,-6.7142602155999995,6.6508504167,142
111416,216913,252804,2.3306092124,-6.715456626899999,6.820740821299999,143
111545,216941,252829,2.2516460665999998,-6.6951176348,6.728617151199999,144
111708,216965,252792,2.1164515897,-6.6305114246,6.7764736032,145
111918,217018,252838,2.1954147355,-6.6939212235,6.6783678766,146
112026,217043,252797,2.2815563491,-6.7549381998,6.8542403377,147
112255,217004,252851,2.1978075581,-6.6317078358999995,6.7262243286,148
112384,217008,252857,2.3174486881,-6.6245293681,6.7453669094,149
112582,217051,252846,2.2205393728,-6.6245293681,6.7214386834,150
112707,217043,252853,2.2049860259000003,-6.521637996299999,6.849454692499999,151
112885,217015,252878,2.3341984463,-6.550351867499999,6.7166530382000005,152
113040,217121,252875,2.2791635265,-6.6089760212,6.8733829185,153
113132,217041,252890,2.2061824372,-6.6951176348,6.757331022400001,154
112848,217017,252898,2.2360927197000002,-6.699903279999999,6.7549381998,155
112273,216972,252846,2.2097716711,-6.7513489659,6.7298135625,156
111784,216935,252832,2.3389840915,-6.632904247199999,6.7381884416,157
111349,216907,252830,2.3653051401,-6.7022961026,6.7214386834,158
111019,216946,252837,2.1523439287,-6.675975054,6.783652071000001,159
110839,216918,252810,2.2384855423,-6.674778642700001,6.8099731195999995,160
110802,216925,252801,2.2947168733999996,-6.576672916100001,6.7453669094,161
110823,216883,252798,2.3294128011,-6.576672916100001,6.786044893600001,162
110878,216933,252857,2.1834506225,-6.6819571105,6.757331022400001,163
110896,216911,252808,2.2325034857999997,-6.6795642879,6.8997039671,164
110943,216881,252774,2.2528424779,-6.6029939646999996,6.7190458608,165
111049,216933,252807,2.225325018,-6.6855463444,6.8183479987,166
111230,216910,252833,2.1702900981999997,-6.687939167000001,6.7214386834,167
111389,216951,252804,2.3389840915,-6.6317078358999995,6.8638116281,168
111538,216994,252878,2.2875384056,-6.6628145297,6.740581264199999,169
111740,216954,252779,2.344966148,-6.607779609900001,6.7609202563,170
111932,216969,252840,2.285145583,-6.5527446901,6.8721865072,171
112020,216950,252814,2.3545374384,-6.7082781591,6.8123659422000005,172
112298,217009,252868,2.1822542112,-6.757331022400001,6.7190458608,173
112493,217018,252833,2.3784656644,-6.6616181184,6.7501525546,174
112681,217024,252832,2.2755742926,-6.6723858201,6.7908305388,175
112888,217027,252887,2.261217357,-6.7274207398999994,6.8590259828999995,176
113066,217048,252856,2.4000010678,-6.7848484823,6.7322063851000005,177
113019,217054,252868,2.2325034857999997,-6.646064771500001,6.9176501366,178
112631,216960,252857,2.1762721547,-6.5982083195,6.8350977569,179
112119,216956,252879,2.2289142519,-6.715456626899999,6.723831506,180
111645,216919,252767,2.2863419943,-6.617350900300001,6.728617151199999,181
111276,216919,252841,2.2719850587,-6.7896341275,6.7621166676,182
111008,216898,252874,2.2564317118,-6.646064771500001,6.7621166676,183
110959,216963,252857,2.237289131,-6.855436749,6.7441704981,184
110961,216974,252803,2.2839491717,-6.5946190856,6.8829542089,185
111012,216930,252820,2.2863419943,-6.604190375999999,6.687939167000001,186
111056,216922,252851,2.3748764305,-6.5778693274,6.7920269500999995,187
111136,216985,252820,2.1320049366,-6.7022961026,6.851847515099999,188
111207,217007,252836,2.2935204621,-6.7369920303,6.7142602155999995,189
111231,216963,252817,2.1439690496,-6.664010941,6.795616184,190
111503,216968,252836,2.3078773977,-6.591029851699999,6.7190458608,191
111693,216980,252843,2.3581266723,-6.7106709817,6.7812592484,192
111860,216997,252846,2.2588245344,-6.617350900300001,6.7621166676,193
112106,216967,252867,2.213360905,-6.723831506,6.728617151199999,194
112301,217006,252889,2.237289131,-6.709474570399999,6.709474570399999,195
112514,217050,252877,2.3294128011,-6.7142602155999995,6.795616184,196
112711,217051,252899,2.2923240508,-6.7345992077,6.7142602155999995,197
112903,217063,252869,2.2552353005,-6.6604217071,6.7896341275,198
113145,217100,252899,2.3282163898,-6.5240308189,6.8039910631,199
113315,217092,252926,2.1918255016,-6.7764736032,6.7920269500999995,200
113516,217119,252940,2.1236300575,-6.7645094902,6.769295135399999,201
113524,217118,252894,2.2923240508,-6.6676001749,6.7501525546,202
113197,217011,252911,2.2480568327,-6.6616181184,6.7908305388,203
112745,217053,252904,2.2277178406,-6.7262243286,6.7657059015,204
112353,217079,252888,2.2935204621,-6.6305114246,6.7884377162,205
112028,217017,252867,2.2803599377999997,-6.6269221907,6.783652071000001,206
111870,217031,252910,2.1750757434,-6.646064771500001,6.8027946518,207
111753,217026,252866,2.261217357,-6.6376898924,6.7298135625,208
111872,217011,252886,2.3653051401,-6.6257257794,6.7310099738,209
111893,216985,252867,2.2552353005,-6.6951176348,6.759723845,210
111928,217030,252905,2.0901305410999997,-6.5671016257,6.786044893600001,211
111996,217009,252874,2.1942183242,-6.5575303353,6.8051874744,212
112067,217070,252910,2.1080767106,-6.7046889252,6.8482582812,213
112205,217018,252848,2.2085752598,-6.7298135625,6.7465633207,214
112366,217075,252883,2.1954147355,-6.6101724325,6.853043926400001,215
112499,217095,252846,2.2588245344,-6.7381884416,6.7477597320000005,216
112658,217062,252908,2.2504496553,-6.7800628371,6.7680987241,217
112816,217065,252868,2.2468604214,-6.735795619,6.8267228778,218
112977,217074,252890,2.3389840915,-6.7657059015,6.7680987241,219
113057,217079,252926,2.2983061073,-6.6927248122,6.7740807806,220
113246,217049,252865,2.2384855423,-6.699903279999999,6.7549381998,221
113428,217097,252923,2.1343977592,-6.7621166676,6.723831506,222
113462,217079,252903,2.2743778813,-6.5862442065,6.81954441,223
113726,217158,252882,2.2073788485,-6.5994047308,6.7190458608,224
113855,217121,252939,2.2492532439999997,-6.728617151199999,6.723831506,225
113616,217079,252926,2.2516460665999998,-6.6951176348,6.6831535217999996,226
113179,217043,252863,2.2468604214,-6.7214386834,6.8279192891000005,227
112699,217022,252861,2.3030917525,-6.7621166676,6.8135623535,228
112207,217050,252921,2.1367905818,-6.7381884416,6.8123659422000005,229
112014,216904,252885,2.3533410271,-6.5934226743,6.7166530382000005,230
111894,217010,252855,2.2552353005,-6.6065831986,6.741777675500001,231
111865,216977,252807,2.2552353005,-6.7142602155999995,6.709474570399999,232
111886,217000,252832,2.2420747762,-6.6364934811000005,6.935596306100001,233
111875,216988,252819,2.2109680824,-6.5838513839,6.9284178383,234
111909,216986,252861,2.189432679,-6.6352970698,6.7381884416,235
111884,216972,252827,2.2887348169,-6.6149580777,6.7070817478,236
112037,216969,252824,2.1355941704999997,-6.646064771500001,6.7968125953,237
112150,217049,252798,2.237289131,-6.6233329568,6.664010941,238
112271,217015,252884,2.3473589706,-6.7645094902,6.6819571105,239
112472,217043,252859,2.2205393728,-6.7429740868,6.782455659699999,240
112594,217072,252872,2.2492532439999997,-6.563512391800001,6.6819571105,241
112750,217023,252876,2.15354034,-6.740581264199999,6.8853470315,242
112973,217000,252819,2.2743778813,-6.6664037636,6.783652071000001,243
113120,217023,252825,2.165504453,-6.7645094902,6.8183479987,244
113265,217017,252827,2.2887348169,-6.7334027964,6.6006011420999995,245
113470,217063,252853,2.2325034857999997,-6.6496540054,6.6699929975,246
113633,217111,252895,2.2229321954,-6.6101724325,6.8267228778,247
113805,217095,252892,2.1750757434,-6.7214386834,6.8374905795,248
113899,217096,252848,2.1762721547,-6.6855463444,6.7848484823,249
113604,217090,252885,2.1930219129,-6.6568324732,6.906882434900001,250
113083,217022,252898,2.2660030021999997,-6.715456626899999,6.7740807806,251
112579,216992,252872,2.3114666316,-6.675975054,6.7752771919,252
112061,217009,252823,2.177468566,-6.703492513900001,6.7381884416,253
111750,216971,252842,2.1391834043999998,-6.646064771500001,6.7214386834,254
111561,216995,252864,2.3365912689,-6.6855463444,6.759723845,255
111522,216943,252783,2.2959132847,-6.741777675500001,6.6616181184,256
111535,217010,252819,2.2947168733999996,-6.5946190856,6.644868360199999,257
111499,216922,252808,2.2289142519,-6.6161544889999995,6.7322063851000005,258
111584,216936,252781,2.3138594542,-6.6101724325,6.7525453772,259
111672,216995,252825,2.3605194949,-6.7800628371,6.740581264199999,260
111717,216886,252814,2.3700907853,-6.6496540054,6.8183479987,261
111818,216956,252797,2.3102702203,-6.673582231399999,6.7920269500999995,262
112016,216966,252782,2.3916261887,-6.687939167000001,6.843472636,263
112190,216957,252815,2.2504496553,-6.6352970698,6.7764736032,264
112335,217003,252813,2.2564317118,-6.6975104574,6.7752771919,265
112532,216947,252818,2.2755742926,-6.6233329568,6.81954441,266
112715,217010,252834,2.1918255016,-6.640082715,6.759723845,267
112888,217051,252872,2.2707886474,-6.7920269500999995,6.7908305388,268
113105,217040,252863,2.2157537276,-6.673582231399999,6.798009006599999,269
113265,217085,252859,2.3413769141,-6.576672916100001,6.770491546700001,270
113448,217095,252886,2.2229321954,-6.6807606991999995,6.866204450700001,271
113659,217072,252891,2.1846470338,-6.576672916100001,6.725027917299999,272
113748,217105,252860,2.3174486881,-6.5946190856,6.786044893600001,273
113547,217059,252841,2.2456640101,-6.6616181184,6.7334027964,274
113097,217061,252882,2.3605194949,-6.5120667059,6.7334027964,275
112636,217020,252852,2.2600209457,-6.6975104574,6.5970119082,276
112246,217025,252849,2.1762721547,-6.7453669094,6.7441704981,277
111959,216977,252854,2.2193429615,-6.6496540054,6.786044893600001,278
111807,216987,252892,2.2336998971,-6.6915284009,6.8135623535,279
111827,217013,252854,2.3940190112999997,-6.6903319896,6.7896341275,280
111851,217013,252820,2.2181465501999997,-6.6101724325,6.8183479987,281
111879,217040,252876,2.3437697367,-6.673582231399999,6.7190458608,282
111906,217008,252849,2.3174486881,-6.6125652551,6.6807606991999995,283
111951,217015,252854,2.2325034857999997,-6.659225295800001,6.7429740868,284
112045,217022,252805,2.3270199785,-6.6352970698,6.8087767083,285
112195,217038,252814,2.2552353005,-6.7453669094,6.6927248122,286
112333,217043,252822,2.2516460665999998,-6.652046828,6.7190458608,287
112510,217047,252848,2.2935204621,-6.575476504799999,6.8219372326,288
112633,217038,252845,2.3653051401,-6.6939212235,6.7872413049,289
112858,217076,252868,2.2348963083999998,-6.7992054179000005,6.771687958,290
113105,217130,252886,2.2420747762,-6.559923157899999,6.7334027964,291
113242,217122,252905,2.225325018,-6.6352970698,6.8877398540999994,292
113399,217095,252918,2.1547367513,-6.703492513900001,6.7334027964,293
113617,217166,252904,2.2803599377999997,-6.7070817478,6.8542403377,294
113778,217150,252892,2.2779671152,-6.6903319896,6.8147587648000005,295
113873,217137,252917,2.2073788485,-6.5958154969,6.7920269500999995,296
114010,217143,252943,2.2935204621,-6.7669023128,6.9092752575,297
113773,217087,252923,2.3162522768000002,-6.6975104574,6.757331022400001,298
113346,217116,252882,2.2301106632,-6.6975104574,6.740581264199999,299
112939,217091,252948,2.2181465501999997,-6.6556360619,6.7740807806,300
112633,217039,252939,2.27318147,-6.6903319896,6.6125652551,301
112443,217062,252876,2.2181465501999997,-6.687939167000001,6.7046889252,302
112329,217053,252827,2.237289131,-6.6951176348,6.6951176348,303
112372,217052,252806,2.2564317118,-6.6209401342000005,6.6652073523,304
112348,217038,252785,2.2444675988,-6.592226263000001,6.6903319896,305
112348,217036,252819,2.2576281231,-6.6388863037,6.8410798134,306
112369,217030,252814,2.3042881638,-6.6544396506,6.7968125953,307
112414,217050,252823,2.15354034,-6.6317078358999995,6.7010996913000005,308
112502,217007,252818,2.2241286067,-6.7369920303,6.6783678766,309
112606,217027,252813,2.2085752598,-6.5647088031,6.7920269500999995,310
112711,217045,252796,2.2743778813,-6.6664037636,6.7214386834,311
112859,217071,252831,2.2157537276,-6.771687958,6.7010996913000005,312
113047,217090,252827,2.213360905,-6.6364934811000005,6.7501525546,313
113175,217046,252814,2.2325034857999997,-6.6376898924,6.8015982405,314
113349,217089,252853,2.1870398563999998,-6.659225295800001,6.7142602155999995,315
113546,217130,252834,2.3461625592999997,-6.703492513900001,6.7728843693,316
113653,217097,252818,2.404786713,-6.6676001749,6.7525453772,317
113795,217024,252831,2.27318147,-6.709474570399999,6.795616184,318
113950,217118,252863,2.2887348169,-6.5886370291,6.878168563699999,319
113962,217089,252836,2.2073788485,-6.6209401342000005,6.740581264199999,320
113556,217072,252871,2.2983061073,-6.6089760212,6.770491546700001,321
113118,217070,252826,2.2157537276,-6.723831506,6.8853470315,322
112601,216993,252777,2.1990039694,-6.607779609900001,6.8015982405,323
112149,217022,252824,2.0685951377,-6.6616181184,6.7022961026,324
111756,217000,252794,2.1846470338,-6.6699929975,6.7046889252,325
111636,216984,252801,2.2983061073,-6.6317078358999995,6.7166530382000005,326
111591,216993,252800,2.285145583,-6.7669023128,6.769295135399999,327
111589,217008,252769,2.2528424779,-6.604190375999999,6.8446690473,328
111531,216975,252795,2.2492532439999997,-6.6161544889999995,6.7429740868,329
111580,216941,252808,2.2504496553,-6.6915284009,6.7944197726999995,330
111633,216995,252742,2.27318147,-6.7944197726999995,6.7621166676,331
111715,217008,252786,2.3174486881,-6.6269221907,6.770491546700001,332
111823,216975,252788,2.2456640101,-6.6508504167,6.771687958,333
111973,216967,252789,2.2145573163,-6.6221365455,6.7501525546,334
112080,216997,252769,2.1846470338,-6.798009006599999,6.7788664257999995,335
112305,217008,252768,2.2037896146,-6.6855463444,6.8685972733,336
112478,216981,252796,2.3365912689,-6.6317078358999995,6.7680987241,337
112636,216930,252791,2.1607188078,-6.629315013299999,6.7322063851000005,338
112817,217067,252841,2.2600209457,-6.664010941,6.757331022400001,339
112945,217041,252851,2.261217357,-6.7058853365,6.839883402099999,340
113148,217039,252823,2.2444675988,-6.7585274337,6.699903279999999,341
113320,217052,252823,2.285145583,-6.6341006585,6.8087767083,342
113400,217079,252832,2.1918255016,-6.521637996299999,6.6975104574,343
113404,217063,252862,2.285145583,-6.632904247199999,6.7740807806,344
112973,217016,252803,2.2181465501999997,-6.6975104574,6.8159551761,345
112459,217059,252840,2.1846470338,-6.5886370291,6.6903319896,346
111964,216949,252773,2.1487546948,-6.5120667059,6.820740821299999,347
111596,216871,252823,2.1284157027,-6.6245293681,6.798009006599999,348
111338,216878,252766,2.2624137683,-6.6305114246,6.8578295716,349
111287,216972,252780,2.2193429615,-6.6783678766,6.8470618699,350
111203,216960,252807,2.1320049366,-6.5874406178,6.7633130788999996,351
111316,217015,252794,2.225325018,-6.673582231399999,6.7501525546,352
111347,216960,252804,2.2313070745,-6.6723858201,6.7669023128,353
111382,216974,252798,2.2468604214,-6.6149580777,6.7920269500999995,354
111499,217000,252782,2.2935204621,-6.6352970698,6.7992054179000005,355
111617,216995,252788,2.2049860259000003,-6.6807606991999995,6.7800628371,356
111747,216975,252809,2.2325034857999997,-6.769295135399999,6.8219372326,357
111938,216991,252811,2.1750757434,-6.7178494495,6.740581264199999,358
112128,217016,252824,2.1990039694,-6.7465633207,6.7118673929999995,359
112338,216973,252796,2.2707886474,-6.7190458608,6.8063838857,360
112515,217019,252866,2.3341984463,-6.6305114246,6.703492513900001,361
112676,217014,252817,2.2707886474,-6.5647088031,6.839883402099999,362
112916,217041,252850,2.2516460665999998,-6.6436719489,6.7645094902,363
113047,217096,252861,2.2516460665999998,-6.6664037636,6.7310099738,364
113259,217086,252890,2.2648065909,-6.6604217071,6.7501525546,365
113461,217159,252860,2.3509482045,-6.674778642700001,6.8075802969999994,366
113614,217125,252812,2.3341984463,-6.7310099738,6.7812592484,367
113507,217017,252873,2.2420747762,-6.6975104574,6.7334027964,368
113114,217048,252878,2.2205393728,-6.6161544889999995,6.7058853365,369
112587,217026,252897,2.2983061073,-6.550351867499999,6.7477597320000005,370
112220,217038,252851,2.1667008643,-6.550351867499999,6.7334027964,371
111935,217013,252798,2.2229321954,-6.7429740868,6.7477597320000005,372
111844,217040,252841,2.225325018,-6.8327049343,6.7788664257999995,373
111852,216972,252793,2.1990039694,-6.6317078358999995,6.8004018292,374
111883,216930,252787,2.237289131,-6.628118602,6.8063838857,375
111880,217028,252803,2.2935204621,-6.7166530382000005,6.7381884416,376
111939,217015,252856,2.1798613886,-6.6161544889999995,6.7992054179000005,377
112027,217048,252847,2.2803599377999997,-6.659225295800001,6.771687958,378
112078,217025,252841,2.2301106632,-6.6699929975,6.8123659422000005,379
112209,217010,252773,2.237289131,-6.7585274337,6.7310099738,380
112342,217051,252840,2.177468566,-6.7621166676,6.7118673929999995,381
112528,217079,252887,2.2935204621,-6.7525453772,6.8087767083,382
112701,217071,252883,2.3246271559,-6.5886370291,6.8470618699,383
112884,217092,252872,2.3150558654999998,-6.715456626899999,6.7872413049,384
113038,217078,252865,2.1702900981999997,-6.658028884499999,6.7082781591,385
113247,217098,252880,2.1152551784,-6.6544396506,6.7130638043,386
113367,217115,252861,2.2779671152,-6.7465633207,6.7022961026,387
113486,217122,252856,2.2157537276,-6.6053867873000005,6.6975104574,388
113682,217145,252842,2.2863419943,-6.7465633207,6.759723845,389
113783,217063,252866,2.3401805028,-6.5671016257,6.6939212235,390
113720,217078,252882,2.2959132847,-6.6197437229,6.8303121117,391
113332,217046,252890,2.3306092124,-6.6604217071,6.7429740868,392
112863,217042,252858,2.2683958248,-6.6197437229,6.9020967897,393
112425,217028,252865,2.2504496553,-6.6305114246,6.7166530382000005,394
112102,216994,252851,2.3509482045,-6.591029851699999,6.735795619,395
111884,216985,252835,2.2779671152,-6.6616181184,6.735795619,396
111960,216997,252839,2.2085752598,-6.6269221907,6.7310099738,397
111896,216980,252802,2.3054845751,-6.7226350947,6.7633130788999996,398
111894,217012,252802,2.1595223965,-6.629315013299999,6.7525453772,399
111907,216972,252861,2.3102702203,-6.6903319896,6.7477597320000005,400
111936,216988,252777,2.2827527603999997,-6.7214386834,6.7381884416,401
112057,216976,252772,2.1284157027,-6.6496540054,6.7429740868,402
112125,216980,252823,2.2241286067,-6.533602109299999,6.8099731195999995,403
112227,217016,252800,2.2755742926,-6.7645094902,6.7513489659,404
112399,217028,252819,2.2002003807,-6.6017975534,6.6843499331,405
112583,217052,252825,2.1116659445,-6.6436719489,6.8063838857,406
112741,217029,252796,2.2336998971,-6.7262243286,6.6376898924,407
112906,217050,252826,2.237289131,-6.7166530382000005,6.8853470315,408
113088,217047,252852,2.2636101795999997,-6.686742755699999,6.8099731195999995,409
113246,216965,252834,2.2695922361,-6.652046828,6.8350977569,410
113398,217066,252809,2.2193429615,-6.6664037636,6.735795619,411
113516,217070,252860,2.1403798157,-6.6185473116,6.8159551761,412
113740,217078,252820,2.2181465501999997,-6.5826549726,6.7046889252,413
113781,217089,252858,2.3126630429,-6.6687965862,6.6903319896,414
113494,217091,252829,2.2899312282,-6.5886370291,6.769295135399999,415
112993,217049,252845,2.15354034,-6.7310099738,6.8159551761,416
112417,216962,252830,2.3294128011,-6.617350900300001,6.7070817478,417
111933,216958,252821,2.1092731219,-6.559923157899999,6.7166530382000005,418
111578,216881,252774,2.2229321954,-6.6185473116,6.7968125953,419
111352,216966,252812,2.1391834043999998,-6.7381884416,6.7932233614,420
111228,216972,252782,2.2025932033,-6.6484575941,6.836294168199999,421
111320,216972,252769,2.2683958248,-6.709474570399999,6.824330055200001,422
111322,216944,252767,2.3246271559,-6.7106709817,6.7334027964,423
111308,216937,252834,2.213360905,-6.5862442065,6.7908305388,424
111387,216845,252779,2.3330020350000003,-6.534798520600001,6.8087767083,425
111460,216997,252786,2.2528424779,-6.673582231399999,6.851847515099999,426
111609,216936,252806,2.2636101795999997,-6.7214386834,6.7262243286,427
111772,216995,252798,2.3246271559,-6.6376898924,6.6101724325,428
111997,217000,252874,2.2683958248,-6.798009006599999,6.7369920303,429
112177,217097,252841,2.2624137683,-6.6245293681,6.757331022400001,430
112393,217116,252852,2.2336998971,-6.6508504167,6.7621166676,431
112608,217139,252942,2.1702900981999997,-6.632904247199999,6.7525453772,432
112835,217061,252896,2.1559331626,-6.675975054,6.7453669094,433
112991,217183,252916,2.2564317118,-6.642475537599999,6.686742755699999,434
113137,217129,252842,2.2181465501999997,-6.699903279999999,6.728617151199999,435
113322,217144,252888,2.3126630429,-6.728617151199999,6.851847515099999,436
113460,217130,252872,2.3174486881,-6.7262243286,6.7764736032,437
113440,217082,252899,2.2241286067,-6.723831506,6.769295135399999,438
113059,217058,252911,2.213360905,-6.759723845,6.759723845,439
112506,217028,252881,2.2336998971,-6.659225295800001,6.8027946518,440
112017,217027,252871,2.165504453,-6.782455659699999,6.8027946518,441
111604,216970,252918,2.2396819536,-6.5934226743,6.6903319896,442
111367,216995,252841,2.2181465501999997,-6.5790657387,6.783652071000001,443
111261,217012,252814,2.2935204621,-6.652046828,6.7310099738,444
111155,217001,252874,2.2564317118,-6.664010941,6.7645094902,445
111282,216982,252825,2.4071795356,-6.632904247199999,6.6975104574,446
111328,217012,252797,2.3054845751,-6.6376898924,6.7202422721,447
111360,216980,252846,2.3186450994000003,-6.7740807806,6.7740807806,448
111427,216997,252853,2.129612114,-6.550351867499999,6.769295135399999,449
111542,216981,252840,2.1918255016,-6.7166530382000005,6.7884377162,450
111691,217028,252861,2.3341984463,-6.7345992077,6.6783678766,451
111881,217066,252866,2.2648065909,-6.5264236415,6.7262243286,452
112008,217018,252847,2.3126630429,-6.6412791263,6.7369920303,453
112202,217039,252870,2.2408783649,-6.6927248122,6.7800628371,454
112296,217094,252872,2.3294128011,-6.7142602155999995,6.7046889252,455
112559,217064,252919,2.3018953412000003,-6.7477597320000005,6.728617151199999,456
112730,217088,252944,2.3605194949,-6.671189408799999,6.740581264199999,457
112899,217091,252858,2.1738793321000003,-6.6006011420999995,6.8015982405,458
113089,217102,252883,2.2492532439999997,-6.7070817478,6.795616184,459
113283,217141,252902,2.2660030021999997,-6.658028884499999,6.8147587648000005,460
113386,217168,252908,2.1942183242,-6.6125652551,6.7525453772,461
113089,217131,252966,2.309073809,-6.6687965862,6.7621166676,462
112564,217043,252914,2.225325018,-6.6556360619,6.770491546700001,463
112109,217053,252922,2.1475582835,-6.7549381998,6.7896341275,464
111751,217086,252894,2.2061824372,-6.5838513839,6.6472611828,465
111542,217007,252873,2.1487546948,-6.673582231399999,6.709474570399999,466
111491,217037,252844,2.2707886474,-6.640082715,6.699903279999999,467
111516,216946,252813,2.261217357,-6.642475537599999,6.798009006599999,468
111515,216987,252895,2.27318147,-6.740581264199999,6.757331022400001,469
111501,216967,252832,2.237289131,-6.735795619,6.7645094902,470
111514,216954,252884,2.2121644937,-6.6975104574,6.8614188055,471
111556,216969,252835,2.1846470338,-6.6185473116,6.866204450700001,472
111642,216982,252821,2.2432711875,-6.6807606991999995,6.757331022400001,473
111740,217023,252826,2.2480568327,-6.559923157899999,6.7118673929999995,474
111875,217022,252844,2.2899312282,-6.644868360199999,6.8422762247,475
112041,217048,252808,2.27318147,-6.6233329568,6.8877398540999994,476
112198,217029,252791,2.2468604214,-6.518048762399999,6.8219372326,477
112380,216995,252799,2.3437697367,-6.7381884416,6.728617151199999,478
112550,217084,252899,2.3796620756999998,-6.703492513900001,6.7142602155999995,479
112684,217070,252824,2.2085752598,-6.5144595285,6.7788664257999995,480
112770,217046,252836,2.2935204621,-6.7764736032,6.7884377162,481
113011,217168,252864,2.2169501389,-6.7669023128,6.783652071000001,482
113137,217090,252837,2.1260228801,-6.5982083195,6.782455659699999,483
112905,217012,252883,2.1822542112,-6.6185473116,6.9236321931,484
112376,216944,252865,2.2492532439999997,-6.632904247199999,6.8075802969999994,485
111760,216982,252856,2.344966148,-6.6807606991999995,6.7070817478,486
111227,216941,252833,2.2444675988,-6.5264236415,6.740581264199999,487
110814,216932,252800,2.1990039694,-6.740581264199999,6.7549381998,488
110569,216912,252767,2.2229321954,-6.7381884416,6.687939167000001,489
110540,216921,252774,2.213360905,-6.5838513839,6.8985075558,490
110539,216912,252764,2.3126630429,-6.7381884416,6.7214386834,491
110553,216925,252818,2.1822542112,-6.723831506,6.7872413049,492
110580,216903,252833,2.3437697367,-6.644868360199999,6.8015982405,493
110561,216926,252803,2.2791635265,-6.5862442065,6.7453669094,494
110724,216972,252815,2.1978075581,-6.725027917299999,6.7645094902,495
110829,216890,252787,2.2348963083999998,-6.740581264199999,6.7477597320000005,496
110980,216969,252799,2.2923240508,-6.7226350947,6.8566331603,497
111095,216955,252811,2.2983061073,-6.7274207398999994,6.7872413049,498
111343,216939,252857,2.285145583,-6.5742800935,6.7621166676,499
111544,216997,252827,2.2205393728,-6.5898334404,6.7621166676,500
111736,216971,252823,2.261217357,-6.629315013299999,6.7118673929999995,501
111929,216939,252861,2.309073809,-6.5228344076,6.7477597320000005,502
112126,217016,252845,2.0877377184999997,-6.6676001749,6.8327049343,503
112203,217038,252861,2.2229321954,-6.675975054,6.7214386834,504
112512,217077,252869,2.2037896146,-6.7214386834,6.843472636,505
112677,217002,252855,2.2085752598,-6.5814585613,6.7920269500999995,506
112504,216930,252892,2.2743778813,-6.6975104574,6.7740807806,507
112021,217006,252843,2.3892333661,-6.644868360199999,6.798009006599999,508
111355,216933,252861,2.2348963083999998,-6.5934226743,6.7298135625,509
110919,216950,252859,2.1690936869,-6.6269221907,6.7501525546,510
110535,216902,252862,2.2636101795999997,-6.628118602,6.8303121117,511
110286,216905,252860,2.3294128011,-6.6006011420999995,6.8123659422000005,512
110298,216910,252786,2.2061824372,-6.6616181184,6.7453669094,513
110344,216903,252780,2.2121644937,-6.607779609900001,6.7477597320000005,514
110394,216900,252874,2.297109696,-6.6687965862,6.7010996913000005,515
110421,216933,252853,2.2420747762,-6.687939167000001,6.7896341275,516
110535,216911,252860,2.1822542112,-6.674778642700001,6.6484575941,517
110650,216910,252882,2.3246271559,-6.6903319896,6.735795619,518
110764,216950,252866,2.189432679,-6.6616181184,6.8327049343,519
111004,216944,252833,2.2528424779,-6.6687965862,6.7262243286,520
111206,216996,252863,2.2157537276,-6.6544396506,6.675975054,521
111423,217003,252841,2.2325034857999997,-6.5982083195,6.7549381998,522
111645,217006,252894,2.2181465501999997,-6.7130638043,6.783652071000001,523
111880,217019,252891,2.1427726383,-6.6412791263,6.7585274337,524
112150,217072,252898,2.2037896146,-6.7944197726999995,6.771687958,525
112299,217065,252906,2.3736800192,-6.5718872709,6.8949183219000005,526
112516,217079,252937,2.2875384056,-6.613761666399999,6.7932233614,527
112684,217070,252968,2.1188444122999996,-6.652046828,6.7776700145,528
112960,217121,253015,2.2336998971,-6.6245293681,6.759723845,529
112953,217050,252940,2.2935204621,-6.6245293681,6.6568324732,530
112580,217023,252989,2.1559331626,-6.6388863037,6.8829542089,531
112065,217043,252962,2.3485553819,-6.6352970698,6.6819571105,532
111614,216955,252937,2.309073809,-6.5886370291,6.8147587648000005,533
111337,217010,252950,2.2444675988,-6.5383877545,6.7657059015,534
111179,216994,252908,2.3318056236999998,-6.5671016257,6.8303121117,535
111188,216991,252919,2.3940190112999997,-6.671189408799999,6.8279192891000005,536
111236,216977,252926,2.2899312282,-6.723831506,6.7800628371,537
111293,216991,252951,2.3054845751,-6.664010941,6.728617151199999,538
111306,216995,252878,2.1750757434,-6.7764736032,6.7764736032,539
111387,216969,252910,2.27318147,-6.8590259828999995,6.7190458608,540
111453,216977,252918,2.1020946541,-6.6221365455,6.7501525546,541
111610,217090,252972,2.1942183242,-6.6939212235,6.771687958,542
111798,217038,252892,2.3126630429,-6.7465633207,6.7633130788999996,543
111984,217090,252914,2.344966148,-6.652046828,6.7776700145,544
112167,217042,252942,2.2923240508,-6.559923157899999,6.836294168199999,545
112347,217064,252957,2.3150558654999998,-6.6927248122,6.7453669094,546
112431,217099,253007,2.285145583,-6.5946190856,6.7549381998,547
112719,217089,252970,2.2157537276,-6.728617151199999,6.7848484823,548
112855,217097,252950,2.2444675988,-6.5850477951999995,6.759723845,549
113016,217073,252963,2.2325034857999997,-6.591029851699999,6.7142602155999995,550
113192,217077,252935,2.2815563491,-6.5551375127,6.7932233614,551
113234,217089,252971,2.1631116304,-6.7381884416,6.7262243286,552
113109,217061,252953,2.3306092124,-6.6664037636,6.740581264199999,553
112610,217016,252959,2.2013967919999997,-6.7202422721,6.7381884416,554
112082,216994,252961,2.3306092124,-6.6723858201,6.7465633207,555
111680,216989,252892,2.3030917525,-6.6364934811000005,6.8087767083,556
111420,216979,252865,2.3246271559,-6.6843499331,6.7381884416,557
111338,216946,252897,2.2755742926,-6.6053867873000005,6.8279192891000005,558
111325,216912,252908,2.2301106632,-6.6269221907,6.725027917299999,559
111377,216976,252889,2.2839491717,-6.6855463444,6.851847515099999,560
111314,216986,252873,2.1571295739000003,-6.7226350947,6.7968125953,561
111418,216966,252874,2.1499511061,-6.5479590449,6.8350977569,562
111475,216931,252847,2.3341984463,-6.6257257794,6.7334027964,563
111593,216954,252845,2.1487546948,-6.575476504799999,6.8075802969999994,564
111710,216984,252890,2.3198415107,-6.7334027964,6.7728843693,565
111883,216991,252929,2.3318056236999998,-6.7429740868,6.8626152168,566
112080,216940,252890,2.1822542112,-6.9092752575,6.7214386834,567
112251,217012,252917,2.2313070745,-6.6269221907,6.7310099738,568
112448,216964,252901,2.1607188078,-6.617350900300001,6.820740821299999,569
112620,216991,252859,2.4059831243,-6.671189408799999,6.7752771919,570
112796,217025,252887,2.0841484846,-6.7262243286,6.831508523,571
112968,217043,252940,2.3006989299,-6.632904247199999,6.8255264665,572
113134,217074,252947,2.1966111468,-6.6903319896,6.6915284009,573
113333,217138,252928,2.2552353005,-6.6053867873000005,6.7740807806,574
113444,217098,252974,2.3114666316,-6.7106709817,6.740581264199999,575
113194,217031,252947,2.1008982428,-6.6963140460999995,6.8829542089,576
112660,216997,252933,2.1990039694,-6.6616181184,6.7525453772,577
112050,216957,252900,2.2695922361,-6.659225295800001,6.7669023128,578
111523,216960,252890,2.1918255016,-6.6053867873000005,6.7968125953,579
111063,216845,252849,2.1822542112,-6.6496540054,6.6795642879,580
110786,216910,252853,2.237289131,-6.6341006585,6.8901326766999995,581
110714,216913,252835,2.2301106632,-6.6508504167,6.7381884416,582
110742,216915,252871,2.2683958248,-6.492924125099999,6.6341006585,583
110768,216892,252829,2.3246271559,-6.5970119082,6.6951176348,584
110700,216901,252815,2.1798613886,-6.7800628371,6.7501525546,585
110836,216917,252805,2.1583259852,-6.6951176348,6.709474570399999,586
110910,216854,252828,2.2049860259000003,-6.7501525546,6.7764736032,587
111057,216934,252894,2.225325018,-6.6484575941,6.7501525546,588
111223,216965,252880,2.2336998971,-6.7022961026,6.6951176348,589
111412,216908,252890,2.3389840915,-6.5539411014,6.7190458608,590
111589,216946,252844,2.2002003807,-6.629315013299999,6.759723845,591
111794,216964,252847,2.2947168733999996,-6.6664037636,6.735795619,592
111981,216982,252858,2.2181465501999997,-6.664010941,6.770491546700001,593
112206,217001,252827,2.2301106632,-6.6927248122,6.820740821299999,594
112398,216968,252900,2.2707886474,-6.533602109299999,6.6903319896,595
112579,216995,252902,2.1846470338,-6.6807606991999995,6.770491546700001,596
112820,217055,252935,2.1607188078,-6.675975054,6.8350977569,597
112931,217056,252937,2.1092731219,-6.5886370291,6.8039910631,598
112784,217060,252924,2.3102702203,-6.6388863037,6.7166530382000005,599
112280,216992,252915,2.3341984463,-6.5539411014,6.6687965862,600
111703,216960,252895,2.368894374,-6.771687958,6.7262243286,601
111198,216919,252916,2.1212372348999997,-6.7310099738,6.7812592484,602
110919,216902,252874,2.3042881638,-6.6963140460999995,6.7633130788999996,603
110746,216834,252870,2.2301106632,-6.759723845,6.8255264665,604
110724,216914,252905,2.3461625592999997,-6.6771714653,6.8422762247,605
110792,216930,252843,2.3102702203,-6.686742755699999,6.7130638043,606
110834,216934,252876,2.1798613886,-6.671189408799999,6.6987068686999995,607
110891,216939,252883,2.3246271559,-6.5958154969,6.839883402099999,608
110969,216933,252872,2.261217357,-6.652046828,6.7549381998,609
111082,216935,252872,2.3784656644,-6.674778642700001,6.7645094902,610
111249,216901,252818,2.2181465501999997,-6.7118673929999995,6.673582231399999,611
111436,216916,252899,2.2181465501999997,-6.6006011420999995,6.8039910631,612
111644,216981,252862,2.2085752598,-6.6927248122,6.7465633207,613
111829,216972,252911,2.189432679,-6.6855463444,6.6604217071,614
112050,216892,252862,2.3162522768000002,-6.674778642700001,6.6532432393,615
112268,217038,252932,2.3832513096,-6.5395841658,6.798009006599999,616
112472,217016,252940,2.4358934068,-6.7513489659,6.8374905795,617
112675,217026,252952,2.2683958248,-6.576672916100001,6.7812592484,618
112910,217080,252920,2.2492532439999997,-6.6508504167,6.7740807806,619
113128,217018,252963,2.2037896146,-6.6927248122,6.6855463444,620
113271,217080,252989,2.2013967919999997,-6.5168523511,6.699903279999999,621
113086,217038,252948,2.2683958248,-6.7082781591,6.673582231399999,622
112713,217000,252956,2.2911276395,-6.7788664257999995,6.6699929975,623
112228,216970,252950,2.3485553819,-6.7429740868,6.855436749,624
111843,216941,252949,2.2600209457,-6.5395841658,6.7764736032,625
111645,216935,252907,2.3461625592999997,-6.617350900300001,6.7549381998,626
111592,216893,252928,2.2468604214,-6.7645094902,6.8123659422000005,627
111648,216989,252897,2.2444675988,-6.6472611828,6.6819571105,628
111725,217000,252878,2.2660030021999997,-6.664010941,6.7501525546,629
111762,216968,252911,2.2660030021999997,-6.7310099738,6.7106709817,630
111840,217011,252918,2.1966111468,-6.4737815442999995,6.7848484823,631
111919,216984,252901,2.2121644937,-6.5838513839,6.7920269500999995,632
112040,216996,252983,2.2061824372,-6.659225295800001,6.7142602155999995,633
112180,216973,252924,2.2061824372,-6.5551375127,6.8350977569,634
112359,217037,252936,2.1032910654,-6.811169530899999,6.7058853365,635
112522,217045,252902,2.2779671152,-6.6125652551,6.7645094902,636
112712,217025,252869,2.3078773977,-6.6053867873000005,6.7046889252,637
112816,217062,252924,2.2325034857999997,-6.5778693274,6.7429740868,638
113099,217128,252953,2.3234307446,-6.728617151199999,6.81954441,639
113186,217052,252900,2.2947168733999996,-6.6843499331,6.8087767083,640
113325,217040,252907,2.309073809,-6.5575303353,6.6723858201,641
113494,217065,252923,2.3162522768000002,-6.673582231399999,6.824330055200001,642
113627,217035,252929,2.2540388892,-6.6436719489,6.7669023128,643
113451,217041,252922,2.3102702203,-6.591029851699999,6.8171515874,644
113086,216973,252916,2.1439690496,-6.6927248122,6.7944197726999995,645
112606,216990,252905,2.2205393728,-6.6161544889999995,6.740581264199999,646
112124,216855,252894,2.3341984463,-6.6221365455,6.7190458608,647
111793,216958,252902,2.2241286067,-6.6412791263,6.6532432393,648
111637,216903,252870,2.3054845751,-6.6783678766,6.7884377162,649
111612,216889,252869,2.1834506225,-6.7046889252,6.7429740868,650
111640,216931,252843,2.2588245344,-6.7010996913000005,6.7669023128,651
111641,216920,252853,2.2085752598,-6.674778642700001,6.7645094902,652
111687,216881,252868,2.3425733254,-6.6687965862,6.8697936846,653
111732,216936,252823,2.1738793321000003,-6.7429740868,6.7178494495,654
111752,216953,252857,2.2073788485,-6.6101724325,6.7621166676,655
111950,216957,252841,2.225325018,-6.6221365455,6.8123659422000005,656
112086,216899,252892,2.1080767106,-6.6652073523,6.8709900959,657
112256,216967,252864,2.2803599377999997,-6.7142602155999995,6.7920269500999995,658
112334,217003,252845,2.237289131,-6.715456626899999,6.81954441,659
112598,216967,252835,2.3150558654999998,-6.563512391800001,6.6855463444,660
112807,216966,252871,2.2839491717,-6.7166530382000005,6.728617151199999,661
112980,217009,252855,2.2432711875,-6.686742755699999,6.7477597320000005,662
113132,217041,252907,2.3928226,-6.6006011420999995,6.7968125953,663
113320,217061,252905,2.2265214293,-6.6795642879,6.6771714653,664
113517,217067,252916,2.1631116304,-6.628118602,6.7130638043,665
113660,217072,252924,2.2301106632,-6.7752771919,6.6939212235,666
113602,217026,252910,2.3042881638,-6.6843499331,6.7525453772,667
113099,216925,252931,2.2564317118,-6.7118673929999995,6.728617151199999,668
112500,216850,252895,2.2803599377999997,-6.7046889252,6.6819571105,669
111957,216918,252883,2.1726829208,-6.659225295800001,6.7429740868,670
111523,216888,252880,2.3617159062,-6.6305114246,6.8099731195999995,671
111215,216911,252863,2.225325018,-6.7070817478,6.7848484823,672
111094,216908,252813,2.3162522768000002,-6.6975104574,6.7118673929999995,673
111115,216857,252842,2.3712871966,-6.7214386834,6.7645094902,674
111138,216845,252826,2.237289131,-6.7082781591,6.8590259828999995,675
111179,216880,252806,2.2827527603999997,-6.699903279999999,6.7884377162,676
111203,216824,252797,2.1918255016,-6.7932233614,6.7680987241,677
111307,216897,252833,2.3030917525,-6.675975054,6.8147587648000005,678
111357,216895,252824,2.189432679,-6.6496540054,6.723831506,679
111571,216868,252831,2.2935204621,-6.6029939646999996,6.6855463444,680
111741,216856,252779,2.3126630429,-6.7070817478,6.7884377162,681
111930,216908,252803,2.2157537276,-6.6161544889999995,6.7621166676,682
112135,216931,252873,2.2815563491,-6.628118602,6.7501525546,683
112233,216895,252837,2.2588245344,-6.7525453772,6.7453669094,684
112524,217002,252838,2.3174486881,-6.658028884499999,6.7130638043,685
112726,216960,252900,2.27318147,-6.7381884416,6.783652071000001,686
112918,217002,252843,2.2121644937,-6.7764736032,6.674778642700001,687
113125,216981,252883,2.2767707039,-6.6221365455,6.7884377162,688
113306,217048,252877,2.3258235672,-6.7226350947,6.8279192891000005,689
113305,217022,252884,2.2109680824,-6.7764736032,6.7334027964,690
112935,216955,252916,2.2624137683,-6.759723845,6.7070817478,691
112392,216890,252868,2.2588245344,-6.5826549726,6.6939212235,692
111892,216883,252861,2.2935204621,-6.7393848529,6.8350977569,693
111497,216877,252884,2.2935204621,-6.6412791263,6.723831506,694
111244,216880,252835,2.2181465501999997,-6.7776700145,6.8135623535,695
111195,216878,252783,2.1990039694,-6.6245293681,6.836294168199999,696
111228,216927,252841,2.165504453,-6.6723858201,6.823133643899999,697
111296,216893,252829,2.2085752598,-6.6975104574,6.7022961026,698
111340,216917,252813,2.2229321954,-6.5455662223,6.8279192891000005,699
111413,216887,252799,2.2947168733999996,-6.7345992077,6.8614188055,700
111376,216909,252821,2.3485553819,-6.7872413049,6.853043926400001,701
111629,216924,252887,2.3126630429,-6.6149580777,6.8685972733,702
111809,216942,252841,2.3054845751,-6.6855463444,6.7549381998,703
111904,216936,252879,2.2671994135,-6.659225295800001,6.8087767083,704
112221,216981,252868,2.2660030021999997,-6.534798520600001,6.6807606991999995,705
112356,216999,252855,2.2073788485,-6.740581264199999,6.880561386299999,706
112613,217026,252919,2.2564317118,-6.7968125953,6.7549381998,707
112740,217007,252920,2.2061824372,-6.7070817478,6.7669023128,708
112978,217071,252901,2.2636101795999997,-6.6472611828,6.7992054179000005,709
113177,217013,252888,2.1475582835,-6.6209401342000005,6.674778642700001,710
113396,217056,252963,2.2025932033,-6.652046828,6.8638116281,711
113562,217020,252940,2.2636101795999997,-6.6783678766,6.7513489659,712
113565,217027,252939,2.3306092124,-6.6987068686999995,6.7776700145,713
113129,216998,252939,2.4335005842,-6.671189408799999,6.8075802969999994,714
112734,216994,252931,2.2959132847,-6.709474570399999,6.723831506,715
112328,216977,252967,2.2301106632,-6.7214386834,6.757331022400001,716
112094,216944,252889,2.1822542112,-6.7082781591,6.7788664257999995,717
112004,216949,252903,2.2037896146,-6.6771714653,6.8027946518,718
112031,216971,252891,2.3676979627,-6.6664037636,6.8291157004,719
112087,216952,252854,2.2564317118,-6.5694944482999995,6.8279192891000005,720
112114,216948,252882,2.2492532439999997,-6.568298037,6.8542403377,721
112146,216949,252871,2.2875384056,-6.613761666399999,6.7465633207,722
112185,216921,252874,2.3365912689,-6.6915284009,6.7896341275,723
112273,216972,252868,2.3653051401,-6.6053867873000005,6.7848484823,724
112385,216942,252874,2.3294128011,-6.7322063851000005,6.6556360619,725
112513,216954,252869,2.3341984463,-6.7214386834,6.8339013456,726
112670,217003,252880,2.4119651808,-6.658028884499999,6.7657059015,727
112853,216989,252831,2.2923240508,-6.6568324732,6.7501525546,728
113022,217000,252881,2.177468566,-6.5946190856,6.8446690473,729
113210,216963,252890,2.1559331626,-6.7429740868,6.8171515874,730
113350,217067,252816,2.3509482045,-6.591029851699999,6.7872413049,731
113491,217037,252869,2.2229321954,-6.5611195692,6.7202422721,732
113707,217009,252830,2.3521446158,-6.7764736032,6.8099731195999995,733
113853,217034,252846,2.1738793321000003,-6.709474570399999,6.820740821299999,734
113832,216987,252886,2.1104695332,-6.725027917299999,6.8685972733,735
113513,216959,252904,2.2480568327,-6.687939167000001,6.8099731195999995,736
112927,216853,252915,2.2815563491,-6.592226263000001,6.7142602155999995,737
112392,216907,252920,2.1726829208,-6.5934226743,6.735795619,738
111973,216925,252837,2.2480568327,-6.6065831986,6.8171515874,739
111699,216927,252857,2.27318147,-6.5814585613,6.8015982405,740
111557,216885,252851,2.3246271559,-6.7585274337,6.6903319896,741
111553,216902,252830,2.3497517932000003,-6.7322063851000005,6.7381884416,742
111563,216904,252816,2.2145573163,-6.646064771500001,6.7669023128,743
111615,216927,252853,2.2277178406,-6.6532432393,6.811169530899999,744
111625,216860,252798,2.261217357,-6.7381884416,6.7728843693,745
111695,216882,252839,2.2205393728,-6.6113688438,6.646064771500001,746
111707,216905,252850,2.1499511061,-6.853043926400001,6.7932233614,747
111941,216982,252861,2.1858434451,-6.725027917299999,6.715456626899999,748
112107,216952,252856,2.1068802992999998,-6.674778642700001,6.7429740868,749
112269,216925,252789,2.3425733254,-6.6412791263,6.7334027964,750
112497,216974,252843,2.2671994135,-6.7022961026,6.7884377162,751
112630,216942,252792,2.2193429615,-6.5718872709,6.756134611099999,752
112817,216966,252853,2.3126630429,-6.7621166676,6.7549381998,753
112978,217003,252820,2.225325018,-6.6388863037,6.8099731195999995,754
113174,216972,252821,2.2803599377999997,-6.7322063851000005,6.8171515874,755
113368,217055,252893,2.2492532439999997,-6.6903319896,6.8614188055,756
113563,217034,252864,2.2935204621,-6.6891355783,6.9236321931,757
113649,216989,252871,2.225325018,-6.673582231399999,6.7920269500999995,758
113409,216956,252885,2.225325018,-6.6807606991999995,6.759723845,759
112889,216893,252892,2.2983061073,-6.6544396506,6.783652071000001,760
112346,216893,252878,2.1930219129,-6.6676001749,6.7429740868,761
111867,216879,252889,2.27318147,-6.7549381998,6.866204450700001,762
111495,216877,252855,2.177468566,-6.6807606991999995,6.7645094902,763
111383,216868,252829,2.2540388892,-6.5204415849999995,6.7477597320000005,764
111344,216844,252831,2.2564317118,-6.642475537599999,6.7645094902,765
111395,216892,252805,2.2205393728,-6.6006011420999995,6.6891355783,766
111421,216863,252804,2.2743778813,-6.6783678766,6.741777675500001,767
111408,216904,252886,2.309073809,-6.5982083195,6.8087767083,768
111591,216928,252856,2.3641087288000002,-6.6616181184,6.7477597320000005,769
111749,216972,252852,2.1571295739000003,-6.6831535217999996,6.723831506,770
111837,216991,252877,2.1762721547,-6.725027917299999,6.8542403377,771
112084,216945,252902,2.2695922361,-6.6376898924,6.8087767083,772
112275,216985,252931,2.27318147,-6.7166530382000005,6.7585274337,773
112461,217010,252953,2.261217357,-6.5886370291,6.7740807806,774
112708,216963,252944,2.2013967919999997,-6.5982083195,6.8075802969999994,775
112906,217080,252983,2.3270199785,-6.6783678766,6.675975054,776
113116,217044,252961,2.1678972756,-6.5862442065,6.878168563699999,777
113298,217057,252964,2.2911276395,-6.6699929975,6.8099731195999995,778
113497,217042,252925,2.1583259852,-6.7621166676,6.7046889252,779
113685,217053,252992,2.27318147,-6.591029851699999,6.7884377162,780
113826,216951,252924,2.3162522768000002,-6.58026215,6.7812592484,781
113711,217057,252935,2.3964118339,-6.6903319896,6.7334027964,782
113296,216982,252965,2.2121644937,-6.592226263000001,6.759723845,783
112886,217015,252943,2.2695922361,-6.6951176348,6.8075802969999994,784
112459,216950,252893,2.2516460665999998,-6.640082715,6.7680987241,785
112211,216981,252933,2.2085752598,-6.642475537599999,6.7214386834,786
112093,216976,252903,2.3162522768000002,-6.6807606991999995,6.7262243286,787
112182,216954,252924,2.1942183242,-6.7465633207,6.7812592484,788
112218,216977,252908,2.2396819536,-6.703492513900001,6.728617151199999,789
112228,216966,252860,2.2683958248,-6.7142602155999995,6.866204450700001,790
112265,216996,252919,2.1942183242,-6.5228344076,6.7058853365,791
112248,216945,252867,2.2660030021999997,-6.7381884416,6.7525453772,792
112367,216959,252847,2.2396819536,-6.725027917299999,6.7262243286,793
112530,216951,252931,2.3186450994000003,-6.6604217071,6.7812592484,794
112661,216997,252866,2.2827527603999997,-6.7609202563,6.8733829185,795
112814,216987,252895,2.2468604214,-6.7322063851000005,6.811169530899999,796
112990,217031,252891,2.1870398563999998,-6.8566331603,6.757331022400001,797
113118,217015,252878,2.1966111468,-6.5958154969,6.7453669094,798
113292,216963,252885,2.2301106632,-6.673582231399999,6.9284178383,799
113448,217010,252885,2.3198415107,-6.7262243286,6.6687965862,800
113576,217052,252862,2.3270199785,-6.5982083195,6.8614188055,801
113749,217016,252874,2.2839491717,-6.6029939646999996,6.7788664257999995,802
113914,216987,252849,2.2456640101,-6.5407805771,6.7046889252,803
113923,216919,252858,2.2336998971,-6.8075802969999994,6.7214386834,804
113631,216979,252896,2.1044874766999997,-6.674778642700001,6.7142602155999995,805
113125,216924,252841,2.2552353005,-6.786044893600001,6.7381884416,806
112656,216917,252916,2.2504496553,-6.7381884416,6.7465633207,807
112271,216867,252857,2.1906290903,-6.642475537599999,6.7022961026,808
112057,216887,252838,2.2396819536,-6.7645094902,6.8279192891000005,809
111998,216931,252834,2.2935204621,-6.6532432393,6.8566331603,810
112043,216893,252826,2.237289131,-6.562315980499999,6.7393848529,811
112087,216926,252887,2.177468566,-6.617350900300001,6.709474570399999,812
112117,216846,252830,2.2073788485,-6.6687965862,6.7429740868,813
112166,217006,252862,2.237289131,-6.652046828,6.709474570399999,814
112219,216860,252880,2.1942183242,-6.5862442065,6.756134611099999,815
112299,216942,252825,2.2325034857999997,-6.6616181184,6.7106709817,816
112434,216897,252824,2.1966111468,-6.6149580777,6.6951176348,817
112574,216921,252801,2.2576281231,-6.6903319896,6.8566331603,818
112659,216945,252826,2.3437697367,-6.7334027964,6.7549381998,819
112890,216920,252839,2.2301106632,-6.492924125099999,6.7657059015,820
113085,216960,252822,2.2516460665999998,-6.5718872709,6.8757757411,821
113259,216968,252807,2.2588245344,-6.658028884499999,6.7872413049,822
113408,216964,252838,2.1451654609,-6.5718872709,6.855436749,823
113565,217001,252827,2.3150558654999998,-6.7740807806,6.8135623535,824
113745,217007,252827,2.2181465501999997,-6.664010941,6.759723845,825
113934,217003,252914,2.1487546948,-6.6568324732,6.7621166676,826
114002,216971,252878,2.2947168733999996,-6.604190375999999,6.9020967897,827
113805,216939,252848,2.3198415107,-6.771687958,6.703492513900001,828
113322,216907,252885,2.1990039694,-6.652046828,6.81954441,829
112707,216917,252823,2.2277178406,-6.7429740868,6.823133643899999,830
112187,216836,252826,2.2013967919999997,-6.7477597320000005,6.7752771919,831
111795,216873,252803,2.2301106632,-6.613761666399999,6.7669023128,832
111498,216843,252812,2.2205393728,-6.6927248122,6.7669023128,833
111425,216858,252795,2.4239292938,-6.7022961026,6.8027946518,834
111402,216833,252792,2.3593230836,-6.568298037,6.783652071000001,835
111432,216847,252779,2.2396819536,-6.7130638043,6.820740821299999,836
111419,216836,252792,2.2157537276,-6.7513489659,6.7800628371,837
111462,216807,252771,2.2408783649,-6.7740807806,6.8626152168,838
111564,216813,252780,2.1930219129,-6.6568324732,6.6197437229,839
111659,216859,252781,2.1571295739000003,-6.6568324732,6.7190458608,840
111804,216855,252796,2.3174486881,-6.5970119082,6.7202422721,841
111906,216838,252794,2.213360905,-6.6687965862,6.740581264199999,842
112160,216883,252806,2.2791635265,-6.6185473116,6.7070817478,843
112256,216896,252808,2.1846470338,-6.798009006599999,6.8063838857,844
112528,216952,252806,2.2241286067,-6.6532432393,6.7645094902,845
112720,216880,252745,2.3772692530999997,-6.6556360619,6.6388863037,846
112893,216905,252779,2.261217357,-6.671189408799999,6.7920269500999995,847
113074,216931,252786,2.2660030021999997,-6.629315013299999,6.741777675500001,848
113226,216958,252848,2.213360905,-6.7477597320000005,6.786044893600001,849
113436,216899,252745,2.3509482045,-6.6664037636,6.8470618699,850
113503,216936,252842,2.2839491717,-6.8159551761,6.753741788499999,851
113204,216859,252851,2.3246271559,-6.741777675500001,6.7788664257999995,852
112627,216879,252835,2.3258235672,-6.782455659699999,6.811169530899999,853
112128,216878,252820,2.2648065909,-6.533602109299999,6.8135623535,854
111681,216852,252866,2.2707886474,-6.6927248122,6.7214386834,855
111379,216812,252858,2.3904297774,-6.5108702946,6.783652071000001,856
111256,216783,252790,2.1702900981999997,-6.7310099738,6.7728843693,857
111233,216814,252785,2.2492532439999997,-6.6831535217999996,6.6915284009,858
111290,216868,252835,2.309073809,-6.6568324732,6.7968125953,859
111362,216867,252809,2.2384855423,-6.6951176348,6.8470618699,860
111373,216779,252819,2.2217357841,-6.5383877545,6.8004018292,861
111454,216850,252809,2.1343977592,-6.6508504167,6.6472611828,862
111537,216847,252790,2.2384855423,-6.6807606991999995,6.7501525546,863
111711,216854,252738,2.2396819536,-6.7118673929999995,6.9451675965,864
111889,216884,252763,2.2181465501999997,-6.629315013299999,6.7788664257999995,865
112079,216882,252765,2.3102702203,-6.6161544889999995,6.8015982405,866
112230,216871,252779,2.3629123174999997,-6.757331022400001,6.7334027964,867
112466,216951,252813,2.2348963083999998,-6.658028884499999,6.759723845,868
112683,216939,252839,2.2396819536,-6.5539411014,6.7609202563,869
112871,216869,252845,2.2013967919999997,-6.7429740868,6.7381884416,870
113071,216968,252860,2.2911276395,-6.6006011420999995,6.757331022400001,871
113254,216968,252871,2.3102702203,-6.6317078358999995,6.7633130788999996,872
113469,217029,252908,2.2396819536,-6.7058853365,6.7896341275,873
113658,216990,252880,2.2540388892,-6.6341006585,6.7262243286,874
113625,216973,252832,2.237289131,-6.664010941,6.7657059015,875
113269,216908,252883,2.2217357841,-6.6975104574,6.7848484823,876
112765,216922,252826,2.4059831243,-6.6388863037,6.7501525546,877
112351,216931,252834,2.3114666316,-6.5946190856,6.8303121117,878
112049,216886,252860,2.2456640101,-6.5814585613,6.7525453772,879
111907,216890,252793,2.285145583,-6.7070817478,6.7190458608,880
111923,216898,252808,2.1822542112,-6.642475537599999,6.7585274337,881
111986,216892,252857,2.2229321954,-6.7118673929999995,6.7932233614,882
111996,216877,252839,2.1499511061,-6.7585274337,6.7142602155999995,883
112037,216798,252885,2.2755742926,-6.6185473116,6.7549381998,884
112088,216951,252849,2.2229321954,-6.687939167000001,6.8422762247,885
112192,216905,252808,2.2336998971,-6.686742755699999,6.7812592484,886
112311,216932,252825,2.3258235672,-6.8374905795,6.6412791263,887
112406,216924,252861,2.261217357,-6.7070817478,6.8147587648000005,888
112630,216900,252865,2.261217357,-6.6532432393,6.759723845,889
112761,216992,252822,2.2767707039,-6.6963140460999995,6.8027946518,890
112926,216956,252823,2.177468566,-6.58026215,6.7166530382000005,891
113085,217020,252855,2.2863419943,-6.7142602155999995,6.6807606991999995,892
113228,216974,252840,2.2779671152,-6.6317078358999995,6.824330055200001,893
113357,216910,252834,2.2576281231,-6.6795642879,6.8685972733,894
113472,216972,252819,2.3006989299,-6.6197437229,6.7334027964,895
113672,217039,252870,2.2671994135,-6.6053867873000005,6.795616184,896
113789,216946,252798,2.2169501389,-6.5407805771,6.7788664257999995,897
113589,216911,252823,2.1762721547,-6.576672916100001,6.6939212235,898
113088,216924,252846,2.3940190112999997,-6.6544396506,6.836294168199999,899
112569,216856,252825,2.2683958248,-6.5898334404,6.7334027964,900
112177,216871,252829,2.3461625592999997,-6.6006011420999995,6.7932233614,901
111906,216830,252851,2.3330020350000003,-6.5647088031,6.757331022400001,902
111798,216837,252773,2.3892333661,-6.687939167000001,6.769295135399999,903
111804,216840,252767,2.3796620756999998,-6.7190458608,6.7920269500999995,904
111844,216841,252823,2.2803599377999997,-6.6831535217999996,6.7549381998,905
111851,216876,252819,2.297109696,-6.659225295800001,6.7166530382000005,906
111882,216885,252764,2.2037896146,-6.6544396506,6.8075802969999994,907
111944,216849,252784,2.1966111468,-6.7274207398999994,6.7920269500999995,908
111999,216874,252804,2.3820548983,-6.7429740868,6.8123659422000005,909
112137,216885,252814,2.2923240508,-6.6125652551,6.7812592484,910
112309,216903,252789,2.1966111468,-6.8015982405,6.8027946518,911
112482,216908,252791,2.2265214293,-6.5826549726,6.7142602155999995,912
112639,216892,252758,2.3246271559,-6.6915284009,6.7369920303,913
112829,216925,252806,2.2588245344,-6.562315980499999,6.8267228778,914
113018,216793,252844,2.2229321954,-6.6699929975,6.7645094902,915
113172,217006,252834,2.3138594542,-6.6687965862,6.7118673929999995,916
113362,216921,252806,2.213360905,-6.6544396506,6.7872413049,917
113507,216969,252857,2.3030917525,-6.659225295800001,6.8123659422000005,918
113664,216961,252793,2.3018953412000003,-6.613761666399999,6.735795619,919
113849,216969,252862,2.2325034857999997,-6.8327049343,6.8542403377,920
113800,216931,252859,2.3485553819,-6.6029939646999996,6.6927248122,921
113397,216891,252906,2.1906290903,-6.6831535217999996,6.795616184,922
112800,216871,252885,2.3413769141,-6.7118673929999995,6.8374905795,923
112215,216836,252830,2.2707886474,-6.7800628371,6.7513489659,924
111768,216857,252823,2.1595223965,-6.4582281974,6.8267228778,925
111405,216817,252822,2.3976082452,-6.6652073523,6.769295135399999,926
111238,216798,252786,2.2313070745,-6.783652071000001,6.7908305388,927
111221,216836,252783,2.2911276395,-6.7896341275,6.783652071000001,928
111166,216802,252778,2.2013967919999997,-6.5958154969,6.7118673929999995,929
111264,216787,252758,2.1571295739000003,-6.6113688438,6.769295135399999,930
111287,216782,252784,2.3748764305,-6.664010941,6.922435781799999,931
111389,216823,252829,2.2660030021999997,-6.6245293681,6.709474570399999,932
111484,216873,252797,2.4789642136,-6.6269221907,6.7669023128,933
111632,216847,252791,2.3820548983,-6.6783678766,6.8135623535,934
111811,216835,252819,2.2779671152,-6.740581264199999,6.7621166676,935
111997,216872,252838,2.3377876802,-6.7848484823,6.823133643899999,936
112210,216942,252820,2.2480568327,-6.6269221907,6.8542403377,937
112422,216917,252852,2.213360905,-6.7345992077,6.6951176348,938
112632,216880,252897,2.2624137683,-6.7082781591,6.8255264665,939
112818,216971,252882,2.2887348169,-6.671189408799999,6.687939167000001,940
113014,216967,252814,2.1882362677000002,-6.7130638043,6.769295135399999,941
113238,216981,252857,2.2600209457,-6.6975104574,6.786044893600001,942
113426,216975,252880,2.1762721547,-6.629315013299999,6.7549381998,943
113629,217007,252920,2.2325034857999997,-6.6963140460999995,6.8458654586,944
113571,216856,252893,2.2336998971,-6.607779609900001,6.6975104574,945
113167,216898,252876,2.3521446158,-6.6628145297,6.851847515099999,946
112659,216895,252861,2.1990039694,-6.5934226743,6.7070817478,947
112191,216920,252885,2.2947168733999996,-6.6951176348,6.8279192891000005,948
111824,216864,252851,2.3676979627,-6.640082715,6.6951176348,949
111627,216867,252849,2.3126630429,-6.6101724325,6.7764736032,950
111607,216881,252829,2.1631116304,-6.658028884499999,6.771687958,951
111656,216788,252871,2.3437697367,-6.6699929975,6.687939167000001,952
111686,216929,252869,2.2097716711,-6.6101724325,6.8027946518,953
111738,216875,252876,2.2839491717,-6.6807606991999995,6.8374905795,954
111805,216878,252874,2.3665015514,-6.687939167000001,6.7429740868,955
111910,216781,252847,2.2636101795999997,-6.7740807806,6.7298135625,956
112038,216912,252848,2.1571295739000003,-6.7178494495,6.7274207398999994,957
112199,216943,252854,2.2827527603999997,-6.7046889252,6.7932233614,958
112364,216865,252877,2.285145583,-6.617350900300001,6.675975054,959
112557,216920,252851,2.3533410271,-6.6233329568,6.820740821299999,960
112702,216956,252879,2.2683958248,-6.7645094902,6.7896341275,961
112946,216973,252947,2.2241286067,-6.7477597320000005,6.7142602155999995,962
113127,217020,252895,2.2408783649,-6.6927248122,6.836294168199999,963
113309,217024,252916,2.1858434451,-6.521637996299999,6.878168563699999,964
113494,216994,252873,2.2588245344,-6.7202422721,6.7453669094,965
113694,217026,252927,2.3078773977,-6.652046828,6.7334027964,966
113875,217045,252904,2.3258235672,-6.576672916100001,6.6951176348,967
113831,216989,252903,2.2863419943,-6.5479590449,6.7489561433,968
113439,216938,252928,2.3330020350000003,-6.576672916100001,6.8255264665,969
112942,216953,252932,2.2157537276,-6.640082715,6.7884377162,970
112531,216912,252909,2.3042881638,-6.7369920303,6.7752771919,971
112195,216894,252877,2.2085752598,-6.6927248122,6.7896341275,972
112074,216883,252860,2.2959132847,-6.6257257794,6.6975104574,973
112065,216910,252835,2.1571295739000003,-6.644868360199999,6.7645094902,974
112094,216873,252885,2.1571295739000003,-6.664010941,6.7381884416,975
112106,216898,252884,2.3892333661,-6.8039910631,6.7525453772,976
112129,216845,252879,2.261217357,-6.492924125099999,6.7944197726999995,977
112170,216882,252845,2.1439690496,-6.673582231399999,6.7908305388,978
112267,216890,252865,2.2791635265,-6.735795619,6.7728843693,979
112376,216907,252841,2.2061824372,-6.7214386834,6.8614188055,980
112501,216809,252840,2.4107687694999997,-6.6831535217999996,6.8709900959,981
112671,216938,252873,2.1966111468,-6.659225295800001,6.8327049343,982
112835,216924,252874,2.2863419943,-6.6891355783,6.8159551761,983
112915,216957,252892,2.2013967919999997,-6.640082715,6.8255264665,984
113193,216954,252917,2.3042881638,-6.6903319896,6.7645094902,985
113345,216970,252913,2.2085752598,-6.6807606991999995,6.723831506,986
113518,216981,252889,2.1870398563999998,-6.6484575941,6.759723845,987
113602,217002,252917,2.2109680824,-6.687939167000001,6.8063838857,988
113880,217010,252863,2.2229321954,-6.7190458608,6.8004018292,989
113985,216999,252911,2.1786649773,-6.642475537599999,6.6831535217999996,990
113789,216957,252926,2.2899312282,-6.709474570399999,6.7010996913000005,991
113266,216925,252880,2.4011974791,-6.6089760212,6.8171515874,992
112720,216947,252898,2.2420747762,-6.7046889252,6.757331022400001,993
112182,216863,252871,2.2875384056,-6.6783678766,6.7645094902,994
111796,216860,252846,2.261217357,-6.7046889252,6.728617151199999,995
111552,216807,252846,2.3389840915,-6.6771714653,6.906882434900001,996
111498,216831,252880,2.2995025186,-6.6257257794,6.757331022400001,997
111483,216869,252828,2.2564317118,-6.6376898924,6.7585274337,998
111563,216821,252869,2.309073809,-6.6783678766,6.7070817478,999
111556,216838,252856,2.3306092124,-6.7393848529,6.8063838857,1000
111680,216890,252904,2.285145583,-6.756134611099999,6.811169530899999,1001
111728,216818,252812,2.2564317118,-6.687939167000001,6.8590259828999995,1002
111859,216923,252831,2.1726829208,-6.7657059015,6.7142602155999995,1003
112002,216784,252828,2.2564317118,-6.6783678766,6.7800628371,1004
112167,216887,252836,2.2947168733999996,-6.675975054,6.7549381998,1005
112388,216876,252866,2.2671994135,-6.6341006585,6.7669023128,1006
112570,216915,252844,2.225325018,-6.757331022400001,6.709474570399999,1007
112761,216920,252859,2.3820548983,-6.658028884499999,6.7178494495,1008
112936,216956,252906,2.1379869930999997,-6.6352970698,6.6843499331,1009
113107,216934,252856,2.3485553819,-6.699903279999999,6.771687958,1010
113317,216982,252885,2.189432679,-6.607779609900001,6.6831535217999996,1011
113508,216953,252938,2.297109696,-6.58026215,6.7549381998,1012
113676,216960,252937,2.2205393728,-6.6783678766,6.7992054179000005,1013
113603,216974,252890,2.2624137683,-6.7202422721,6.7812592484,1014
113308,216884,252903,2.2803599377999997,-6.5718872709,6.7525453772,1015
112741,216938,252873,2.3377876802,-6.5527446901,6.8255264665,1016
112245,216876,252865,2.2576281231,-6.5718872709,6.753741788499999,1017
111846,216889,252900,2.1439690496,-6.6687965862,6.783652071000001,1018
111562,216754,252848,2.1678972756,-6.628118602,6.8123659422000005,1019
111544,216901,252890,2.0566310246999997,-6.642475537599999,6.823133643899999,1020
111548,216855,252877,2.3270199785,-6.6687965862,6.7645094902,1021
111604,216862,252850,2.2707886474,-6.6556360619,6.8183479987,1022
111670,216861,252869,2.3162522768000002,-6.7142602155999995,6.8925254993,1023
111708,216879,252830,2.1571295739000003,-6.703492513900001,6.759723845,1024
111820,216759,252877,2.27318147,-6.6987068686999995,6.7812592484,1025
111951,216904,252868,2.1966111468,-6.6053867873000005,6.770491546700001,1026
112059,216904,252876,2.2145573163,-6.6352970698,6.7812592484,1027
112307,216965,252957,2.2504496553,-6.5934226743,6.8135623535,1028
112516,216939,252936,2.2648065909,-6.6317078358999995,6.7334027964,1029
112705,216957,252938,2.1966111468,-6.735795619,6.786044893600001,1030
112938,216880,252936,2.27318147,-6.6927248122,6.759723845,1031
113089,216989,252969,2.2671994135,-6.6568324732,6.723831506,1032
113328,217044,252921,2.2025932033,-6.6652073523,6.7501525546,1033
113522,217028,252908,2.2695922361,-6.6257257794,6.7381884416,1034
113759,217071,252988,2.3497517932000003,-6.5838513839,6.6101724325,1035
113946,217024,252971,2.3126630429,-6.6807606991999995,6.7968125953,1036
114136,217073,252981,2.2025932033,-6.5898334404,6.7334027964,1037
114136,217040,253015,2.189432679,-6.628118602,6.769295135399999,1038
113756,216995,252977,2.2289142519,-6.6855463444,6.759723845,1039
113287,216985,253014,2.2504496553,-6.5671016257,6.7764736032,1040
112863,216981,252956,2.261217357,-6.6819571105,6.7465633207,1041
112651,216965,252925,2.1990039694,-6.7022961026,6.7501525546,1042
112513,216963,252941,2.2636101795999997,-6.644868360199999,6.8374905795,1043
112540,216985,252945,2.3198415107,-6.664010941,6.786044893600001,1044
112593,216981,252922,2.2181465501999997,-6.533602109299999,6.7334027964,1045
112575,216961,253006,2.2348963083999998,-6.5694944482999995,6.839883402099999,1046
112672,217033,252964,2.189432679,-6.7465633207,6.8171515874,1047
112751,216997,252964,2.237289131,-6.7621166676,6.823133643899999,1048
112845,217002,252946,2.1403798157,-6.6221365455,6.8219372326,1049
112952,217040,252989,2.2540388892,-6.629315013299999,6.878168563699999,1050
113006,217015,252938,2.2600209457,-6.5718872709,6.6412791263,1051
113283,217048,252957,2.1104695332,-6.6376898924,6.8446690473,1052
113453,217044,252974,2.2683958248,-6.740581264199999,6.6628145297,1053
113611,217071,253042,2.2564317118,-6.6197437229,6.7477597320000005,1054
113806,217063,252987,2.2624137683,-6.5970119082,6.7501525546,1055
113975,217065,252988,2.1990039694,-6.640082715,6.8350977569,1056
114124,217091,252975,2.0733807828999997,-6.709474570399999,6.831508523,1057
114264,217061,252994,2.4131615921,-6.607779609900001,6.7046889252,1058
114437,217089,252990,2.2803599377999997,-6.6652073523,6.7142602155999995,1059
114500,217105,252985,2.261217357,-6.782455659699999,6.8506511038,1060
114345,217051,252999,2.297109696,-6.6017975534,6.8075802969999994,1061
113893,216969,252980,2.3138594542,-6.6568324732,6.723831506,1062
113393,216964,252956,2.2085752598,-6.6568324732,6.7393848529,1063
112954,216971,252935,2.1667008643,-6.8279192891000005,6.7214386834,1064
112740,216930,252966,2.1487546948,-6.671189408799999,6.740581264199999,1065
112635,217008,252950,2.3078773977,-6.7680987241,6.8099731195999995,1066
112623,216981,252936,2.2875384056,-6.6771714653,6.757331022400001,1067
112640,216953,252960,2.1547367513,-6.6221365455,6.879364975,1068
112654,217001,252881,2.3042881638,-6.6771714653,6.893721910599999,1069
112676,217025,252950,2.1391834043999998,-6.6006011420999995,6.6125652551,1070
112594,216979,252940,2.1547367513,-6.7214386834,6.757331022400001,1071
112801,216881,252989,2.2456640101,-6.5886370291,6.8171515874,1072
112917,216972,252934,2.2815563491,-6.769295135399999,6.7453669094,1073
113059,216995,252925,2.2265214293,-6.6472611828,6.7645094902,1074
113224,216991,252995,2.2803599377999997,-6.6197437229,6.7429740868,1075
113406,217020,252925,2.4011974791,-6.6891355783,6.7190458608,1076
113560,217055,252927,2.3341984463,-6.646064771500001,6.6951176348,1077
113722,217028,252986,2.3533410271,-6.7190458608,6.8829542089,1078
113885,217053,252969,2.2396819536,-6.58026215,6.7788664257999995,1079
113979,217046,252976,2.1846470338,-6.7022961026,6.7872413049,1080
114208,217082,252974,2.2289142519,-6.5874406178,6.7214386834,1081
114374,217100,252983,2.4837498588,-6.7884377162,6.7214386834,1082
114480,217053,252979,2.1750757434,-6.5647088031,6.8027946518,1083
114249,217035,252983,2.2683958248,-6.6221365455,6.7932233614,1084
113754,216998,252983,2.2803599377999997,-6.640082715,6.7477597320000005,1085
113176,216994,252958,2.2145573163,-6.6245293681,6.7477597320000005,1086
112592,216969,252926,2.2456640101,-6.5407805771,6.7884377162,1087
112222,216987,252961,2.2229321954,-6.6951176348,6.7190458608,1088
111977,216882,252934,2.2911276395,-6.7310099738,6.7740807806,1089
111904,216933,252924,2.3150558654999998,-6.709474570399999,6.8171515874,1090
111875,216939,252947,2.2061824372,-6.6807606991999995,6.8159551761,1091
111894,216928,252862,2.2803599377999997,-6.6795642879,6.7513489659,1092
111915,216978,252896,2.2229321954,-6.6149580777,6.8458654586,1093
111950,216833,252868,2.2827527603999997,-6.7322063851000005,6.6987068686999995,1094
112013,216919,252908,2.1571295739000003,-6.6783678766,6.7477597320000005,1095
112142,216900,252898,2.213360905,-6.658028884499999,6.851847515099999,1096
112254,216915,252867,2.2325034857999997,-6.686742755699999,6.7645094902,1097
112488,216940,252918,2.3138594542,-6.5431733997,6.7334027964,1098
112647,216960,252913,2.2348963083999998,-6.7992054179000005,6.7262243286,1099
112828,216980,252902,2.213360905,-6.671189408799999,6.8075802969999994,1100
113022,216938,252888,2.2360927197000002,-6.576672916100001,6.8135623535,1101
113204,216973,252902,2.2169501389,-6.5527446901,6.866204450700001,1102
113335,216986,252901,2.3102702203,-6.5539411014,6.6927248122,1103
113541,217004,252931,2.2504496553,-6.659225295800001,6.7740807806,1104
113749,217007,252938,2.2839491717,-6.6125652551,6.7645094902,1105
113948,217048,252981,2.2061824372,-6.6006011420999995,6.728617151199999,1106
113885,217030,252931,2.3461625592999997,-6.7082781591,6.8877398540999994,1107
113519,216907,252947,2.2325034857999997,-6.562315980499999,6.7166530382000005,1108
112963,216941,252975,2.3437697367,-6.6807606991999995,6.7489561433,1109
112429,216923,252937,2.3330020350000003,-6.699903279999999,6.6544396506,1110
112029,216887,252936,2.1858434451,-6.673582231399999,6.7908305388,1111
111758,216800,252938,2.2061824372,-6.671189408799999,6.7812592484,1112
111662,216906,252946,2.0973090089,-6.6771714653,6.839883402099999,1113
111667,216925,252910,2.3030917525,-6.6975104574,6.7657059015,1114
111714,216910,252876,2.2671994135,-6.7310099738,6.8159551761,1115
111761,216939,252917,2.2875384056,-6.6352970698,6.7118673929999995,1116
111769,216901,252890,2.2049860259000003,-6.6269221907,6.709474570399999,1117
111906,216938,252922,2.2277178406,-6.6687965862,6.7046889252,1118
112038,216950,252928,2.0949161863,-6.6352970698,6.770491546700001,1119
112199,216932,252945,2.2719850587,-6.5826549726,6.6687965862,1120
112347,216960,252943,2.2432711875,-6.5814585613,6.7669023128,1121
112579,217002,252974,2.1212372348999997,-6.6783678766,6.7118673929999995,1122
112789,216986,252969,2.27318147,-6.6963140460999995,6.7262243286,1123
112990,216999,252974,2.2863419943,-6.58026215,6.756134611099999,1124
113201,217053,252990,2.1738793321000003,-6.7848484823,6.8255264665,1125
113400,217034,252949,2.1822542112,-6.6568324732,6.7310099738,1126
113592,217040,252991,2.3246271559,-6.664010941,6.699903279999999,1127
113806,217086,252987,2.2157537276,-6.5838513839,6.8339013456,1128
114037,216976,253043,2.1463618722,-6.771687958,6.642475537599999,1129
114199,217096,252991,2.2875384056,-6.659225295800001,6.798009006599999,1130
114181,217051,253005,2.2301106632,-6.6628145297,6.7669023128,1131
113798,217001,252997,2.1523439287,-6.7166530382000005,6.7334027964,1132
113332,216996,253006,2.2588245344,-6.5383877545,6.7872413049,1133
112880,217003,252996,2.2803599377999997,-6.686742755699999,6.7070817478,1134
112672,217030,253006,2.297109696,-6.7477597320000005,6.897311144500001,1135
112565,216950,252953,2.2277178406,-6.6269221907,6.786044893600001,1136
112508,216987,252990,2.2121644937,-6.7142602155999995,6.820740821299999,1137
112598,216954,253032,2.2767707039,-6.673582231399999,6.7310099738,1138
112631,217018,252957,2.2660030021999997,-6.7190458608,6.7848484823,1139
112665,216992,253003,2.2827527603999997,-6.7322063851000005,6.7932233614,1140
112668,217043,252985,2.1547367513,-6.7058853365,6.795616184,1141
112831,216970,253001,2.2947168733999996,-6.6652073523,6.7070817478,1142
112944,217033,253005,2.3066809864,-6.5240308189,6.8051874744,1143
113118,217008,252996,2.3234307446,-6.5862442065,6.740581264199999,1144
113259,217037,252970,2.2636101795999997,-6.673582231399999,6.795616184,1145
113451,217092,253019,2.2743778813,-6.6556360619,6.7621166676,1146
113618,217078,253015,2.2289142519,-6.6149580777,6.7944197726999995,1147
113766,217059,253049,2.213360905,-6.6484575941,6.771687958,1148
113970,217061,253010,2.2564317118,-6.6125652551,6.7585274337,1149
114127,217076,253033,2.2540388892,-6.652046828,6.7298135625,1150
114290,217100,253034,2.3557338497,-6.6568324732,6.6951176348,1151
114429,217078,253043,2.1750757434,-6.6161544889999995,6.811169530899999,1152
114497,217108,252977,2.3138594542,-6.675975054,6.7908305388,1153
114228,216934,252979,2.2492532439999997,-6.632904247199999,6.7788664257999995,1154
113783,217054,252994,2.2863419943,-6.8255264665,6.8542403377,1155
113314,216969,253043,2.2480568327,-6.7022961026,6.7896341275,1156
112957,216958,253017,2.3126630429,-6.7070817478,6.7310099738,1157
112750,216955,253028,2.2037896146,-6.6412791263,6.7501525546,1158
112687,216965,252963,2.3389840915,-6.673582231399999,6.6807606991999995,1159
112702,217015,252964,2.1858434451,-6.7298135625,6.8159551761,1160
112709,216946,252968,2.2695922361,-6.6496540054,6.8063838857,1161
112719,216912,252989,2.3294128011,-6.659225295800001,6.7621166676,1162
112771,216971,252980,2.3270199785,-6.6687965862,6.811169530899999,1163
112813,216973,252932,2.2396819536,-6.782455659699999,6.728617151199999,1164
112911,216980,252992,2.261217357,-6.7657059015,6.7657059015,1165
113054,217022,252889,2.3341984463,-6.8697936846,6.7477597320000005,1166
113157,216968,252980,2.2959132847,-6.6771714653,6.757331022400001,1167
113312,216923,252959,2.2683958248,-6.673582231399999,6.7381884416,1168
113461,217021,252978,2.2624137683,-6.6807606991999995,6.7872413049,1169
113605,217025,252945,2.3126630429,-6.6616181184,6.8733829185,1170
113807,217105,252981,2.344966148,-6.7621166676,6.7429740868,1171
113988,217071,252978,2.2205393728,-6.6927248122,6.753741788499999,1172
114162,217056,252990,2.3437697367,-6.673582231399999,6.782455659699999,1173
114254,217067,253008,2.3246271559,-6.770491546700001,6.7728843693,1174
114438,217039,252980,2.2277178406,-6.6652073523,6.8446690473,1175
114451,217074,252981,2.2995025186,-6.7477597320000005,6.6819571105,1176
114078,217025,252984,2.285145583,-6.629315013299999,6.7776700145,1177
113571,216999,252998,2.2779671152,-6.6257257794,6.7393848529,1178
112967,216951,252998,2.1750757434,-6.642475537599999,6.820740821299999,1179
112483,216927,252943,2.2839491717,-6.7178494495,6.7776700145,1180
112078,216917,252915,2.2767707039,-6.5479590449,6.786044893600001,1181
111870,216890,252945,2.2025932033,-6.7046889252,6.7298135625,1182
111812,216895,252871,2.3557338497,-6.8004018292,6.8350977569,1183
111794,216890,252895,2.2301106632,-6.6616181184,6.8303121117,1184
111778,216893,252915,2.3365912689,-6.6951176348,6.675975054,1185
111790,216906,252855,2.177468566,-6.7752771919,6.7633130788999996,1186
111838,216926,252951,2.3018953412000003,-6.6496540054,6.8135623535,1187
111913,216894,252923,2.1690936869,-6.7058853365,6.757331022400001,1188
112039,216896,252937,2.3700907853,-6.811169530899999,6.8004018292,1189
112190,216936,252901,2.2277178406,-6.6508504167,6.8039910631,1190
112360,216951,252932,2.2564317118,-6.7633130788999996,6.786044893600001,1191
112555,216949,252914,2.2552353005,-6.6652073523,6.7549381998,1192
112764,217000,252948,2.2671994135,-6.6065831986,6.7190458608,1193
112921,216888,253000,2.2313070745,-6.6472611828,6.8458654586,1194
113116,216993,252973,2.3042881638,-6.6257257794,6.7669023128,1195
113278,216973,252942,2.2947168733999996,-6.6903319896,6.820740821299999,1196
113450,216971,252974,2.1822542112,-6.6891355783,6.7800628371,1197
113633,217025,252945,2.225325018,-6.6987068686999995,6.7334027964,1198
113694,216984,252977,2.3282163898,-6.6699929975,6.675975054,1199
113360,216992,252985,2.3006989299,-6.7381884416,6.6975104574,1200
112765,216924,252952,2.2229321954,-6.7429740868,6.7621166676,1201
112301,216923,252922,2.2444675988,-6.7142602155999995,6.903293200999999,1202
111856,216868,252920,2.2660030021999997,-6.7752771919,6.786044893600001,1203
111508,216881,252963,2.3557338497,-6.7310099738,6.7453669094,1204
111413,216876,252943,2.2695922361,-6.7489561433,6.757331022400001,1205
111403,216860,252928,2.3365912689,-6.7441704981,6.8075802969999994,1206
111449,216882,252924,2.2061824372,-6.6269221907,6.8709900959,1207
111470,216859,252871,2.4442682859,-6.642475537599999,6.770491546700001,1208
111451,216889,252944,2.3294128011,-6.6616181184,6.786044893600001,1209
111619,216912,252912,2.3425733254,-6.6484575941,6.7477597320000005,1210
111742,216903,252952,2.3629123174999997,-6.7645094902,6.8015982405,1211
111902,216910,252922,2.2767707039,-6.6029939646999996,6.7070817478,1212
112074,216954,252927,2.1990039694,-6.7022961026,6.7788664257999995,1213
112282,216888,252941,2.2097716711,-6.6209401342000005,6.7908305388,1214
112460,216927,252953,2.2839491717,-6.7453669094,6.740581264199999,1215
112656,216954,252942,2.2085752598,-6.6927248122,6.7214386834,1216
112870,216998,252990,2.2002003807,-6.6951176348,6.740581264199999,1217
113070,216972,252943,2.2049860259000003,-6.8004018292,6.6771714653,1218
113257,217015,253018,2.1942183242,-6.628118602,6.851847515099999,1219
113468,216981,252977,2.3916261887,-6.6556360619,6.7166530382000005,1220
113699,217067,253002,2.2803599377999997,-6.6939212235,6.8303121117,1221
113841,217054,253016,2.3126630429,-6.671189408799999,6.6412791263,1222
113627,217042,253032,2.1714865095,-6.4989061816,6.7764736032,1223
113279,216997,253068,2.3341984463,-6.6951176348,6.769295135399999,1224
112793,216959,253001,2.3054845751,-6.6305114246,6.8733829185,1225
112418,216966,252981,2.3892333661,-6.7010996913000005,6.7190458608,1226
112201,216901,252996,2.2468604214,-6.6987068686999995,6.783652071000001,1227
112154,216955,253017,2.2313070745,-6.6006011420999995,6.786044893600001,1228
112103,216936,253013,2.2085752598,-6.546762633599999,6.7621166676,1229
112203,216959,252987,2.3042881638,-6.7046889252,6.769295135399999,1230
112225,216951,252978,2.4011974791,-6.8135623535,6.7310099738,1231
112331,216940,252976,2.213360905,-6.642475537599999,6.770491546700001,1232
112353,216959,252965,2.2779671152,-6.715456626899999,6.8949183219000005,1233
112464,217004,253003,2.117648001,-6.6975104574,6.7669023128,1234
112604,216949,253026,2.3042881638,-6.613761666399999,6.7657059015,1235
112760,217030,253003,2.2013967919999997,-6.7046889252,6.7441704981,1236
112884,216984,252988,2.2528424779,-6.6233329568,6.7896341275,1237
113071,216970,253062,2.3246271559,-6.6951176348,6.8147587648000005,1238
113265,217026,253000,2.1846470338,-6.771687958,6.675975054,1239
113366,217021,253044,2.2779671152,-6.7381884416,6.782455659699999,1240
113595,217034,253033,2.2420747762,-6.6065831986,6.740581264199999,1241
113773,217009,252998,2.237289131,-6.6412791263,6.7764736032,1242
113922,217035,253032,2.2037896146,-6.6807606991999995,6.735795619,1243
114130,217049,253014,2.2588245344,-6.6975104574,6.7274207398999994,1244
114095,217010,253029,2.1690936869,-6.709474570399999,6.759723845,1245
113787,216991,253023,2.2408783649,-6.652046828,6.7764736032,1246
113258,216939,252989,2.1858434451,-6.5419769884,6.8099731195999995,1247
112768,216815,252998,2.213360905,-6.7525453772,6.7429740868,1248
112400,216885,253015,2.2313070745,-6.629315013299999,6.7142602155999995,1249
112068,216907,252992,2.1906290903,-6.6616181184,6.7501525546,1250
112108,216958,252950,2.3006989299,-6.6723858201,6.8685972733,1251
112140,216909,252970,2.2540388892,-6.6843499331,6.771687958,1252
112162,216852,252976,2.3365912689,-6.6269221907,6.7310099738,1253
112153,216892,252964,2.225325018,-6.675975054,6.659225295800001,1254
112196,216864,252936,2.3282163898,-6.5838513839,6.6699929975,1255
112262,216892,252967,2.3413769141,-6.6221365455,6.7812592484,1256
112383,216917,252953,2.2528424779,-6.6341006585,6.769295135399999,1257
112435,216921,252991,2.1942183242,-6.5886370291,6.7884377162,1258
112659,216939,252927,2.2229321954,-6.6903319896,6.7214386834,1259
112853,216940,252970,2.2277178406,-6.7501525546,6.8638116281,1260
113003,216918,252947,2.3521446158,-6.6149580777,6.851847515099999,1261
113205,216946,253020,2.2624137683,-6.5527446901,6.7334027964,1262
113373,216970,252974,2.213360905,-6.664010941,6.8327049343,1263
113536,216978,252986,2.1882362677000002,-6.6245293681,6.7142602155999995,1264
113701,216929,252943,2.2420747762,-6.6927248122,6.849454692499999,1265
113866,217000,252985,2.2037896146,-6.6819571105,6.8087767083,1266
114020,216967,252985,2.2863419943,-6.6125652551,6.7501525546,1267
114005,216990,253003,2.1858434451,-6.628118602,6.687939167000001,1268
113635,216939,253011,2.2683958248,-6.5838513839,6.687939167000001,1269
113001,216911,253000,2.2109680824,-6.6125652551,6.8877398540999994,1270
112476,216898,252994,2.1846470338,-6.7166530382000005,6.8027946518,1271
111960,216867,252990,2.2217357841,-6.5407805771,6.8327049343,1272
111565,216853,252935,2.2420747762,-6.533602109299999,6.7310099738,1273
111334,216809,252931,2.1822542112,-6.6305114246,6.7453669094,1274
111332,216820,252909,2.2277178406,-6.5874406178,6.6341006585,1275
111352,216818,252960,2.3892333661,-6.6807606991999995,6.7441704981,1276
111374,216815,252886,2.2540388892,-6.6723858201,6.709474570399999,1277
111406,216755,252917,2.2983061073,-6.7118673929999995,6.7525453772,1278
111496,216842,252924,2.2899312282,-6.5240308189,6.770491546700001,1279
111557,216832,252944,2.3772692530999997,-6.5659052144,6.8685972733,1280
111748,216865,252875,2.3665015514,-6.6616181184,6.6843499331,1281
111943,216860,252944,2.2480568327,-6.6664037636,6.820740821299999,1282
112135,216846,252933,2.4000010678,-6.6161544889999995,6.7429740868,1283
112333,216897,252957,2.3509482045,-6.5838513839,6.740581264199999,1284
112496,216843,252967,2.3844477209,-6.5970119082,6.7812592484,1285
112744,216906,252964,2.2205393728,-6.7190458608,6.757331022400001,1286
112926,216933,253027,2.1954147355,-6.5970119082,6.8063838857,1287
113112,216924,252961,2.3174486881,-6.7046889252,6.7214386834,1288
113269,216942,253023,2.1690936869,-6.5994047308,6.7334027964,1289
113495,216823,252995,2.3509482045,-6.6185473116,6.6664037636,1290
113659,216997,253005,2.1822542112,-6.644868360199999,6.7453669094,1291
113603,216905,253018,2.2683958248,-6.687939167000001,6.7908305388,1292
113199,216908,253033,2.2229321954,-6.6819571105,6.8267228778,1293
112616,216831,252977,2.2683958248,-6.759723845,6.757331022400001,1294
112083,216759,253009,2.416750826,-6.5970119082,6.7477597320000005,1295
111669,216858,253003,2.2911276395,-6.4905313025,6.7501525546,1296
111388,216809,252951,2.213360905,-6.632904247199999,6.7322063851000005,1297
111274,216811,252901,2.2719850587,-6.6795642879,6.8147587648000005,1298
111285,216809,252925,2.2037896146,-6.7680987241,6.7680987241,1299
111372,216811,252923,2.2767707039,-6.5383877545,6.7645094902,1300
111402,216798,252931,2.2061824372,-6.642475537599999,6.7549381998,1301
111444,216797,252936,2.0781664281,-6.6029939646999996,6.831508523,1302
111563,216798,252921,2.3509482045,-6.7932233614,6.8015982405,1303
111723,216797,252947,2.2755742926,-6.769295135399999,6.6233329568,1304
111906,216808,252981,2.321037922,-6.7621166676,6.839883402099999,1305
112085,216888,252929,2.2552353005,-6.728617151199999,6.811169530899999,1306
112258,216896,252930,2.2492532439999997,-6.7070817478,6.7812592484,1307
112512,216889,252970,2.2540388892,-6.562315980499999,6.7310099738,1308
112740,216950,253009,2.2887348169,-6.5706908596,6.7310099738,1309
112938,216907,252990,2.213360905,-6.687939167000001,6.7932233614,1310
113147,216936,253003,2.2660030021999997,-6.6795642879,6.7669023128,1311
113340,216911,252986,2.2791635265,-6.6352970698,6.7908305388,1312
113569,216806,253005,2.27318147,-6.550351867499999,6.7334027964,1313
113770,216993,253022,2.237289131,-6.7166530382000005,6.7166530382000005,1314
113947,216969,253042,2.225325018,-6.7477597320000005,6.7800628371,1315
113888,216960,253062,2.3234307446,-6.7166530382000005,6.820740821299999,1316
113485,216936,252972,2.3258235672,-6.6951176348,6.7429740868,1317
112973,216859,253034,2.2516460665999998,-6.6472611828,6.709474570399999,1318
112519,216884,253006,2.3138594542,-6.8087767083,6.735795619,1319
112160,216895,253032,2.1451654609,-6.6496540054,6.7046889252,1320
111887,216872,253014,2.2636101795999997,-6.5814585613,6.673582231399999,1321
111954,216819,252938,2.2707886474,-6.5694944482999995,6.7932233614,1322
111976,216899,252972,2.2169501389,-6.6568324732,6.7932233614,1323
112005,216891,252951,2.3509482045,-6.675975054,6.8542403377,1324
112037,216856,252968,2.297109696,-6.6616181184,6.709474570399999,1325
112137,216896,253003,2.3748764305,-6.6664037636,6.7310099738,1326
112226,216895,252985,2.1643080417,-6.6843499331,6.6831535217999996,1327
112324,216887,253018,2.2396819536,-6.6101724325,6.769295135399999,1328
112486,216907,253045,2.2707886474,-6.709474570399999,6.7609202563,1329
112684,216936,252981,2.2205393728,-6.544369811,6.7214386834,1330
112891,216933,253030,2.2839491717,-6.6269221907,6.7549381998,1331
113096,216885,253049,2.3042881638,-6.6305114246,6.686742755699999,1332
113327,216974,253023,2.2229321954,-6.6927248122,6.8566331603,1333
113484,216992,253037,2.1583259852,-6.8004018292,6.7872413049,1334
113667,216979,253037,2.1978075581,-6.709474570399999,6.6819571105,1335
113870,217008,253077,2.1858434451,-6.7465633207,6.8183479987,1336
114011,216989,253083,2.2073788485,-6.7118673929999995,6.7944197726999995,1337
114262,217113,253084,2.177468566,-6.723831506,6.7669023128,1338
114393,217016,253067,2.3365912689,-6.671189408799999,6.7058853365,1339
114238,216981,253066,2.3066809864,-6.6484575941,6.8685972733,1340
113810,216956,253131,2.4251257050999997,-6.6556360619,6.7920269500999995,1341
113333,216852,253079,2.3018953412000003,-6.5587267466,6.7190458608,1342
112936,216917,253064,2.2540388892,-6.753741788499999,6.7549381998,1343
112634,216914,253128,2.2277178406,-6.5431733997,6.8004018292,1344
112522,216949,253074,2.2995025186,-6.7262243286,6.783652071000001,1345
112540,216961,253019,2.2396819536,-6.6987068686999995,6.753741788499999,1346
112553,216896,253014,2.1547367513,-6.7501525546,6.6771714653,1347
112548,216955,253028,2.237289131,-6.4917277138,6.8027946518,1348
112544,216923,253032,2.2468604214,-6.6125652551,6.7884377162,1349
112625,216926,253029,2.2420747762,-6.6496540054,6.7429740868,1350
112691,216943,253023,2.2313070745,-6.6951176348,6.7776700145,1351
112804,216933,253000,2.297109696,-6.7322063851000005,6.7525453772,1352
112949,216949,252978,2.2013967919999997,-6.8374905795,6.728617151199999,1353
113099,216926,252979,2.3676979627,-6.6568324732,6.8015982405,1354
113286,216960,253034,2.2839491717,-6.709474570399999,6.8063838857,1355
113446,216946,253037,2.2241286067,-6.5958154969,6.851847515099999,1356
113619,217021,253029,2.3940190112999997,-6.6101724325,6.664010941,1357
113718,216978,252992,2.309073809,-6.6017975534,6.7776700145,1358
113952,216987,253031,2.1200408236,-6.7441704981,6.8542403377,1359
114103,217018,253009,2.3078773977,-6.6891355783,6.8279192891000005,1360
114298,217015,253018,2.2205393728,-6.58026215,6.7070817478,1361
114366,217026,253030,2.2504496553,-6.5479590449,6.7393848529,1362
114174,217019,253084,2.189432679,-6.652046828,6.7872413049,1363
113684,216983,253052,2.2636101795999997,-6.7393848529,6.6807606991999995,1364
113171,216947,253067,2.3006989299,-6.6676001749,6.783652071000001,1365
112666,216842,253011,2.3928226,-6.5694944482999995,6.7142602155999995,1366
112275,216856,253040,2.237289131,-6.7872413049,6.7633130788999996,1367
112072,216850,252958,2.2265214293,-6.549155456199999,6.735795619,1368
112048,216860,253023,2.3042881638,-6.7501525546,6.8051874744,1369
112054,216872,252977,2.3078773977,-6.7633130788999996,6.709474570399999,1370
112086,216861,252943,2.3318056236999998,-6.687939167000001,6.757331022400001,1371
112105,216877,252988,2.2588245344,-6.7848484823,6.7082781591,1372
112165,216829,252965,2.1906290903,-6.7932233614,6.7010996913000005,1373
112280,216879,252987,2.2301106632,-6.6664037636,6.8267228778,1374
112408,216858,253003,2.2516460665999998,-6.5814585613,6.6951176348,1375
112563,216912,252960,2.2755742926,-6.6149580777,6.740581264199999,1376
112735,216894,252992,2.2121644937,-6.7549381998,6.7908305388,1377
112911,216915,253009,2.4011974791,-6.7621166676,6.824330055200001,1378
113104,216946,252987,2.2516460665999998,-6.5742800935,6.7872413049,1379
113319,216804,253018,2.3389840915,-6.6089760212,6.7884377162,1380
113500,216956,253021,2.2815563491,-6.6687965862,6.7788664257999995,1381
113672,216958,253047,2.3820548983,-6.664010941,6.7190458608,1382
113889,217013,253031,2.1966111468,-6.6496540054,6.7477597320000005,1383
114060,216966,253014,2.2983061073,-6.7381884416,6.7441704981,1384
114228,217017,252993,2.2648065909,-6.562315980499999,6.7501525546,1385
114292,217011,253006,2.2683958248,-6.7310099738,6.759723845,1386
114009,216957,253055,2.2420747762,-6.5982083195,6.8303121117,1387
113587,216893,253022,2.3353948576,-6.5982083195,6.686742755699999,1388
113026,216920,253016,2.2564317118,-6.6065831986,6.7118673929999995,1389
112506,216853,252977,2.1631116304,-6.6951176348,6.786044893600001,1390
112100,216874,253027,2.4035903017,-6.709474570399999,6.7477597320000005,1391
111947,216842,252977,2.3186450994000003,-6.6484575941,6.786044893600001,1392
111864,216869,252963,2.2444675988,-6.546762633599999,6.757331022400001,1393
111923,216868,252940,2.2289142519,-6.644868360199999,6.735795619,1394
111943,216825,252952,2.2911276395,-6.659225295800001,6.7764736032,1395
111976,216856,252944,2.3282163898,-6.628118602,6.7740807806,1396
111928,216839,252953,2.1906290903,-6.8087767083,6.7657059015,1397
112150,216879,253010,2.165504453,-6.7669023128,6.8135623535,1398
112292,216861,252993,2.1870398563999998,-6.6687965862,6.7645094902,1399
112465,216888,252980,2.2803599377999997,-6.5862442065,6.8171515874,1400
112654,216908,253022,2.2504496553,-6.6101724325,6.7884377162,1401
112887,216980,253007,2.428714939,-6.673582231399999,6.8638116281,1402
113074,216909,252969,2.213360905,-6.7310099738,6.7549381998,1403
113283,216936,253060,2.1990039694,-6.6664037636,6.7992054179000005,1404
113505,216996,253022,2.1798613886,-6.715456626899999,6.867400862,1405
113664,216966,253041,2.4023938904,-6.5982083195,6.735795619,1406
113870,217029,253029,2.1667008643,-6.5012990042,6.7549381998,1407
114059,217015,253070,2.2779671152,-6.5994047308,6.823133643899999,1408
114288,216944,253045,2.2935204621,-6.5934226743,6.7082781591,1409
114449,217021,253039,2.344966148,-6.659225295800001,6.7669023128,1410
114234,216976,253025,2.141576227,-6.7788664257999995,6.7082781591,1411
113878,216935,253077,2.3653051401,-6.6317078358999995,6.7381884416,1412
113356,216923,253051,2.3904297774,-6.7465633207,6.866204450700001,1413
112916,216905,253061,2.3282163898,-6.7166530382000005,6.7166530382000005,1414
112613,216881,253051,2.2145573163,-6.607779609900001,6.7214386834,1415
112455,216862,253054,2.2755742926,-6.757331022400001,6.8147587648000005,1416
112437,216914,253027,2.2037896146,-6.6687965862,6.7345992077,1417
112488,216928,253027,2.237289131,-6.6676001749,6.7118673929999995,1418
112548,216922,253065,2.3018953412000003,-6.6699929975,6.7046889252,1419
112570,216815,253030,2.3018953412000003,-6.628118602,6.8123659422000005,1420
112615,216910,253025,2.3330020350000003,-6.7609202563,6.7740807806,1421
112727,216814,253015,2.2217357841,-6.7070817478,6.7525453772,1422
112845,216931,253017,2.3365912689,-6.7046889252,6.8255264665,1423
112906,216947,252979,2.2875384056,-6.7142602155999995,6.7669023128,1424
113192,216923,252968,2.285145583,-6.6161544889999995,6.771687958,1425
113347,216967,253038,2.2660030021999997,-6.6783678766,6.759723845,1426
113550,216992,252991,2.2301106632,-6.6197437229,6.7501525546,1427
113775,216992,253086,2.2660030021999997,-6.5671016257,6.7453669094,1428
113902,216997,253082,2.2444675988,-6.6089760212,6.7788664257999995,1429
114066,217016,253071,2.2827527603999997,-6.6472611828,6.6927248122,1430
114242,217020,253089,2.1379869930999997,-6.6927248122,6.728617151199999,1431
114435,217026,253048,2.2636101795999997,-6.6185473116,6.7310099738,1432
114641,217046,253098,2.2947168733999996,-6.5108702946,6.7908305388,1433
114669,217015,253085,2.2695922361,-6.753741788499999,6.8697936846,1434
114331,216981,253085,2.2277178406,-6.7106709817,6.8614188055,1435
113891,216998,253092,2.4227328825,-6.671189408799999,6.8063838857,1436
113397,216931,253037,2.2085752598,-6.6723858201,6.8829542089,1437
113052,216901,252997,2.2875384056,-6.6927248122,6.7166530382000005,1438
112790,216821,253003,2.2002003807,-6.6101724325,6.7908305388,1439
112742,216846,253049,2.1427726383,-6.7130638043,6.7764736032,1440
112765,216866,253008,2.4789642136,-6.7549381998,6.757331022400001,1441
112737,216881,253018,2.3700907853,-6.7334027964,6.8063838857,1442
112741,216875,252977,2.2025932033,-6.6628145297,6.7645094902,1443
112767,216877,253012,2.4227328825,-6.7022961026,6.7621166676,1444
112828,216871,252982,2.2217357841,-6.671189408799999,6.7381884416,1445
112908,216888,253008,2.2432711875,-6.7070817478,6.824330055200001,1446
113028,216884,252984,2.3270199785,-6.6771714653,6.759723845,1447
113168,216902,253025,2.2983061073,-6.6628145297,6.7788664257999995,1448
113377,216936,252995,2.3222343333,-6.632904247199999,6.759723845,1449
113499,216845,252969,2.3557338497,-6.7920269500999995,6.7549381998,1450
113673,216952,252966,2.3102702203,-6.7334027964,6.8075802969999994,1451
113884,217002,253054,2.2492532439999997,-6.671189408799999,6.6795642879,1452
114057,216959,253013,2.2061824372,-6.7178494495,6.7896341275,1453
114207,216949,253025,2.3700907853,-6.5060846494,6.7740807806,1454
114356,217012,253073,2.2301106632,-6.7369920303,6.7549381998,1455
114486,216980,253039,2.1798613886,-6.652046828,6.867400862,1456
114600,216999,253019,2.2013967919999997,-6.646064771500001,6.709474570399999,1457
114371,216929,253055,2.237289131,-6.7070817478,6.8614188055,1458
113797,216883,253003,2.2947168733999996,-6.6544396506,6.771687958,1459
113170,216863,253031,2.3222343333,-6.7118673929999995,6.7310099738,1460
112632,216826,253024,2.2348963083999998,-6.770491546700001,6.759723845,1461
112234,216816,252978,2.1738793321000003,-6.7142602155999995,6.8470618699,1462
112001,216830,253015,2.3222343333,-6.824330055200001,6.6855463444,1463
111966,216814,252978,2.2755742926,-6.5862442065,6.786044893600001,1464
111992,216788,252991,2.2911276395,-6.6508504167,6.757331022400001,1465
112005,216816,252970,2.2923240508,-6.5551375127,6.8051874744,1466
111995,216794,252921,2.3078773977,-6.5970119082,6.8099731195999995,1467
112088,216806,252920,2.2420747762,-6.7262243286,6.6305114246,1468
112114,216763,252958,2.3425733254,-6.6317078358999995,6.8159551761,1469
112248,216818,253005,2.1678972756,-6.6795642879,6.7190458608,1470
112421,216871,253003,2.2325034857999997,-6.7345992077,6.782455659699999,1471
112610,216849,252964,2.1990039694,-6.7202422721,6.7740807806,1472
112775,216850,252982,2.1451654609,-6.7884377162,6.8027946518,1473
112973,216842,252963,2.1200408236,-6.6855463444,6.8638116281,1474
113178,216868,253004,2.3270199785,-6.6352970698,6.7525453772,1475
113341,216889,253002,2.2336998971,-6.7429740868,6.8004018292,1476
113515,216905,252973,2.2719850587,-6.628118602,6.725027917299999,1477
113709,216870,252976,2.1367905818,-6.8183479987,6.686742755699999,1478
113898,216921,252989,2.2755742926,-6.7441704981,6.8075802969999994,1479
114101,216960,253039,2.2348963083999998,-6.7166530382000005,6.8123659422000005,1480
114178,216949,253023,2.2815563491,-6.8183479987,6.771687958,1481
113908,216905,253054,2.2588245344,-6.644868360199999,6.740581264199999,1482
113368,216796,253034,2.2169501389,-6.658028884499999,6.7429740868,1483
112840,216854,253058,2.1786649773,-6.5587267466,6.782455659699999,1484
112308,216817,253070,2.1942183242,-6.6687965862,6.7190458608,1485
112040,216809,253038,2.1906290903,-6.6687965862,6.798009006599999,1486
111938,216798,253039,2.1260228801,-6.7202422721,6.8099731195999995,1487
111930,216825,253007,2.2444675988,-6.7441704981,6.8709900959,1488
111986,216779,252979,2.2875384056,-6.7429740868,6.8638116281,1489
112023,216778,253008,2.309073809,-6.613761666399999,6.8279192891000005,1490
112084,216802,253021,2.297109696,-6.709474570399999,6.7728843693,1491
112147,216804,252989,2.3066809864,-6.6855463444,6.8267228778,1492
112315,216891,252993,2.1966111468,-6.5072810607,6.7872413049,1493
112468,216861,252991,2.2755742926,-6.7190458608,6.7477597320000005,1494
112642,216844,253030,2.3425733254,-6.6125652551,6.7645094902,1495
112836,216853,253059,2.2205393728,-6.7298135625,6.7944197726999995,1496
113062,216784,253017,2.1918255016,-6.7812592484,6.7046889252,1497
113274,216925,253005,2.261217357,-6.6628145297,6.6927248122,1498
113466,216922,252999,2.2660030021999997,-6.6544396506,6.7022961026,1499
113674,216945,253018,2.2779671152,-6.6006011420999995,6.798009006599999,1500
113865,216933,253083,2.2683958248,-6.518048762399999,6.7262243286,1501
114082,216988,253110,2.1690936869,-6.659225295800001,6.843472636,1502
114269,216881,253086,2.2540388892,-6.7896341275,6.753741788499999,1503
114494,217016,253086,2.2516460665999998,-6.8279192891000005,6.7501525546,1504
114614,217035,253087,2.2444675988,-6.7046889252,6.771687958,1505
114452,216956,253107,2.2552353005,-6.6508504167,6.7214386834,1506
114017,216946,253058,2.2588245344,-6.6029939646999996,6.8506511038,1507
113595,216937,253074,2.3581266723,-6.640082715,6.6664037636,1508
113183,216926,253101,2.2181465501999997,-6.5958154969,6.740581264199999,1509
112999,216948,253061,2.2444675988,-6.6819571105,6.7872413049,1510
112946,216903,253048,2.1044874766999997,-6.699903279999999,6.7944197726999995,1511
113021,216954,253025,2.2875384056,-6.7896341275,6.7788664257999995,1512
113043,216911,253024,2.2205393728,-6.7046889252,6.820740821299999,1513
113080,216887,253038,2.2755742926,-6.6257257794,6.8446690473,1514
113128,216972,253062,2.4215364712,-6.7070817478,6.757331022400001,1515
113211,216955,253062,2.2444675988,-6.6006011420999995,6.735795619,1516
113307,216929,253105,2.2205393728,-6.8147587648000005,6.7190458608,1517
113417,216971,253089,2.2648065909,-6.6616181184,6.735795619,1518
