green,red,IR,acc_x,acc_y,acc_z,sample_index
64815,159372,201314,0.20338992099999997,-0.9140582332,9.8380901199,1
65011,159356,201299,0.191425808,-0.7369893608,9.738787982,2
65191,159431,201330,0.1854437515,-0.6987041992,9.8189475391,3
65302,159473,201390,0.22492532440000002,-0.8171489179,9.7064848769,4
65399,159514,201397,0.0765703232,-0.7848458128,9.7292166916,5
65499,159560,201408,0.3242274623,-0.7034898444000001,9.7531449176,6
65625,159554,201437,-0.0179461695,-0.8003991597,9.8189475391,7
65756,159647,201443,0.1148554848,-0.6580262149999999,9.8620183459,8
65891,159715,201544,0.0610169763,-0.6185446421,9.762716208,9
66028,159773,201543,0.1052841944,-0.6376872229,9.7196454012,10
66163,159812,201604,0.010767701699999998,-0.7800601676,9.714859756,11
66359,159935,201664,0.2069791549,-0.6951149653,9.7292166916,12
66523,160033,201732,0.0346959277,-0.6520441585,9.7531449176,13
66627,160124,201770,0.1387837108,-0.7944171031999999,9.7722874984,14
66787,160200,201799,0.442672181,-0.7094719009,9.7758767323,15
66946,160271,201862,0.1579262916,-0.7501498851,9.7483592724,16
67077,160379,201868,0.1004985492,-0.8231309743999999,9.8895358058,17
67216,160437,201937,0.0095712904,-0.7764709337,9.7519485063,18
67352,160539,202024,0.15672988029999999,-0.741775006,9.6275217311,19
67475,160635,202035,0.023928226,-0.9475577495999999,9.7244310464,20
67574,160642,202023,0.20458633229999998,-0.7046862557000001,9.7962157244,21
67451,160573,202001,-0.0083748791,-0.8087740388,9.8285188295,22
66846,160361,201850,0.1280160091,-0.8291130308999999,9.7531449176,23
66095,159928,201621,0.062213387599999996,-0.8709874264,9.69093153,24
65512,159531,201408,0.1004985492,-0.7573283529,9.8237331843,25
65426,159302,201291,0.1519442351,-0.789631458,9.857232700700001,26
65370,159210,201198,0.2333002035,-0.7274180704000001,9.687342296099999,27
65421,159140,201166,0.21415762270000002,-0.6843472636,9.757930562799999,28
65534,159206,201181,0.071784678,-0.7381857721,9.738787982,29
65727,159195,201203,0.20458633229999998,-0.7848458128,9.757930562799999,30
65884,159285,201245,0.09690931529999999,-0.7561319416,9.7950193131,31
65992,159286,201307,0.21894326790000002,-0.6759723845,9.857232700700001,32
66089,159311,201248,0.1292124204,-0.7465606512,9.714859756,33
66170,159339,201296,0.1531406464,-0.7609175868,9.6622176588,34
66270,159395,201319,0.1531406464,-0.7848458128,9.7567341515,35
66404,159415,201358,0.1531406464,-0.8709874264,9.7806623775,36
66537,159488,201380,0.1866401628,-0.7274180704000001,9.757930562799999,37
66717,159555,201425,0.0143569356,-0.8374879099999999,9.714859756,38
66835,159672,201464,0.062213387599999996,-0.7465606512,9.7483592724,39
66980,159748,201509,0.0526420972,-0.538385085,9.7244310464,40
67154,159831,201579,-0.04307080679999999,-0.7704888772,9.7758767323,41
67287,159915,201631,0.12323036389999999,-0.7992027483999999,9.6993064091,42
67442,160018,201692,0.1292124204,-0.7190431913,9.7531449176,43
67598,160093,201730,0.1100698396,-0.8123632727,9.767501853199999,44
67739,160175,201755,0.09930213789999999,-0.8087740388,9.7292166916,45
67884,160303,201829,0.1579262916,-0.8255237969999999,9.629914553699999,46
67995,160400,201886,0.09092725880000001,-0.7322037156,9.562915520899999,47
68143,160483,201920,0.16630117069999997,-0.789631458,9.8189475391,48
68249,160504,201936,0.023928226,-0.8279166196,9.7914300792,49
68231,160570,201938,0.16630117069999997,-0.7800601676,9.6574320136,50
67785,160410,201855,0.047856452,-0.8231309743999999,9.8811609267,51
67060,160023,201656,0.20338992099999997,-0.5850451257,9.799804958300001,52
66537,159663,201446,-0.056231331100000004,-0.7262216591,9.7244310464,53
66302,159538,201382,0.041874395499999995,-0.5706881900999999,9.762716208,54
66230,159473,201362,0.1088734283,-0.6711867393,9.667003304,55
66267,159471,201371,0.0143569356,-0.8901300072,9.6107719729,56
66371,159521,201403,0.0334995164,-0.7046862557000001,9.7722874984,57
66556,159598,201433,0.0849452023,-0.8362914987,9.69093153,58
66664,159630,201466,0.0574277424,-0.7609175868,9.633503787599999,59
66719,159655,201489,-0.0131605243,-0.7716852885,9.7136633447,60
66773,159670,201548,0.15672988029999999,-0.7286144817,9.7710910871,61
66810,159676,201505,0.047856452,-0.8338986760999999,9.7483592724,62
66888,159700,201502,0.0526420972,-0.8039883936,9.7292166916,63
66966,159679,201517,0.0143569356,-0.7752745223999999,9.7902336679,64
67048,159707,201526,-0.0047856452,-0.7992027483999999,9.839286531199999,65
67153,159735,201567,0.09930213789999999,-0.789631458,9.81057266,66
67268,159803,201592,0.0574277424,-0.7322037156,9.8045906035,67
67381,159838,201609,-0.0047856452,-0.6376872229,9.633503787599999,68
67482,159897,201654,0.1292124204,-0.7381857721,9.7663054419,69
67580,159952,201694,0.12442677519999999,-0.7704888772,9.8093762487,70
67704,160022,201709,0.2105683888,-0.7238288365000001,9.7483592724,71
67820,160089,201757,0.0095712904,-0.6520441585,9.6969135865,72
67927,160189,201830,0.1339980656,-0.7848458128,9.7196454012,73
68031,160217,201825,0.17706887240000002,-0.6376872229,9.9003035075,74
67966,160179,201800,0.1531406464,-0.6149554081999999,9.738787982,75
67452,160038,201704,0.0873380249,-0.8757730716000001,9.7244310464,76
66639,159583,201509,-0.0323031051,-0.6759723845,9.762716208,77
66000,159233,201247,0.08614161359999999,-0.6568298037,9.7435736272,78
65679,159014,201132,0.18185451760000002,-0.8554340795,9.7112705221,79
65522,158903,201074,0.1100698396,-0.7621139981,9.8380901199,80
65510,158887,201144,0.2907279459,-0.741775006,9.8620183459,81
65571,158933,201155,0.047856452,-0.7513462964000001,9.7519485063,82
65713,158998,201183,0.1256231865,-0.6843472636,9.6681997153,83
65850,159058,201194,0.010767701699999998,-0.7800601676,9.7770731436,84
65942,159073,201280,0.32303105099999996,-0.6137589969,9.7615197967,85
65983,159116,201258,0.08135596839999999,-0.7226324252,9.7770731436,86
66035,159169,201279,0.2237289131,-0.7082754896000001,9.853643466800001,87
66114,159206,201333,0.1148554848,-0.8135596839999999,9.7196454012,88
66229,159264,201363,0.17587246110000002,-0.7944171031999999,9.762716208,89
66343,159331,201397,0.24287149389999999,-0.7573283529,9.6717889492,90
66453,159407,201441,0.11964113,-0.8745766603,9.7196454012,91
66586,159464,201495,0.1148554848,-0.7513462964000001,9.710074110799999,92
66728,159577,201538,0.0526420972,-0.8889335959,9.7483592724,93
66859,159641,201590,0.19980068709999999,-0.7848458128,9.7663054419,94
66986,159734,201647,0.0777667345,-0.8422735552,9.7818587888,95
67103,159848,201689,0.1100698396,-0.8422735552,9.7818587888,96
67251,159932,201726,0.1471585899,-0.789631458,9.6000042712,97
67386,160033,201769,0.095712904,-0.789631458,9.7806623775,98
67491,160042,201765,0.0729810893,-0.7860422241,9.7052884656,99
67424,160058,201775,0.215354034,-0.8362914987,9.757930562799999,100
66739,159815,201612,0.1710868159,-0.8662017812,9.700502820399999,101
65899,159321,201360,0.0669990328,-0.7238288365000001,9.714859756,102
65232,158911,201158,0.17587246110000002,-0.7465606512,9.7770731436,103
64890,158673,200998,0.08135596839999999,-0.7465606512,9.9003035075,104
64749,158556,200971,-0.056231331100000004,-0.6855436748999999,9.786644434,105
64768,158483,200945,0.17706887240000002,-0.7094719009,9.6957171752,106
64811,158578,200946,0.2333002035,-0.8087740388,9.7710910871,107
64974,158618,201005,0.1471585899,-0.8566304908000001,9.8620183459,108
65123,158694,201052,0.1902293967,-0.7716852885,9.7160561673,109
65232,158669,201055,0.1902293967,-0.7142575461,9.7244310464,110
65301,158739,201079,0.0299102825,-0.6951149653,9.7902336679,111
65367,158782,201118,0.0083748791,-0.909272588,9.6765745944,112
65350,158827,201108,0.2297109696,-0.7226324252,9.6622176588,113
65572,158885,201127,0.1292124204,-0.8566304908000001,9.7052884656,114
65673,158975,201209,0.17587246110000002,-0.8135596839999999,9.8285188295,115
65802,159053,201243,0.0490528633,-0.6376872229,9.786644434,116
65934,159142,201264,-0.0466600407,-0.8386843212999999,9.857232700700001,117
66077,159219,201360,0.1148554848,-0.7848458128,9.7052884656,118
66216,159290,201375,0.0382851616,-0.7250252478,9.7758767323,119
66365,159385,201437,0.0765703232,-0.7429714173,9.9050891527,120
66510,159460,201467,0.16749758199999998,-0.8518448456000001,9.7292166916,121
66646,159553,201536,0.1483550012,-0.7573283529,9.7531449176,122
66796,159655,201599,-0.0047856452,-0.7238288365000001,9.8201439504,123
66924,159767,201619,0.0526420972,-0.7322037156,9.7052884656,124
67031,159787,201591,0.0765703232,-0.7944171031999999,9.7495556837,125
67041,159781,201620,0.0897308475,-0.8279166196,9.857232700700001,126
66580,159630,201510,-0.0287138712,-0.9427721043999999,9.8045906035,127
65695,159185,201256,0.044267218100000005,-0.8051848049,9.700502820399999,128
64984,158691,200993,0.1339980656,-0.7992027483999999,9.6813602396,129
64641,158384,200837,-0.0131605243,-0.7525427077,9.7292166916,130
64569,158232,200742,0.2285145583,-0.7848458128,9.8763752815,131
64539,158167,200726,0.1328016543,-0.6197410534,9.767501853199999,132
64626,158150,200746,0.19381863059999999,-0.861416136,9.7052884656,133
64839,158236,200757,0.1519442351,-0.8183453291999999,9.7244310464,134
64972,158293,200826,0.13758729949999998,-0.6041877065,9.7818587888,135
65137,158339,200846,0.1040877831,-0.7944171031999999,9.8093762487,136
65229,158333,200827,0.2297109696,-0.789631458,9.7435736272,137
65332,158394,200858,0.0251246373,-0.7082754896000001,9.6538427797,138
65455,158451,200884,0.08135596839999999,-0.741775006,9.7244310464,139
65580,158502,200958,0.020338992099999998,-0.7238288365000001,9.767501853199999,140
65712,158613,200992,0.1387837108,-0.7609175868,9.7244310464,141
65865,158677,201074,0.1004985492,-0.8243273857,9.767501853199999,142
66026,158804,201077,0.1902293967,-0.6616154488999999,9.7244310464,143
66178,158864,201148,0.0047856452,-0.7836494015,9.687342296099999,144
66343,158959,201231,0.0287138712,-0.7381857721,9.7052884656,145
66510,159062,201285,0.095712904,-0.7190431913,9.8045906035,146
66668,159220,201321,0.1339980656,-0.5898307709,9.8297152408,147
66845,159277,201415,0.1148554848,-0.861416136,9.7052884656,148
66990,159374,201445,0.0526420972,-0.8087740388,9.7244310464,149
67165,159499,201544,0.062213387599999996,-0.7334001269,9.7184489899,150
67303,159595,201579,0.1902293967,-0.7381857721,9.7950193131,151
67427,159582,201586,0.1052841944,-0.7322037156,9.757930562799999,152
67473,159707,201606,0.1950150419,-0.8338986760999999,9.7064848769,153
67015,159527,201523,0.17706887240000002,-0.7956135145,9.8057870148,154
66271,159103,201299,0.0526420972,-0.6520441585,9.6394858441,155
65728,158738,201088,0.1519442351,-0.7082754896000001,9.839286531199999,156
65527,158563,201014,0.023928226,-0.8219345630999999,9.6957171752,157
65484,158532,200980,-0.12442677519999999,-0.7082754896000001,9.7256274577,158
65544,158518,200952,0.020338992099999998,-0.933200814,9.7806623775,159
65698,158597,201052,0.095712904,-0.8075776275,9.6478607232,160
65855,158687,201094,0.0849452023,-0.7908278692999999,9.7770731436,161
66048,158772,201189,0.056231331100000004,-0.7286144817,9.7292166916,162
66155,158834,201153,0.0191425808,-0.7704888772,9.6586284249,163
66226,158853,201242,0.0849452023,-0.8793623055,9.7483592724,164
66228,158911,201262,-0.0945164927,-0.7992027483999999,9.6574320136,165
66416,158926,201244,0.0705882667,-0.7501498851,9.7052884656,166
66505,158951,201260,-0.0275174599,-0.6568298037,9.700502820399999,167
66620,158992,201309,0.1040877831,-0.7704888772,9.7782695549,168
66702,159005,201303,0.0801595571,-0.7477570625,9.7196454012,169
66836,159037,201345,0.12323036389999999,-0.6903293201,9.6957171752,170
66961,159052,201365,0.1531406464,-0.8027919822999999,9.7292166916,171
67066,159127,201376,0.0526420972,-0.6771687957999999,9.7686982645,172
67204,159224,201433,0.1710868159,-0.7752745223999999,9.7340023368,173
67324,159250,201438,0.0143569356,-0.7848458128,9.4863451977,174
67446,159357,201513,0.143569356,-0.7573283529,9.7722874984,175
67569,159335,201496,0.1292124204,-0.6664010940999999,9.6921279413,176
67525,159345,201492,0.1328016543,-0.6233302873,9.8333044747,177
67043,159073,201350,-0.0047856452,-0.8662017812,9.762716208,178
66339,158650,201122,0.2009970984,-0.7226324252,9.7052884656,179
65887,158280,200907,0.1088734283,-0.7716852885,9.6957171752,180
65651,158095,200834,0.095712904,-0.7609175868,9.738787982,181
65578,158031,200792,0.0251246373,-0.8506484343,9.8153583052,182
65607,158040,200820,0.0334995164,-0.7453642399,9.7722874984,183
65708,158123,200871,0.1136590735,-0.7238288365000001,9.6382894328,184
65882,158220,200942,0.0143569356,-0.7094719009,9.7196454012,185
66025,158286,201002,0.095712904,-0.7322037156,9.81057266,186
66145,158313,200998,0.24287149389999999,-0.5946164161,9.7483592724,187
66222,158386,201018,0.1100698396,-0.789631458,9.738787982,188
66307,158443,201072,0.1148554848,-0.7704888772,9.8045906035,189
66411,158523,201081,0.0669990328,-0.8039883936,9.7244310464,190
66520,158593,201135,0.09690931529999999,-0.7704888772,9.786644434,191
66594,158632,201188,-0.0179461695,-0.8123632727,9.7435736272,192
66772,158717,201220,0.227318147,-0.6903293201,9.7064848769,193
66903,158836,201273,0.095712904,-0.7800601676,9.757930562799999,194
67050,158931,201347,0.17228322719999997,-0.8650053699,9.7770731436,195
67184,159003,201382,0.010767701699999998,-0.8039883936,9.7256274577,196
67264,159122,201381,0.1052841944,-0.897308475,9.8763752815,197
67423,159191,201472,0.09092725880000001,-0.6951149653,9.8859465719,198
67569,159281,201493,0.062213387599999996,-0.8374879099999999,9.5054877785,199
67707,159353,201566,0.0251246373,-0.7525427077,9.8057870148,200
67780,159386,201549,0.1806581063,-0.7465606512,9.785448022699999,201
67626,159309,201501,0.1854437515,-0.861416136,9.7196454012,202
66978,158976,201287,0.04307080679999999,-0.6807580296999999,9.8632147572,203
66236,158501,201033,0.095712904,-0.6711867393,9.6622176588,204
65762,158220,200834,0.18185451760000002,-0.6460621019999999,9.7758767323,205
65519,158004,200749,-0.051445685899999996,-0.8219345630999999,9.7292166916,206
65427,157923,200755,0.0574277424,-0.7226324252,9.7818587888,207
65423,157946,200745,0.143569356,-0.7752745223999999,9.81057266,208
65515,158023,200804,0.1483550012,-0.7465606512,9.7244310464,209
65680,158167,200797,0.1088734283,-0.7465606512,9.7471628611,210
65793,158160,200836,0.0346959277,-0.6891329087999999,9.767501853199999,211
65895,158213,200897,0.06340979890000001,-0.7477570625,9.7304131029,212
65975,158279,200909,0.1052841944,-0.7561319416,9.714859756,213
66062,158363,200953,0.12323036389999999,-0.7142575461,9.7016992317,214
66141,158380,200983,0.17587246110000002,-0.7334001269,9.785448022699999,215
66244,158451,201019,0.3038884702,-0.741775006,9.7914300792,216
66367,158516,201033,-0.0071784678,-0.6699903279999999,9.767501853199999,217
66498,158628,201124,0.047856452,-0.7082754896000001,9.8488578216,218
66639,158741,201142,0.2285145583,-0.7992027483999999,9.7292166916,219
66788,158833,201211,0.0945164927,-0.8231309743999999,9.762716208,220
66893,158908,201229,0.24287149389999999,-0.7752745223999999,9.767501853199999,221
67034,159026,201342,0.0287138712,-0.8841479507000001,9.8045906035,222
67166,159104,201379,0.0382851616,-0.7477570625,9.7531449176,223
67294,159219,201423,0.1387837108,-0.7932206919,9.6622176588,224
67412,159274,201473,0.1519442351,-0.6568298037,9.6861458848,225
67507,159359,201502,0.0669990328,-0.6652046827999999,9.786644434,226
67431,159301,201441,0.0729810893,-0.8135596839999999,9.7962157244,227
66845,159032,201271,-0.1136590735,-0.7812565789,9.7758767323,228
66054,158592,201022,0.1100698396,-0.7752745223999999,9.7196454012,229
65505,158218,200836,0.20458633229999998,-0.741775006,9.7052884656,230
65203,158025,200704,0.06340979890000001,-0.7465606512,9.7531449176,231
65106,157928,200661,0.1423729447,-0.7130611348,9.7806623775,232
65099,157884,200638,0.11964113,-0.6520441585,9.7088776995,233
65174,157920,200662,0.17228322719999997,-0.8470592004,9.7710910871,234
65330,157941,200702,0.062213387599999996,-0.6424728680999999,9.6478607232,235
65474,157957,200742,0.16151552549999998,-0.7513462964000001,9.7160561673,236
65556,158059,200718,0.071784678,-0.8279166196,9.6957171752,237
65631,157999,200716,0.1387837108,-0.71784678,9.7722874984,238
65699,158043,200737,0.16151552549999998,-0.7944171031999999,9.738787982,239
65794,158090,200723,0.11964113,-0.7884350467,9.7722874984,240
65925,158126,200800,0.24287149389999999,-0.7812565789,9.6957171752,241
66051,158199,200813,0.015553346899999999,-0.7513462964000001,9.6777710057,242
66189,158285,200893,0.2715853651,-0.6329015777,9.7052884656,243
66320,158371,200923,0.17587246110000002,-0.741775006,9.8237331843,244
66474,158468,201009,0.21894326790000002,-0.8279166196,9.7244310464,245
66604,158575,201046,0.23928226,-0.8518448456000001,9.799804958300001,246
66753,158653,201104,0.143569356,-0.8075776275,9.728020280299999,247
66895,158767,201129,0.2799602442,-0.7226324252,9.7770731436,248
67041,158862,201238,0.17706887240000002,-0.7561319416,9.738787982,249
67179,158954,201305,-0.022731814700000002,-0.7525427077,9.6251289085,250
67271,159054,201334,0.0669990328,-0.7992027483999999,9.9565348386,251
67413,159084,201322,0.1423729447,-0.7621139981,9.710074110799999,252
67372,159138,201359,0.1339980656,-0.6711867393,9.6813602396,253
66822,158897,201214,0.12442677519999999,-0.8566304908000001,9.6825566509,254
66015,158491,200962,0.047856452,-0.7322037156,9.7914300792,255
65462,158139,200806,0.1280160091,-0.8135596839999999,9.6825566509,256
65220,158007,200725,0.17587246110000002,-0.6819544409999999,9.757930562799999,257
65155,157958,200737,0.08614161359999999,-0.7034898444000001,9.6765745944,258
65252,157994,200767,0.16630117069999997,-0.909272588,9.7292166916,259
65315,158047,200750,0.143569356,-0.9128618219,9.7184489899,260
65496,158151,200867,0.0574277424,-0.7322037156,9.7914300792,261
65625,158235,200907,0.0945164927,-0.6664010940999999,9.757930562799999,262
65732,158271,200911,0.0610169763,-0.789631458,9.7483592724,263
65795,158311,200970,0.3565305674,-0.8422735552,9.8045906035,264
65888,158372,200985,0.1471585899,-0.6951149653,9.6239324972,265
65969,158420,201008,0.16630117069999997,-0.7525427077,9.7304131029,266
66083,158505,201024,0.0849452023,-0.7609175868,9.714859756,267
66143,158627,201111,-0.0334995164,-0.7764709337,9.7483592724,268
66347,158669,201154,0.1710868159,-0.7812565789,9.6574320136,269
66476,158810,201235,0.015553346899999999,-0.7992027483999999,9.7340023368,270
66607,158882,201280,-0.0765703232,-0.7525427077,9.7483592724,271
66739,158976,201348,0.12323036389999999,-0.7334001269,9.767501853199999,272
66860,159048,201360,0.0705882667,-0.741775006,9.7519485063,273
66986,159122,201392,0.0191425808,-0.7573283529,9.69093153,274
67096,159171,201396,0.0753739119,-0.7561319416,9.69093153,275
67190,159165,201440,0.0765703232,-0.6723831506,9.6921279413,276
67153,159142,201401,0.16749758199999998,-0.7800601676,9.7340023368,277
66602,158897,201212,-0.0334995164,-0.95712904,9.8189475391,278
65756,158418,200955,0.08614161359999999,-0.8147560952999999,9.700502820399999,279
65196,158032,200752,0.1962114532,-0.6233302873,9.757930562799999,280
64938,157861,200644,0.0059820565,-0.7944171031999999,9.7483592724,281
64858,157800,200658,0.143569356,-0.7369893608,9.8476614103,282
64896,157810,200673,0.0801595571,-0.7286144817,9.8428757651,283
65050,157914,200726,0.17228322719999997,-0.741775006,9.6921279413,284
65256,157997,200769,0.11964113,-0.8937192411,9.7770731436,285
65388,158114,200834,0.1004985492,-0.7645068207,9.8141618939,286
65481,158198,200869,0.08614161359999999,-0.9080761767,9.7292166916,287
65542,158259,200931,0.0059820565,-0.7549355303,9.6490571345,288
65636,158305,200959,-0.0047856452,-0.7130611348,9.7531449176,289
65721,158401,201004,0.16630117069999997,-0.8757730716000001,9.69093153,290
65844,158461,201051,0.1100698396,-0.7369893608,9.8297152408,291
65958,158558,201091,0.1004985492,-0.7609175868,9.714859756,292
66100,158676,201143,0.1339980656,-0.7692924659,9.738787982,293
66212,158715,201158,0.062213387599999996,-0.765703232,9.762716208,294
66356,158830,201225,0.0143569356,-0.9607182739,9.6239324972,295
66485,158910,201259,0.20458633229999998,-0.7764709337,9.7818587888,296
66619,159016,201337,0.0574277424,-0.8267202082999999,9.6287181424,297
66753,159067,201346,0.08614161359999999,-0.9044869428,9.786644434,298
66818,159102,201353,0.21415762270000002,-0.7082754896000001,9.8057870148,299
66475,158971,201246,0.19860427579999998,-0.9595218625999999,9.7950193131,300
65652,158543,200984,0.0849452023,-0.7621139981,9.7423772159,301
64887,158088,200754,0.0801595571,-0.7645068207,9.7052884656,302
64443,157817,200620,0.16271193679999998,-0.8075776275,9.8141618939,303
64336,157644,200528,0.095712904,-0.7322037156,9.7758767323,304
64297,157583,200493,0.1950150419,-0.7142575461,9.7483592724,305
64353,157607,200511,0.0849452023,-0.8805587168,9.714859756,306
64513,157714,200563,0.0047856452,-0.8327022648,9.714859756,307
64676,157775,200595,0.1339980656,-0.765703232,9.744770038499999,308
64857,157853,200611,0.06340979890000001,-0.765703232,9.7722874984,309
64943,157865,200669,0.0574277424,-0.8422735552,9.7770731436,310
65043,157942,200688,0.1387837108,-0.6568298037,9.7088776995,311
65166,157986,200679,0.1148554848,-0.8003991597,9.7567341515,312
65251,158052,200697,0.20458633229999998,-0.885344362,9.7770731436,313
65382,158114,200771,0.0574277424,-0.6999006105000001,9.643075077999999,314
65514,158193,200827,0.10169496049999999,-0.8566304908000001,9.799804958300001,315
65677,158321,200850,0.010767701699999998,-0.8243273857,9.7950193131,316
65841,158385,200919,0.143569356,-0.7226324252,9.7950193131,317
65942,158479,200969,0.1579262916,-0.7322037156,9.7483592724,318
66074,158598,201008,0.09930213789999999,-0.8518448456000001,9.7471628611,319
66221,158679,201048,0.0765703232,-0.7142575461,9.8249295956,320
66358,158810,201141,0.0095712904,-0.8327022648,9.6514499571,321
66478,158854,201174,0.15672988029999999,-0.7322037156,9.7531449176,322
66450,158822,201110,0.0669990328,-0.5898307709,9.8476614103,323
65890,158570,200964,0.2201396792,-0.8362914987,9.6634140701,324
65051,158092,200721,0.0669990328,-0.8626125473,9.767501853199999,325
64480,157725,200511,0.143569356,-0.8027919822999999,9.7483592724,326
64212,157529,200368,0.16630117069999997,-0.7704888772,9.7758767323,327
64130,157440,200331,0.0346959277,-0.8817551281,9.6729853605,328
64149,157438,200370,0.1100698396,-0.71784678,9.757930562799999,329
64310,157497,200349,0.1579262916,-0.7190431913,9.7088776995,330
64511,157597,200453,0.2715853651,-0.765703232,9.738787982,331
64613,157676,200499,0.16271193679999998,-0.7369893608,9.6957171752,332
64818,157693,200503,0.0658026215,-0.8327022648,9.7292166916,333
64923,157744,200518,0.015553346899999999,-0.6472585133,9.8141618939,334
65005,157757,200553,0.18185451760000002,-0.861416136,9.7483592724,335
65111,157802,200562,0.0095712904,-0.8279166196,9.8380901199,336
65254,157844,200584,0.16749758199999998,-0.8327022648,9.757930562799999,337
65412,157921,200644,0.1531406464,-0.7226324252,9.7052884656,338
65556,158000,200692,0.0382851616,-0.8135596839999999,9.6765745944,339
65718,158145,200763,0.0143569356,-0.7800601676,9.8189475391,340
65881,158175,200800,0.095712904,-0.6855436748999999,9.700502820399999,341
66040,158283,200819,0.1339980656,-0.71784678,9.785448022699999,342
66206,158397,200908,0.20458633229999998,-0.7286144817,9.8141618939,343
66360,158489,200948,0.0526420972,-0.7992027483999999,9.710074110799999,344
66542,158612,201017,0.0897308475,-0.7369893608,9.757930562799999,345
66666,158693,201075,0.095712904,-0.7716852885,9.8476614103,346
66832,158843,201141,0.1387837108,-0.6951149653,9.728020280299999,347
66968,158877,201162,0.1471585899,-0.7369893608,9.8715896363,348
67046,158962,201186,0.06340979890000001,-0.7369893608,9.7710910871,349
66727,158858,201111,0.0669990328,-0.8662017812,9.7435736272,350
66016,158522,200921,0.16749758199999998,-0.7274180704000001,9.8285188295,351
65476,158206,200784,0.047856452,-0.7609175868,9.7663054419,352
65240,158009,200698,0.0777667345,-0.7130611348,9.7567341515,353
65181,157991,200666,0.17587246110000002,-0.7381857721,9.8620183459,354
65233,158007,200694,0.0287138712,-0.8183453291999999,9.69093153,355
65372,158097,200746,0.044267218100000005,-0.8135596839999999,9.762716208,356
65574,158210,200816,0.0047856452,-0.7561319416,9.6538427797,357
65791,158306,200866,0.16151552549999998,-0.7322037156,9.7950193131,358
65911,158390,200949,0.0083748791,-0.8087740388,9.6717889492,359
66013,158428,200966,0.1710868159,-0.7513462964000001,9.700502820399999,360
66141,158520,201022,0.12323036389999999,-0.8087740388,9.7567341515,361
66243,158571,201029,0.1004985492,-0.7932206919,9.6382894328,362
66389,158677,201100,0.1280160091,-0.765703232,9.700502820399999,363
66534,158757,201168,-0.056231331100000004,-0.8662017812,9.7722874984,364
66680,158887,201207,0.062213387599999996,-0.7369893608,9.6813602396,365
66834,159015,201281,0.0526420972,-0.6520441585,9.7232346351,366
66989,159120,201336,0.0179461695,-0.8542376682,9.629914553699999,367
67140,159210,201407,-0.0083748791,-0.6999006105000001,9.8045906035,368
67289,159300,201453,-0.1471585899,-0.7238288365000001,9.8285188295,369
67427,159380,201475,0.071784678,-0.6520441585,9.7184489899,370
67562,159404,201530,0.11964113,-0.7980063370999999,9.7902336679,371
67705,159520,201560,0.0095712904,-0.71784678,9.6945207639,372
67840,159540,201574,0.1148554848,-0.6664010940999999,9.7531449176,373
67876,159544,201547,0.1806581063,-0.7704888772,9.7758767323,374
67551,159430,201458,0.0095712904,-0.9846464999,9.7483592724,375
66942,159066,201296,-0.0083748791,-0.7860422241,9.710074110799999,376
66492,158697,201079,0.1471585899,-0.7513462964000001,9.6251289085,377
66291,158593,201010,0.08614161359999999,-0.5994020613,9.834500886,378
66236,158514,201039,0.17228322719999997,-0.8518448456000001,9.7818587888,379
66278,158563,201036,0.20338992099999997,-0.7704888772,9.710074110799999,380
66427,158620,201098,0.0059820565,-0.8087740388,9.6765745944,381
66571,158750,201190,-0.0945164927,-0.7369893608,9.7136633447,382
66713,158840,201213,0.2237289131,-0.8291130308999999,9.7052884656,383
66818,158901,201238,0.1088734283,-0.8315058535,9.8297152408,384
66852,158935,201263,0.0334995164,-0.7094719009,9.7531449176,385
66983,159019,201310,0.0382851616,-0.8374879099999999,9.7244310464,386
67088,159086,201327,0.0334995164,-0.7980063370999999,9.762716208,387
67196,159167,201376,0.12442677519999999,-0.8135596839999999,9.7962157244,388
67332,159202,201415,0.0897308475,-0.8626125473,9.7914300792,389
67460,159302,201477,0.023928226,-0.7992027483999999,9.8285188295,390
67591,159404,201493,0.143569356,-0.6855436748999999,9.732805925500001,391
67738,159472,201567,0.1292124204,-0.8482556117000001,9.7196454012,392
67879,159558,201604,-0.0789631458,-0.8051848049,9.7663054419,393
68005,159650,201640,0.1148554848,-0.8087740388,9.7136633447,394
68140,159740,201728,0.1519442351,-0.610169763,9.8859465719,395
68294,159859,201754,0.0574277424,-0.7381857721,9.6897351187,396
68414,159932,201793,0.19980068709999999,-0.9176474671,9.8620183459,397
68506,159945,201770,0.16630117069999997,-0.6951149653,9.629914553699999,398
68307,159867,201697,0.2105683888,-0.909272588,9.8201439504,399
67752,159586,201531,0.0753739119,-0.8997012976000001,9.81057266,400
67181,159235,201333,0.0346959277,-0.8374879099999999,9.7136633447,401
66836,158973,201208,0.16749758199999998,-0.7812565789,9.7244310464,402
66670,158821,201153,0.095712904,-0.7525427077,9.7435736272,403
66611,158764,201114,0.1495514125,-0.8566304908000001,9.714859756,404
66656,158776,201074,0.21894326790000002,-0.8099704500999999,9.714859756,405
66715,158793,201128,0.1854437515,-0.8075776275,9.757930562799999,406
66863,158898,201167,0.2285145583,-0.7046862557000001,9.6490571345,407
66966,158894,201173,0.0490528633,-0.8697910151,9.81057266,408
67039,158974,201174,0.0059820565,-0.8195417405,9.767501853199999,409
67100,158989,201257,0.16630117069999997,-0.8231309743999999,9.69093153,410
67190,159049,201231,0.0382851616,-0.8039883936,9.8237331843,411
67274,159096,201238,0.1052841944,-0.7908278692999999,9.667003304,412
67376,159139,201305,0.191425808,-0.8231309743999999,9.7567341515,413
67463,159215,201343,0.0538385085,-0.6616154488999999,9.7184489899,414
67590,159322,201358,0.15672988029999999,-0.8087740388,9.7758767323,415
67713,159379,201406,0.1962114532,-0.7848458128,9.714859756,416
67843,159490,201456,0.12442677519999999,-0.7609175868,9.767501853199999,417
67974,159566,201481,0.2763710103,-0.861416136,9.8141618939,418
68099,159646,201518,0.1052841944,-0.7848458128,9.8249295956,419
68225,159729,201543,0.1004985492,-0.861416136,9.6574320136,420
68334,159737,201640,-0.0323031051,-0.8003991597,9.7914300792,421
68447,159882,201642,0.17706887240000002,-0.6987041992,9.6287181424,422
68573,159974,201715,0.09092725880000001,-0.8243273857,9.8751788702,423
68655,159999,201663,0.1854437515,-0.7034898444000001,9.799804958300001,424
68491,159931,201649,0.1148554848,-0.8470592004,9.8859465719,425
67934,159699,201505,0.1339980656,-0.7932206919,9.7722874984,426
67256,159327,201281,0.1962114532,-0.8087740388,9.7136633447,427
66781,159028,201125,0.1112662509,-0.7573283529,9.7052884656,428
66510,158828,201008,0.1004985492,-0.8003991597,9.786644434,429
66360,158734,200979,0.08135596839999999,-0.8231309743999999,9.8201439504,430
66324,158741,200905,0.095712904,-0.9188438784,9.767501853199999,431
66388,158773,200918,0.16630117069999997,-0.8578269021,9.7244310464,432
66501,158832,201016,0.191425808,-0.6795616184,9.7962157244,433
66586,158862,201008,0.2105683888,-0.7513462964000001,9.8763752815,434
66642,158868,200998,0.1004985492,-0.7142575461,9.7196454012,435
66666,158881,201034,0.1100698396,-0.6556333924,9.714859756,436
66736,158905,200996,0.3038884702,-0.7609175868,9.7340023368,437
66769,158898,200989,0.0825523797,-0.7992027483999999,9.762716208,438
66860,158876,201015,0.35772697870000003,-0.7274180704000001,9.7292166916,439
66954,158930,201009,0.0346959277,-0.741775006,9.8057870148,440
67049,158970,201033,0.18185451760000002,-0.5994020613,9.6634140701,441
67167,159008,201050,0.3002992363,-0.8039883936,9.757930562799999,442
67280,159088,201098,0.1328016543,-0.765703232,9.7375915707,443
67417,159157,201154,0.2237289131,-0.7800601676,9.5772724565,444
67464,159238,201176,0.0765703232,-0.7046862557000001,9.7914300792,445
67662,159246,201225,0.2727817764,-0.7944171031999999,9.6957171752,446
67776,159353,201250,0.1483550012,-0.6843472636,9.6717889492,447
67910,159451,201304,0.095712904,-0.8087740388,9.7399843933,448
68025,159544,201330,0.16749758199999998,-0.7908278692999999,9.8919286284,449
68086,159594,201381,0.11964113,-0.7046862557000001,9.7471628611,450
68244,159651,201410,0.1483550012,-0.7130611348,9.858429112,451
68295,159698,201404,0.1854437515,-0.7704888772,9.7591269741,452
68000,159630,201406,0.0490528633,-0.8135596839999999,9.700502820399999,453
67323,159308,201222,0.12442677519999999,-0.8147560952999999,9.7340023368,454
66605,158926,200988,0.2009970984,-0.789631458,9.7483592724,455
66167,158679,200819,0.1339980656,-0.7334001269,9.8189475391,456
65951,158557,200797,-0.023928226,-0.741775006,9.8356972973,457
65802,158517,200741,0.0095712904,-0.7561319416,9.852447055499999,458
65914,158543,200757,0.1423729447,-0.6568298037,9.6861458848,459
66046,158612,200818,0.015553346899999999,-0.7034898444000001,9.7340023368,460
66192,158679,200875,0.1531406464,-0.7142575461,9.6969135865,461
66269,158729,200869,0.1328016543,-0.7561319416,9.7196454012,462
66328,158753,200915,-0.0275174599,-0.8362914987,9.700502820399999,463
66375,158781,200923,0.0526420972,-0.6963113766000001,9.7256274577,464
66441,158787,200972,0.04307080679999999,-0.6891329087999999,9.7423772159,465
66509,158853,200994,-0.0370887503,-0.6089733517,9.8045906035,466
66615,158927,201028,0.0382851616,-0.7980063370999999,9.6861458848,467
66725,159014,201056,0.08135596839999999,-0.6807580296999999,9.767501853199999,468
66854,159117,201123,0.056231331100000004,-0.8374879099999999,9.6861458848,469
66978,159211,201182,-0.0179461695,-0.8315058535,9.646664311899999,470
67113,159309,201307,-0.0945164927,-0.7190431913,9.710074110799999,471
67250,159384,201315,0.09690931529999999,-0.7310073043,9.732805925500001,472
67359,159444,201305,0.0047856452,-0.7130611348,9.762716208,473
67455,159501,201384,0.04307080679999999,-0.8518448456000001,9.785448022699999,474
67567,159538,201370,0.1471585899,-0.7477570625,9.5533442305,475
67663,159579,201400,0.0729810893,-0.7465606512,9.7567341515,476
67715,159420,201404,0.06340979890000001,-0.6604190376,9.7435736272,477
67507,159466,201353,0.0,-0.8087740388,9.7818587888,478
66783,159119,201138,0.1387837108,-0.8805587168,9.7136633447,479
65996,158662,200869,0.24287149389999999,-0.6795616184,9.7962157244,480
65531,158339,200686,0.19381863059999999,-0.6664010940999999,9.7052884656,481
65310,158166,200612,0.08135596839999999,-0.741775006,9.8201439504,482
65266,158108,200580,-0.022731814700000002,-0.6472585133,9.8620183459,483
65301,158089,200602,0.1854437515,-0.7573283529,9.7340023368,484
65459,158091,200646,0.1040877831,-0.8123632727,9.667003304,485
65619,158238,200660,0.0825523797,-0.6281159325,9.81057266,486
65747,158276,200704,0.12442677519999999,-0.8087740388,9.7818587888,487
65790,158298,200744,-0.0131605243,-0.7609175868,9.7435736272,488
65845,158290,200716,0.22492532440000002,-0.7513462964000001,9.714859756,489
65911,158377,200770,0.1387837108,-0.6987041992,9.69093153,490
66003,158394,200791,0.2285145583,-0.6987041992,9.710074110799999,491
66111,158483,200854,0.1950150419,-0.6843472636,9.7196454012,492
66234,158575,200919,0.2225325018,-0.8231309743999999,9.7962157244,493
66364,158684,200983,0.04307080679999999,-0.5910271822000001,9.7483592724,494
66508,158823,201039,-0.0897308475,-0.9140582332,9.6825566509,495
66652,158925,201091,0.1471585899,-0.8171489179,9.7435736272,496
66768,158972,201115,0.1579262916,-0.6855436748999999,9.7052884656,497
66912,159090,201215,-0.0526420972,-0.8135596839999999,9.700502820399999,498
67040,159221,201264,0.24287149389999999,-0.8171489179,9.6813602396,499
67175,159346,201322,0.047856452,-0.7525427077,9.8285188295,500
67280,159346,201356,0.16151552549999998,-0.7465606512,9.738787982,501
67185,159310,201296,0.21415762270000002,-0.6281159325,9.7615197967,502
66557,159048,201200,0.08614161359999999,-0.8410771438999999,9.7340023368,503
65692,158587,200888,0.1531406464,-0.7573283529,9.714859756,504
65069,158202,200674,0.1399801221,-0.5994020613,9.7770731436,505
64780,157997,200596,0.0143569356,-0.8219345630999999,9.7184489899,506
64693,157922,200547,0.04307080679999999,-0.7573283529,9.786644434,507
64699,157887,200520,0.1710868159,-0.7788637562999999,9.9003035075,508
64752,157951,200552,0.0574277424,-0.9367900479,9.620343263299999,509
64969,158003,200620,0.11964113,-0.7704888772,9.7615197967,510
65166,158117,200669,0.08135596839999999,-0.7908278692999999,9.7902336679,511
65262,158161,200687,0.08614161359999999,-0.8087740388,9.7722874984,512
65344,158212,200755,-0.0370887503,-0.8901300072,9.762716208,513
65441,158280,200774,0.12323036389999999,-0.6807580296999999,9.714859756,514
65539,158298,200816,0.23928226,-0.7764709337,9.7340023368,515
65663,158379,200825,0.015553346899999999,-0.6999006105000001,9.7567341515,516
65780,158477,200909,0.16749758199999998,-0.6903293201,9.6622176588,517
65916,158571,200936,0.1148554848,-0.7992027483999999,9.7196454012,518
66078,158664,200926,0.062213387599999996,-0.7034898444000001,9.8488578216,519
66223,158778,201043,0.143569356,-0.8075776275,9.6478607232,520
66373,158837,201069,0.0490528633,-0.7800601676,9.6957171752,521
66528,158967,201150,0.1806581063,-0.8087740388,9.762716208,522
66657,159016,201179,0.08135596839999999,-0.7992027483999999,9.8141618939,523
66807,159133,201185,-0.056231331100000004,-0.7334001269,9.7806623775,524
66944,159209,201265,0.17706887240000002,-0.7764709337,9.6813602396,525
67080,159301,201292,0.0095712904,-0.8087740388,9.8189475391,526
67186,159339,201316,0.12442677519999999,-0.7465606512,9.7052884656,527
67064,159303,201252,0.12083754129999999,-0.789631458,9.811769071299999,528
66396,159016,201087,0.16749758199999998,-0.7680960546,9.728020280299999,529
65581,158500,200851,0.1387837108,-0.7609175868,9.8285188295,530
65075,158160,200643,0.1531406464,-0.9080761767,9.7196454012,531
64856,157955,200534,0.1100698396,-0.7334001269,9.8045906035,532
64842,157904,200500,0.15672988029999999,-0.7369893608,9.8153583052,533
64920,157911,200503,0.08614161359999999,-0.7477570625,9.6586284249,534
65017,158037,200522,0.0849452023,-0.741775006,9.757930562799999,535
65214,158083,200604,0.1328016543,-0.765703232,9.8189475391,536
65385,158135,200630,0.17706887240000002,-0.789631458,9.7531449176,537
65536,158210,200663,0.21415762270000002,-0.8135596839999999,9.700502820399999,538
65578,158253,200690,0.12442677519999999,-0.8602197247000001,9.69093153,539
65675,158291,200722,0.08614161359999999,-0.765703232,9.9086783866,540
65779,158339,200746,0.2237289131,-0.8087740388,9.6765745944,541
65842,158388,200775,0.16271193679999998,-0.8135596839999999,9.7340023368,542
66073,158432,200795,0.1423729447,-0.9080761767,9.714859756,543
66171,158493,200850,0.1806581063,-0.7752745223999999,9.757930562799999,544
66328,158530,200848,0.0382851616,-0.8135596839999999,9.7483592724,545
66492,158610,200892,0.1423729447,-0.6699903279999999,9.757930562799999,546
66638,158674,200908,0.12323036389999999,-0.7310073043,9.7208418125,547
66786,158751,200959,0.1471585899,-0.789631458,9.8201439504,548
66934,158830,201030,0.1483550012,-0.7142575461,9.7531449176,549
67080,158876,201058,0.1902293967,-0.6329015777,9.7722874984,550
67230,158964,201107,0.19980068709999999,-0.9272187574999999,9.7423772159,551
67416,159069,201164,0.020338992099999998,-0.7980063370999999,9.5916293921,552
67514,159153,201188,0.1579262916,-0.7884350467,9.8093762487,553
67632,159205,201207,0.33260234139999995,-0.8506484343,9.6538427797,554
67564,159164,201167,0.2715853651,-0.6723831506,9.853643466800001,555
66990,158981,201054,0.095712904,-0.6664010940999999,9.7040920543,556
66253,158492,200784,0.11964113,-0.6125625856,9.7435736272,557
65781,158166,200613,0.09092725880000001,-0.7561319416,9.710074110799999,558
65579,158029,200545,0.16749758199999998,-0.7609175868,9.7962157244,559
65545,157959,200542,0.19860427579999998,-0.8362914987,9.8189475391,560
65604,158042,200563,0.2943171798,-0.7429714173,9.7818587888,561
65747,158103,200628,-0.0334995164,-0.7034898444000001,9.738787982,562
65930,158213,200657,0.1136590735,-0.7980063370999999,9.919446088299999,563
66094,158295,200733,0.16271193679999998,-0.789631458,9.643075077999999,564
66209,158353,200773,-0.0083748791,-0.7190431913,9.7962157244,565
66300,158427,200771,0.15672988029999999,-0.8231309743999999,9.700502820399999,566
66379,158463,200800,0.0801595571,-0.8279166196,9.852447055499999,567
66493,158441,200904,0.1471585899,-0.7752745223999999,9.6622176588,568
66659,158610,200919,0.1136590735,-0.765703232,9.738787982,569
66762,158688,200998,0.0382851616,-0.7381857721,9.7292166916,570
66904,158792,201035,0.1052841944,-0.8039883936,9.785448022699999,571
67060,158908,201095,0.15672988029999999,-0.9032905315,9.839286531199999,572
67203,159021,201168,-0.0143569356,-0.7513462964000001,9.8201439504,573
67362,159119,201246,-0.1040877831,-0.7800601676,9.6969135865,574
67507,159223,201326,0.09092725880000001,-0.7752745223999999,9.700502820399999,575
67645,159378,201383,-0.0299102825,-0.7190431913,9.7244310464,576
67791,159430,201410,-0.0323031051,-0.7465606512,9.6526463684,577
67935,159546,201468,0.1854437515,-0.7130611348,9.767501853199999,578
68039,159535,201498,0.0191425808,-0.7381857721,9.7962157244,579
68070,159533,201457,-0.1040877831,-0.8039883936,9.757930562799999,580
67650,159325,201350,0.20937197749999997,-0.7932206919,9.738787982,581
66926,158902,201093,0.1004985492,-0.6759723845,9.8237331843,582
66367,158505,200882,0.17587246110000002,-0.741775006,9.7770731436,583
66102,158280,200753,-0.0610169763,-0.7609175868,9.7902336679,584
66033,158090,200743,-0.0705882667,-0.7800601676,9.786644434,585
66054,158171,200700,0.1292124204,-0.8135596839999999,9.6957171752,586
66160,158213,200760,0.1292124204,-0.8231309743999999,9.7531449176,587
66300,158296,200775,0.09092725880000001,-0.6699903279999999,9.7244310464,588
66418,158349,200833,0.1304088317,-0.789631458,9.8010013696,589
66498,158386,200854,0.0191425808,-0.8697910151,9.7531449176,590
66553,158412,200835,0.1292124204,-0.8135596839999999,9.6921279413,591
66620,158451,200919,0.1004985492,-0.7465606512,9.7292166916,592
66703,158487,200931,0.1328016543,-0.7034898444000001,9.8907322171,593
66814,158575,200931,0.1806581063,-0.8554340795,9.6681997153,594
66936,158623,201002,0.11844471869999999,-0.8135596839999999,9.799804958300001,595
67033,158754,201072,0.1088734283,-0.7381857721,9.5964150373,596
67173,158832,201109,0.1339980656,-0.8171489179,9.8141618939,597
67299,158886,201141,0.047856452,-0.7046862557000001,9.6574320136,598
67417,158988,201193,0.056231331100000004,-0.7692924659,9.714859756,599
67534,159081,201226,0.06340979890000001,-0.7704888772,9.7519485063,600
67688,159201,201285,-0.0777667345,-0.7429714173,9.620343263299999,601
67808,159314,201370,0.0047856452,-0.8039883936,9.7758767323,602
67909,159322,201338,0.0849452023,-0.6999006105000001,9.6813602396,603
67735,159281,201324,0.1950150419,-0.6843472636,9.8428757651,604
67108,158914,201137,0.0287138712,-0.693918554,9.6765745944,605
66317,158486,200884,0.18185451760000002,-0.7525427077,9.7435736272,606
65823,158160,200680,0.12442677519999999,-0.6759723845,9.6957171752,607
65575,157992,200596,0.1052841944,-0.8003991597,9.7531449176,608
65475,157880,200577,0.16749758199999998,-0.622133876,9.8141618939,609
65479,157919,200557,0.1842473402,-0.8374879099999999,9.667003304,610
65581,157999,200609,0.0382851616,-0.7860422241,9.7722874984,611
65722,158085,200642,0.29551359110000003,-0.8075776275,9.7435736272,612
65854,158140,200697,-0.0370887503,-0.7274180704000001,9.8201439504,613
65942,158174,200712,0.0921236701,-0.6855436748999999,9.7244310464,614
66043,158245,200730,0.062213387599999996,-0.6711867393,9.6849494735,615
66102,158232,200751,0.12442677519999999,-0.6436692794,9.7758767323,616
66206,158348,200790,0.010767701699999998,-0.8087740388,9.6825566509,617
66320,158420,200835,0.2763710103,-0.7142575461,9.7483592724,618
66439,158449,200862,0.17706887240000002,-0.8745766603,9.700502820399999,619
66569,158588,200970,0.1136590735,-0.7692924659,9.7196454012,620
66692,158677,200970,0.24765713909999998,-0.9032905315,9.812965482600001,621
66843,158789,201026,0.2285145583,-0.8434699665000001,9.762716208,622
66974,158869,201097,0.3050848815,-0.8566304908000001,9.7112705221,623
67071,158979,201100,0.1387837108,-0.741775006,9.700502820399999,624
67244,159078,201145,0.3565305674,-0.8087740388,9.7722874984,625
67368,159153,201190,-0.047856452,-0.7190431913,9.6957171752,626
67490,159248,201278,0.18185451760000002,-0.6855436748999999,9.7232346351,627
67608,159309,201305,0.0669990328,-0.7752745223999999,9.6777710057,628
67484,159210,201239,0.0753739119,-0.8027919822999999,9.8153583052,629
66837,158908,201058,0.1148554848,-0.933200814,9.714859756,630
65993,158431,200795,0.08614161359999999,-0.7190431913,9.7088776995,631
65422,158000,200564,0.11964113,-0.6472585133,9.8428757651,632
65153,157876,200481,0.08135596839999999,-0.9367900479,9.7770731436,633
65060,157801,200417,0.3038884702,-0.7740781111,9.7292166916,634
65058,157814,200418,0.1483550012,-0.7381857721,9.767501853199999,635
65157,157860,200485,0.1387837108,-0.7609175868,9.6897351187,636
65320,157879,200528,0.16151552549999998,-0.7525427077,9.744770038499999,637
65470,158004,200576,0.0586241537,-0.6616154488999999,9.8333044747,638
65546,158053,200595,0.1579262916,-0.8757730716000001,9.767501853199999,639
65629,158135,200630,0.2620140747,-0.8362914987,9.757930562799999,640
65721,158162,200630,0.1004985492,-0.7369893608,9.7340023368,641
65808,158236,200681,0.0681954441,-0.6759723845,9.7531449176,642
65905,158302,200740,0.10169496049999999,-0.8422735552,9.7196454012,643
66027,158376,200745,0.08614161359999999,-0.7848458128,9.7340023368,644
66152,158472,200848,0.12442677519999999,-0.6855436748999999,9.7615197967,645
66287,158547,200879,0.1483550012,-0.7764709337,9.7770731436,646
66427,158670,200909,0.2009970984,-0.789631458,9.7483592724,647
66571,158764,200975,0.2285145583,-0.9080761767,9.7758767323,648
66728,158871,201078,0.12442677519999999,-0.8410771438999999,9.738787982,649
66865,158915,201096,0.24287149389999999,-0.8291130308999999,9.6813602396,650
66997,159033,201159,0.215354034,-0.8039883936,9.8093762487,651
67152,159095,201156,0.1866401628,-0.6855436748999999,9.8057870148,652
67307,159249,201276,0.1136590735,-0.7513462964000001,9.6370930215,653
67383,159263,201283,0.047856452,-0.7465606512,9.8811609267,654
67421,159264,201303,0.1339980656,-0.7740781111,9.8811609267,655
67029,159114,201171,0.1052841944,-0.861416136,9.6574320136,656
66074,158667,200918,0.0526420972,-0.9667003303999999,9.7423772159,657
65421,158161,200662,0.2560320182,-0.6711867393,9.7052884656,658
65012,157866,200494,0.1160518961,-0.741775006,9.7531449176,659
64864,157713,200399,0.1531406464,-0.7477570625,9.8093762487,660
64840,157671,200394,0.23688943739999999,-0.8231309743999999,9.762716208,661
64920,157674,200412,0.2009970984,-0.8087740388,9.767501853199999,662
65078,157759,200419,0.10169496049999999,-0.7010970218,9.710074110799999,663
65273,157836,200471,0.0681954441,-0.7130611348,9.7208418125,664
65455,157826,200477,0.0873380249,-0.8518448456000001,9.757930562799999,665
65487,157856,200534,0.28953153460000003,-0.741775006,9.69093153,666
65570,157887,200566,0.1902293967,-0.7381857721,9.6717889492,667
65661,157939,200605,0.1471585899,-0.7992027483999999,9.633503787599999,668
65770,158040,200614,0.18185451760000002,-0.7980063370999999,9.7902336679,669
65896,158040,200682,-0.0083748791,-0.7860422241,9.7663054419,670
66036,158159,200730,0.1387837108,-0.8039883936,9.69093153,671
66189,158244,200773,0.06340979890000001,-0.7848458128,9.714859756,672
66320,158404,200820,0.1579262916,-0.7932206919,9.7770731436,673
66462,158434,200902,0.2344966148,-0.7609175868,9.7567341515,674
66618,158520,200956,0.0669990328,-0.9272187574999999,9.785448022699999,675
66774,158625,200995,0.1902293967,-0.7369893608,9.7531449176,676
66916,158718,201067,0.17706887240000002,-0.7274180704000001,9.81057266,677
67079,158835,201157,0.2105683888,-0.8099704500999999,9.7615197967,678
67200,158947,201188,0.08135596839999999,-0.8219345630999999,9.5724868113,679
67354,158969,201237,0.1950150419,-0.6472585133,9.8010013696,680
67427,159034,201277,0.12442677519999999,-0.7609175868,9.738787982,681
67261,159010,201217,-0.0095712904,-0.693918554,9.7244310464,682
66511,158683,201018,0.095712904,-0.6520441585,9.8153583052,683
65728,158201,200788,0.143569356,-0.6843472636,9.7052884656,684
65281,157951,200664,0.16869399329999998,-0.7597211755,9.700502820399999,685
65122,157837,200595,0.0526420972,-0.7668996433,9.7244310464,686
65114,157832,200603,0.08135596839999999,-0.7334001269,9.7722874984,687
65193,157879,200668,0.24646072779999997,-0.8231309743999999,9.6861458848,688
65370,157987,200705,0.0658026215,-0.6664010940999999,9.6813602396,689
65560,158157,200781,0.1112662509,-0.6999006105000001,9.8153583052,690
65696,158164,200832,0.1148554848,-0.7322037156,9.7292166916,691
65786,158218,200848,0.04307080679999999,-0.8554340795,9.7950193131,692
65850,158271,200890,0.0382851616,-0.8937192411,9.7292166916,693
65954,158324,200911,0.0011964113,-0.7764709337,9.6155576181,694
65952,158378,200967,-0.09930213789999999,-0.6125625856,9.8045906035,695
66168,158478,201003,-0.0047856452,-0.7848458128,9.7770731436,696
66300,158600,201084,0.09930213789999999,-0.7800601676,9.6622176588,697
66433,158676,201109,-0.0610169763,-0.7549355303,9.7232346351,698
66571,158765,201153,-0.09930213789999999,-0.7884350467,9.7052884656,699
66709,158856,201242,0.1531406464,-0.7573283529,9.7914300792,700
66826,158938,201266,-0.023928226,-0.8231309743999999,9.757930562799999,701
66976,159063,201335,0.0753739119,-0.8327022648,9.7758767323,702
67089,159099,201374,0.0466600407,-0.8135596839999999,9.6622176588,703
67197,159162,201383,-0.0047856452,-0.5898307709,9.7914300792,704
67290,159171,201401,0.0705882667,-0.6508477471999999,9.7531449176,705
67080,159126,201328,0.0047856452,-0.7956135145,9.6765745944,706
66290,158717,201136,-0.0143569356,-0.7130611348,9.738787982,707
65452,158240,200848,0.1854437515,-0.741775006,9.7722874984,708
64998,157966,200708,0.0059820565,-0.7238288365000001,9.738787982,709
64850,157854,200653,0.1471585899,-0.8374879099999999,9.8045906035,710
64839,157816,200603,0.047856452,-0.8422735552,9.834500886,711
64896,157934,200630,0.0035892339,-0.8327022648,9.762716208,712
65065,157968,200674,-0.0646062102,-0.861416136,9.799804958300001,713
65243,158058,200753,0.107677017,-0.8327022648,9.7292166916,714
65359,158135,200812,0.1052841944,-0.909272588,9.6957171752,715
65438,158167,200838,0.1339980656,-0.8147560952999999,9.7435736272,716
65508,158208,200845,0.0,-0.8470592004,9.6765745944,717
65594,158251,200854,0.0047856452,-0.8183453291999999,9.7722874984,718
65702,158296,200886,0.24885355039999998,-0.8135596839999999,9.7950193131,719
65828,158387,200923,0.0574277424,-0.8985048863,9.7292166916,720
65945,158471,200972,-0.04307080679999999,-0.7477570625,9.728020280299999,721
66077,158522,201026,0.09930213789999999,-0.8997012976000001,9.7758767323,722
66220,158620,201082,0.0705882667,-0.6508477471999999,9.8010013696,723
66339,158679,201075,0.0526420972,-0.765703232,9.6574320136,724
66484,158782,201138,0.1806581063,-0.8410771438999999,9.8907322171,725
66617,158894,201200,0.1100698396,-0.8231309743999999,9.667003304,726
66745,158945,201213,0.0191425808,-0.9511469834999999,9.7914300792,727
66773,158993,201233,0.1052841944,-0.6843472636,9.7244310464,728
66597,158866,201170,0.09092725880000001,-0.8925228298,9.714859756,729
65810,158434,200885,0.1962114532,-0.8997012976000001,9.6490571345,730
64969,157982,200632,0.0681954441,-0.7525427077,9.6957171752,731
64497,157630,200423,0.1292124204,-0.8506484343,9.6777710057,732
64216,157448,200339,0.1423729447,-0.7956135145,9.8895358058,733
64231,157398,200311,0.0394815729,-0.7369893608,9.7531449176,734
64286,157401,200333,0.06340979890000001,-0.7992027483999999,9.6155576181,735
64432,157477,200388,0.0394815729,-0.7010970218,9.7244310464,736
64649,157552,200387,0.047856452,-0.6855436748999999,9.799804958300001,737
64823,157624,200455,0.13758729949999998,-0.6472585133,9.6729853605,738
64934,157693,200490,0.1854437515,-0.8183453291999999,9.6765745944,739
65012,157760,200522,0.1471585899,-0.8087740388,9.8189475391,740
65124,157824,200542,0.062213387599999996,-0.8662017812,9.6586284249,741
65280,157878,200591,0.08614161359999999,-0.7477570625,9.8141618939,742
65354,157947,200606,0.1519442351,-0.6711867393,9.852447055499999,743
65501,158022,200674,0.16151552549999998,-0.8327022648,9.6490571345,744
65654,158151,200736,0.12442677519999999,-0.8997012976000001,9.8428757651,745
65805,158224,200834,0.2524427843,-0.7812565789,9.6394858441,746
65942,158314,200852,0.1519442351,-0.7393821834000001,9.633503787599999,747
66097,158419,200914,0.215354034,-0.8937192411,9.7615197967,748
66258,158466,200958,0.0346959277,-0.8087740388,9.7758767323,749
66401,158590,200990,0.095712904,-0.8279166196,9.675378183100001,750
66521,158692,201065,0.1854437515,-0.8231309743999999,9.8620183459,751
66597,158717,201044,0.20937197749999997,-0.8422735552,9.7902336679,752
66357,158652,200974,0.06340979890000001,-0.7764709337,9.6717889492,753
65527,158226,200729,0.0705882667,-0.8721838377000001,9.767501853199999,754
64786,157770,200522,0.1423729447,-0.7094719009,9.7292166916,755
64359,157448,200341,0.0574277424,-0.7561319416,9.852447055499999,756
64213,157320,200272,0.1280160091,-0.9224331123,9.8045906035,757
64198,157287,200293,0.0658026215,-0.8087740388,9.7722874984,758
64295,157310,200280,0.0191425808,-0.9367900479,9.7615197967,759
64487,157408,200349,0.1651047594,-0.8841479507000001,9.7196454012,760
64707,157430,200393,-0.021535403399999997,-0.6855436748999999,9.7040920543,761
64876,157604,200453,0.0334995164,-0.7956135145,9.8045906035,762
64965,157660,200467,0.095712904,-0.8709874264,9.8141618939,763
65053,157702,200493,0.2237289131,-0.8518448456000001,9.786644434,764
65169,157753,200559,0.0753739119,-0.7274180704000001,9.69093153,765
65287,157877,200613,0.1052841944,-0.7094719009,9.667003304,766
65429,157935,200654,0.062213387599999996,-0.610169763,9.7806623775,767
65560,157954,200711,0.1052841944,-0.7992027483999999,9.7818587888,768
65711,158035,200718,0.0574277424,-0.8937192411,9.7758767323,769
65851,158087,200754,0.0526420972,-0.8039883936,9.714859756,770
66012,158135,200800,0.08135596839999999,-0.7381857721,9.757930562799999,771
66148,158213,200847,0.1710868159,-0.7046862557000001,9.7435736272,772
66291,158322,200883,0.1292124204,-0.9032905315,9.710074110799999,773
66441,158401,200916,0.09092725880000001,-0.6472585133,9.6861458848,774
66595,158529,200996,0.0251246373,-0.7704888772,9.7902336679,775
66726,158547,201055,0.2344966148,-0.6652046827999999,9.8189475391,776
66710,158564,201011,0.0574277424,-0.8039883936,9.738787982,777
66194,158375,200847,0.010767701699999998,-0.7812565789,9.643075077999999,778
65381,157865,200608,0.17587246110000002,-0.7848458128,9.762716208,779
64836,157520,200453,0.1052841944,-0.6903293201,9.6825566509,780
64607,157337,200391,0.16749758199999998,-0.7561319416,9.785448022699999,781
64559,157317,200336,0.1112662509,-0.7369893608,9.785448022699999,782
64646,157345,200362,-0.0945164927,-0.7513462964000001,9.8093762487,783
64795,157425,200400,0.0526420972,-0.6999006105000001,9.738787982,784
65005,157506,200488,0.0191425808,-0.7513462964000001,9.8476614103,785
65214,157640,200556,0.1387837108,-0.7130611348,9.7758767323,786
65336,157682,200604,0.1950150419,-0.8315058535,9.667003304,787
65428,157755,200615,0.16151552549999998,-0.6616154488999999,9.6825566509,788
65540,157805,200630,0.11844471869999999,-0.7561319416,9.762716208,789
65640,157856,200738,0.062213387599999996,-0.7668996433,9.728020280299999,790
65776,157992,200762,0.1052841944,-0.6795616184,9.7435736272,791
65927,158078,200801,0.0382851616,-0.7956135145,9.7471628611,792
66052,158173,200867,0.1890329854,-0.7381857721,9.7196454012,793
66212,158289,200963,0.0526420972,-0.6759723845,9.8057870148,794
66332,158430,201023,0.09930213789999999,-0.7238288365000001,9.7531449176,795
66521,158492,201072,-0.023928226,-0.6520441585,9.6861458848,796
66683,158627,201138,0.0143569356,-0.9798608547,9.7914300792,797
66846,158795,201203,-0.09092725880000001,-0.7142575461,9.7136633447,798
66996,158804,201206,0.143569356,-0.7704888772,9.7722874984,799
67066,158874,201238,0.0,-0.8051848049,9.7435736272,800
66761,158794,201240,-0.0526420972,-0.7465606512,9.7340023368,801
66034,158437,201016,0.1854437515,-0.6520441585,9.8285188295,802
65415,158102,200778,0.0801595571,-0.6580262149999999,9.7292166916,803
65132,157867,200671,0.0191425808,-0.8518448456000001,9.7244310464,804
65073,157800,200676,0.0466600407,-0.7369893608,9.710074110799999,805
65127,157797,200665,0.0801595571,-0.7992027483999999,9.69093153,806
65237,157830,200623,0.12323036389999999,-0.789631458,9.700502820399999,807
65450,157919,200679,0.0035892339,-0.7046862557000001,9.7770731436,808
65601,157987,200756,0.1052841944,-0.8135596839999999,9.7196454012,809
65680,157974,200720,0.15672988029999999,-0.6843472636,9.7722874984,810
65616,157970,200695,0.022731814700000002,-0.8757730716000001,9.8201439504,811
65820,158016,200712,-0.0801595571,-0.7704888772,9.7471628611,812
65869,158094,200787,0.0287138712,-0.6568298037,9.6957171752,813
65967,158158,200819,0.0287138712,-0.8901300072,9.700502820399999,814
66079,158270,200860,0.056231331100000004,-0.6999006105000001,9.8249295956,815
66187,158349,200918,0.08135596839999999,-0.8422735552,9.767501853199999,816
66315,158411,200948,0.0,-0.8566304908000001,9.8093762487,817
66439,158556,200996,0.1806581063,-0.8793623055,9.7423772159,818
66620,158618,201035,0.1531406464,-0.9655039191,9.6586284249,819
66693,158713,201119,0.1052841944,-0.9463613382999999,9.8333044747,820
66817,158738,201091,-0.0526420972,-0.7848458128,9.81057266,821
66699,158673,201056,0.0334995164,-0.765703232,9.858429112,822
66070,158352,200864,0.0047856452,-0.9523433948,9.7770731436,823
65263,157888,200578,0.0526420972,-0.7944171031999999,9.7483592724,824
64758,157565,200371,0.0191425808,-0.6999006105000001,9.8380901199,825
64528,157336,200283,0.1148554848,-0.8757730716000001,9.8141618939,826
64491,157309,200246,0.0287138712,-0.7525427077,9.7914300792,827
64531,157301,200238,0.1100698396,-0.6580262149999999,9.714859756,828
64672,157384,200301,0.12442677519999999,-0.8087740388,9.714859756,829
64885,157474,200329,0.09092725880000001,-0.7609175868,9.7483592724,830
65042,157550,200361,-0.1088734283,-0.7130611348,9.7722874984,831
65174,157596,200404,0.1148554848,-0.7238288365000001,9.785448022699999,832
65264,157645,200413,0.1950150419,-0.7812565789,9.7483592724,833
65350,157680,200474,0.0466600407,-0.789631458,9.6622176588,834
65476,157804,200505,0.1471585899,-0.7716852885,9.69093153,835
65591,157838,200503,0.1339980656,-0.7561319416,9.7435736272,836
65730,157940,200570,0.0574277424,-0.8039883936,9.6765745944,837
65890,158013,200583,0.16630117069999997,-0.8697910151,9.7483592724,838
66066,158156,200678,-0.12323036389999999,-0.8518448456000001,9.6969135865,839
66167,158233,200696,0.0287138712,-0.6472585133,9.757930562799999,840
66309,158320,200755,-0.0323031051,-0.8219345630999999,9.7196454012,841
66465,158458,200806,0.0610169763,-0.7046862557000001,9.661021247499999,842
66548,158482,200823,0.1519442351,-0.7525427077,9.7244310464,843
66587,158479,200817,0.09092725880000001,-0.7561319416,9.9290173787,844
66075,158261,200689,0.1806581063,-0.8039883936,9.7340023368,845
65244,157787,200396,0.11964113,-0.7429714173,9.7710910871,846
64620,157359,200159,0.1806581063,-0.6807580296999999,9.6777710057,847
64318,157175,200033,-0.0526420972,-0.7513462964000001,9.6777710057,848
64225,157070,200038,0.1280160091,-0.7465606512,9.8297152408,849
64244,157096,199957,-0.0143569356,-0.7609175868,9.6957171752,850
64404,157126,200066,0.0801595571,-0.909272588,9.7471628611,851
64575,157204,200086,0.1136590735,-0.7992027483999999,9.8141618939,852
64766,157302,200126,0.17587246110000002,-0.8327022648,9.757930562799999,853
64907,157379,200182,0.04307080679999999,-0.7525427077,9.7902336679,854
65017,157437,200176,0.04307080679999999,-0.6999006105000001,9.6765745944,855
65103,157514,200204,0.16271193679999998,-0.7525427077,9.6813602396,856
65220,157538,200277,0.19980068709999999,-0.8135596839999999,9.757930562799999,857
65332,157615,200327,0.08614161359999999,-0.7190431913,9.7052884656,858
65473,157735,200392,0.1579262916,-0.7621139981,9.7663054419,859
65605,157800,200418,0.062213387599999996,-0.8757730716000001,9.7292166916,860
65765,157948,200465,0.1280160091,-0.6711867393,9.728020280299999,861
65943,158012,200543,0.1148554848,-0.8051848049,9.7196454012,862
66065,158137,200573,0.0143569356,-0.8709874264,9.7663054419,863
66204,158222,200642,0.062213387599999996,-0.7238288365000001,9.6861458848,864
66352,158321,200685,0.0143569356,-0.8374879099999999,9.6622176588,865
66465,158351,200692,0.22492532440000002,-0.7429714173,9.834500886,866
66332,158294,200681,0.11964113,-0.7609175868,9.7483592724,867
65651,157932,200454,0.12442677519999999,-0.7334001269,9.894321451,868
64872,157475,200192,0.1040877831,-0.861416136,9.7052884656,869
64415,157187,200034,0.04307080679999999,-0.6903293201,9.8249295956,870
64231,157057,199969,0.1866401628,-0.7561319416,9.7483592724,871
64197,156982,199934,0.047856452,-0.8231309743999999,9.7722874984,872
64289,157196,200027,0.21894326790000002,-0.9128618219,9.7651090306,873
64549,157688,200351,0.1280160091,-0.8123632727,9.6861458848,874
64856,157911,200488,0.1100698396,-0.7034898444000001,9.762716208,875
65035,157864,200466,0.08614161359999999,-0.8422735552,9.8093762487,876
65102,157736,200439,0.11844471869999999,-0.6520441585,9.834500886,877
65176,157666,200374,0.071784678,-0.7429714173,9.7244310464,878
65258,157657,200404,0.1328016543,-0.9224331123,9.7531449176,879
65353,157672,200371,0.071784678,-0.9224331123,9.7519485063,880
65466,157761,200418,0.1004985492,-0.6711867393,9.757930562799999,881
65592,157801,200447,0.0334995164,-0.6855436748999999,9.69093153,882
65732,157886,200494,0.0765703232,-0.6711867393,9.710074110799999,883
65880,157963,200543,0.3002992363,-0.7848458128,9.857232700700001,884
66025,158089,200564,-0.0275174599,-0.7668996433,9.8668039911,885
66177,158206,200711,0.1471585899,-0.9511469834999999,9.7292166916,886
66339,158295,200746,0.051445685899999996,-0.8183453291999999,9.633503787599999,887
66493,158426,200849,0.1280160091,-0.7668996433,9.8237331843,888
66623,158514,200861,0.0382851616,-0.6472585133,9.8010013696,889
66528,158525,200861,-0.0466600407,-0.6460621019999999,9.786644434,890
65954,158245,200763,0.0586241537,-0.9702895642999999,9.7435736272,891
65219,157830,200477,0.1483550012,-0.7322037156,9.7663054419,892
64785,157535,200336,0.0370887503,-0.6281159325,9.7483592724,893
64605,157402,200258,0.155533469,-0.8279166196,9.8189475391,894
64602,157378,200260,-0.0083748791,-0.765703232,9.8189475391,895
64689,157432,200279,0.12442677519999999,-0.6711867393,9.738787982,896
64890,157555,200335,0.047856452,-0.7992027483999999,9.7196454012,897
65116,157655,200396,0.0753739119,-0.7226324252,9.7399843933,898
65301,157745,200481,0.047856452,-0.7274180704000001,9.700502820399999,899
65418,157813,200508,0.051445685899999996,-0.8410771438999999,9.728020280299999,900
65509,157894,200523,-0.19381863059999999,-0.8793623055,9.69093153,901
65608,157960,200578,0.13758729949999998,-0.7944171031999999,9.799804958300001,902
65730,158002,200647,0.1423729447,-0.765703232,9.643075077999999,903
65859,158088,200690,0.0574277424,-0.8997012976000001,9.714859756,904
66021,158195,200719,0.041874395499999995,-0.7944171031999999,9.6622176588,905
66177,158303,200776,-0.0466600407,-0.7477570625,9.667003304,906
66366,158415,200873,-0.0143569356,-0.8087740388,9.714859756,907
66533,158548,200903,0.0,-0.8087740388,9.7663054419,908
66701,158676,200960,-0.0765703232,-0.8554340795,9.7806623775,909
66868,158775,200978,0.056231331100000004,-0.8518448456000001,9.8811609267,910
67032,158858,201090,0.0945164927,-0.7465606512,9.6921279413,911
67016,158894,201075,-0.0921236701,-0.9559326287,9.6382894328,912
66526,158737,200982,0.0131605243,-0.8195417405,9.7232346351,913
65968,158429,200780,-0.0299102825,-0.8231309743999999,9.710074110799999,914
65673,158225,200675,-0.1040877831,-0.8422735552,9.714859756,915
65595,158150,200623,-0.0047856452,-0.909272588,9.7722874984,916
65622,158172,200624,-0.0741775006,-0.8039883936,9.6957171752,917
65753,158240,200649,0.056231331100000004,-0.8626125473,9.7244310464,918
65943,158364,200717,0.0047856452,-0.8422735552,9.7196454012,919
66156,158483,200819,-0.1698904046,-0.8327022648,9.700502820399999,920
66294,158570,200856,-0.0263210486,-0.9655039191,9.8285188295,921
66402,158618,200872,-0.1148554848,-0.8578269021,9.8249295956,922
66495,158684,200882,0.0047856452,-0.8087740388,9.5820581017,923
66611,158776,200916,-0.0334995164,-0.6616154488999999,9.7292166916,924
66765,158849,200964,-0.051445685899999996,-0.8087740388,9.7340023368,925
66909,158926,201015,0.010767701699999998,-0.8901300072,9.7950193131,926
67085,159051,201050,0.0287138712,-0.6807580296999999,9.7770731436,927
67255,159133,201084,-0.023928226,-0.8422735552,9.6765745944,928
67425,159256,201137,0.12442677519999999,-0.7836494015,9.6813602396,929
67603,159385,201241,0.0191425808,-0.7668996433,9.7375915707,930
67775,159452,201250,-0.0179461695,-0.705882667,9.7722874984,931
67844,159524,201225,0.10169496049999999,-0.8434699665000001,9.858429112,932
67533,159425,201171,0.047856452,-0.9379864592,9.7435736272,933
67144,159233,201050,0.1387837108,-0.9140582332,9.767501853199999,934
66821,159040,200952,0.12323036389999999,-0.7034898444000001,9.7483592724,935
66689,158924,200852,-0.041874395499999995,-0.8099704500999999,9.6765745944,936
66680,158791,200813,0.1004985492,-0.7286144817,9.7340023368,937
66725,158890,200845,0.0753739119,-0.8709874264,9.852447055499999,938
66854,158969,200870,0.1423729447,-0.8482556117000001,9.6574320136,939
67044,159069,200944,-0.015553346899999999,-0.6747759731999999,9.852447055499999,940
67230,159143,200922,0.1328016543,-0.8470592004,9.767501853199999,941
67367,159265,200989,0.1088734283,-0.6855436748999999,9.7340023368,942
67525,159385,201055,0.0669990328,-0.7046862557000001,9.714859756,943
67645,159431,201067,0.0538385085,-0.8219345630999999,9.8010013696,944
67827,159521,201144,0.08135596839999999,-0.6759723845,9.69093153,945
67976,159638,201229,0.19980068709999999,-0.7334001269,9.7052884656,946
68139,159711,201244,0.0095712904,-0.7980063370999999,9.69093153,947
68333,159849,201315,0.1459621786,-0.6951149653,9.762716208,948
68528,160005,201363,0.0191425808,-0.7561319416,9.757930562799999,949
68724,160218,201487,0.12442677519999999,-0.7944171031999999,9.8620183459,950
68915,160302,201515,0.09092725880000001,-0.7704888772,9.6000042712,951
69124,160457,201598,-0.022731814700000002,-0.741775006,9.7483592724,952
69270,160541,201624,0.1328016543,-0.7621139981,9.7531449176,953
69289,160589,201664,0.1148554848,-0.8039883936,9.844072176400001,954
69059,160509,201604,0.0143569356,-0.9619146851999999,9.8333044747,955
68760,160400,201462,0.095712904,-0.7764709337,9.700502820399999,956
68577,160328,201448,0.1136590735,-0.8410771438999999,9.7770731436,957
68509,160256,201449,0.12323036389999999,-0.7932206919,9.81057266,958
68403,160237,201418,0.16749758199999998,-0.8039883936,9.8620183459,959
68573,160280,201449,-0.0131605243,-0.6867400861999999,9.7052884656,960
68700,160381,201476,0.047856452,-0.7908278692999999,9.6861458848,961
68855,160482,201509,0.08135596839999999,-0.6149554081999999,9.8333044747,962
69008,160563,201560,0.047856452,-0.9080761767,9.7435736272,963
69095,160669,201599,0.08135596839999999,-0.8327022648,9.6478607232,964
69253,160758,201663,0.062213387599999996,-0.7082754896000001,9.7806623775,965
69383,160827,201693,0.0382851616,-0.8985048863,9.7758767323,966
69515,160902,201703,0.071784678,-0.8650053699,9.7962157244,967
69660,161038,201794,0.0,-0.8231309743999999,9.69093153,968
69806,161096,201860,0.0466600407,-0.8267202082999999,9.7914300792,969
69979,161221,201865,0.17587246110000002,-0.8650053699,9.6921279413,970
70127,161330,201928,0.1328016543,-0.8422735552,9.6538427797,971
70296,161407,201986,-0.0610169763,-0.8506484343,9.710074110799999,972
70466,161529,202022,-0.0131605243,-0.741775006,9.7435736272,973
70628,161639,202073,0.0538385085,-0.7944171031999999,9.7710910871,974
70788,161737,202141,0.0287138712,-0.7441678286,9.5665047548,975
70952,161863,202181,0.09690931529999999,-0.8889335959,9.7423772159,976
71079,161885,202212,0.1902293967,-0.7668996433,9.7052884656,977
71109,161906,202217,-0.0035892339,-0.8087740388,9.8476614103,978
70946,161873,202162,0.1519442351,-0.7956135145,9.6765745944,979
70720,161703,202130,0.0729810893,-0.6664010940999999,9.7136633447,980
70555,161683,202092,0.2524427843,-0.8709874264,9.7531449176,981
70472,161587,202015,0.17587246110000002,-0.7668996433,9.8189475391,982
70421,161576,201984,0.16271193679999998,-0.861416136,9.7531449176,983
70441,161586,201929,0.1328016543,-0.8518448456000001,9.6765745944,984
70504,161633,202015,0.20578274359999998,-0.7322037156,9.7722874984,985
70581,161634,202010,0.16749758199999998,-0.7752745223999999,9.7495556837,986
70673,161750,201991,0.1040877831,-0.8327022648,9.7292166916,987
70644,161787,202076,0.0287138712,-0.7728816998,9.6897351187,988
70800,161838,202087,0.1519442351,-0.8231309743999999,9.762716208,989
70881,161884,202167,0.1387837108,-0.8697910151,9.667003304,990
70957,161982,202138,0.1387837108,-0.8805587168,9.7483592724,991
71044,162013,202201,0.1040877831,-0.8709874264,9.8010013696,992
71131,162088,202197,0.08135596839999999,-0.7621139981,9.8153583052,993
71238,162182,202265,0.24765713909999998,-0.7274180704000001,9.7818587888,994
71338,162273,202273,0.023928226,-0.71784678,9.7244310464,995
71449,162366,202371,0.19980068709999999,-0.7752745223999999,9.714859756,996
71542,162439,202394,0.1471585899,-0.7752745223999999,9.7292166916,997
71658,162521,202444,0.0658026215,-0.8650053699,9.852447055499999,998
71755,162608,202460,-0.08135596839999999,-0.6759723845,9.757930562799999,999
71866,162690,202516,0.08135596839999999,-0.6675975054,9.8010013696,1000
71992,162772,202586,-0.0574277424,-0.8602197247000001,9.6765745944,1001
72072,162839,202617,0.0370887503,-0.7465606512,9.6526463684,1002
72182,162961,202652,0.1040877831,-0.7274180704000001,9.7244310464,1003
72279,162932,202670,0.071784678,-0.7513462964000001,9.7591269741,1004
72340,163031,202704,-0.0143569356,-0.7752745223999999,9.767501853199999,1005
72276,163071,202662,-0.1052841944,-0.6807580296999999,9.8285188295,1006
71975,163056,202669,0.1088734283,-0.7752745223999999,9.7770731436,1007
71646,162924,202557,0.0765703232,-0.5754738353000001,9.6478607232,1008
71389,162833,202551,0.0574277424,-0.8458627891,9.7244310464,1009
71154,162728,202519,0.0382851616,-0.8566304908000001,9.857232700700001,1010
70999,162709,202487,0.0035892339,-0.7046862557000001,9.7914300792,1011
70919,162711,202475,-0.0382851616,-0.7429714173,9.6765745944,1012
70912,162676,202477,0.0334995164,-0.885344362,9.7244310464,1013
70885,162806,202482,0.0466600407,-0.7800601676,9.667003304,1014
70861,162839,202491,-0.1292124204,-0.7764709337,9.728020280299999,1015
70814,162869,202536,-0.044267218100000005,-0.885344362,9.7818587888,1016
70790,162908,202513,0.0370887503,-0.6807580296999999,9.7722874984,1017
70733,162980,202530,-0.1854437515,-0.741775006,9.7340023368,1018
70669,162988,202610,0.047856452,-0.9559326287,9.728020280299999,1019
70703,163037,202587,-0.0191425808,-0.7190431913,9.7244310464,1020
70691,163068,202587,0.0179461695,-0.9702895642999999,9.629914553699999,1021
70691,163165,202699,0.023928226,-0.7082754896000001,9.7615197967,1022
70714,163224,202680,0.0801595571,-0.6329015777,9.728020280299999,1023
70742,163253,202739,0.0179461695,-0.7513462964000001,9.7806623775,1024
70756,163294,202773,0.0,-0.7716852885,9.7196454012,1025
70788,163344,202778,0.041874395499999995,-0.8231309743999999,9.710074110799999,1026
70801,163411,202839,0.022731814700000002,-0.9080761767,9.667003304,1027
70826,163436,202841,0.0047856452,-0.7908278692999999,9.8428757651,1028
70816,163409,202754,0.0191425808,-0.6795616184,9.7483592724,1029
70573,163331,202727,-0.1040877831,-0.7322037156,9.8093762487,1030
69962,163124,202571,0.047856452,-0.7716852885,9.7244310464,1031
69125,162871,202443,0.0801595571,-0.7513462964000001,9.7196454012,1032
68595,162572,202310,0.16151552549999998,-0.6951149653,9.81057266,1033
68141,162367,202156,0.023928226,-0.6245266986,9.8201439504,1034
67832,162205,202092,0.0765703232,-0.7609175868,9.8010013696,1035
67545,162128,202038,0.1483550012,-0.7752745223999999,9.7950193131,1036
67563,162088,202054,0.13758729949999998,-0.8123632727,9.8093762487,1037
67534,162027,202039,0.015553346899999999,-0.7369893608,9.852447055499999,1038
67515,162007,202016,0.08135596839999999,-0.8291130308999999,9.7722874984,1039
67463,161979,202033,0.1387837108,-0.7764709337,9.6777710057,1040
67409,161980,201975,0.09930213789999999,-0.8219345630999999,9.7435736272,1041
67397,161907,202031,0.0191425808,-0.6807580296999999,9.757930562799999,1042
67406,161908,202001,0.1854437515,-0.8709874264,9.757930562799999,1043
67437,161927,202020,0.047856452,-0.7992027483999999,9.757930562799999,1044
67501,161965,202049,0.020338992099999998,-0.8362914987,9.6957171752,1045
67559,162001,202070,0.1052841944,-0.8901300072,9.8010013696,1046
67637,162065,202087,0.12442677519999999,-0.7752745223999999,9.7112705221,1047
67722,162096,202131,-0.0849452023,-0.8985048863,9.7663054419,1048
67811,162110,202228,0.0095712904,-0.8374879099999999,9.8093762487,1049
67897,162234,202237,0.04307080679999999,-0.7848458128,9.5724868113,1050
67986,162293,202224,0.1280160091,-0.9523433948,9.7519485063,1051
68014,162271,202240,0.1423729447,-0.7286144817,9.7818587888,1052
67731,162179,202191,0.1387837108,-0.7668996433,9.8010013696,1053
67004,161942,202052,-0.0131605243,-0.8231309743999999,9.7340023368,1054
66160,161583,201868,0.1328016543,-0.7130611348,9.767501853199999,1055
65584,161322,201702,0.15672988029999999,-0.7944171031999999,9.7340023368,1056
65243,161049,201621,0.1902293967,-0.6460621019999999,9.7292166916,1057
65067,160944,201576,0.095712904,-0.7465606512,9.7818587888,1058
65037,160918,201583,-0.056231331100000004,-0.7238288365000001,9.5856473356,1059
65107,160924,201566,0.0095712904,-0.7094719009,9.762716208,1060
65262,160988,201615,0.0777667345,-0.7274180704000001,9.786644434,1061
65351,160969,201645,0.0669990328,-0.7848458128,9.919446088299999,1062
65406,160977,201661,0.0574277424,-0.7812565789,9.8237331843,1063
65460,161003,201682,-0.056231331100000004,-0.8422735552,9.7184489899,1064
65536,161006,201708,0.0669990328,-0.6711867393,9.7340023368,1065
65632,161074,201714,0.15672988029999999,-0.765703232,9.7615197967,1066
65625,161075,201774,0.1483550012,-0.7609175868,9.852447055499999,1067
65833,161159,201815,-0.0191425808,-0.8039883936,9.710074110799999,1068
65978,161199,201830,0.19980068709999999,-0.7046862557000001,9.7196454012,1069
66106,161268,201867,0.19860427579999998,-0.7992027483999999,9.7196454012,1070
66217,161324,201934,0.071784678,-0.7621139981,9.8093762487,1071
66365,161372,201997,0.1854437515,-0.9367900479,9.6095755616,1072
66509,161534,202016,-0.0945164927,-0.7238288365000001,9.8141618939,1073
66637,161539,202071,-0.0801595571,-0.7513462964000001,9.6538427797,1074
66767,161649,202133,0.1100698396,-0.8135596839999999,9.6957171752,1075
66861,161617,202108,-0.0646062102,-0.7561319416,9.7914300792,1076
66798,161637,202100,-0.059820565,-0.7322037156,9.762716208,1077
66223,161473,202000,0.20937197749999997,-0.7621139981,9.8763752815,1078
65426,161114,201807,0.0945164927,-0.7764709337,9.757930562799999,1079
64892,160779,201669,0.047856452,-0.6987041992,9.757930562799999,1080
64652,160587,201571,0.0071784678,-0.8279166196,9.7340023368,1081
64609,160425,201447,0.06340979890000001,-0.6364908116,9.634700198900001,1082
64683,160414,201498,0.0490528633,-0.8135596839999999,9.8333044747,1083
64853,160463,201490,0.1579262916,-0.741775006,9.7531449176,1084
65069,160503,201502,0.0394815729,-0.7716852885,9.7435736272,1085
65273,160529,201573,0.17587246110000002,-0.6747759731999999,9.7722874984,1086
65420,160570,201629,0.1100698396,-0.7668996433,9.667003304,1087
65508,160588,201667,0.15672988029999999,-0.7992027483999999,9.767501853199999,1088
65632,160663,201678,0.1052841944,-0.71784678,9.8237331843,1089
65759,160717,201696,0.09930213789999999,-0.8003991597,9.7340023368,1090
65887,160721,201721,0.1280160091,-0.6472585133,9.7722874984,1091
66043,160800,201737,0.0011964113,-0.7752745223999999,9.767501853199999,1092
66201,160865,201761,0.047856452,-0.7381857721,9.7722874984,1093
66371,160947,201842,0.04307080679999999,-0.6376872229,9.7244310464,1094
66544,161038,201891,0.09092725880000001,-0.8135596839999999,9.7531449176,1095
66721,161109,201974,0.071784678,-0.7094719009,9.7340023368,1096
66897,161192,202011,0.0,-0.693918554,9.8093762487,1097
67078,161249,201994,-0.1280160091,-0.8135596839999999,9.7531449176,1098
67254,161389,202116,0.13758729949999998,-0.6795616184,9.7483592724,1099
67420,161486,202135,-0.0143569356,-0.6795616184,9.6239324972,1100
67584,161547,202153,0.1088734283,-0.8087740388,9.9050891527,1101
67711,161607,202189,0.1148554848,-0.6747759731999999,9.6622176588,1102
67634,161653,202181,-0.0095712904,-0.8075776275,9.7340023368,1103
67130,161524,202124,0.1004985492,-0.7561319416,9.687342296099999,1104
66624,161297,201992,0.041874395499999995,-0.765703232,9.8057870148,1105
66353,161092,201938,0.0945164927,-0.7800601676,9.8727860476,1106
66290,160973,201870,0.0777667345,-0.789631458,9.7435736272,1107
66339,160850,201837,0.0095712904,-0.7752745223999999,9.8811609267,1108
66468,160977,201853,-0.0299102825,-0.8793623055,9.8285188295,1109
66657,161064,201905,0.071784678,-0.5910271822000001,9.714859756,1110
66851,161114,201911,-0.0897308475,-0.7142575461,9.6957171752,1111
66994,161186,201972,-0.071784678,-0.6987041992,9.6442714893,1112
67090,161212,201942,0.1328016543,-0.7609175868,9.700502820399999,1113
67187,161199,201990,-0.0574277424,-0.7848458128,9.700502820399999,1114
67306,161248,201983,0.0705882667,-0.861416136,9.7052884656,1115
67392,161240,202023,-0.0047856452,-0.7130611348,9.738787982,1116
67520,161240,202011,0.1651047594,-0.7609175868,9.757930562799999,1117
67650,161306,202012,-0.0323031051,-0.6711867393,9.7615197967,1118
67727,161316,202049,-0.0753739119,-0.8506484343,9.6526463684,1119
67929,161346,202042,0.0382851616,-0.741775006,9.7292166916,1120
68078,161414,202084,-0.0610169763,-0.6699903279999999,9.7722874984,1121
68244,161488,202166,0.09092725880000001,-0.8171489179,9.8285188295,1122
68409,161542,202169,0.1040877831,-0.6185446421,9.7196454012,1123
68534,161664,202206,0.023928226,-0.765703232,9.6861458848,1124
68651,161660,202219,-0.0179461695,-0.7046862557000001,9.7615197967,1125
68702,161711,202254,0.2285145583,-0.6616154488999999,9.8715896363,1126
68413,161621,202178,0.0801595571,-0.7322037156,9.757930562799999,1127
67927,161408,202036,0.0945164927,-0.7668996433,9.7483592724,1128
67564,161161,201906,0.18185451760000002,-0.6137589969,9.710074110799999,1129
67399,161014,201821,0.1339980656,-0.8279166196,9.6538427797,1130
67357,160882,201765,0.1531406464,-0.7118647235000001,9.7722874984,1131
67370,160819,201729,0.0765703232,-0.8841479507000001,9.8010013696,1132
67479,160868,201750,-0.0323031051,-0.8315058535,9.6705925379,1133
67622,160882,201799,0.047856452,-0.8315058535,9.7196454012,1134
67771,160968,201801,0.2524427843,-0.7944171031999999,9.7471628611,1135
67872,161025,201833,0.1100698396,-0.7082754896000001,9.8488578216,1136
67950,161053,201864,0.1902293967,-0.8518448456000001,9.700502820399999,1137
68032,161115,201892,0.1088734283,-0.8123632727,9.7435736272,1138
68146,161145,201886,0.16630117069999997,-0.7704888772,9.69093153,1139
68263,161191,201900,0.0729810893,-0.7561319416,9.700502820399999,1140
68371,161239,201998,0.12442677519999999,-0.8566304908000001,9.7902336679,1141
68506,161349,201973,0.09092725880000001,-0.8374879099999999,9.7304131029,1142
68624,161396,202037,0.1950150419,-0.7082754896000001,9.710074110799999,1143
68761,161505,202111,-0.0466600407,-0.7716852885,9.7710910871,1144
68896,161586,202156,-0.0801595571,-0.6568298037,9.7112705221,1145
68947,161680,202166,0.1806581063,-0.6376872229,9.865607579799999,1146
69177,161746,202243,0.1339980656,-0.6520441585,9.857232700700001,1147
69295,161858,202287,0.09930213789999999,-0.7322037156,9.6012006825,1148
69427,161947,202387,0.041874395499999995,-0.7369893608,9.7292166916,1149
69540,162034,202386,0.16151552549999998,-0.765703232,9.7052884656,1150
69512,162028,202381,0.1052841944,-0.7034898444000001,9.6825566509,1151
69152,161942,202349,-0.0334995164,-0.969093153,9.857232700700001,1152
68605,161678,202128,0.1136590735,-0.6185446421,9.8237331843,1153
68149,161409,201972,0.24287149389999999,-0.6951149653,9.767501853199999,1154
67885,161198,201869,0.0765703232,-0.7513462964000001,9.7962157244,1155
67734,161018,201815,0.1339980656,-0.6472585133,9.785448022699999,1156
67690,160930,201804,0.0191425808,-0.7274180704000001,9.6382894328,1157
67719,160972,201812,0.0921236701,-0.7645068207,9.6849494735,1158
67796,160974,201797,0.09092725880000001,-0.765703232,9.7196454012,1159
67903,161022,201861,0.0131605243,-0.7752745223999999,9.7196454012,1160
67962,161041,201805,-0.24287149389999999,-0.7956135145,9.8045906035,1161
68014,161076,201857,0.24287149389999999,-0.9080761767,9.7196454012,1162
68072,161091,201856,0.11844471869999999,-0.741775006,9.8476614103,1163
68139,161110,201867,0.1136590735,-0.8841479507000001,9.762716208,1164
68217,161135,201886,0.17587246110000002,-0.6843472636,9.7483592724,1165
68317,161172,201932,0.1148554848,-0.7477570625,9.757930562799999,1166
68423,161255,201963,0.071784678,-0.6484549246,9.7196454012,1167
68524,161286,201982,-0.1411765334,-0.789631458,9.8141618939,1168
68646,161336,202051,0.0801595571,-0.9655039191,9.710074110799999,1169
68757,161433,202082,0.095712904,-0.7334001269,9.738787982,1170
68925,161484,202132,0.16749758199999998,-0.7944171031999999,9.7196454012,1171
68976,161538,202133,-0.041874395499999995,-0.8374879099999999,9.6813602396,1172
69096,161605,202156,0.0945164927,-0.7429714173,9.7340023368,1173
69216,161677,202246,0.11844471869999999,-0.8386843212999999,9.710074110799999,1174
69319,161761,202263,0.20937197749999997,-0.8171489179,9.7196454012,1175
69402,161749,202252,0.17228322719999997,-0.7238288365000001,9.8333044747,1176
69385,161767,202266,0.1148554848,-0.8087740388,9.9050891527,1177
69001,161662,202178,0.06340979890000001,-0.7668996433,9.7770731436,1178
68317,161326,202036,0.0299102825,-0.7621139981,9.757930562799999,1179
67685,160954,201840,0.1148554848,-0.7668996433,9.6478607232,1180
67256,160671,201673,0.071784678,-0.7549355303,9.7531449176,1181
66951,160454,201551,-0.1040877831,-0.7573283529,9.852447055499999,1182
66890,160369,201556,0.0251246373,-0.7992027483999999,9.8237331843,1183
66892,160311,201501,0.11964113,-0.6484549246,9.7292166916,1184
66962,160332,201527,0.1328016543,-0.7609175868,9.6634140701,1185
67046,160379,201531,-0.0071784678,-0.8279166196,9.7340023368,1186
66998,160383,201527,-0.0095712904,-0.8362914987,9.8285188295,1187
67125,160389,201575,-0.023928226,-0.6843472636,9.6765745944,1188
67186,160404,201601,0.16271193679999998,-0.8805587168,9.629914553699999,1189
67279,160426,201613,0.1088734283,-0.7274180704000001,9.7340023368,1190
67322,160452,201576,0.16630117069999997,-0.6759723845,9.8715896363,1191
67423,160506,201603,0.0849452023,-0.8075776275,9.7615197967,1192
67539,160559,201671,0.0382851616,-0.71784678,9.7435736272,1193
67647,160635,201684,0.16630117069999997,-0.7322037156,9.7531449176,1194
67791,160680,201735,0.0382851616,-0.6412764568,9.728020280299999,1195
67946,160727,201781,0.16749758199999998,-0.6664010940999999,9.710074110799999,1196
68011,160808,201811,0.0945164927,-0.7800601676,9.8237331843,1197
68138,160867,201880,0.0897308475,-0.7034898444000001,9.8249295956,1198
68273,160964,201916,0.1483550012,-0.7944171031999999,9.6765745944,1199
68385,161032,201948,0.1004985492,-0.8231309743999999,9.6801638283,1200
68503,161139,202014,0.1471585899,-0.7752745223999999,9.6957171752,1201
68600,161157,202018,0.0753739119,-0.9032905315,9.786644434,1202
68620,161208,202008,-0.0765703232,-0.6843472636,9.8715896363,1203
68230,161157,201964,0.08135596839999999,-0.8434699665000001,9.8057870148,1204
67447,160803,201780,0.010767701699999998,-0.5766702466,9.7435736272,1205
66776,160447,201601,0.0,-0.8602197247000001,9.710074110799999,1206
66413,160198,201442,0.015553346899999999,-0.6987041992,9.5772724565,1207
66247,160080,201414,-0.015553346899999999,-0.6759723845,9.6957171752,1208
66265,160074,201368,-0.047856452,-0.6568298037,9.7292166916,1209
66340,160110,201411,0.0610169763,-0.7226324252,9.6705925379,1210
66496,160163,201487,0.0394815729,-0.8279166196,9.633503787599999,1211
66615,160243,201534,0.041874395499999995,-0.6185446421,9.700502820399999,1212
66674,160269,201496,0.1088734283,-0.7609175868,9.7710910871,1213
66706,160252,201492,0.11246266220000001,-0.789631458,9.7902336679,1214
66710,160233,201518,0.09092725880000001,-0.7860422241,9.7340023368,1215
66763,160261,201554,0.1148554848,-0.7561319416,9.7962157244,1216
66837,160281,201560,0.0382851616,-0.6843472636,9.7914300792,1217
66916,160316,201544,0.023928226,-0.7633104094,9.786644434,1218
66998,160339,201615,0.04307080679999999,-0.7812565789,9.7292166916,1219
67102,160425,201654,0.0334995164,-0.7884350467,9.767501853199999,1220
67215,160473,201707,0.0143569356,-0.6807580296999999,9.710074110799999,1221
67328,160582,201745,0.143569356,-0.8327022648,9.7340023368,1222
67410,160631,201813,0.08614161359999999,-0.7465606512,9.6957171752,1223
67544,160704,201820,0.062213387599999996,-0.7609175868,9.9050891527,1224
67607,160730,201840,0.0334995164,-0.7238288365000001,9.857232700700001,1225
67334,160675,201768,0.047856452,-0.8458627891,9.738787982,1226
66522,160199,201595,0.1806581063,-0.8231309743999999,9.6681997153,1227
65716,159869,201351,0.08614161359999999,-0.8470592004,9.7244310464,1228
65255,159561,201195,0.12442677519999999,-0.765703232,9.7950193131,1229
65103,159419,201147,0.12442677519999999,-0.8889335959,9.7196454012,1230
65063,159323,201070,0.0669990328,-0.7525427077,9.8010013696,1231
65114,159341,201121,0.1519442351,-0.6556333924,9.8141618939,1232
65279,159417,201134,0.0705882667,-0.8087740388,9.7244310464,1233
65461,159487,201216,0.08135596839999999,-0.7561319416,9.7483592724,1234
65627,159529,201296,0.0382851616,-0.8566304908000001,9.6957171752,1235
65679,159545,201319,0.2333002035,-0.7944171031999999,9.6825566509,1236
65746,159584,201307,0.12442677519999999,-0.71784678,9.7292166916,1237
65864,159632,201355,0.047856452,-0.7561319416,9.7818587888,1238
65953,159682,201387,0.08614161359999999,-0.789631458,9.7292166916,1239
66096,159733,201421,-0.0191425808,-0.8662017812,9.7292166916,1240
66223,159815,201467,-0.0323031051,-0.7800601676,9.7818587888,1241
66369,159920,201559,0.21415762270000002,-0.7334001269,9.7531449176,1242
66499,159976,201590,0.2237289131,-0.8327022648,9.6634140701,1243
66653,160057,201624,0.17587246110000002,-0.789631458,9.6622176588,1244
66794,160114,201672,-0.1004985492,-0.8219345630999999,9.8153583052,1245
66947,160249,201773,-0.0849452023,-0.7381857721,9.661021247499999,1246
67080,160310,201766,0.0610169763,-0.9044869428,9.7112705221,1247
67125,160315,201777,0.1004985492,-0.6987041992,9.757930562799999,1248
66718,160163,201699,0.0287138712,-0.6711867393,9.7914300792,1249
65829,159742,201468,0.0765703232,-0.8338986760999999,9.7340023368,1250
65114,159319,201237,0.2237289131,-0.7740781111,9.714859756,1251
64763,159021,201081,0.1004985492,-0.5898307709,9.7244310464,1252
64656,158865,201076,0.09092725880000001,-0.71784678,9.909874797899999,1253
64640,158807,201012,0.1710868159,-0.7860422241,9.7710910871,1254
64768,158842,201076,0.071784678,-0.9559326287,9.8237331843,1255
64952,158899,201105,0.0729810893,-0.7740781111,9.9086783866,1256
65151,158979,201179,0.16151552549999998,-0.6891329087999999,9.7292166916,1257
65293,158969,201226,0.16271193679999998,-0.8757730716000001,9.757930562799999,1258
65394,159070,201193,-0.0334995164,-0.71784678,9.7244310464,1259
65480,159119,201241,0.0658026215,-0.7369893608,9.757930562799999,1260
65581,159174,201311,0.0287138712,-0.7274180704000001,9.8141618939,1261
65697,159223,201300,0.11844471869999999,-0.7944171031999999,9.7052884656,1262
65843,159353,201365,0.0095712904,-0.7860422241,9.7423772159,1263
65966,159370,201401,0.3086741154,-0.7716852885,9.710074110799999,1264
66140,159445,201483,0.08135596839999999,-0.8518448456000001,9.6813602396,1265
66286,159540,201537,0.29551359110000003,-0.7501498851,9.7232346351,1266
66440,159624,201544,-0.0047856452,-0.7465606512,9.6574320136,1267
66593,159733,201629,0.0765703232,-0.6747759731999999,9.7483592724,1268
66738,159841,201636,0.15672988029999999,-0.7716852885,9.8189475391,1269
66891,159938,201745,0.1280160091,-0.8231309743999999,9.6275217311,1270
67027,160026,201715,0.1004985492,-0.7621139981,9.767501853199999,1271
67138,160023,201745,0.21415762270000002,-0.6819544409999999,9.762716208,1272
66995,159990,201728,0.0777667345,-0.9176474671,9.7782695549,1273
66289,159728,201595,0.0011964113,-0.909272588,9.6861458848,1274
65527,159255,201335,0.13758729949999998,-0.8745766603,9.7902336679,1275
65000,158910,201143,0.1052841944,-0.7130611348,9.6861458848,1276
64826,158713,201075,0.1950150419,-0.7334001269,9.8237331843,1277
64850,158654,201038,0.0610169763,-0.6711867393,9.7483592724,1278
64929,158654,201068,0.18185451760000002,-0.7525427077,9.6813602396,1279
65058,158736,201117,0.2380858487,-0.8327022648,9.6729853605,1280
65256,158817,201148,0.143569356,-0.6616154488999999,9.7435736272,1281
65405,158881,201209,0.0777667345,-0.8087740388,9.7531449176,1282
65517,158928,201242,0.047856452,-0.7609175868,9.7423772159,1283
65607,158974,201230,-0.155533469,-0.6424728680999999,9.7663054419,1284
65720,159041,201242,0.19980068709999999,-0.7800601676,9.7710910871,1285
65823,159111,201290,0.0287138712,-0.7190431913,9.7567341515,1286
65952,159172,201358,0.044267218100000005,-0.8805587168,9.757930562799999,1287
66094,159266,201386,0.17587246110000002,-0.6711867393,9.786644434,1288
66238,159322,201448,0.21415762270000002,-0.8745766603,9.767501853199999,1289
66346,159443,201505,0.0538385085,-0.6759723845,9.8380901199,1290
66545,159505,201601,0.04307080679999999,-0.8793623055,9.8333044747,1291
66698,159598,201595,0.0765703232,-0.7513462964000001,9.762716208,1292
66857,159715,201668,-0.022731814700000002,-0.8709874264,9.786644434,1293
67001,159806,201690,0.16630117069999997,-0.6987041992,9.757930562799999,1294
67043,159918,201775,0.1651047594,-0.7322037156,9.633503787599999,1295
67275,159955,201799,0.0765703232,-0.693918554,9.757930562799999,1296
67303,159955,201765,0.12442677519999999,-0.6711867393,9.8237331843,1297
66894,159811,201681,-0.041874395499999995,-0.7944171031999999,9.8201439504,1298
66098,159316,201470,0.1148554848,-0.7992027483999999,9.924231733500001,1299
65485,158995,201259,0.08614161359999999,-0.8506484343,9.7375915707,1300
65199,158743,201128,0.1950150419,-0.8374879099999999,9.667003304,1301
65142,158668,201104,0.17706887240000002,-0.8697910151,9.8057870148,1302
65192,158656,201081,0.1328016543,-0.7226324252,9.857232700700001,1303
65328,158736,201179,0.047856452,-0.8147560952999999,9.7160561673,1304
65540,158853,201241,0.0251246373,-0.7226324252,9.767501853199999,1305
65714,158920,201290,0.20937197749999997,-0.6711867393,9.7519485063,1306
65842,158988,201309,0.0299102825,-0.7154539574000001,9.8249295956,1307
65954,159054,201386,-0.1280160091,-0.7238288365000001,9.738787982,1308
66038,159082,201398,0.09930213789999999,-0.741775006,9.6765745944,1309
66138,159156,201472,0.0,-0.7752745223999999,9.767501853199999,1310
66287,159214,201468,0.0083748791,-0.7190431913,9.7196454012,1311
66434,159271,201502,0.12442677519999999,-0.7369893608,9.762716208,1312
66571,159344,201556,0.12323036389999999,-0.6843472636,9.8428757651,1313
66711,159442,201640,0.1004985492,-0.8231309743999999,9.69093153,1314
66874,159527,201638,0.04307080679999999,-0.6664010940999999,9.6490571345,1315
67023,159618,201747,0.0849452023,-0.8889335959,9.8249295956,1316
67145,159751,201795,-0.1710868159,-0.8482556117000001,9.7040920543,1317
67317,159830,201830,-0.1280160091,-0.789631458,9.7244310464,1318
67467,159942,201887,-0.047856452,-0.7429714173,9.7722874984,1319
67607,159989,201928,0.0574277424,-0.6987041992,9.834500886,1320
67615,160061,201919,-0.0574277424,-0.7238288365000001,9.6717889492,1321
67161,159908,201861,0.0370887503,-0.8518448456000001,9.8428757651,1322
66441,159539,201676,0.0753739119,-0.6329015777,9.786644434,1323
65954,159188,201507,0.1579262916,-0.741775006,9.767501853199999,1324
65769,159054,201434,0.1148554848,-0.7573283529,9.7770731436,1325
65758,158978,201399,0.0095712904,-0.7477570625,9.687342296099999,1326
65828,159060,201422,-0.0143569356,-0.8805587168,9.7770731436,1327
65995,159126,201538,-0.0011964113,-0.8135596839999999,9.562915520899999,1328
66177,159135,201530,-0.1483550012,-0.6903293201,9.7423772159,1329
66330,159314,201597,0.0191425808,-0.7142575461,9.7962157244,1330
66411,159378,201660,-0.1148554848,-0.71784678,9.762716208,1331
66474,159470,201674,0.0334995164,-0.7286144817,9.7663054419,1332
66526,159445,201711,0.1698904046,-0.8889335959,9.6251289085,1333
66633,159514,201741,0.051445685899999996,-0.6556333924,9.6861458848,1334
66749,159573,201786,0.0370887503,-0.8805587168,9.69093153,1335
66864,159671,201831,0.0765703232,-0.7908278692999999,9.7938229018,1336
66969,159743,201855,-0.1698904046,-0.8757730716000001,9.7196454012,1337
67071,159831,201842,0.051445685899999996,-0.6807580296999999,9.7340023368,1338
67230,159880,201921,0.0382851616,-0.7286144817,9.6813602396,1339
67362,159990,202013,-0.0287138712,-0.7381857721,9.6514499571,1340
67499,160056,202008,-0.0095712904,-0.789631458,9.8141618939,1341
67562,160115,201997,0.051445685899999996,-0.7860422241,9.7962157244,1342
67338,159975,201944,0.062213387599999996,-0.8422735552,9.7052884656,1343
66691,159644,201773,0.12323036389999999,-0.7621139981,9.8476614103,1344
66073,159257,201571,0.1040877831,-0.8470592004,9.6574320136,1345
65746,158984,201434,0.047856452,-0.6664010940999999,9.7710910871,1346
65671,158845,201352,0.062213387599999996,-0.7764709337,9.8010013696,1347
65644,158812,201325,-0.0095712904,-0.6568298037,9.8141618939,1348
65721,158840,201332,0.251246373,-0.71784678,9.7483592724,1349
65896,158925,201388,0.0897308475,-0.7190431913,9.643075077999999,1350
66092,159010,201447,-0.04307080679999999,-0.6424728680999999,9.8237331843,1351
66240,159103,201456,0.1519442351,-0.9260223462,9.8249295956,1352
66307,159121,201503,-0.0143569356,-0.8566304908000001,9.6143612068,1353
66403,159155,201528,0.09930213789999999,-0.7764709337,9.6681997153,1354
66501,159214,201530,0.1052841944,-0.71784678,9.7244310464,1355
66648,159294,201575,0.0526420972,-0.6652046827999999,9.714859756,1356
66774,159363,201613,0.1423729447,-0.7561319416,9.7818587888,1357
66924,159432,201701,0.0849452023,-0.7369893608,9.6861458848,1358
67071,159482,201676,0.0801595571,-0.8805587168,9.8153583052,1359
67236,159572,201774,0.11844471869999999,-0.7609175868,9.7902336679,1360
67382,159644,201791,0.047856452,-0.7238288365000001,9.8153583052,1361
67522,159798,201882,0.0095712904,-0.7525427077,9.510273423700001,1362
67679,159896,201888,0.0334995164,-0.8279166196,9.7340023368,1363
67699,159869,201871,0.09092725880000001,-0.6747759731999999,9.767501853199999,1364
67336,159725,201762,-0.0083748791,-0.7704888772,9.69093153,1365
66682,159352,201561,0.0801595571,-0.7848458128,9.852447055499999,1366
66204,158970,201423,0.16151552549999998,-0.7513462964000001,9.7483592724,1367
65951,158847,201269,0.0669990328,-0.6951149653,9.6861458848,1368
65882,158722,201199,0.047856452,-0.6616154488999999,9.7914300792,1369
65903,158715,201271,0.0765703232,-0.7142575461,9.7914300792,1370
66009,158763,201246,0.051445685899999996,-0.6604190376,9.7531449176,1371
66199,158873,201307,-0.0370887503,-0.7130611348,9.8141618939,1372
66362,158956,201345,0.0765703232,-0.6520441585,9.7196454012,1373
66513,159011,201429,0.071784678,-0.8003991597,9.7567341515,1374
66632,159099,201397,0.04307080679999999,-0.8422735552,9.7244310464,1375
66725,159168,201444,0.12323036389999999,-0.7334001269,9.728020280299999,1376
66848,159205,201487,0.0095712904,-0.7561319416,9.7818587888,1377
66985,159305,201505,0.0047856452,-0.7752745223999999,9.6969135865,1378
67118,159391,201584,0.0538385085,-0.7944171031999999,9.81057266,1379
67197,159476,201658,0.0095712904,-0.7908278692999999,9.714859756,1380
67408,159581,201648,0.095712904,-0.7992027483999999,9.8045906035,1381
67560,159704,201752,0.023928226,-0.7573283529,9.757930562799999,1382
67725,159789,201807,0.21415762270000002,-0.8518448456000001,9.6538427797,1383
67870,159954,201864,0.1579262916,-0.7992027483999999,9.8428757651,1384
68021,160108,201906,0.04307080679999999,-0.7274180704000001,9.6287181424,1385
68168,160183,201969,0.0191425808,-0.6903293201,9.786644434,1386
68259,160190,201978,0.19980068709999999,-0.6508477471999999,9.8045906035,1387
68123,160198,201927,0.1339980656,-0.7190431913,9.857232700700001,1388
67590,159997,201827,0.0131605243,-0.8183453291999999,9.7196454012,1389
67037,159707,201701,0.1423729447,-0.7142575461,9.7052884656,1390
66711,159520,201561,0.0011964113,-0.7561319416,9.7244310464,1391
66565,159385,201501,0.1148554848,-0.861416136,9.8093762487,1392
66542,159363,201482,0.1280160091,-0.8087740388,9.7962157244,1393
66601,159373,201539,0.1088734283,-0.8805587168,9.7710910871,1394
66688,159495,201587,0.0394815729,-0.6508477471999999,9.710074110799999,1395
66894,159553,201630,0.0191425808,-0.6460621019999999,9.738787982,1396
67055,159629,201633,0.071784678,-0.7609175868,9.7351987481,1397
67156,159676,201679,0.1136590735,-0.8757730716000001,9.852447055499999,1398
67254,159746,201680,0.1052841944,-0.6388836341999999,9.6957171752,1399
67343,159800,201754,0.11964113,-0.7573283529,9.7962157244,1400
67450,159875,201781,0.1292124204,-0.6269195211999999,9.7902336679,1401
67586,159949,201856,-0.0981057266,-0.7094719009,9.799804958300001,1402
67728,160061,201924,0.21894326790000002,-0.7286144817,9.7722874984,1403
67864,160129,201942,0.0897308475,-0.6604190376,9.7531449176,1404
68012,160238,201965,0.06340979890000001,-0.6664010940999999,9.7531449176,1405
68162,160359,202058,0.0346959277,-0.8135596839999999,9.7196454012,1406
68308,160484,202077,0.0765703232,-0.8793623055,9.7758767323,1407
68456,160618,202153,0.0705882667,-0.6652046827999999,9.7902336679,1408
68610,160683,202224,0.11844471869999999,-0.789631458,9.7758767323,1409
68756,160766,202276,0.0143569356,-0.6472585133,9.7196454012,1410
68884,160894,202331,-0.08614161359999999,-0.8374879099999999,9.7806623775,1411
69024,161014,202397,0.1950150419,-0.7453642399,9.7950193131,1412
69150,161076,202379,0.0394815729,-0.693918554,9.8057870148,1413
69197,161097,202410,0.11844471869999999,-0.7022934331,9.786644434,1414
68894,161063,202357,-0.09930213789999999,-0.8805587168,9.8620183459,1415
68348,160890,202290,0.12323036389999999,-0.8327022648,9.757930562799999,1416
67937,160705,202154,0.0765703232,-0.8410771438999999,9.7531449176,1417
67722,160563,202107,0.13758729949999998,-0.6999006105000001,9.7902336679,1418
67647,160512,202069,-0.0526420972,-0.7094719009,9.6861458848,1419
67660,160524,202117,0.1220339526,-0.8650053699,9.8428757651,1420
67753,160603,202157,0.0143569356,-0.6508477471999999,9.667003304,1421
67877,160697,202159,0.0801595571,-0.7238288365000001,9.7244310464,1422
67998,160751,202183,0.1100698396,-0.8889335959,9.762716208,1423
68080,160827,202231,0.022731814700000002,-0.7860422241,9.7531449176,1424
68125,160838,202270,-0.0753739119,-0.7190431913,9.69093153,1425
68188,160958,202298,-0.21894326790000002,-0.7704888772,9.7615197967,1426
68265,160986,202317,-0.0849452023,-0.6807580296999999,9.6993064091,1427
68336,161009,202332,-0.0143569356,-0.8267202082999999,9.6957171752,1428
68415,161072,202341,-0.0574277424,-0.6747759731999999,9.6717889492,1429
68563,161069,202406,-0.0047856452,-0.7800601676,9.5772724565,1430
68606,161180,202411,-0.0047856452,-0.7848458128,9.710074110799999,1431
68692,161181,202446,0.09930213789999999,-0.5850451257,9.852447055499999,1432
68797,161237,202447,0.0011964113,-0.6460621019999999,9.7950193131,1433
68896,161292,202478,0.1004985492,-0.6472585133,9.7710910871,1434
69000,161356,202531,0.0669990328,-0.7932206919,9.8010013696,1435
69088,161421,202558,0.0705882667,-0.7034898444000001,9.6957171752,1436
69166,161504,202591,0.0526420972,-0.8506484343,9.7806623775,1437
69263,161551,202622,0.04307080679999999,-0.5084748025,9.8237331843,1438
69112,161548,202578,0.071784678,-0.8231309743999999,9.799804958300001,1439
68600,161438,202495,0.010767701699999998,-0.8518448456000001,9.7710910871,1440
68005,161159,202426,0.1100698396,-0.7322037156,9.7710910871,1441
67601,161020,202313,0.1806581063,-0.8087740388,9.7806623775,1442
67369,160880,202192,0.1806581063,-0.8267202082999999,9.69093153,1443
67267,160839,202200,0.071784678,-0.8075776275,9.7770731436,1444
67256,160869,202248,0.0490528633,-0.8039883936,9.738787982,1445
67325,160956,202224,-0.0658026215,-0.7166503687,9.6861458848,1446
67446,161002,202295,0.095712904,-0.7238288365000001,9.8668039911,1447
67491,161049,202324,0.17228322719999997,-0.8327022648,9.7435736272,1448
67518,161104,202340,-0.0370887503,-0.8997012976000001,9.700502820399999,1449
67565,161107,202357,0.17587246110000002,-0.7142575461,9.767501853199999,1450
67596,161186,202389,-0.056231331100000004,-0.8219345630999999,9.757930562799999,1451
67661,161219,202436,0.2177468566,-0.6376872229,9.714859756,1452
67722,161291,202414,-0.0334995164,-0.7752745223999999,9.767501853199999,1453
67819,161350,202459,0.09930213789999999,-0.8267202082999999,9.852447055499999,1454
67900,161312,202498,0.1100698396,-0.6233302873,9.7950193131,1455
68010,161496,202549,0.0334995164,-0.8937192411,9.7292166916,1456
68122,161524,202563,0.0346959277,-0.8231309743999999,9.7950193131,1457
68216,161625,202579,0.0753739119,-0.7573283529,9.69093153,1458
68335,161672,202664,-0.0191425808,-0.9882357338,9.714859756,1459
68444,161696,202674,0.0669990328,-0.8087740388,9.7914300792,1460
68543,161814,202721,0.1579262916,-0.7764709337,9.8680004024,1461
68651,161890,202768,-0.1052841944,-0.7369893608,9.5904329808,1462
68735,161938,202802,0.21894326790000002,-0.8279166196,9.738787982,1463
68805,161948,202779,-0.0095712904,-0.6759723845,9.7818587888,1464
68632,161921,202729,-0.0287138712,-0.71784678,9.8093762487,1465
67977,161742,202615,0.010767701699999998,-0.8566304908000001,9.710074110799999,1466
67204,161402,202453,0.09930213789999999,-0.7992027483999999,9.6765745944,1467
66588,161106,202280,0.1052841944,-0.6556333924,9.7483592724,1468
66229,160906,202194,0.0574277424,-0.789631458,9.8668039911,1469
66033,160761,202121,0.071784678,-0.789631458,9.8141618939,1470
65942,160728,202129,0.08614161359999999,-0.6747759731999999,9.700502820399999,1471
65981,160737,202123,0.09092725880000001,-0.6376872229,9.562915520899999,1472
66068,160779,202080,0.1890329854,-0.7082754896000001,9.738787982,1473
66137,160756,202115,-0.0574277424,-0.7513462964000001,9.7770731436,1474
66183,160823,202143,0.1136590735,-0.7561319416,9.700502820399999,1475
66226,160820,202183,0.24646072779999997,-0.6855436748999999,9.5677011661,1476
66251,160842,202163,-0.0011964113,-0.8051848049,9.7435736272,1477
66322,160873,202191,0.1328016543,-0.7752745223999999,9.714859756,1478
66406,160883,202188,0.0382851616,-0.7621139981,9.6490571345,1479
66503,160941,202248,0.1519442351,-0.7465606512,9.7340023368,1480
66620,161014,202297,0.0610169763,-0.7130611348,9.7950193131,1481
66718,161039,202260,-0.1411765334,-0.741775006,9.6622176588,1482
66844,161115,202369,0.1004985492,-0.7082754896000001,9.8057870148,1483
66966,161134,202350,0.1088734283,-0.6999006105000001,9.738787982,1484
67105,161261,202401,0.1088734283,-0.6376872229,9.8237331843,1485
67212,161319,202416,0.12442677519999999,-0.6699903279999999,9.710074110799999,1486
67313,161379,202481,0.0669990328,-0.6568298037,9.69093153,1487
67432,161426,202535,0.0346959277,-0.7992027483999999,9.6717889492,1488
67445,161508,202555,0.0490528633,-0.7609175868,9.81057266,1489
67644,161584,202575,-0.0334995164,-0.6472585133,9.714859756,1490
67754,161652,202616,0.1328016543,-0.7752745223999999,9.767501853199999,1491
67814,161633,202594,0.2177468566,-0.7800601676,9.7818587888,1492
67643,161615,202564,0.0669990328,-0.8087740388,9.7770731436,1493
66954,161351,202420,0.20458633229999998,-0.8003991597,9.687342296099999,1494
66089,160959,202204,0.062213387599999996,-0.6616154488999999,9.8045906035,1495
65492,160634,202001,0.1292124204,-0.7513462964000001,9.7375915707,1496
65186,160417,201849,0.1339980656,-0.7561319416,9.8488578216,1497
65084,160305,201875,0.21894326790000002,-0.7992027483999999,9.6681997153,1498
65101,160219,201804,0.0382851616,-0.8997012976000001,9.620343263299999,1499
65196,160274,201867,0.1136590735,-0.6137589969,9.6514499571,1500
65355,160332,201892,0.10648060570000001,-0.7094719009,9.8428757651,1501
65502,160343,201883,0.2333002035,-0.8662017812,9.7351987481,1502
65467,160378,201948,-0.0334995164,-0.8087740388,9.6969135865,1503
65613,160393,201906,-0.0047856452,-0.71784678,9.6681997153,1504
65692,160361,201892,0.12323036389999999,-0.8039883936,9.762716208,1505
65771,160355,201904,0.1004985492,-0.7334001269,9.7722874984,1506
65878,160374,201881,0.1902293967,-0.7800601676,9.7615197967,1507
65996,160393,201908,0.04307080679999999,-0.7752745223999999,9.7340023368,1508
66159,160439,201918,0.1519442351,-0.789631458,9.7244310464,1509
66266,160477,201913,0.1292124204,-0.8949156524,9.6574320136,1510
66395,160514,201977,0.19980068709999999,-0.8087740388,9.7531449176,1511
66543,160582,201990,0.0981057266,-0.8518448456000001,9.7471628611,1512
66680,160630,202028,0.1052841944,-0.5946164161,9.8297152408,1513
66845,160723,202046,0.11964113,-0.8327022648,9.738787982,1514
66982,160768,202122,0.0526420972,-0.6951149653,9.7244310464,1515
67119,160828,202162,0.1339980656,-0.6711867393,9.738787982,1516
67252,160935,202181,0.0801595571,-0.8219345630999999,9.6777710057,1517
67377,160988,202208,-0.051445685899999996,-0.6472585133,9.700502820399999,1518
