green,red,IR,acc_x,acc_y,acc_z,sample_index
132291,200048,265279,2.3306092124,-6.7345992077,-6.3230337205,1
132478,200068,265365,2.321037922,-6.8685972733,-6.452246140900001,2
132804,200135,265375,2.3497517932000003,-6.8542403377,-6.4558353748,3
133128,200149,265350,2.3784656644,-6.8063838857,-6.3984076324000005,4
133473,200159,265392,2.2444675988,-6.8949183219000005,-6.4271215036000005,5
133861,200233,265396,2.3306092124,-6.9104716688000005,-6.466603076499999,6
134166,200261,265490,2.3353948576,-6.851847515099999,-6.436692794,7
134502,200302,265475,2.2935204621,-6.7585274337,-6.3936219871999995,8
134807,200338,265482,2.4023938904,-6.9044896123,-6.436692794,9
135107,200352,265481,2.3102702203,-6.8339013456,-6.3517475917,10
135411,200430,265511,2.2779671152,-6.6771714653,-6.364908116,11
135645,200386,265527,2.3832513096,-6.753741788499999,-6.3505511804,12
135926,200436,265569,2.2827527603999997,-6.9439711852,-6.3936219871999995,13
136210,200502,265592,2.4729821571,-6.7872413049,-6.4881384799,14
136494,200499,265604,2.3353948576,-6.8590259828999995,-6.4079789228,15
136682,200548,265585,2.3581266723,-6.6951176348,-6.4462640844,16
136281,200417,265484,2.2061824372,-6.8303121117,-6.356533236900001,17
135217,200289,265310,2.4873390927,-6.9882384033,-6.4558353748,18
134232,200191,265254,2.4873390927,-6.782455659699999,-6.4893348911999995,19
133888,200177,265251,2.3353948576,-6.658028884499999,-6.4414784392,20
134011,200221,265245,2.3485553819,-6.7728843693,-6.4271215036000005,21
134319,200224,265252,2.5016960283,-6.7058853365,-6.4582281974,22
134660,200319,265358,2.2025932033,-6.9236321931,-6.4462640844,23
135137,200419,265409,2.3162522768000002,-6.9714886451,-6.4271215036000005,24
135585,200485,265470,2.3772692530999997,-6.976274290299999,-6.5036918268,25
135805,200435,265486,2.3593230836,-6.8255264665,-6.4175502132,26
135857,200452,265459,2.4071795356,-6.8721865072,-6.479763600799999,27
135913,200443,265471,2.3306092124,-6.9009003784,-6.355336825599999,28
136041,200472,265514,2.3018953412000003,-6.8721865072,-6.484549246,29
136259,200473,265539,2.2636101795999997,-6.7680987241,-6.4319071488,30
136536,200495,265530,2.3736800192,-6.9009003784,-6.285944970199999,31
136837,200575,265542,2.2827527603999997,-6.8051874744,-6.4462640844,32
137187,200567,265576,2.2827527603999997,-6.7776700145,-6.559923157899999,33
137467,200639,265609,2.1966111468,-6.8865434428,-6.4941205364000005,34
137760,200700,265578,2.2061824372,-6.7010996913000005,-6.451049729599999,35
138067,200692,265635,2.1511475174,-6.8422762247,-6.412764568,36
138250,200741,265614,2.3246271559,-6.7908305388,-6.3505511804,37
138487,200749,265648,2.3102702203,-6.8147587648000005,-6.5072810607,38
138749,200764,265671,2.297109696,-6.9332034835,-6.4319071488,39
138916,200789,265620,2.3724836079,-6.7525453772,-6.384050696799999,40
139155,200805,265693,2.5112673187,-6.881757797600001,-6.4462640844,41
139361,200803,265716,2.2588245344,-6.7728843693,-6.3517475917,42
139156,200799,265598,2.4873390927,-6.7776700145,-6.2560346877,43
138263,200675,265469,2.368894374,-6.81954441,-6.327819365700001,44
137126,200493,265408,2.416750826,-6.9571317095,-6.5359949319,45
136417,200461,265350,2.27318147,-6.9056860235999995,-6.422335858399999,46
136188,200499,265325,2.4777678023000003,-6.7920269500999995,-6.508477471999999,47
136282,200485,265382,2.3497517932000003,-6.918846547899999,-6.4319071488,48
136428,200543,265392,2.4490539311,-6.6723858201,-6.5132631172,49
136741,200588,265404,2.3736800192,-6.7812592484,-6.4462640844,50
137141,200659,265488,2.4107687694999997,-6.7680987241,-6.4857456573,51
137452,200679,265517,2.4394826406999996,-6.8961147332,-6.4785671895,52
137534,200661,265559,2.1643080417,-6.7345992077,-6.466603076499999,53
137592,200662,265507,2.2348963083999998,-6.686742755699999,-6.4426748505,54
137606,200674,265497,2.4346969955,-6.824330055200001,-6.3661045273,55
137711,200728,265503,2.4203400599,-6.8015982405,-6.4187466245,56
137870,200724,265559,2.5399811898999998,-6.740581264199999,-6.451049729599999,57
138104,200761,265544,2.4490539311,-6.8327049343,-6.4989061816,58
138340,200732,265605,2.3533410271,-6.8291157004,-6.3517475917,59
138581,200809,265626,2.4346969955,-6.8590259828999995,-6.4175502132,60
138731,200817,265675,2.2779671152,-6.7345992077,-6.4570317861,61
138918,200856,265652,2.4693929232,-6.881757797600001,-6.3517475917,62
139119,200870,265582,2.3353948576,-6.867400862,-6.4570317861,63
139278,200850,265688,2.2121644937,-6.8482582812,-6.3613188821,64
139423,200922,265609,2.2875384056,-6.8147587648000005,-6.388836342,65
139574,200913,265728,2.2923240508,-6.7621166676,-6.466603076499999,66
139709,200894,265721,2.2588245344,-6.7058853365,-6.4701923104,67
139903,200958,265702,2.3078773977,-6.8482582812,-6.4749779556,68
140087,200963,265715,2.2827527603999997,-6.8303121117,-6.3948183985,69
140071,200962,265702,2.500499617,-6.8865434428,-6.4271215036000005,70
139357,200838,265668,2.3545374384,-6.7525453772,-6.4091753340999995,71
138102,200695,265448,2.2779671152,-6.9056860235999995,-6.384050696799999,72
136912,200551,265306,2.2420747762,-6.7633130788999996,-6.479763600799999,73
136239,200580,265288,2.4311077616,-6.7106709817,-6.4271215036000005,74
136091,200587,265337,2.2157537276,-6.8147587648000005,-6.4091753340999995,75
136132,200579,265445,2.3533410271,-6.999006104999999,-6.4749779556,76
136232,200607,265369,2.3916261887,-6.7441704981,-6.4941205364000005,77
136539,200657,265416,2.2552353005,-6.8769721524,-6.4319071488,78
136795,200718,265503,2.27318147,-6.849454692499999,-6.4271215036000005,79
136990,200734,265490,2.4729821571,-6.7345992077,-6.3996040437,80
136944,200710,265496,2.4119651808,-6.7106709817,-6.4749779556,81
136897,200697,265511,2.3820548983,-6.6963140460999995,-6.4079789228,82
136942,200687,265452,2.3294128011,-6.8291157004,-6.4594246087,83
137079,200647,265512,2.2875384056,-6.8159551761,-6.364908116,84
137248,200739,265503,2.344966148,-6.9248286044,-6.3996040437,85
137470,200757,265473,2.4011974791,-6.918846547899999,-6.385247108100001,86
137696,200826,265568,2.5411776012,-6.8853470315,-6.3457655352,87
137916,200816,265563,2.344966148,-6.8853470315,-6.422335858399999,88
138073,200823,265560,2.3497517932000003,-6.947560419099999,-6.3948183985,89
138258,200838,265645,2.4011974791,-6.9284178383,-6.3613188821,90
138450,200845,265589,2.4107687694999997,-6.9667029999,-6.4079789228,91
138581,200888,265639,2.3545374384,-6.915257314,-6.5036918268,92
138719,200872,265574,2.321037922,-6.8051874744,-6.3625152933999995,93
138879,200918,265647,2.297109696,-6.9236321931,-6.451049729599999,94
139035,200877,265672,2.1882362677000002,-6.8578295716,-6.4474604957,95
139188,200934,265653,2.368894374,-6.7968125953,-6.4426748505,96
139378,200921,265662,2.4023938904,-6.786044893600001,-6.3457655352,97
139382,200919,265659,2.2827527603999997,-6.8147587648000005,-6.46062102,98
138611,200808,265541,2.2683958248,-6.7334027964,-6.4462640844,99
137160,200660,265377,2.4071795356,-6.7812592484,-6.3996040437,100
135924,200531,265269,2.4442682859,-6.853043926400001,-6.437889205299999,101
135292,200444,265232,2.3545374384,-6.824330055200001,-6.5228344076,102
135184,200503,265257,2.3306092124,-6.7764736032,-6.4654066652,103
135278,200528,265339,2.2025932033,-6.6676001749,-6.3936219871999995,104
135466,200545,265378,2.4011974791,-6.8039910631,-6.4402820279,105
135750,200573,265410,2.3150558654999998,-6.867400862,-6.412764568,106
136060,200605,265437,2.5914268758000003,-6.782455659699999,-6.5934226743,107
136191,200597,265434,2.3676979627,-6.891329088,-6.484549246,108
136169,200608,265455,2.4777678023000003,-6.8422762247,-6.3517475917,109
136130,200571,265465,2.3258235672,-6.824330055200001,-6.3984076324000005,110
136146,200583,265448,2.344966148,-6.81954441,-6.436692794,111
136249,200616,265411,2.3066809864,-6.8147587648000005,-6.4462640844,112
136447,200629,265508,2.3353948576,-6.9667029999,-6.4331035601,113
136677,200666,265467,2.4011974791,-6.838686990799999,-6.3984076324000005,114
136924,200690,265493,2.4059831243,-6.8733829185,-6.532405698,115
137132,200671,265594,2.4957139718,-6.8303121117,-6.4079789228,116
137321,200722,265555,2.321037922,-6.8004018292,-6.4235322697,117
137513,200717,265549,2.4119651808,-6.7872413049,-6.521637996299999,118
137651,200745,265575,2.4335005842,-6.7764736032,-6.3326050109,119
137808,200775,265587,2.2408783649,-6.7633130788999996,-6.4941205364000005,120
137944,200755,265580,2.3545374384,-6.7776700145,-6.3517475917,121
138061,200769,265617,2.3497517932000003,-6.853043926400001,-6.46062102,122
138277,200811,265644,2.3581266723,-6.8327049343,-6.4570317861,123
138428,200826,265639,2.27318147,-6.7728843693,-6.4737815442999995,124
138588,200827,265648,2.3054845751,-6.9858455806999995,-6.4414784392,125
138672,200825,265621,2.2636101795999997,-6.8015982405,-6.3984076324000005,126
138105,200733,265545,2.3952154226,-6.7884377162,-6.3756758177,127
136742,200502,265371,2.3545374384,-6.867400862,-6.4414784392,128
135431,200425,265245,2.3353948576,-6.81954441,-6.412764568,129
134726,200342,265284,2.5064816735,-6.771687958,-6.484549246,130
134614,200391,265289,2.3294128011,-6.811169530899999,-6.3900327533,131
134741,200430,265294,2.2827527603999997,-6.9092752575,-6.327819365700001,132
134988,200472,265357,2.3964118339,-6.8063838857,-6.3984076324000005,133
135333,200456,265372,2.500499617,-6.7345992077,-6.356533236900001,134
135662,200557,265376,2.3306092124,-6.843472636,-6.4905313025,135
135828,200559,265420,2.3246271559,-6.824330055200001,-6.451049729599999,136
135798,200543,265386,2.4263221164,-6.8147587648000005,-6.3804614629,137
135676,200490,265468,2.1583259852,-6.891329088,-6.4881384799,138
135686,200543,265384,2.2121644937,-6.795616184,-6.3230337205,139
135787,200526,265420,2.3641087288000002,-6.7166530382000005,-6.3086767849,140
135993,200571,265441,2.4574288102,-6.7968125953,-6.4031932776,141
136244,200595,265472,2.27318147,-6.976274290299999,-6.4175502132,142
136441,200599,265426,2.3784656644,-6.753741788499999,-6.3661045273,143
136665,200625,265495,2.4538395763,-6.948756830400001,-6.484549246,144
136854,200672,265497,2.2683958248,-6.8159551761,-6.4558353748,145
137004,200662,265570,2.3126630429,-6.9104716688000005,-6.3900327533,146
137186,200674,265530,2.3174486881,-6.8578295716,-6.4414784392,147
137379,200694,265583,2.3736800192,-6.9044896123,-6.4474604957,148
137491,200721,265601,2.3222343333,-6.8901326766999995,-6.508477471999999,149
137605,200743,265688,2.4442682859,-6.839883402099999,-6.508477471999999,150
137790,200757,265641,2.297109696,-6.8721865072,-6.46062102,151
137984,200730,265612,2.1738793321000003,-6.7908305388,-6.3361942448,152
137783,200703,265579,2.3246271559,-6.725027917299999,-6.3661045273,153
136639,200512,265393,2.4203400599,-6.7884377162,-6.518048762399999,154
135139,200349,265296,2.3641087288000002,-6.9523460643,-6.385247108100001,155
134105,200249,265210,2.3772692530999997,-6.7908305388,-6.5276200528,156
133725,200229,265145,2.3868405435,-6.7489561433,-6.3577296482,157
133727,200283,265194,2.4011974791,-6.866204450700001,-6.3361942448,158
133826,200282,265275,2.3533410271,-6.7728843693,-6.369693761200001,159
134187,200377,265336,2.5304098995,-6.881757797600001,-6.4654066652,160
134585,200386,265339,2.4071795356,-6.838686990799999,-6.4187466245,161
134850,200420,265389,2.3545374384,-6.8051874744,-6.480960012100001,162
134939,200432,265387,2.2923240508,-6.8578295716,-6.4654066652,163
134846,200347,265382,2.2923240508,-6.8147587648000005,-6.4414784392,164
134781,200374,265452,2.2827527603999997,-6.934399894799999,-6.4893348911999995,165
134850,200352,265359,2.4023938904,-6.8769721524,-6.4618174313,166
135032,200391,265387,2.3497517932000003,-6.8015982405,-6.4079789228,167
135265,200414,265427,2.4203400599,-6.7728843693,-6.559923157899999,168
135507,200453,265429,2.3784656644,-6.839883402099999,-6.452246140900001,169
135745,200483,265451,2.3114666316,-6.8004018292,-6.4654066652,170
135977,200524,265519,2.4957139718,-6.8829542089,-6.3457655352,171
136171,200524,265463,2.4789642136,-6.783652071000001,-6.5515482788,172
136354,200569,265482,2.3928226,-6.8004018292,-6.385247108100001,173
136522,200580,265537,2.2779671152,-6.843472636,-6.4462640844,174
136706,200568,265486,2.3497517932000003,-6.7633130788999996,-6.364908116,175
136839,200558,265551,2.2396819536,-6.7645094902,-6.5647088031,176
136989,200587,265537,2.4394826406999996,-6.7776700145,-6.4654066652,177
137136,200623,265525,2.3341984463,-6.8099731195999995,-6.4654066652,178
137305,200624,265566,2.1978075581,-6.81954441,-6.3996040437,179
137209,200593,265513,2.3401805028,-6.7585274337,-6.4079789228,180
136083,200409,265317,2.4382862294,-6.9942204598,-6.46062102,181
134290,200204,265149,2.368894374,-6.8374905795,-6.451049729599999,182
132875,200056,265074,2.4023938904,-6.740581264199999,-6.518048762399999,183
132227,200006,265021,2.3724836079,-6.849454692499999,-6.5706908596,184
132027,200022,265062,2.3629123174999997,-6.723831506,-6.4701923104,185
132148,200074,265133,2.3246271559,-6.824330055200001,-6.4654066652,186
132253,200093,265161,2.5016960283,-6.820740821299999,-6.532405698,187
132591,200118,265174,2.4155544147,-6.9523460643,-6.425925092299999,188
132885,200155,265248,2.3772692530999997,-6.8482582812,-6.6029939646999996,189
133010,200153,265249,2.3461625592999997,-6.8949183219000005,-6.4319071488,190
132902,200055,265182,2.3306092124,-6.9104716688000005,-6.4175502132,191
132778,200166,265247,2.3593230836,-6.7393848529,-6.3708901725,192
132684,200118,265201,2.3832513096,-6.7585274337,-6.502495415499999,193
132783,200146,265167,2.4346969955,-6.8051874744,-6.3708901725,194
132953,200185,265183,2.2456640101,-6.795616184,-6.4462640844,195
133127,200212,265240,2.3353948576,-6.8482582812,-6.4414784392,196
133401,200239,265286,2.3114666316,-6.7202422721,-6.356533236900001,197
133611,200263,265316,2.5160529638999996,-6.782455659699999,-6.342176301299999,198
133825,200332,265333,2.3641087288000002,-6.8542403377,-6.5407805771,199
133977,200322,265304,2.3294128011,-6.7920269500999995,-6.508477471999999,200
134149,200329,265392,2.2121644937,-6.7776700145,-6.4654066652,201
134286,200339,265324,2.3018953412000003,-6.7058853365,-6.388836342,202
134416,200361,265299,2.4251257050999997,-6.893721910599999,-6.436692794,203
134578,200370,265373,2.2444675988,-6.6963140460999995,-6.385247108100001,204
134748,200389,265407,2.404786713,-6.782455659699999,-6.4331035601,205
134891,200395,265388,2.4729821571,-6.8925254993,-6.479763600799999,206
135048,200427,265381,2.3294128011,-6.8350977569,-6.436692794,207
134676,200318,265340,2.4203400599,-6.9104716688000005,-6.422335858399999,208
133130,200147,265056,2.2444675988,-6.6676001749,-6.4737815442999995,209
131299,199918,264933,2.3868405435,-6.6065831986,-6.4701923104,210
130123,199845,264846,2.4251257050999997,-6.715456626899999,-6.4235322697,211
129730,199782,264868,2.3018953412000003,-6.851847515099999,-6.4319071488,212
129757,199821,264872,2.2863419943,-6.843472636,-6.4319071488,213
129957,199885,264933,2.4059831243,-6.81954441,-6.425925092299999,214
130313,199898,265045,2.2217357841,-6.7908305388,-6.451049729599999,215
130726,199942,265036,2.3593230836,-6.820740821299999,-6.3756758177,216
131066,199958,265036,2.1786649773,-6.8482582812,-6.4905313025,217
131080,200011,265001,2.4251257050999997,-6.7812592484,-6.4283179149,218
130969,199936,264997,2.2109680824,-6.8578295716,-6.3326050109,219
130852,199941,264993,2.3174486881,-6.8099731195999995,-6.3984076324000005,220
130879,199935,265018,2.4107687694999997,-6.866204450700001,-6.4749779556,221
131039,199973,264995,2.2408783649,-6.8099731195999995,-6.4043896889,222
131249,200004,265048,2.3976082452,-6.8051874744,-6.364908116,223
131523,200024,265084,2.3545374384,-6.8004018292,-6.3661045273,224
131720,200053,265121,2.2875384056,-6.9535424756,-6.436692794,225
131923,200051,265110,2.4538395763,-6.976274290299999,-6.4654066652,226
132168,200126,265107,2.2492532439999997,-6.757331022400001,-6.518048762399999,227
132329,200127,265133,2.3114666316,-6.9116680801,-6.317051664,228
132525,200138,265148,2.3341984463,-6.9379891287,-6.4139609793000005,229
132656,200116,265203,2.4299113503,-6.725027917299999,-6.3708901725,230
132841,200173,265219,2.344966148,-6.843472636,-6.5647088031,231
133022,200152,265209,2.3964118339,-6.9056860235999995,-6.4701923104,232
133185,200210,265182,2.2169501389,-6.891329088,-6.4235322697,233
133411,200191,265235,2.2779671152,-6.9559352982,-6.4618174313,234
133540,200234,265230,2.2444675988,-6.843472636,-6.3936219871999995,235
133077,200128,265168,2.2205393728,-6.915257314,-6.3038911397,236
131598,199937,264957,2.2887348169,-6.8147587648000005,-6.4558353748,237
129980,199778,264790,2.3497517932000003,-6.7764736032,-6.4905313025,238
129157,199717,264768,2.4873390927,-6.8757757411,-6.46062102,239
129024,199710,264754,2.4059831243,-6.8147587648000005,-6.3182480753000005,240
129258,199745,264822,2.2396819536,-6.8578295716,-6.5168523511,241
129661,199796,264845,2.3820548983,-6.9092752575,-6.4319071488,242
130123,199858,264904,2.3258235672,-6.8051874744,-6.4139609793000005,243
130650,199968,264997,2.2983061073,-7.0624159039,-6.3661045273,244
130991,199918,264941,2.4382862294,-6.8063838857,-6.3517475917,245
131115,199931,264978,2.3964118339,-6.9104716688000005,-6.3744794064,246
131049,199923,264997,2.440679052,-6.8051874744,-6.4618174313,247
131053,199935,265044,2.2408783649,-6.843472636,-6.4091753340999995,248
131240,199926,265026,2.4346969955,-6.9379891287,-6.451049729599999,249
131580,199970,265001,2.3964118339,-6.9535424756,-6.5419769884,250
131831,200018,265047,2.2193429615,-6.915257314,-6.3996040437,251
132191,200062,265087,2.5052852621999997,-6.9248286044,-6.3373906561,252
132499,200086,265096,2.3114666316,-6.934399894799999,-6.3613188821,253
132774,200071,265133,2.368894374,-6.9535424756,-6.4474604957,254
133028,200153,265160,2.2779671152,-6.8051874744,-6.531209286699999,255
133312,200158,265229,2.1343977592,-6.8291157004,-6.385247108100001,256
133509,200178,265244,2.3246271559,-6.8255264665,-6.2141602922,257
133757,200193,265207,2.4729821571,-6.7920269500999995,-6.4414784392,258
134059,200238,265188,2.2444675988,-6.934399894799999,-6.4414784392,259
134277,200263,265215,2.2743778813,-6.9427747739,-6.4283179149,260
134539,200293,265254,2.2348963083999998,-6.7968125953,-6.4271215036000005,261
134663,200254,265225,2.4382862294,-6.8578295716,-6.364908116,262
134023,200115,265126,2.2636101795999997,-6.7872413049,-6.3613188821,263
132751,199985,265019,2.297109696,-6.7812592484,-6.5132631172,264
131708,199831,264842,2.3066809864,-6.9248286044,-6.3996040437,265
131465,199840,264827,2.464607278,-6.9248286044,-6.4689958991,266
131643,199813,264931,2.3030917525,-6.839883402099999,-6.4833528347,267
132011,199916,265011,2.4251257050999997,-6.6819571105,-6.384050696799999,268
132475,199974,265042,2.2540388892,-6.7621166676,-6.4079789228,269
133037,200043,265066,2.3784656644,-6.6915284009,-6.4654066652,270
133517,200101,265121,2.4346969955,-6.9655065886,-6.5132631172,271
133798,200092,265180,2.321037922,-6.9104716688000005,-6.479763600799999,272
133886,200082,265162,2.2492532439999997,-6.8015982405,-6.4319071488,273
133978,200064,265103,2.4729821571,-6.8015982405,-6.4941205364000005,274
134144,200114,265116,2.4358934068,-6.8949183219000005,-6.484549246,275
134445,200141,265160,2.2396819536,-6.7633130788999996,-6.3996040437,276
134798,200149,265183,2.4442682859,-6.878168563699999,-6.479763600799999,277
135129,200210,265232,2.3270199785,-6.7633130788999996,-6.4079789228,278
135495,200238,265270,2.4011974791,-6.7441704981,-6.5132631172,279
135831,200268,265317,2.3916261887,-6.8339013456,-6.556333924,280
136178,200315,265302,2.3066809864,-6.8350977569,-6.4414784392,281
136465,200323,265307,2.4011974791,-6.839883402099999,-6.356533236900001,282
136739,200348,265394,2.3641087288000002,-6.843472636,-6.479763600799999,283
137025,200374,265341,2.2683958248,-6.7345992077,-6.343372712599999,284
137359,200410,265351,2.5244278430000002,-6.7872413049,-6.4905313025,285
137570,200430,265417,2.297109696,-6.9906312259000005,-6.484549246,286
137871,200477,265397,2.3270199785,-6.8099731195999995,-6.4091753340999995,287
138182,200476,265422,2.3306092124,-6.7345992077,-6.4474604957,288
138360,200483,265406,2.3641087288000002,-6.9200429592,-6.3936219871999995,289
137918,200309,265275,2.3246271559,-6.782455659699999,-6.4450676731,290
136882,200153,265110,2.4634108667000003,-6.8446690473,-6.4989061816,291
136053,200040,265087,2.4394826406999996,-6.6963140460999995,-6.5276200528,292
135768,200059,265051,2.4215364712,-6.8291157004,-6.492924125099999,293
135877,200040,265078,2.3916261887,-6.7944197726999995,-6.556333924,294
136160,200112,265147,2.3389840915,-6.7202422721,-6.3661045273,295
136518,200146,265171,2.2743778813,-6.7908305388,-6.3744794064,296
136980,200216,265218,2.3629123174999997,-6.9104716688000005,-6.5276200528,297
137460,200208,265304,2.4155544147,-6.9200429592,-6.342176301299999,298
137775,200282,265288,2.4394826406999996,-6.8350977569,-6.4031932776,299
137956,200287,265288,2.3353948576,-6.81954441,-6.4462640844,300
138063,200301,265315,2.3126630429,-6.7728843693,-6.4271215036000005,301
138203,200286,265345,2.2408783649,-6.6628145297,-6.4271215036000005,302
138492,200380,265348,2.4299113503,-6.853043926400001,-6.451049729599999,303
138764,200388,265338,2.3114666316,-6.782455659699999,-6.4558353748,304
139089,200404,265378,2.3461625592999997,-6.7728843693,-6.3948183985,305
139395,200406,265420,2.3880369548,-6.7633130788999996,-6.412764568,306
139744,200461,265438,2.3928226,-6.853043926400001,-6.412764568,307
140031,200496,265514,2.4155544147,-6.8614188055,-6.46062102,308
140199,200506,265501,2.464607278,-6.8566331603,-6.3182480753000005,309
140571,200553,265519,2.1834506225,-6.7872413049,-6.5551375127,310
140786,200574,265563,2.3772692530999997,-6.7633130788999996,-6.4654066652,311
141015,200571,265572,2.2911276395,-6.881757797600001,-6.4941205364000005,312
141255,200575,265553,2.2827527603999997,-6.853043926400001,-6.4570317861,313
141466,200608,265587,2.3736800192,-6.795616184,-6.4701923104,314
141715,200640,265636,2.2695922361,-6.782455659699999,-6.3708901725,315
141905,200661,265650,2.3593230836,-6.8446690473,-6.4319071488,316
141733,200594,265556,2.3724836079,-6.8051874744,-6.437889205299999,317
140970,200457,265409,2.344966148,-6.7812592484,-6.4235322697,318
139990,200312,265288,2.3318056236999998,-6.8590259828999995,-6.4701923104,319
139372,200265,265219,2.368894374,-6.9523460643,-6.5611195692,320
139189,200227,265226,2.3832513096,-6.725027917299999,-6.3661045273,321
139252,200281,265320,2.2923240508,-6.8004018292,-6.4749779556,322
139400,200320,265309,2.3270199785,-6.8004018292,-6.4271215036000005,323
139701,200319,265416,2.3724836079,-6.7393848529,-6.384050696799999,324
139982,200416,265430,2.3736800192,-6.8578295716,-6.5132631172,325
140278,200424,265424,2.297109696,-6.839883402099999,-6.4271215036000005,326
140369,200414,265418,2.3114666316,-6.8542403377,-6.559923157899999,327
140367,200417,265409,2.321037922,-6.6819571105,-6.5168523511,328
140373,200425,265445,2.3162522768000002,-6.8339013456,-6.46062102,329
140440,200431,265410,2.3832513096,-6.891329088,-6.4701923104,330
140593,200461,265473,2.3306092124,-6.7920269500999995,-6.479763600799999,331
140732,200475,265494,2.3294128011,-6.7968125953,-6.4462640844,332
140941,200513,265473,2.3306092124,-6.8997039671,-6.4271215036000005,333
141136,200557,265546,2.2588245344,-6.8961147332,-6.4558353748,334
141297,200563,265556,2.5016960283,-6.867400862,-6.4558353748,335
141473,200579,265597,2.4681965119,-6.8482582812,-6.4713887217,336
141631,200608,265600,2.5208386090999997,-6.8291157004,-6.4749779556,337
141762,200643,265591,2.3353948576,-6.8183479987,-6.3984076324000005,338
141859,200627,265577,2.4335005842,-6.7908305388,-6.4462640844,339
141995,200669,265629,2.4670001006,-6.8051874744,-6.4989061816,340
142160,200635,265654,2.4251257050999997,-6.7728843693,-6.5371913432,341
142257,200674,265663,2.3485553819,-6.9236321931,-6.508477471999999,342
142417,200654,265693,2.4299113503,-6.9248286044,-6.479763600799999,343
142433,200687,265646,2.3832513096,-6.8542403377,-6.4498533183,344
141952,200550,265530,2.3724836079,-6.7764736032,-6.464210253899999,345
140820,200407,265395,2.1690936869,-6.7764736032,-6.436692794,346
139587,200261,265215,2.2313070745,-6.9104716688000005,-6.4941205364000005,347
138812,200185,265239,2.4191436486,-6.8578295716,-6.4701923104,348
138504,200228,265178,2.3593230836,-6.8769721524,-6.559923157899999,349
138416,200231,265262,2.416750826,-6.8004018292,-6.436692794,350
138478,200278,265298,2.3294128011,-6.8626152168,-6.3996040437,351
138657,200323,265366,2.5256242543,-6.849454692499999,-6.46062102,352
138870,200355,265385,2.297109696,-6.8004018292,-6.422335858399999,353
138970,200384,265384,2.4023938904,-6.9056860235999995,-6.451049729599999,354
138878,200358,265347,2.3641087288000002,-6.8482582812,-6.4857456573,355
138715,200357,265337,2.572284295,-6.8159551761,-6.5359949319,356
138602,200318,265352,2.4023938904,-6.9009003784,-6.4546389635,357
138682,200376,265414,2.3114666316,-6.8303121117,-6.451049729599999,358
138782,200396,265446,2.4155544147,-6.811169530899999,-6.3326050109,359
138939,200422,265467,2.4203400599,-6.8721865072,-6.532405698,360
139144,200456,265428,2.3114666316,-6.9619173547,-6.436692794,361
139292,200483,265442,2.3341984463,-6.9523460643,-6.3900327533,362
139461,200512,265473,2.3880369548,-6.8757757411,-6.46062102,363
139588,200499,265512,2.4550359876,-6.8961147332,-6.3936219871999995,364
139716,200541,265453,2.3593230836,-6.9379891287,-6.4271215036000005,365
139818,200530,265512,2.3593230836,-6.81954441,-6.4307107375,366
139948,200571,265509,2.4825534475,-6.8865434428,-6.451049729599999,367
140059,200557,265565,2.3593230836,-6.9451675965,-6.3984076324000005,368
140189,200570,265555,2.4059831243,-6.9284178383,-6.3936219871999995,369
140340,200629,265540,2.3114666316,-6.8482582812,-6.4749779556,370
140251,200625,265545,2.3198415107,-6.8733829185,-6.4091753340999995,371
139419,200425,265365,2.4346969955,-6.824330055200001,-6.436692794,372
138049,200272,265175,2.3497517932000003,-6.8339013456,-6.484549246,373
136977,200130,265118,2.3928226,-6.7621166676,-6.479763600799999,374
136417,200133,265121,2.3593230836,-6.9822563468,-6.4618174313,375
136381,200121,265165,2.3976082452,-6.8339013456,-6.3996040437,376
136441,200195,265172,2.368894374,-6.7812592484,-6.4319071488,377
136675,200210,265213,2.4921247379,-6.7621166676,-6.412764568,378
137021,200273,265271,2.3641087288000002,-6.8004018292,-6.4271215036000005,379
137228,200305,265240,2.3162522768000002,-6.673582231399999,-6.4654066652,380
137301,200282,265315,2.3365912689,-6.8865434428,-6.388836342,381
137162,200292,265221,2.3641087288000002,-6.8291157004,-6.4558353748,382
137134,200309,265243,2.3545374384,-6.7441704981,-6.437889205299999,383
137129,200263,265294,2.3820548983,-6.853043926400001,-6.3756758177,384
137268,200313,265298,2.3389840915,-6.795616184,-6.518048762399999,385
137414,200326,265276,2.2360927197000002,-6.7345992077,-6.422335858399999,386
137619,200359,265381,2.2205393728,-6.9056860235999995,-6.4283179149,387
137771,200386,265368,2.3641087288000002,-6.8853470315,-6.5228344076,388
138033,200402,265380,2.4299113503,-6.7680987241,-6.5371913432,389
138220,200400,265403,2.4346969955,-6.9667029999,-6.4893348911999995,390
138391,200450,265422,2.3880369548,-6.8961147332,-6.532405698,391
138553,200440,265436,2.2767707039,-6.7429740868,-6.388836342,392
138651,200478,265440,2.4729821571,-6.8099731195999995,-6.412764568,393
138832,200482,265387,2.225325018,-6.8099731195999995,-6.5371913432,394
138953,200498,265439,2.3736800192,-6.8566331603,-6.3804614629,395
139136,200545,265476,2.368894374,-6.7633130788999996,-6.4654066652,396
139266,200477,265456,2.3066809864,-6.8339013456,-6.4031932776,397
138924,200452,265398,2.3258235672,-6.824330055200001,-6.3373906561,398
137686,200209,265126,2.4119651808,-6.6197437229,-6.5515482788,399
136165,200044,264997,2.297109696,-6.915257314,-6.3708901725,400
135172,199956,265016,2.5076780847999998,-6.7680987241,-6.4953169477,401
134781,199943,264965,2.4586252215,-6.8147587648000005,-6.46062102,402
134782,199927,264964,2.2683958248,-6.8626152168,-6.3792650516,403
134950,200062,265061,2.3078773977,-6.7728843693,-6.369693761200001,404
135141,200088,265109,2.4478575198,-6.9571317095,-6.3230337205,405
135470,200108,265103,2.3030917525,-6.853043926400001,-6.451049729599999,406
135704,200138,265159,2.368894374,-6.8901326766999995,-6.508477471999999,407
135710,200129,265140,2.4538395763,-6.7489561433,-6.4749779556,408
135632,200082,265093,2.3018953412000003,-6.824330055200001,-6.4043896889,409
135510,200150,265105,2.5112673187,-6.8099731195999995,-6.4031932776,410
135557,200117,265142,2.2396819536,-6.7441704981,-6.3613188821,411
135667,200130,265189,2.2588245344,-6.9140609027,-6.5982083195,412
135854,200167,265186,2.3461625592999997,-6.9044896123,-6.451049729599999,413
136133,200194,265189,2.3545374384,-6.7764736032,-6.46062102,414
136325,200232,265213,2.2683958248,-6.7298135625,-6.4031932776,415
136518,200282,265244,2.4299113503,-6.8853470315,-6.451049729599999,416
136713,200298,265242,2.3868405435,-6.8255264665,-6.4941205364000005,417
136875,200274,265276,2.4538395763,-6.786044893600001,-6.437889205299999,418
137041,200336,265284,2.4299113503,-6.853043926400001,-6.3900327533,419
137182,200329,265297,2.2504496553,-6.8422762247,-6.4893348911999995,420
137316,200335,265312,2.2791635265,-6.853043926400001,-6.46062102,421
137490,200336,265333,2.4059831243,-6.753741788499999,-6.4749779556,422
137673,200381,265334,2.1786649773,-6.891329088,-6.4331035601,423
137832,200382,265356,2.2265214293,-6.8638116281,-6.5455662223,424
137554,200326,265298,2.3401805028,-6.8590259828999995,-6.484549246,425
136285,200103,265059,2.3784656644,-6.7908305388,-6.436692794,426
134697,199898,264929,2.3880369548,-6.8733829185,-6.5228344076,427
133505,199793,264786,2.2492532439999997,-6.7872413049,-6.546762633599999,428
133046,199766,264848,2.3772692530999997,-6.6915284009,-6.46062102,429
133039,199822,264832,2.344966148,-6.8626152168,-6.422335858399999,430
133184,199863,264891,2.3437697367,-6.7477597320000005,-6.3613188821,431
133438,199914,264958,2.3102702203,-6.81954441,-6.4271215036000005,432
133815,199902,265014,2.297109696,-6.740581264199999,-6.532405698,433
134059,199954,265018,2.3318056236999998,-6.843472636,-6.5611195692,434
134125,199951,264988,2.2444675988,-6.8853470315,-6.3613188821,435
133985,199950,265080,2.4550359876,-6.7669023128,-6.3756758177,436
133908,199964,265016,2.4622144554,-6.658028884499999,-6.4893348911999995,437
133922,199916,264997,2.3593230836,-6.8578295716,-6.4426748505,438
134013,199982,265013,2.4574288102,-6.7477597320000005,-6.532405698,439
134239,199976,265054,2.3676979627,-6.8482582812,-6.412764568,440
134450,200011,265093,2.2875384056,-6.771687958,-6.4175502132,441
134699,200048,265060,2.3078773977,-6.8015982405,-6.4414784392,442
134857,200049,265107,2.3018953412000003,-6.6161544889999995,-6.550351867499999,443
135116,200088,265138,2.3784656644,-6.8350977569,-6.4941205364000005,444
135280,200090,265111,2.4299113503,-6.9296142496,-6.3708901725,445
135426,200132,265211,2.4155544147,-6.867400862,-6.4989061816,446
135640,200156,265226,2.4538395763,-6.7190458608,-6.384050696799999,447
135762,200173,265241,2.4215364712,-6.6819571105,-6.451049729599999,448
135903,200172,265230,2.1930219129,-6.6819571105,-6.355336825599999,449
136077,200168,265265,2.3461625592999997,-6.8721865072,-6.5264236415,450
136284,200216,265313,2.2073788485,-6.9020967897,-6.4462640844,451
136292,200204,265287,2.3724836079,-6.8757757411,-6.4031932776,452
135535,200088,265061,2.4681965119,-6.7142602155999995,-6.3744794064,453
133883,199858,264917,2.4478575198,-6.891329088,-6.4319071488,454
132404,199668,264763,2.2827527603999997,-6.740581264199999,-6.4139609793000005,455
131699,199614,264745,2.2875384056,-6.8147587648000005,-6.3469619465000005,456
131637,199670,264740,2.3401805028,-6.81954441,-6.3182480753000005,457
131753,199677,264818,2.2600209457,-6.843472636,-6.3457655352,458
132019,199762,264862,2.3880369548,-6.8303121117,-6.384050696799999,459
132437,199823,264926,2.4203400599,-6.8733829185,-6.5419769884,460
132806,199872,264973,2.4119651808,-6.81954441,-6.451049729599999,461
132955,199850,264968,2.3820548983,-6.843472636,-6.385247108100001,462
132912,199884,264972,2.3294128011,-6.838686990799999,-6.3661045273,463
132791,199827,264927,2.3916261887,-6.8721865072,-6.4893348911999995,464
132814,199836,264914,2.2444675988,-6.9714886451,-6.412764568,465
132919,199843,264966,2.1978075581,-6.6927248122,-6.3804614629,466
133128,199918,264996,2.4011974791,-6.7728843693,-6.4701923104,467
133396,199917,264998,2.4095723582,-6.740581264199999,-6.4043896889,468
133628,199958,265031,2.189432679,-6.8482582812,-6.3326050109,469
133870,199986,265084,2.3497517932000003,-6.8925254993,-6.3469619465000005,470
134133,200016,265068,2.4155544147,-6.891329088,-6.484549246,471
134318,200055,265119,2.464607278,-6.9056860235999995,-6.384050696799999,472
134498,200054,265119,2.3916261887,-6.8291157004,-6.4462640844,473
134717,200104,265147,2.2109680824,-6.8961147332,-6.422335858399999,474
134903,200105,265139,2.344966148,-6.7812592484,-6.4893348911999995,475
135074,200128,265196,2.3581266723,-6.8063838857,-6.4749779556,476
135224,200188,265189,2.3880369548,-6.782455659699999,-6.4235322697,477
135312,200155,265200,2.2456640101,-6.8099731195999995,-6.329015777,478
134896,200050,265102,2.4777678023000003,-6.6927248122,-6.3373906561,479
133488,199846,264944,2.2504496553,-6.8015982405,-6.3996040437,480
131901,199650,264735,2.2157537276,-6.7381884416,-6.508477471999999,481
130987,199576,264681,2.3581266723,-6.8578295716,-6.3708901725,482
130805,199587,264661,2.4394826406999996,-6.7776700145,-6.4414784392,483
130987,199648,264768,2.3401805028,-6.6975104574,-6.3936219871999995,484
131258,199694,264793,2.3868405435,-6.880561386299999,-6.502495415499999,485
131713,199740,264847,2.4011974791,-6.8769721524,-6.4079789228,486
132200,199834,264942,2.2875384056,-6.853043926400001,-6.4701923104,487
132496,199829,264915,2.4155544147,-6.8135623535,-6.4091753340999995,488
132544,199801,264932,2.1786649773,-6.9009003784,-6.3086767849,489
132464,199841,264880,2.4299113503,-6.7812592484,-6.3661045273,490
132426,199801,264879,2.1918255016,-6.881757797600001,-6.5790657387,491
132570,199854,264922,2.3006989299,-6.7669023128,-6.4175502132,492
132817,199862,264989,2.4119651808,-6.8721865072,-6.46062102,493
133069,199873,265004,2.4299113503,-6.8721865072,-6.4175502132,494
133392,199961,265004,2.344966148,-6.8769721524,-6.3744794064,495
133686,199988,265115,2.3078773977,-6.795616184,-6.452246140900001,496
133950,199998,265020,2.1966111468,-6.866204450700001,-6.4319071488,497
134250,200016,265097,2.2540388892,-6.8853470315,-6.3744794064,498
134406,200075,265091,2.3736800192,-6.7393848529,-6.356533236900001,499
134582,200062,265111,2.4586252215,-6.7298135625,-6.4426748505,500
134756,200091,265106,2.4059831243,-6.5718872709,-6.46062102,501
134976,200093,265147,2.3820548983,-6.7908305388,-6.5036918268,502
135184,200117,265171,2.3389840915,-6.7920269500999995,-6.502495415499999,503
135338,200154,265187,2.4969103831,-6.8004018292,-6.3996040437,504
134826,200021,265081,2.368894374,-6.7669023128,-6.3708901725,505
133225,199800,264828,2.3306092124,-6.9284178383,-6.385247108100001,506
131513,199610,264732,2.3964118339,-6.6819571105,-6.5132631172,507
130657,199499,264624,2.3018953412000003,-6.7453669094,-6.5455662223,508
130431,199484,264591,2.3641087288000002,-6.8015982405,-6.4319071488,509
130543,199539,264649,2.3114666316,-6.664010941,-6.4893348911999995,510
130804,199588,264703,2.3832513096,-6.8339013456,-6.508477471999999,511
131198,199676,264790,2.4119651808,-6.8865434428,-6.4462640844,512
131705,199725,264802,2.4155544147,-6.8733829185,-6.5419769884,513
132014,199740,264844,2.3114666316,-6.8578295716,-6.3900327533,514
131999,199801,264829,2.368894374,-6.7202422721,-6.3756758177,515
132083,199778,264886,2.5016960283,-6.838686990799999,-6.4941205364000005,516
132056,199748,264899,2.5244278430000002,-6.8482582812,-6.5228344076,517
132170,199766,264903,2.3724836079,-6.783652071000001,-6.4941205364000005,518
132420,199829,264942,2.4251257050999997,-6.8626152168,-6.436692794,519
132730,199846,264922,2.3353948576,-6.8721865072,-6.4474604957,520
133031,199889,264953,2.2504496553,-6.7010996913000005,-6.451049729599999,521
133364,199911,265044,2.3018953412000003,-6.7585274337,-6.3517475917,522
133683,199963,265010,2.2600209457,-6.8961147332,-6.436692794,523
133987,199989,265059,2.4251257050999997,-6.9092752575,-6.4785671895,524
134249,200036,265083,2.3736800192,-6.6664037636,-6.5036918268,525
134488,200041,265067,2.3820548983,-6.8865434428,-6.3948183985,526
134739,200082,265119,2.2959132847,-6.8721865072,-6.4701923104,527
134994,200073,265129,2.2779671152,-6.8721865072,-6.5228344076,528
135237,200173,265178,2.2923240508,-6.8004018292,-6.4989061816,529
135531,200181,265209,2.4251257050999997,-6.8638116281,-6.4235322697,530
135648,200157,265197,2.4346969955,-6.7872413049,-6.4654066652,531
134962,200034,265055,2.3724836079,-6.866204450700001,-6.5132631172,532
133504,199847,264834,2.3653051401,-6.9296142496,-6.4414784392,533
132302,199706,264732,2.3066809864,-6.8039910631,-6.4331035601,534
131833,199677,264725,2.3258235672,-6.881757797600001,-6.4953169477,535
131939,199724,264743,2.2791635265,-6.7106709817,-6.479763600799999,536
132111,199778,264804,2.4442682859,-6.771687958,-6.4235322697,537
132436,199845,264853,2.3114666316,-6.7214386834,-6.4175502132,538
132909,199900,264929,2.2683958248,-6.8997039671,-6.4654066652,539
133396,199923,264926,2.4681965119,-6.8626152168,-6.4654066652,540
133694,199958,264927,2.416750826,-6.891329088,-6.4079789228,541
133812,199952,264940,2.3066809864,-6.9044896123,-6.3948183985,542
133874,199964,264936,2.3724836079,-6.8099731195999995,-6.3804614629,543
133981,200006,264956,2.2396819536,-6.795616184,-6.3984076324000005,544
134214,200000,264993,2.2743778813,-6.8147587648000005,-6.3996040437,545
134469,200064,265050,2.2923240508,-6.7633130788999996,-6.46062102,546
134794,200117,265070,2.3401805028,-6.8578295716,-6.436692794,547
135135,200154,265076,2.3964118339,-6.671189408799999,-6.4462640844,548
135439,200209,265093,2.3976082452,-6.915257314,-6.4654066652,549
135778,200264,265115,2.416750826,-6.9140609027,-6.4031932776,550
136024,200320,265135,2.3593230836,-6.7920269500999995,-6.3756758177,551
136327,200332,265155,2.2600209457,-6.7106709817,-6.3804614629,552
136556,200320,265181,2.2923240508,-6.8004018292,-6.451049729599999,553
136862,200370,265198,2.3162522768000002,-6.8350977569,-6.3936219871999995,554
137055,200410,265210,2.2959132847,-6.8626152168,-6.5036918268,555
137298,200417,265149,2.2504496553,-6.891329088,-6.4271215036000005,556
137613,200416,265244,2.2588245344,-6.795616184,-6.4319071488,557
137576,200405,265208,2.4394826406999996,-6.7202422721,-6.4319071488,558
137048,200304,265094,2.177468566,-6.8733829185,-6.4749779556,559
135819,200179,264945,2.1511475174,-6.811169530899999,-6.4654066652,560
134855,200118,264808,2.3736800192,-6.9284178383,-6.4941205364000005,561
134497,200090,264840,2.4107687694999997,-6.9379891287,-6.4941205364000005,562
134506,200102,264879,2.3306092124,-6.5970119082,-6.436692794,563
134699,200142,264913,2.3665015514,-6.7680987241,-6.3661045273,564
134968,200161,264964,2.2875384056,-6.8147587648000005,-6.4319071488,565
135375,200222,264991,2.4777678023000003,-6.7345992077,-6.4881384799,566
135795,200247,265006,2.416750826,-6.820740821299999,-6.4654066652,567
136003,200286,265073,2.1547367513,-6.8291157004,-6.436692794,568
136075,200274,265027,2.27318147,-6.8566331603,-6.5036918268,569
136071,200270,265042,2.3712871966,-6.8291157004,-6.464210253899999,570
136136,200282,265016,2.4155544147,-6.723831506,-6.4941205364000005,571
136284,200309,265024,2.3401805028,-6.9044896123,-6.422335858399999,572
136500,200367,265081,2.1834506225,-6.8063838857,-6.436692794,573
136717,200398,265060,2.4203400599,-7.0061845728000005,-6.4701923104,574
136933,200434,265097,2.4071795356,-6.9379891287,-6.4043896889,575
137195,200416,265140,2.4011974791,-6.7728843693,-6.4977097703,576
137475,200479,265186,2.3641087288000002,-6.811169530899999,-6.46062102,577
137596,200477,265166,2.3545374384,-6.8769721524,-6.3900327533,578
137809,200492,265200,2.2983061073,-6.7142602155999995,-6.518048762399999,579
137978,200518,265200,2.2205393728,-6.753741788499999,-6.34097989,580
138178,200522,265171,2.3258235672,-6.811169530899999,-6.4235322697,581
138341,200543,265143,2.3401805028,-6.7680987241,-6.479763600799999,582
138505,200596,265149,2.2695922361,-6.8733829185,-6.4893348911999995,583
138660,200592,265191,2.344966148,-6.8482582812,-6.412764568,584
138790,200623,265159,2.3593230836,-6.843472636,-6.4857456573,585
138318,200514,265134,2.1643080417,-6.838686990799999,-6.492924125099999,586
137216,200400,264979,2.4215364712,-6.8757757411,-6.4319071488,587
136071,200315,264872,2.27318147,-6.7669023128,-6.3326050109,588
135394,200274,264839,2.2875384056,-6.947560419099999,-6.4079789228,589
135233,200271,264885,2.2588245344,-6.843472636,-6.3661045273,590
135230,200272,264916,2.3246271559,-6.795616184,-6.3230337205,591
135354,200350,264968,2.3485553819,-6.7764736032,-6.3996040437,592
135651,200398,265001,2.2121644937,-6.8255264665,-6.4893348911999995,593
135936,200415,265040,2.3353948576,-6.8374905795,-6.518048762399999,594
135999,200412,264996,2.1966111468,-6.8159551761,-6.3326050109,595
135901,200422,265020,2.297109696,-7.0516482022,-6.388836342,596
135793,200418,264923,2.3114666316,-6.7429740868,-6.550351867499999,597
135682,200401,265027,2.1870398563999998,-6.820740821299999,-6.3601224708,598
135696,200387,264989,2.1690936869,-6.8590259828999995,-6.3984076324000005,599
135894,200409,265035,2.2456640101,-6.8578295716,-6.464210253899999,600
136033,200452,265045,2.2839491717,-6.686742755699999,-6.4749779556,601
136226,200504,265033,2.4681965119,-6.948756830400001,-6.4941205364000005,602
136368,200508,265010,2.2887348169,-6.9236321931,-6.4558353748,603
136494,200500,265069,2.3066809864,-6.891329088,-6.4091753340999995,604
136609,200519,265058,2.2217357841,-6.7908305388,-6.4175502132,605
136715,200524,265069,2.2217357841,-6.8099731195999995,-6.4462640844,606
136815,200547,265048,2.1631116304,-6.8901326766999995,-6.4271215036000005,607
136892,200606,265081,2.3784656644,-6.843472636,-6.46062102,608
137002,200566,265086,2.2396819536,-6.9918276372,-6.422335858399999,609
137109,200583,265039,2.3294128011,-6.6963140460999995,-6.5515482788,610
137221,200586,265092,2.3880369548,-6.8769721524,-6.422335858399999,611
136828,200533,265025,2.4550359876,-6.7190458608,-6.4175502132,612
135600,200401,264914,2.3497517932000003,-6.9140609027,-6.546762633599999,613
134049,200293,264773,2.5064816735,-6.8769721524,-6.518048762399999,614
133017,200222,264745,2.2863419943,-6.8721865072,-6.4749779556,615
132607,200207,264695,2.3353948576,-6.8147587648000005,-6.3804614629,616
132581,200251,264764,2.321037922,-6.9248286044,-6.546762633599999,617
132720,200274,264831,2.4311077616,-6.8997039671,-6.4235322697,618
133064,200317,264884,2.297109696,-6.8015982405,-6.3517475917,619
133435,200343,264937,2.4023938904,-6.8961147332,-6.5742800935,620
133633,200372,264913,2.225325018,-6.7908305388,-6.4749779556,621
133628,200348,264895,2.5304098995,-6.81954441,-6.46062102,622
133488,200352,264894,2.3712871966,-6.867400862,-6.4654066652,623
133431,200344,264880,2.2420747762,-6.8255264665,-6.4654066652,624
133498,200364,264905,2.2408783649,-6.7393848529,-6.451049729599999,625
133613,200361,264896,2.2540388892,-6.8063838857,-6.4893348911999995,626
133914,200390,264884,2.2875384056,-6.7776700145,-6.4654066652,627
134151,200426,264973,2.4239292938,-7.0013989275999995,-6.518048762399999,628
134413,200414,264901,2.3964118339,-6.81954441,-6.4139609793000005,629
134589,200438,265005,2.4909283265999997,-6.9056860235999995,-6.4833528347,630
134804,200460,264976,2.4873390927,-6.8482582812,-6.4713887217,631
134954,200464,265008,2.3198415107,-6.8961147332,-6.422335858399999,632
135083,200458,265038,2.3341984463,-6.8709900959,-6.479763600799999,633
135224,200489,265011,2.4299113503,-6.8004018292,-6.4091753340999995,634
135387,200505,265024,2.3593230836,-6.723831506,-6.437889205299999,635
135475,200508,265079,2.3653051401,-6.9056860235999995,-6.452246140900001,636
135699,200526,265041,2.4251257050999997,-6.891329088,-6.451049729599999,637
135674,200525,265021,2.1978075581,-6.843472636,-6.3469619465000005,638
134775,200420,264871,2.4538395763,-6.7489561433,-6.4558353748,639
133118,200268,264777,2.3880369548,-6.8877398540999994,-6.4989061816,640
131729,200084,264620,2.4538395763,-6.853043926400001,-6.3661045273,641
131045,200036,264670,2.1750757434,-6.8159551761,-6.451049729599999,642
130949,200056,264704,2.27318147,-6.8051874744,-6.4701923104,643
131140,200110,264747,2.4789642136,-6.7776700145,-6.3661045273,644
131453,200168,264798,2.344966148,-6.891329088,-6.3948183985,645
131869,200227,264852,2.3940190112999997,-6.7920269500999995,-6.4271215036000005,646
132281,200227,264931,2.3066809864,-6.867400862,-6.5132631172,647
132536,200244,264884,2.27318147,-6.8865434428,-6.4283179149,648
132512,200231,264820,2.2683958248,-6.7202422721,-6.4989061816,649
132385,200240,264854,2.3306092124,-6.7525453772,-6.3936219871999995,650
132385,200246,264889,2.3066809864,-6.8339013456,-6.451049729599999,651
132513,200243,264897,2.5639094158999995,-6.753741788499999,-6.4989061816,652
132738,200228,264830,2.5064816735,-6.715456626899999,-6.4893348911999995,653
132969,200313,264925,2.2875384056,-6.8865434428,-6.4031932776,654
133182,200278,264914,2.3820548983,-6.891329088,-6.3936219871999995,655
133403,200337,264913,2.3222343333,-6.782455659699999,-6.3900327533,656
133602,200352,264953,2.3916261887,-6.9140609027,-6.3708901725,657
133758,200385,265013,2.3222343333,-6.9822563468,-6.5036918268,658
133929,200426,264970,2.3258235672,-6.771687958,-6.3744794064,659
134058,200426,264924,2.3820548983,-6.7345992077,-6.3948183985,660
134186,200442,265010,2.3078773977,-6.8147587648000005,-6.46062102,661
134308,200480,264953,2.4873390927,-6.8709900959,-6.3936219871999995,662
134447,200474,264995,2.5112673187,-6.811169530899999,-6.4079789228,663
134625,200487,264984,2.440679052,-6.8578295716,-6.4283179149,664
134712,200471,264985,2.2624137683,-6.81954441,-6.329015777,665
134065,200431,264937,2.4574288102,-6.853043926400001,-6.355336825599999,666
132396,200199,264715,2.3736800192,-6.9200429592,-6.4319071488,667
130698,200051,264630,2.3641087288000002,-6.9020967897,-6.4989061816,668
129826,200015,264587,2.344966148,-6.7728843693,-6.5419769884,669
129655,199983,264629,2.321037922,-6.811169530899999,-6.559923157899999,670
129753,200031,264664,2.3868405435,-6.8051874744,-6.479763600799999,671
130058,200065,264689,2.321037922,-6.771687958,-6.4737815442999995,672
130429,200116,264734,2.3509482045,-6.9056860235999995,-6.4319071488,673
130865,200158,264757,2.3114666316,-6.7669023128,-6.436692794,674
131159,200184,264781,2.3868405435,-6.9104716688000005,-6.5036918268,675
131171,200214,264766,2.3006989299,-7.0480589683,-6.502495415499999,676
131086,200120,264738,2.4251257050999997,-6.878168563699999,-6.4941205364000005,677
130981,200186,264758,2.4203400599,-6.9044896123,-6.5072810607,678
131079,200166,264779,2.3736800192,-6.8626152168,-6.5419769884,679
131263,200176,264804,2.2181465501999997,-6.8578295716,-6.4031932776,680
131477,200188,264856,2.4729821571,-6.8291157004,-6.4079789228,681
131703,200215,264791,2.321037922,-6.7058853365,-6.518048762399999,682
131863,200207,264829,2.3162522768000002,-6.795616184,-6.508477471999999,683
132094,200263,264882,2.5100709074,-6.9379891287,-6.4175502132,684
132290,200290,264860,2.3641087288000002,-6.7764736032,-6.451049729599999,685
132496,200293,264849,2.5148565526000004,-6.8004018292,-6.5359949319,686
132614,200300,264908,2.3222343333,-6.8757757411,-6.3708901725,687
132734,200299,264906,2.2779671152,-6.8961147332,-6.4749779556,688
132872,200288,264942,2.3545374384,-6.880561386299999,-6.546762633599999,689
132994,200313,264902,2.3641087288000002,-6.9296142496,-6.5036918268,690
133170,200364,264912,2.2504496553,-6.8626152168,-6.4283179149,691
133324,200350,264904,2.5028924396,-6.8865434428,-6.484549246,692
133363,200353,264908,2.3006989299,-6.8339013456,-6.3517475917,693
132617,200256,264777,2.3832513096,-6.918846547899999,-6.384050696799999,694
130979,200072,264683,2.3306092124,-6.9200429592,-6.484549246,695
129495,199927,264535,2.3533410271,-6.853043926400001,-6.2560346877,696
128854,199837,264507,2.2827527603999997,-6.881757797600001,-6.437889205299999,697
128847,199889,264483,2.3270199785,-6.786044893600001,-6.3230337205,698
129125,199936,264581,2.3306092124,-6.8051874744,-6.2560346877,699
129443,199975,264659,2.4251257050999997,-6.843472636,-6.356533236900001,700
129947,200007,264687,2.3114666316,-6.8159551761,-6.4749779556,701
130405,200049,264724,2.3389840915,-6.9379891287,-6.4857456573,702
130681,200054,264770,2.225325018,-6.9571317095,-6.4319071488,703
130671,200079,264741,2.4203400599,-6.8470618699,-6.4701923104,704
130575,200056,264745,2.1595223965,-6.9248286044,-6.3708901725,705
130547,200078,264688,2.3066809864,-6.8339013456,-6.479763600799999,706
130685,200090,264737,2.3174486881,-6.9104716688000005,-6.4319071488,707
130861,200097,264744,2.3832513096,-6.8542403377,-6.4139609793000005,708
131131,200134,264774,2.2935204621,-6.7633130788999996,-6.384050696799999,709
131359,200152,264834,2.2492532439999997,-6.753741788499999,-6.451049729599999,710
131593,200163,264806,2.344966148,-6.8051874744,-6.4749779556,711
131803,200196,264865,2.4634108667000003,-6.9535424756,-6.3792650516,712
132019,200219,264881,2.3114666316,-6.881757797600001,-6.3469619465000005,713
132163,200237,264835,2.321037922,-6.853043926400001,-6.355336825599999,714
132322,200244,264873,2.2444675988,-6.843472636,-6.34097989,715
132475,200266,264895,2.3772692530999997,-6.8685972733,-6.3708901725,716
132612,200253,264895,2.3964118339,-6.9332034835,-6.4414784392,717
132794,200278,264857,2.3258235672,-6.7298135625,-6.4031932776,718
132965,200311,264853,2.2444675988,-6.6915284009,-6.4079789228,719
133048,200284,264888,2.2121644937,-6.771687958,-6.422335858399999,720
132358,200249,264728,2.2923240508,-6.8051874744,-6.4749779556,721
130858,200099,264659,2.4251257050999997,-6.9714886451,-6.550351867499999,722
129526,199953,264493,2.3150558654999998,-6.81954441,-6.480960012100001,723
129074,199951,264525,2.1882362677000002,-6.9044896123,-6.437889205299999,724
129180,199952,264539,2.4490539311,-6.820740821299999,-6.4331035601,725
129535,200023,264640,2.3306092124,-6.8147587648000005,-6.451049729599999,726
129967,200070,264674,2.3258235672,-6.8578295716,-6.436692794,727
130491,200135,264774,2.3665015514,-6.853043926400001,-6.451049729599999,728
130979,200172,264690,2.3868405435,-6.9906312259000005,-6.4570317861,729
131195,200168,264729,2.3162522768000002,-6.7812592484,-6.388836342,730
131209,200145,264758,2.3545374384,-6.7381884416,-6.4115681567000005,731
131195,200175,264742,2.1930219129,-6.838686990799999,-6.369693761200001,732
131254,200180,264750,2.4909283265999997,-6.7010996913000005,-6.4462640844,733
131479,200198,264759,2.3066809864,-6.8925254993,-6.388836342,734
131731,200226,264774,2.4059831243,-6.7920269500999995,-6.4941205364000005,735
132005,200255,264789,2.4693929232,-6.8865434428,-6.5132631172,736
132324,200293,264816,2.4023938904,-6.7776700145,-6.4701923104,737
132601,200331,264819,2.3976082452,-6.786044893600001,-6.436692794,738
132879,200323,264835,2.3533410271,-6.7190458608,-6.3469619465000005,739
132961,200361,264887,2.2695922361,-6.795616184,-6.4235322697,740
133247,200377,264874,2.4215364712,-6.8853470315,-6.4139609793000005,741
133422,200406,264923,2.27318147,-6.7166530382000005,-6.3948183985,742
133634,200413,264894,2.3641087288000002,-6.8901326766999995,-6.4941205364000005,743
133849,200460,264960,2.3736800192,-6.8578295716,-6.3900327533,744
134050,200444,264989,2.4023938904,-6.8721865072,-6.4175502132,745
134138,200458,264903,2.3162522768000002,-6.8291157004,-6.4989061816,746
133540,200341,264836,2.321037922,-6.9714886451,-6.4043896889,747
132107,200229,264660,2.27318147,-6.823133643899999,-6.422335858399999,748
130778,200092,264564,2.3006989299,-6.8578295716,-6.46062102,749
130234,200075,264591,2.3832513096,-6.811169530899999,-6.3661045273,750
130224,200088,264630,2.3413769141,-6.9583281208,-6.4331035601,751
130426,200106,264652,2.3880369548,-6.7680987241,-6.3756758177,752
130752,200194,264649,2.2624137683,-6.7764736032,-6.5276200528,753
131197,200226,264766,2.2875384056,-6.8255264665,-6.4989061816,754
131680,200261,264724,2.3820548983,-6.918846547899999,-6.4905313025,755
131961,200280,264755,2.3389840915,-6.9906312259000005,-6.412764568,756
132124,200310,264816,2.3545374384,-6.9535424756,-6.5455662223,757
132049,200245,264753,2.368894374,-6.8961147332,-6.412764568,758
132080,200266,264795,2.3078773977,-6.7393848529,-6.4414784392,759
132256,200372,264802,2.3593230836,-6.8961147332,-6.5072810607,760
132463,200319,264805,2.2923240508,-6.891329088,-6.4462640844,761
132723,200375,264840,2.3976082452,-6.795616184,-6.451049729599999,762
133011,200354,264879,2.5052852621999997,-6.881757797600001,-6.4941205364000005,763
133237,200378,264852,2.3497517932000003,-6.8482582812,-6.4426748505,764
133469,200433,264889,2.3916261887,-6.6257257794,-6.422335858399999,765
133694,200440,264953,2.3593230836,-6.8733829185,-6.422335858399999,766
133876,200463,264918,2.3497517932000003,-6.9092752575,-6.4319071488,767
134034,200456,264880,2.3102702203,-6.7669023128,-6.3122660188,768
134206,200497,264843,2.3485553819,-6.8482582812,-6.4893348911999995,769
134336,200497,264877,2.5339991334,-6.8099731195999995,-6.484549246,770
134528,200513,264878,2.3497517932000003,-6.6915284009,-6.412764568,771
134682,200570,264913,2.3928226,-6.867400862,-6.385247108100001,772
134874,200572,264909,2.2540388892,-6.81954441,-6.480960012100001,773
134645,200484,264789,2.488535504,-6.9284178383,-6.3373906561,774
133379,200406,264734,2.2683958248,-6.7262243286,-6.4450676731,775
131871,200222,264642,2.5100709074,-6.9164537253,-6.412764568,776
130888,200194,264555,2.4155544147,-6.9332034835,-6.5036918268,777
130679,200216,264573,2.2683958248,-6.891329088,-6.422335858399999,778
130757,200270,264665,2.3676979627,-6.8865434428,-6.4331035601,779
131021,200316,264615,2.2779671152,-6.786044893600001,-6.479763600799999,780
131378,200301,264664,2.297109696,-6.7585274337,-6.4414784392,781
131827,200361,264748,2.2600209457,-6.8961147332,-6.5276200528,782
132125,200294,264802,2.3018953412000003,-6.686742755699999,-6.3996040437,783
132214,200368,264719,2.2205393728,-6.7908305388,-6.479763600799999,784
132189,200359,264711,2.2636101795999997,-6.9571317095,-6.4977097703,785
132181,200392,264691,2.4454646972,-6.963113765999999,-6.3708901725,786
132236,200358,264730,2.2683958248,-6.843472636,-6.4462640844,787
132425,200409,264754,2.344966148,-6.6723858201,-6.5419769884,788
132655,200432,264758,2.2695922361,-6.7776700145,-6.3996040437,789
132892,200461,264795,2.3964118339,-6.7776700145,-6.4785671895,790
133142,200460,264769,2.4825534475,-6.8590259828999995,-6.556333924,791
133369,200492,264777,2.3533410271,-6.9140609027,-6.4091753340999995,792
133554,200514,264847,2.368894374,-7.0133630406,-6.3936219871999995,793
133746,200557,264827,2.3868405435,-6.8769721524,-6.3996040437,794
133946,200525,264866,2.3318056236999998,-6.81954441,-6.4989061816,795
134137,200538,264846,2.1834506225,-6.782455659699999,-6.4271215036000005,796
134321,200555,264849,2.3401805028,-6.7728843693,-6.369693761200001,797
134567,200583,264827,2.4203400599,-6.7920269500999995,-6.3792650516,798
134718,200584,264838,2.2348963083999998,-6.782455659699999,-6.5072810607,799
134853,200605,264813,2.4825534475,-6.9104716688000005,-6.4079789228,800
135016,200601,264827,2.3593230836,-6.9308106609,-6.492924125099999,801
134798,200569,264797,2.4299113503,-6.8769721524,-6.4235322697,802
133774,200486,264659,2.3772692530999997,-6.8482582812,-6.5419769884,803
132456,200376,264566,2.4586252215,-6.8733829185,-6.5132631172,804
131703,200350,264558,2.4023938904,-6.7022961026,-6.5036918268,805
131514,200321,264548,2.344966148,-6.8255264665,-6.4187466245,806
131656,200436,264555,2.4825534475,-6.6723858201,-6.293123438,807
131909,200359,264646,2.297109696,-6.753741788499999,-6.388836342,808
132279,200389,264653,2.5196421978,-6.7992054179000005,-6.3505511804,809
132690,200453,264742,2.2827527603999997,-6.9056860235999995,-6.4187466245,810
132985,200475,264677,2.3736800192,-6.7441704981,-6.412764568,811
133132,200462,264695,2.3030917525,-6.6915284009,-6.4079789228,812
133096,200445,264602,2.3162522768000002,-6.891329088,-6.436692794,813
133087,200450,264669,2.3784656644,-6.7441704981,-6.356533236900001,814
133187,200489,264628,2.1643080417,-6.7680987241,-6.384050696799999,815
133384,200450,264641,2.3353948576,-6.8769721524,-6.4462640844,816
133638,200480,264646,2.321037922,-6.9104716688000005,-6.4701923104,817
133891,200502,264697,2.2839491717,-6.7764736032,-6.4833528347,818
134099,200506,264682,2.3928226,-6.8721865072,-6.4558353748,819
134335,200514,264652,2.3318056236999998,-6.786044893600001,-6.4319071488,820
134512,200549,264640,2.2588245344,-6.9535424756,-6.4091753340999995,821
134711,200565,264645,2.4203400599,-6.8578295716,-6.412764568,822
134884,200545,264712,2.368894374,-6.9009003784,-6.436692794,823
135080,200569,264708,2.5148565526000004,-6.934399894799999,-6.3984076324000005,824
135253,200519,264705,2.2636101795999997,-6.7872413049,-6.532405698,825
135418,200613,264667,2.2827527603999997,-6.8961147332,-6.3948183985,826
135548,200567,264714,2.476571391,-6.7058853365,-6.4319071488,827
135782,200570,264651,2.2887348169,-6.7776700145,-6.452246140900001,828
135866,200564,264658,2.2983061073,-6.7633130788999996,-6.3314085996000005,829
135780,200568,264618,2.2492532439999997,-6.9092752575,-6.3373906561,830
134971,200494,264507,2.3306092124,-6.8291157004,-6.4426748505,831
133800,200449,264420,2.3437697367,-6.8769721524,-6.3948183985,832
132926,200390,264430,2.2265214293,-7.0480589683,-6.4462640844,833
132659,200384,264435,2.3294128011,-6.866204450700001,-6.521637996299999,834
132768,200392,264537,2.2683958248,-6.8482582812,-6.4558353748,835
133052,200441,264529,2.4251257050999997,-6.8303121117,-6.4091753340999995,836
133402,200506,264556,2.3820548983,-6.867400862,-6.3756758177,837
133737,200483,264509,2.2719850587,-6.881757797600001,-6.4989061816,838
133993,200501,264551,2.4358934068,-6.9200429592,-6.5264236415,839
134042,200473,264546,2.297109696,-6.8051874744,-6.484549246,840
133968,200480,264505,2.3820548983,-6.8769721524,-6.451049729599999,841
133909,200487,264510,2.2636101795999997,-6.843472636,-6.4749779556,842
133983,200483,264539,2.2935204621,-6.8997039671,-6.2656059781,843
134114,200487,264516,2.3353948576,-6.8949183219000005,-6.3613188821,844
134323,200533,264524,2.2827527603999997,-6.838686990799999,-6.4175502132,845
134494,200530,264539,2.4011974791,-6.8626152168,-6.5036918268,846
134706,200556,264545,2.3736800192,-6.715456626899999,-6.305087551,847
134905,200549,264561,2.3162522768000002,-6.7764736032,-6.356533236900001,848
135103,200609,264575,2.4502503424,-6.8482582812,-6.5132631172,849
135243,200583,264576,2.3533410271,-6.831508523,-6.4163538019,850
135391,200560,264541,2.3150558654999998,-6.782455659699999,-6.385247108100001,851
135524,200577,264510,2.4059831243,-6.8482582812,-6.466603076499999,852
135633,200567,264594,2.3066809864,-6.839883402099999,-6.3134624300999995,853
135772,200615,264612,2.5770699402,-6.8626152168,-6.342176301299999,854
135957,200607,264494,2.2875384056,-6.948756830400001,-6.437889205299999,855
136060,200625,264545,2.2911276395,-6.9116680801,-6.4079789228,856
135704,200588,264495,2.4035903017,-6.948756830400001,-6.4271215036000005,857
134563,200435,264404,2.3545374384,-6.853043926400001,-6.4319071488,858
133091,200383,264336,2.1978075581,-6.8051874744,-6.502495415499999,859
132330,200355,264295,2.4203400599,-6.81954441,-6.5838513839,860
132075,200335,264350,2.4634108667000003,-6.9248286044,-6.3804614629,861
132152,200361,264359,2.3401805028,-6.7680987241,-6.4031932776,862
132337,200371,264403,2.4634108667000003,-6.9009003784,-6.5168523511,863
132656,200373,264495,2.4251257050999997,-6.849454692499999,-6.3900327533,864
132994,200430,264442,2.3641087288000002,-6.7633130788999996,-6.451049729599999,865
133210,200475,264426,2.321037922,-6.81954441,-6.5228344076,866
133253,200466,264476,2.4586252215,-6.8291157004,-6.4558353748,867
133180,200461,264408,2.3437697367,-6.880561386299999,-6.46062102,868
133112,200440,264379,2.2648065909,-6.7633130788999996,-6.3996040437,869
133216,200439,264436,2.2588245344,-6.9248286044,-6.4283179149,870
133352,200445,264485,2.4789642136,-6.9009003784,-6.388836342,871
133598,200475,264468,2.3258235672,-6.897311144500001,-6.356533236900001,872
133818,200500,264453,2.368894374,-6.7669023128,-6.412764568,873
134026,200490,264526,2.4634108667000003,-6.771687958,-6.4701923104,874
134207,200564,264544,2.4059831243,-6.786044893600001,-6.4319071488,875
134359,200548,264490,2.4299113503,-6.8865434428,-6.479763600799999,876
134512,200524,264516,2.3198415107,-6.853043926400001,-6.3792650516,877
134637,200545,264473,2.3306092124,-6.6819571105,-6.388836342,878
134817,200560,264541,2.3976082452,-6.7669023128,-6.3936219871999995,879
134909,200597,264521,2.440679052,-6.8063838857,-6.484549246,880
135075,200582,264539,2.3306092124,-6.8482582812,-6.532405698,881
135204,200619,264514,2.4071795356,-6.7058853365,-6.4654066652,882
135361,200592,264577,2.3605194949,-6.8015982405,-6.46062102,883
135459,200586,264536,2.4119651808,-6.8015982405,-6.452246140900001,884
134969,200520,264462,2.4681965119,-6.8004018292,-6.46062102,885
133507,200395,264353,2.3401805028,-6.725027917299999,-6.4749779556,886
131998,200244,264221,2.3593230836,-6.881757797600001,-6.4881384799,887
131126,200217,264266,2.2839491717,-6.8626152168,-6.4713887217,888
130939,200240,264292,2.4203400599,-6.843472636,-6.4893348911999995,889
131060,200245,264370,2.3581266723,-6.8291157004,-6.4654066652,890
131239,200249,264377,2.3114666316,-6.795616184,-6.412764568,891
131548,200291,264370,2.3030917525,-6.9523460643,-6.3996040437,892
131862,200339,264468,2.3114666316,-6.9056860235999995,-6.4570317861,893
132101,200311,264478,2.2911276395,-6.9571317095,-6.4749779556,894
132164,200341,264439,2.4430718746,-6.8291157004,-6.484549246,895
132077,200302,264438,2.2935204621,-6.7680987241,-6.3756758177,896
132034,200296,264454,2.2588245344,-6.81954441,-6.4689958991,897
132133,200316,264547,2.2935204621,-6.7776700145,-6.436692794,898
132318,200290,264500,2.3880369548,-6.8590259828999995,-6.4187466245,899
132551,200375,264545,2.2875384056,-6.867400862,-6.4941205364000005,900
132773,200370,264570,2.2408783649,-6.81954441,-6.4941205364000005,901
133025,200409,264607,2.3341984463,-6.795616184,-6.4031932776,902
133216,200386,264632,2.4023938904,-6.915257314,-6.4749779556,903
133407,200433,264652,2.5256242543,-6.7764736032,-6.3900327533,904
133587,200424,264636,2.2169501389,-6.8626152168,-6.3804614629,905
133745,200484,264654,2.3880369548,-6.838686990799999,-6.4414784392,906
133900,200446,264650,2.2456640101,-6.757331022400001,-6.4462640844,907
134013,200458,264650,2.3258235672,-6.8626152168,-6.3601224708,908
134159,200440,264659,2.2767707039,-6.8482582812,-6.4749779556,909
134292,200465,264711,2.416750826,-6.8482582812,-6.3936219871999995,910
134454,200496,264688,2.2983061073,-6.9248286044,-6.2656059781,911
134618,200474,264694,2.3497517932000003,-6.8769721524,-6.437889205299999,912
134637,200453,264746,2.3401805028,-6.838686990799999,-6.4654066652,913
133796,200342,264610,2.368894374,-6.7429740868,-6.4558353748,914
132173,200160,264448,2.4011974791,-6.8721865072,-6.4558353748,915
130806,200051,264373,2.2301106632,-7.0002025163,-6.384050696799999,916
130274,200006,264371,2.2683958248,-6.8638116281,-6.4893348911999995,917
130248,200009,264431,2.3222343333,-6.8961147332,-6.4079789228,918
130460,199996,264473,2.3820548983,-6.7429740868,-6.4043896889,919
130769,200080,264527,2.3198415107,-6.7896341275,-6.4414784392,920
131176,200103,264563,2.4454646972,-6.7908305388,-6.451049729599999,921
131602,200126,264584,2.4275185276999998,-6.7872413049,-6.5132631172,922
131827,200140,264627,2.4059831243,-6.839883402099999,-6.521637996299999,923
131825,200131,264582,2.3162522768000002,-6.8051874744,-6.4043896889,924
131705,200106,264648,2.3641087288000002,-6.93918554,-6.299105494500001,925
131692,200093,264637,2.3306092124,-6.6927248122,-6.521637996299999,926
131833,200145,264657,2.4155544147,-6.8350977569,-6.3936219871999995,927
132045,200163,264665,2.2492532439999997,-6.823133643899999,-6.3936219871999995,928
132310,200195,264681,2.2396819536,-6.8757757411,-6.4941205364000005,929
132592,200227,264745,2.2959132847,-6.7441704981,-6.412764568,930
132809,200227,264749,2.2863419943,-6.843472636,-6.532405698,931
133040,200220,264776,2.297109696,-6.8482582812,-6.484549246,932
133264,200270,264786,2.2648065909,-6.7669023128,-6.3792650516,933
133392,200284,264820,2.4634108667000003,-6.8614188055,-6.4414784392,934
133579,200262,264827,2.3784656644,-6.7585274337,-6.4319071488,935
133731,200264,264842,2.3485553819,-6.7585274337,-6.4271215036000005,936
133905,200308,264854,2.2923240508,-6.8147587648000005,-6.451049729599999,937
134073,200336,264865,2.3784656644,-6.7968125953,-6.4558353748,938
134276,200344,264815,2.2875384056,-6.9260250157000005,-6.3661045273,939
134442,200337,264881,2.4729821571,-6.849454692499999,-6.3517475917,940
134516,200351,264838,2.2157537276,-6.81954441,-6.4654066652,941
133982,200277,264774,2.3258235672,-6.8626152168,-6.364908116,942
132508,200090,264645,2.3401805028,-6.7393848529,-6.3948183985,943
131139,199937,264566,2.2636101795999997,-6.934399894799999,-6.4043896889,944
130522,199932,264549,2.2779671152,-6.7393848529,-6.4785671895,945
130497,199945,264626,2.3389840915,-6.811169530899999,-6.46062102,946
130754,199967,264667,2.4681965119,-6.891329088,-6.4043896889,947
131132,200009,264686,2.5160529638999996,-6.8721865072,-6.4139609793000005,948
131571,200041,264707,2.2348963083999998,-6.7010996913000005,-6.4319071488,949
131974,200158,264772,2.3162522768000002,-6.8015982405,-6.5132631172,950
132178,200119,264829,2.2779671152,-6.782455659699999,-6.452246140900001,951
132169,200108,264798,2.3114666316,-6.9200429592,-6.4462640844,952
132092,200085,264760,2.2935204621,-6.7728843693,-6.385247108100001,953
132064,200071,264820,2.2301106632,-6.9535424756,-6.3984076324000005,954
132222,200115,264814,2.3341984463,-6.7489561433,-6.3900327533,955
132489,200122,264808,2.4346969955,-6.7585274337,-6.4175502132,956
132753,200166,264869,2.344966148,-6.9020967897,-6.4558353748,957
133053,200183,264873,2.3784656644,-6.576672916100001,-6.4654066652,958
133277,200223,264967,2.3964118339,-6.771687958,-6.4462640844,959
133567,200223,264958,2.4107687694999997,-6.838686990799999,-6.3984076324000005,960
133754,200291,264952,2.3413769141,-6.8925254993,-6.521637996299999,961
133906,200290,264903,2.321037922,-6.728617151199999,-6.4283179149,962
134127,200267,265040,2.297109696,-6.8865434428,-6.5132631172,963
134285,200299,264977,2.2396819536,-6.8997039671,-6.342176301299999,964
134462,200322,264995,2.2695922361,-6.81954441,-6.3996040437,965
134646,200316,265004,2.368894374,-6.8542403377,-6.4175502132,966
134810,200334,265002,2.2683958248,-6.7872413049,-6.3792650516,967
134977,200351,265059,2.3341984463,-6.8626152168,-6.46062102,968
134593,200260,264967,2.4681965119,-6.8542403377,-6.3936219871999995,969
133235,200076,264862,2.4681965119,-6.8542403377,-6.3936219871999995,970
131590,199903,264661,2.4681965119,-6.8542403377,-6.3936219871999995,971
130651,199842,264681,2.4681965119,-6.8542403377,-6.3936219871999995,972
130412,199824,264682,2.4681965119,-6.8542403377,-6.3936219871999995,973
130552,199889,264742,2.4681965119,-6.8542403377,-6.3936219871999995,974
130811,199901,264730,2.3976082452,-6.8578295716,-6.5132631172,975
131167,199956,264773,2.3976082452,-6.8578295716,-6.5132631172,976
131587,200030,264832,2.2480568327,-6.8590259828999995,-6.4881384799,977
131908,200021,264851,2.27318147,-6.8733829185,-6.4139609793000005,978
132005,200040,264870,2.2588245344,-6.7441704981,-6.4139609793000005,979
131952,200014,264897,2.4454646972,-6.6484575941,-6.4701923104,980
131894,199996,264815,2.344966148,-6.838686990799999,-6.4283179149,981
131959,200000,264840,2.464607278,-6.8865434428,-6.4414784392,982
132144,200033,264907,2.3030917525,-6.976274290299999,-6.3936219871999995,983
132359,200056,264920,2.344966148,-6.7968125953,-6.5647088031,984
132634,200092,264934,2.2636101795999997,-6.824330055200001,-6.422335858399999,985
132949,200101,264993,2.3700907853,-6.7776700145,-6.4701923104,986
133144,200126,264963,2.3066809864,-6.867400862,-6.4079789228,987
133366,200143,264957,2.2444675988,-6.8255264665,-6.4175502132,988
133531,200144,265033,2.3341984463,-6.9619173547,-6.4558353748,989
133764,200175,265093,2.4023938904,-6.820740821299999,-6.4319071488,990
133916,200219,265022,2.3126630429,-6.7525453772,-6.3230337205,991
134061,200230,265057,2.3736800192,-6.6915284009,-6.4175502132,992
134230,200253,265097,2.3461625592999997,-6.9020967897,-6.4043896889,993
134391,200247,265076,2.4538395763,-6.8949183219000005,-6.3984076324000005,994
134570,200238,265025,2.4311077616,-6.843472636,-6.479763600799999,995
134752,200290,265134,2.4346969955,-6.8339013456,-6.3900327533,996
134518,200224,265090,2.4119651808,-6.9200429592,-6.422335858399999,997
133228,200028,264947,2.3401805028,-6.7728843693,-6.436692794,998
131477,199810,264742,2.1882362677000002,-6.838686990799999,-6.5228344076,999
130418,199719,264686,2.3066809864,-6.7908305388,-6.4893348911999995,1000
130097,199749,264666,2.3880369548,-6.8865434428,-6.3996040437,1001
130157,199729,264712,2.3497517932000003,-6.8339013456,-6.422335858399999,1002
130422,199791,264796,2.2540388892,-6.8566331603,-6.5036918268,1003
130741,199837,264820,2.297109696,-6.7441704981,-6.4558353748,1004
131204,199903,264849,2.3593230836,-6.9523460643,-6.532405698,1005
131500,199947,264890,2.3545374384,-6.6783678766,-6.546762633599999,1006
131637,199907,264905,2.3964118339,-6.8482582812,-6.4941205364000005,1007
131597,199897,264890,2.4873390927,-6.715456626899999,-6.4941205364000005,1008
131465,199898,264882,2.3976082452,-6.6532432393,-6.508477471999999,1009
131524,199889,264890,2.2636101795999997,-6.7106709817,-6.4893348911999995,1010
131655,199883,264963,2.3306092124,-6.7441704981,-6.4989061816,1011
131869,199935,264943,2.3904297774,-6.786044893600001,-6.46062102,1012
132119,199951,264948,2.4143580034,-6.8901326766999995,-6.412764568,1013
132347,199960,264997,2.3557338497,-6.7633130788999996,-6.4319071488,1014
132560,199994,264951,2.3198415107,-6.7872413049,-6.5036918268,1015
132767,200038,265062,2.4023938904,-6.723831506,-6.4713887217,1016
132933,200033,264960,2.3593230836,-6.8051874744,-6.436692794,1017
133110,200076,265046,2.3641087288000002,-6.8051874744,-6.436692794,1018
133224,200072,265082,2.3533410271,-6.948756830400001,-6.46062102,1019
133434,200072,265087,2.2923240508,-6.947560419099999,-6.532405698,1020
133563,200089,265097,2.3712871966,-6.7872413049,-6.4989061816,1021
133716,200093,265098,2.4119651808,-6.8004018292,-6.5407805771,1022
133853,200095,265112,2.3258235672,-6.7872413049,-6.355336825599999,1023
134032,200068,265121,2.4059831243,-6.867400862,-6.3326050109,1024
134010,200124,265169,2.2348963083999998,-6.824330055200001,-6.3804614629,1025
133044,199971,264984,2.3724836079,-6.851847515099999,-6.4175502132,1026
131332,199744,264773,2.2683958248,-6.9535424756,-6.5551375127,1027
130011,199603,264736,2.3258235672,-6.93918554,-6.4989061816,1028
129557,199594,264707,2.4023938904,-6.8578295716,-6.451049729599999,1029
129572,199615,264750,2.3952154226,-6.81954441,-6.464210253899999,1030
129867,199661,264809,2.3174486881,-6.811169530899999,-6.4426748505,1031
130188,199676,264779,2.2636101795999997,-6.8865434428,-6.384050696799999,1032
130619,199760,264923,2.4825534475,-6.771687958,-6.3804614629,1033
131007,199799,264896,2.3306092124,-6.8339013456,-6.3948183985,1034
131181,199813,264927,2.3545374384,-6.81954441,-6.451049729599999,1035
131111,199803,264871,2.368894374,-6.9535424756,-6.4043896889,1036
131023,199766,264917,2.2121644937,-6.8949183219000005,-6.4654066652,1037
130979,199792,264887,2.356930261,-6.8291157004,-6.5276200528,1038
131119,199828,264920,2.3318056236999998,-6.8757757411,-6.3984076324000005,1039
131361,199855,264946,2.1978075581,-6.7908305388,-6.384050696799999,1040
131627,199775,264932,2.4251257050999997,-6.853043926400001,-6.5694944482999995,1041
131885,199887,264968,2.4777678023000003,-6.8099731195999995,-6.4701923104,1042
132110,199930,265065,2.3258235672,-6.853043926400001,-6.422335858399999,1043
132328,199952,265020,2.3306092124,-6.8709900959,-6.4654066652,1044
132508,199941,265022,2.4873390927,-6.8159551761,-6.452246140900001,1045
132720,199984,265060,2.3054845751,-6.9619173547,-6.4462640844,1046
132878,200024,265085,2.368894374,-6.8303121117,-6.3661045273,1047
133093,200021,265099,2.2540388892,-6.881757797600001,-6.479763600799999,1048
133192,200008,265153,2.440679052,-6.8147587648000005,-6.3900327533,1049
133307,200044,265069,2.1930219129,-6.934399894799999,-6.4689958991,1050
133456,200046,265114,2.3593230836,-6.8350977569,-6.4319071488,1051
133472,200025,265102,2.2360927197000002,-6.8482582812,-6.355336825599999,1052
132622,199914,265025,2.3258235672,-6.7621166676,-6.4175502132,1053
131092,199690,264807,2.5304098995,-6.9858455806999995,-6.4426748505,1054
129809,199588,264710,2.3030917525,-6.8339013456,-6.4462640844,1055
129379,199525,264725,2.4251257050999997,-6.8291157004,-6.521637996299999,1056
129448,199587,264716,2.3593230836,-6.853043926400001,-6.388836342,1057
129748,199606,264797,2.3593230836,-6.853043926400001,-6.388836342,1058
130142,199644,264866,2.3593230836,-6.853043926400001,-6.388836342,1059
130652,199738,264893,2.3593230836,-6.853043926400001,-6.388836342,1060
131035,199794,264931,2.3593230836,-6.853043926400001,-6.388836342,1061
131206,199792,264931,2.3593230836,-6.853043926400001,-6.388836342,1062
131122,199764,264929,2.3593230836,-6.853043926400001,-6.388836342,1063
131024,199713,264870,2.3593230836,-6.853043926400001,-6.388836342,1064
131050,199757,264948,2.4598216327999998,-6.7776700145,-6.4941205364000005,1065
131214,199763,264893,2.4023938904,-6.8566331603,-6.4558353748,1066
131477,199804,264958,2.5016960283,-6.867400862,-6.4701923104,1067
131775,199843,265012,2.4299113503,-6.8374905795,-6.384050696799999,1068
132016,199871,265041,2.4299113503,-6.8374905795,-6.384050696799999,1069
132282,199899,265081,2.4299113503,-6.8374905795,-6.384050696799999,1070
132503,199940,265096,2.368894374,-6.715456626899999,-6.4989061816,1071
132715,199955,265158,2.3306092124,-6.7106709817,-6.4331035601,1072
132914,199951,265061,2.4777678023000003,-6.7393848529,-6.4175502132,1073
133045,199972,265101,2.3545374384,-6.8626152168,-6.4689958991,1074
133194,199987,265146,2.4023938904,-6.8327049343,-6.4091753340999995,1075
133389,200009,265132,2.2456640101,-6.8339013456,-6.452246140900001,1076
133596,200028,265114,2.4011974791,-6.9200429592,-6.4713887217,1077
133757,200039,265108,2.3676979627,-6.867400862,-6.369693761200001,1078
133582,199981,265094,2.3581266723,-6.8255264665,-6.436692794,1079
132310,199752,265008,2.3581266723,-6.8255264665,-6.436692794,1080
130588,199550,264741,2.3581266723,-6.8255264665,-6.436692794,1081
129441,199426,264641,2.3581266723,-6.8255264665,-6.436692794,1082
129085,199397,264647,2.3581266723,-6.8255264665,-6.436692794,1083
129195,199430,264699,2.2301106632,-6.8099731195999995,-6.342176301299999,1084
129423,199503,264738,2.3258235672,-6.9463640078,-6.364908116,1085
129781,199560,264781,2.4490539311,-6.838686990799999,-6.3900327533,1086
130212,199611,264878,2.4011974791,-6.843472636,-6.3134624300999995,1087
130573,199643,264917,2.3114666316,-6.7872413049,-6.5276200528,1088
130736,199652,264890,2.27318147,-6.7106709817,-6.436692794,1089
130662,199619,264841,2.3401805028,-6.838686990799999,-6.484549246,1090
130597,199604,264879,2.3401805028,-6.838686990799999,-6.484549246,1091
130618,199619,264922,2.3401805028,-6.838686990799999,-6.484549246,1092
130784,199655,264850,2.3401805028,-6.838686990799999,-6.484549246,1093
131044,199656,264895,2.3401805028,-6.838686990799999,-6.484549246,1094
131279,199703,264947,2.3401805028,-6.838686990799999,-6.484549246,1095
131571,199716,264999,2.3401805028,-6.838686990799999,-6.484549246,1096
131827,199781,264966,2.3401805028,-6.838686990799999,-6.484549246,1097
132043,199811,264994,2.3401805028,-6.838686990799999,-6.484549246,1098
132243,199837,265025,2.3401805028,-6.838686990799999,-6.484549246,1099
132428,199848,265099,2.3401805028,-6.838686990799999,-6.484549246,1100
132617,199836,265097,2.3401805028,-6.838686990799999,-6.484549246,1101
132727,199856,265079,2.3401805028,-6.838686990799999,-6.484549246,1102
132912,199884,265123,2.3401805028,-6.838686990799999,-6.484549246,1103
133093,199854,265112,2.3401805028,-6.838686990799999,-6.484549246,1104
133310,199936,265089,2.3401805028,-6.838686990799999,-6.484549246,1105
133283,199924,265054,2.3401805028,-6.838686990799999,-6.484549246,1106
132272,199747,264933,2.3401805028,-6.838686990799999,-6.484549246,1107
130517,199528,264759,2.3401805028,-6.838686990799999,-6.484549246,1108
129234,199285,264597,2.2396819536,-6.8147587648000005,-6.4187466245,1109
128793,199340,264614,2.2396819536,-6.8147587648000005,-6.4187466245,1110
128857,199353,264658,2.2396819536,-6.8147587648000005,-6.4187466245,1111
129078,199381,264725,2.2396819536,-6.8147587648000005,-6.4187466245,1112
129388,199424,264735,2.3294128011,-6.8291157004,-6.518048762399999,1113
129862,199548,264868,2.2875384056,-6.9092752575,-6.364908116,1114
130245,199573,264887,2.3880369548,-6.7680987241,-6.479763600799999,1115
130418,199551,264836,2.416750826,-6.7872413049,-6.4749779556,1116
130426,199520,264908,2.5220350203999997,-6.8721865072,-6.4414784392,1117
130315,199521,264852,2.4059831243,-6.8769721524,-6.518048762399999,1118
130347,199538,264816,2.3736800192,-6.8578295716,-6.451049729599999,1119
130489,199567,264879,2.5028924396,-6.839883402099999,-6.4043896889,1120
130727,199599,264912,2.3054845751,-6.8051874744,-6.4474604957,1121
131026,199622,264997,2.368894374,-6.824330055200001,-6.451049729599999,1122
131293,199677,265021,2.3497517932000003,-6.8291157004,-6.4785671895,1123
131551,199673,264999,2.3497517932000003,-6.8291157004,-6.4785671895,1124
131742,199677,265009,2.3497517932000003,-6.8291157004,-6.4785671895,1125
131981,199717,265040,2.3497517932000003,-6.8291157004,-6.4785671895,1126
132119,199733,264995,2.3497517932000003,-6.8291157004,-6.4785671895,1127
132260,199757,265037,2.3497517932000003,-6.8291157004,-6.4785671895,1128
132406,199791,265089,2.3497517932000003,-6.8291157004,-6.4785671895,1129
132602,199762,265056,2.3497517932000003,-6.8291157004,-6.4785671895,1130
132770,199817,265052,2.3497517932000003,-6.8291157004,-6.4785671895,1131
132949,199803,265069,2.3497517932000003,-6.8291157004,-6.4785671895,1132
132955,199822,265078,2.3497517932000003,-6.8291157004,-6.4785671895,1133
132255,199711,264958,2.3497517932000003,-6.8291157004,-6.4785671895,1134
130630,199432,264847,2.2791635265,-6.8147587648000005,-6.388836342,1135
129188,199263,264659,2.2791635265,-6.8147587648000005,-6.388836342,1136
128587,199233,264662,2.2791635265,-6.8147587648000005,-6.388836342,1137
128571,199232,264713,2.2791635265,-6.8147587648000005,-6.388836342,1138
128801,199302,264712,2.2791635265,-6.8147587648000005,-6.388836342,1139
129106,199325,264834,2.2791635265,-6.8147587648000005,-6.388836342,1140
129551,199413,264833,2.4071795356,-6.7776700145,-6.4941205364000005,1141
130035,199468,264911,2.4071795356,-6.7776700145,-6.4941205364000005,1142
130302,199487,264940,2.4011974791,-6.8159551761,-6.3613188821,1143
130231,199463,264901,2.4442682859,-6.7908305388,-6.4462640844,1144
130088,199460,264896,2.3928226,-6.9236321931,-6.4187466245,1145
130097,199459,264871,2.3928226,-6.9236321931,-6.4187466245,1146
130212,199455,264899,2.3928226,-6.9236321931,-6.4187466245,1147
130437,199508,264893,2.3928226,-6.9236321931,-6.4187466245,1148
130704,199524,264911,2.3928226,-6.9236321931,-6.4187466245,1149
131007,199568,265014,2.3928226,-6.9236321931,-6.4187466245,1150
131260,199634,265011,2.3928226,-6.9236321931,-6.4187466245,1151
131505,199618,265006,2.3928226,-6.9236321931,-6.4187466245,1152
131707,199658,265008,2.3928226,-6.9236321931,-6.4187466245,1153
131862,199674,265062,2.3928226,-6.9236321931,-6.4187466245,1154
132037,199700,265067,2.3928226,-6.9236321931,-6.4187466245,1155
132209,199761,265088,2.3928226,-6.9236321931,-6.4187466245,1156
132374,199747,265080,2.3928226,-6.9236321931,-6.4187466245,1157
132552,199761,265121,2.3928226,-6.9236321931,-6.4187466245,1158
132729,199752,265122,2.3928226,-6.9236321931,-6.4187466245,1159
132669,199777,265124,2.3928226,-6.9236321931,-6.4187466245,1160
131629,199584,264926,2.3928226,-6.9236321931,-6.4187466245,1161
130040,199402,264796,2.3928226,-6.9236321931,-6.4187466245,1162
128965,199250,264695,2.3928226,-6.9236321931,-6.4187466245,1163
128663,199247,264685,2.3928226,-6.9236321931,-6.4187466245,1164
128797,199294,264750,2.3928226,-6.9236321931,-6.4187466245,1165
129068,199353,264833,2.3928226,-6.9236321931,-6.4187466245,1166
129477,199421,264883,2.4155544147,-6.8291157004,-6.3984076324000005,1167
130000,199466,264897,2.4155544147,-6.8291157004,-6.3984076324000005,1168
130332,199496,264950,2.4155544147,-6.8291157004,-6.3984076324000005,1169
130372,199516,264947,2.4155544147,-6.8291157004,-6.3984076324000005,1170
130205,199488,264911,2.3389840915,-6.7489561433,-6.4749779556,1171
130156,199445,264955,2.27318147,-6.782455659699999,-6.412764568,1172
130212,199483,264908,2.3629123174999997,-6.7489561433,-6.4414784392,1173
130411,199506,264962,2.3258235672,-6.8482582812,-6.3517475917,1174
130670,199542,264947,2.2779671152,-6.786044893600001,-6.4989061816,1175
130955,199574,264965,2.4203400599,-6.9439711852,-6.4043896889,1176
131249,199629,265028,2.3270199785,-6.824330055200001,-6.5036918268,1177
131521,199658,265035,2.4203400599,-6.838686990799999,-6.4749779556,1178
131758,199706,265071,2.4203400599,-6.838686990799999,-6.4749779556,1179
131937,199698,265096,2.4502503424,-6.8051874744,-6.4989061816,1180
132134,199703,265144,2.3676979627,-6.9200429592,-6.4893348911999995,1181
132313,199755,265116,2.2025932033,-6.915257314,-6.3996040437,1182
132546,199767,265133,2.4203400599,-6.8147587648000005,-6.4175502132,1183
132731,199765,265113,2.3880369548,-6.783652071000001,-6.385247108100001,1184
132785,199759,265182,2.3353948576,-6.7776700145,-6.4426748505,1185
131918,199621,265007,2.3114666316,-6.8961147332,-6.376872229,1186
130278,199357,264777,2.4107687694999997,-6.8482582812,-6.5647088031,1187
129031,199259,264710,2.4394826406999996,-6.81954441,-6.508477471999999,1188
128580,199234,264706,2.4059831243,-6.8063838857,-6.46062102,1189
128654,199224,264700,2.368894374,-6.9583281208,-6.4031932776,1190
128828,199299,264741,2.3964118339,-6.839883402099999,-6.452246140900001,1191
129201,199301,264814,2.4586252215,-6.7477597320000005,-6.385247108100001,1192
129693,199402,264846,2.3497517932000003,-7.0444697344,-6.4546389635,1193
130173,199462,264916,2.4598216327999998,-6.915257314,-6.4043896889,1194
130431,199449,264949,2.3832513096,-6.9200429592,-6.4139609793000005,1195
130431,199479,264922,2.1918255016,-6.7633130788999996,-6.4414784392,1196
130383,199481,264928,2.3306092124,-6.7633130788999996,-6.4462640844,1197
130430,199441,264906,2.3784656644,-6.843472636,-6.492924125099999,1198
130643,199482,264921,2.3736800192,-6.867400862,-6.4462640844,1199
130861,199480,264982,2.3641087288000002,-6.853043926400001,-6.4319071488,1200
131256,199562,265013,2.3102702203,-6.867400862,-6.4031932776,1201
131576,199604,265064,2.2839491717,-6.891329088,-6.4941205364000005,1202
131859,199644,265116,2.4119651808,-6.7680987241,-6.3708901725,1203
132117,199714,265135,2.3401805028,-6.824330055200001,-6.484549246,1204
132405,199699,265164,2.2683958248,-6.6819571105,-6.327819365700001,1205
132575,199721,265148,2.3401805028,-6.880561386299999,-6.484549246,1206
132779,199739,265170,2.4873390927,-6.8291157004,-6.3326050109,1207
132997,199794,265206,2.3976082452,-6.8015982405,-6.4654066652,1208
133182,199803,265191,2.3581266723,-6.9092752575,-6.412764568,1209
133439,199830,265214,2.4251257050999997,-6.7585274337,-6.4139609793000005,1210
133696,199893,265218,2.4550359876,-6.7680987241,-6.46062102,1211
133725,199840,265218,2.3820548983,-6.687939167000001,-6.3792650516,1212
132887,199740,265091,2.2492532439999997,-6.723831506,-6.4426748505,1213
131284,199477,264917,2.3976082452,-6.8099731195999995,-6.4594246087,1214
130081,199336,264805,2.368894374,-6.753741788499999,-6.532405698,1215
129587,199297,264753,2.3066809864,-6.7872413049,-6.4079789228,1216
129642,199324,264819,2.2492532439999997,-6.7872413049,-6.3661045273,1217
129916,199388,264843,2.2863419943,-6.7680987241,-6.4689958991,1218
130295,199419,264892,2.2025932033,-6.853043926400001,-6.356533236900001,1219
130746,199529,265006,2.2037896146,-6.867400862,-6.5072810607,1220
131200,199504,265027,2.3114666316,-6.8291157004,-6.518048762399999,1221
131443,199530,265013,2.4299113503,-6.9583281208,-6.4271215036000005,1222
131506,199576,265010,2.2408783649,-6.8949183219000005,-6.4749779556,1223
131486,199573,265042,2.2444675988,-6.843472636,-6.3661045273,1224
131555,199568,264989,2.4442682859,-6.8099731195999995,-6.5276200528,1225
131713,199606,264999,2.4155544147,-6.843472636,-6.412764568,1226
131990,199629,265031,2.3306092124,-6.9009003784,-6.3086767849,1227
132315,199664,265110,2.3676979627,-6.786044893600001,-6.484549246,1228
132587,199741,265126,2.4394826406999996,-6.7190458608,-6.437889205299999,1229
132882,199749,265175,2.3533410271,-6.8829542089,-6.4091753340999995,1230
133107,199793,265146,2.3318056236999998,-6.8578295716,-6.479763600799999,1231
133296,199780,265182,2.2683958248,-6.7920269500999995,-6.4654066652,1232
133509,199845,265204,2.3437697367,-6.838686990799999,-6.4701923104,1233
133699,199834,265216,2.3437697367,-6.8004018292,-6.4187466245,1234
133873,199866,265217,2.2779671152,-6.8578295716,-6.451049729599999,1235
134064,199901,265201,2.2779671152,-6.8997039671,-6.452246140900001,1236
134254,199922,265242,2.4059831243,-6.8291157004,-6.436692794,1237
134503,199933,265347,2.3066809864,-6.9535424756,-6.436692794,1238
134700,199989,265315,2.416750826,-6.8015982405,-6.6089760212,1239
134627,199939,265223,2.4251257050999997,-6.6963140460999995,-6.451049729599999,1240
133655,199775,265107,2.3497517932000003,-6.8626152168,-6.3708901725,1241
132304,199594,265001,2.225325018,-6.782455659699999,-6.4043896889,1242
131503,199534,264875,2.3018953412000003,-6.853043926400001,-6.4426748505,1243
131316,199572,264882,2.3928226,-6.6819571105,-6.4414784392,1244
131519,199596,264931,2.4574288102,-6.881757797600001,-6.3984076324000005,1245
131784,199639,265023,2.4394826406999996,-6.771687958,-6.3134624300999995,1246
132174,199710,265005,2.4263221164,-6.795616184,-6.3517475917,1247
132692,199827,265044,2.321037922,-6.8757757411,-6.5371913432,1248
133120,199857,265129,2.368894374,-6.9284178383,-6.4091753340999995,1249
133332,199829,265152,2.1320049366,-6.987041992,-6.4749779556,1250
133409,199852,265124,2.27318147,-6.8147587648000005,-6.46062102,1251
133487,199856,265126,2.3497517932000003,-6.915257314,-6.484549246,1252
133652,199896,265147,2.2061824372,-6.853043926400001,-6.3984076324000005,1253
133931,199926,265157,2.3341984463,-6.8015982405,-6.532405698,1254
134258,199981,265215,2.2588245344,-6.8638116281,-6.3756758177,1255
134601,200025,265286,2.2217357841,-6.6963140460999995,-6.451049729599999,1256
134915,200045,265294,2.3772692530999997,-6.838686990799999,-6.4689958991,1257
135251,200094,265373,2.3258235672,-6.8063838857,-6.3577296482,1258
135526,200157,265317,2.285145583,-6.9332034835,-6.4749779556,1259
135825,200154,265418,2.3401805028,-6.8997039671,-6.4462640844,1260
136056,200209,265367,2.3629123174999997,-6.9140609027,-6.437889205299999,1261
136346,200244,265394,2.3784656644,-6.9439711852,-6.479763600799999,1262
136611,200242,265388,2.3066809864,-6.8721865072,-6.5742800935,1263
136897,200294,265364,2.2648065909,-6.753741788499999,-6.4079789228,1264
137170,200298,265388,2.4023938904,-6.9918276372,-6.4019968663,1265
137456,200323,265434,2.2923240508,-6.9726850564,-6.3469619465000005,1266
137402,200303,265401,2.2588245344,-6.7489561433,-6.3457655352,1267
136761,200186,265249,2.3533410271,-6.915257314,-6.4462640844,1268
135797,200093,265134,2.2540388892,-6.9200429592,-6.532405698,1269
135302,200031,265147,2.3258235672,-6.881757797600001,-6.5228344076,1270
135255,200031,265130,2.3724836079,-6.782455659699999,-6.46062102,1271
135462,200057,265230,2.2241286067,-6.7298135625,-6.3373906561,1272
135759,200120,265245,2.3880369548,-6.7764736032,-6.3469619465000005,1273
136146,200183,265234,2.321037922,-6.6951176348,-6.3661045273,1274
136602,200229,265334,2.2265214293,-6.9523460643,-6.4749779556,1275
136946,200240,265335,2.3078773977,-6.8482582812,-6.3661045273,1276
137031,200256,265381,2.4215364712,-6.798009006599999,-6.4893348911999995,1277
137100,200262,265296,2.2552353005,-6.9332034835,-6.4701923104,1278
137210,200284,265304,2.2456640101,-6.9667029999,-6.531209286699999,1279
137405,200253,265419,2.3066809864,-6.8015982405,-6.3948183985,1280
137598,200321,265361,2.3928226,-6.881757797600001,-6.436692794,1281
137886,200331,265424,2.1595223965,-6.8291157004,-6.58026215,1282
138148,200374,265447,2.2492532439999997,-6.8004018292,-6.4319071488,1283
138455,200403,265471,2.1942183242,-6.7202422721,-6.3948183985,1284
138692,200437,265531,2.4538395763,-6.8542403377,-6.412764568,1285
138949,200452,265460,2.4442682859,-6.9284178383,-6.4426748505,1286
139194,200487,265459,2.321037922,-6.867400862,-6.4235322697,1287
139387,200504,265579,2.2025932033,-6.915257314,-6.46062102,1288
139569,200528,265557,2.3545374384,-6.881757797600001,-6.484549246,1289
139784,200533,265534,2.4394826406999996,-6.843472636,-6.502495415499999,1290
139983,200572,265566,2.2875384056,-6.8685972733,-6.4091753340999995,1291
140186,200560,265599,2.4681965119,-6.8339013456,-6.452246140900001,1292
140286,200543,265551,2.2121644937,-6.782455659699999,-6.369693761200001,1293
139750,200437,265439,2.3102702203,-6.81954441,-6.5168523511,1294
138763,200304,265311,2.3114666316,-6.8303121117,-6.4079789228,1295
137836,200209,265178,2.4251257050999997,-6.8865434428,-6.4331035601,1296
137395,200184,265182,2.4681965119,-6.8829542089,-6.451049729599999,1297
137249,200196,265237,2.4358934068,-6.9200429592,-6.3792650516,1298
137421,200192,265253,2.3772692530999997,-6.81954441,-6.4654066652,1299
137515,200254,265321,2.4155544147,-6.8291157004,-6.436692794,1300
137768,200282,265311,2.2169501389,-6.7190458608,-6.4713887217,1301
138053,200337,265369,2.4454646972,-6.8147587648000005,-6.4331035601,1302
138259,200343,265330,2.3353948576,-6.7202422721,-6.5132631172,1303
138290,200334,265381,2.3341984463,-6.7669023128,-6.412764568,1304
138246,200285,265397,2.5016960283,-6.843472636,-6.4893348911999995,1305
138286,200318,265388,2.2779671152,-6.918846547899999,-6.466603076499999,1306
138403,200362,265403,2.2875384056,-6.9439711852,-6.4474604957,1307
138562,200403,265455,2.4586252215,-6.7633130788999996,-6.342176301299999,1308
138796,200424,265434,2.452643165,-6.8769721524,-6.435496382699999,1309
138970,200438,265482,2.3976082452,-6.757331022400001,-6.422335858399999,1310
139186,200451,265502,2.3389840915,-6.867400862,-6.4558353748,1311
139386,200496,265499,2.3629123174999997,-6.9140609027,-6.4701923104,1312
139571,200490,265472,2.4933211492,-6.7202422721,-6.4941205364000005,1313
139727,200500,265525,2.2540388892,-6.838686990799999,-6.4785671895,1314
139864,200517,265600,2.3784656644,-6.795616184,-6.4414784392,1315
139950,200583,265536,2.3066809864,-6.8099731195999995,-6.479763600799999,1316
140111,200545,265585,2.27318147,-6.7298135625,-6.46062102,1317
140280,200552,265611,2.3509482045,-6.8877398540999994,-6.5001025929,1318
140429,200547,265609,2.3246271559,-7.0097738067,-6.46062102,1319
140573,200597,265624,2.3150558654999998,-6.843472636,-6.4558353748,1320
140205,200493,265501,2.3653051401,-6.7477597320000005,-6.422335858399999,1321
139114,200341,265338,2.297109696,-6.673582231399999,-6.3469619465000005,1322
137818,200191,265212,2.3114666316,-6.8339013456,-6.5228344076,1323
137033,200078,265143,2.3641087288000002,-6.8446690473,-6.3517475917,1324
136720,200128,265213,2.4346969955,-6.8051874744,-6.381657874199999,1325
136671,200166,265217,2.4358934068,-6.8961147332,-6.5276200528,1326
136785,200199,265277,2.3581266723,-6.7669023128,-6.4319071488,1327
136981,200211,265312,2.3018953412000003,-6.8051874744,-6.4319071488,1328
137287,200259,265314,2.3593230836,-6.915257314,-6.4654066652,1329
137457,200273,265327,2.3772692530999997,-6.8721865072,-6.4426748505,1330
137492,200280,265345,2.3294128011,-6.8578295716,-6.521637996299999,1331
137394,200255,265336,2.3605194949,-6.7441704981,-6.436692794,1332
137332,200300,265417,2.2588245344,-6.8578295716,-6.3936219871999995,1333
137406,200302,265368,2.4430718746,-6.7669023128,-6.492924125099999,1334
137556,200295,265323,2.2157537276,-6.7812592484,-6.46062102,1335
137733,200336,265409,2.4191436486,-6.8590259828999995,-6.4271215036000005,1336
137946,200320,265442,2.2408783649,-6.8626152168,-6.4558353748,1337
138103,200334,265406,2.213360905,-6.8051874744,-6.388836342,1338
138289,200376,265458,2.1882362677000002,-6.7920269500999995,-6.4749779556,1339
138436,200385,265461,2.3820548983,-6.824330055200001,-6.5647088031,1340
138577,200362,265430,2.1882362677000002,-6.7058853365,-6.4079789228,1341
138709,200428,265446,2.4586252215,-6.8004018292,-6.46062102,1342
138831,200426,265506,2.3605194949,-6.6532432393,-6.3900327533,1343
138931,200411,265477,2.3593230836,-6.8350977569,-6.3900327533,1344
139115,200410,265483,2.3066809864,-6.7920269500999995,-6.46062102,1345
139176,200445,265543,2.3114666316,-6.8482582812,-6.5276200528,1346
139314,200449,265526,2.3820548983,-6.849454692499999,-6.466603076499999,1347
139321,200454,265544,2.4023938904,-6.9439711852,-6.388836342,1348
138707,200334,265456,2.3437697367,-6.7429740868,-6.412764568,1349
137330,200118,265237,2.3880369548,-6.8004018292,-6.3804614629,1350
136001,199985,265140,2.3174486881,-6.7968125953,-6.4558353748,1351
135281,200002,265018,2.3832513096,-6.9009003784,-6.4319071488,1352
135086,199958,265051,2.3162522768000002,-6.8339013456,-6.364908116,1353
135084,199989,265177,2.4011974791,-6.7920269500999995,-6.3086767849,1354
135274,200024,265177,2.3162522768000002,-6.8099731195999995,-6.4319071488,1355
135485,200089,265165,2.4681965119,-6.7585274337,-6.4654066652,1356
135757,200117,265234,2.3772692530999997,-6.8063838857,-6.484549246,1357
135870,200091,265238,2.2875384056,-6.9009003784,-6.479763600799999,1358
135845,200127,265213,2.2683958248,-6.6305114246,-6.436692794,1359
135712,200108,265268,2.3114666316,-6.8721865072,-6.464210253899999,1360
135635,200099,265203,2.4059831243,-6.8446690473,-6.436692794,1361
135666,200103,265261,2.4011974791,-6.8853470315,-6.502495415499999,1362
135872,200097,265242,2.27318147,-6.8578295716,-6.3936219871999995,1363
136011,200167,265240,2.2779671152,-6.725027917299999,-6.4761743669,1364
136193,200151,265278,2.2839491717,-6.838686990799999,-6.484549246,1365
136429,200124,265297,2.1930219129,-6.8482582812,-6.4462640844,1366
136618,200242,265325,2.2492532439999997,-6.915257314,-6.4319071488,1367
136779,200263,265360,2.3437697367,-6.838686990799999,-6.4474604957,1368
136915,200264,265361,2.4263221164,-6.7908305388,-6.3996040437,1369
137062,200311,265356,2.4622144554,-6.7812592484,-6.3230337205,1370
137225,200279,265362,2.4358934068,-6.8733829185,-6.508477471999999,1371
137337,200283,265373,2.3258235672,-6.915257314,-6.4749779556,1372
137467,200313,265421,2.3246271559,-6.853043926400001,-6.4031932776,1373
137638,200320,265373,2.3174486881,-6.976274290299999,-6.4187466245,1374
137743,200323,265452,2.4394826406999996,-6.8626152168,-6.4175502132,1375
137394,200266,265366,2.2636101795999997,-6.7669023128,-6.3936219871999995,1376
136190,200103,265149,2.3928226,-6.771687958,-6.484549246,1377
134789,199932,265018,2.3198415107,-6.8135623535,-6.4654066652,1378
133960,199867,264992,2.2540388892,-6.8626152168,-6.46062102,1379
133741,199845,264999,2.3868405435,-6.849454692499999,-6.451049729599999,1380
133812,199901,265008,2.2791635265,-6.8291157004,-6.384050696799999,1381
134044,199919,265094,2.4454646972,-6.8051874744,-6.3517475917,1382
134398,199991,265115,2.3114666316,-6.8255264665,-6.422335858399999,1383
134734,200017,265198,2.2875384056,-6.8961147332,-6.436692794,1384
134893,200020,265156,2.3868405435,-6.8303121117,-6.4893348911999995,1385
134837,200028,265164,2.2600209457,-6.8099731195999995,-6.4175502132,1386
134662,200019,265128,2.3389840915,-6.8721865072,-6.4271215036000005,1387
134610,200012,265110,2.2348963083999998,-6.987041992,-6.5036918268,1388
134677,199994,265134,2.4107687694999997,-6.838686990799999,-6.4749779556,1389
134840,200007,265167,2.2887348169,-6.9200429592,-6.3038911397,1390
135071,200089,265182,2.4586252215,-6.795616184,-6.5264236415,1391
135282,200082,265237,2.3150558654999998,-6.8159551761,-6.4701923104,1392
135522,200099,265213,2.4251257050999997,-6.8099731195999995,-6.4139609793000005,1393
135753,200116,265266,2.3485553819,-6.7764736032,-6.3457655352,1394
135942,200155,265230,2.3832513096,-6.838686990799999,-6.559923157899999,1395
136113,200194,265292,2.2348963083999998,-6.866204450700001,-6.4319071488,1396
136242,200197,265357,2.368894374,-6.7585274337,-6.4426748505,1397
136384,200201,265313,2.368894374,-6.851847515099999,-6.4893348911999995,1398
136569,200186,265320,2.3066809864,-6.8949183219000005,-6.556333924,1399
136748,200244,265310,2.3365912689,-6.9236321931,-6.388836342,1400
136895,200283,265332,2.1451654609,-6.7585274337,-6.4091753340999995,1401
136769,200199,265293,2.4107687694999997,-6.6963140460999995,-6.3900327533,1402
135660,200041,265080,2.3676979627,-6.843472636,-6.4462640844,1403
134021,199782,264957,2.1547367513,-6.880561386299999,-6.4701923104,1404
132802,199690,264871,2.2636101795999997,-6.853043926400001,-6.5647088031,1405
132242,199607,264811,2.1966111468,-6.8147587648000005,-6.518048762399999,1406
132169,199669,264868,2.4622144554,-6.7585274337,-6.4079789228,1407
132315,199675,264888,2.3114666316,-6.8721865072,-6.2237315826,1408
132592,199752,264908,2.5830519966999996,-6.8015982405,-6.4893348911999995,1409
132972,199801,264995,2.3306092124,-6.771687958,-6.4881384799,1410
133307,199828,265048,2.1643080417,-6.7776700145,-6.3230337205,1411
133413,199839,265032,2.2791635265,-6.9619173547,-6.4893348911999995,1412
133311,199813,265021,2.3868405435,-6.8015982405,-6.4941205364000005,1413
133204,199820,264992,2.3174486881,-6.8578295716,-6.5228344076,1414
133203,199809,265032,2.2683958248,-6.853043926400001,-6.521637996299999,1415
133332,199819,265000,2.3736800192,-6.881757797600001,-6.6125652551,1416
133536,199858,265060,2.1930219129,-6.8339013456,-6.5371913432,1417
133790,199878,265072,2.2636101795999997,-6.8721865072,-6.436692794,1418
134029,199876,265134,2.500499617,-6.7058853365,-6.3984076324000005,1419
134266,199910,265144,2.2265214293,-6.839883402099999,-6.4414784392,1420
134514,199960,265132,2.3629123174999997,-6.8015982405,-6.4079789228,1421
134662,200000,265139,2.3724836079,-6.7585274337,-6.3936219871999995,1422
134805,199888,265116,2.3066809864,-6.7585274337,-6.4414784392,1423
134978,199989,265190,2.3174486881,-6.8159551761,-6.356533236900001,1424
135131,199990,265216,2.3246271559,-6.8063838857,-6.4701923104,1425
135253,200038,265186,2.452643165,-6.8099731195999995,-6.4654066652,1426
135460,200049,265187,2.4023938904,-6.7202422721,-6.484549246,1427
135643,200067,265257,2.2636101795999997,-6.9379891287,-6.46062102,1428
135669,200061,265237,2.3641087288000002,-6.8374905795,-6.5515482788,1429
134801,199911,265079,2.3748764305,-6.7058853365,-6.3996040437,1430
133047,199702,264861,2.3114666316,-6.843472636,-6.4654066652,1431
131524,199494,264700,2.2827527603999997,-6.838686990799999,-6.4474604957,1432
130758,199429,264695,2.4358934068,-6.9954168711,-6.385247108100001,1433
130641,199418,264676,2.2588245344,-6.839883402099999,-6.4031932776,1434
130798,199520,264741,2.4538395763,-6.7621166676,-6.4558353748,1435
130957,199518,264837,2.3437697367,-6.9379891287,-6.3792650516,1436
131370,199574,264873,2.344966148,-6.795616184,-6.5982083195,1437
131743,199628,264855,2.3772692530999997,-6.849454692499999,-6.5371913432,1438
131923,199619,264880,2.3054845751,-6.753741788499999,-6.422335858399999,1439
131927,199622,264876,2.3533410271,-6.8578295716,-6.4701923104,1440
131828,199644,264837,2.4059831243,-6.8865434428,-6.46062102,1441
131780,199592,264860,2.2683958248,-6.81954441,-6.4558353748,1442
131905,199640,264933,2.27318147,-6.7669023128,-6.4426748505,1443
132113,199628,264920,2.4155544147,-6.93918554,-6.436692794,1444
132398,199691,264940,2.4586252215,-6.8446690473,-6.3936219871999995,1445
132614,199720,264949,2.2456640101,-6.7525453772,-6.5515482788,1446
132869,199738,265006,2.3509482045,-6.880561386299999,-6.384050696799999,1447
133110,199784,264988,2.404786713,-6.838686990799999,-6.422335858399999,1448
133325,199804,265077,2.2743778813,-6.9583281208,-6.3936219871999995,1449
133503,199825,265058,2.3796620756999998,-6.8482582812,-6.355336825599999,1450
133642,199840,265015,2.2588245344,-6.9104716688000005,-6.3996040437,1451
133835,199835,265040,2.2779671152,-6.8721865072,-6.4331035601,1452
133962,199827,265040,2.3593230836,-6.915257314,-6.532405698,1453
134160,199919,265063,2.3401805028,-6.8063838857,-6.4319071488,1454
134421,199891,265081,2.2839491717,-6.8961147332,-6.3948183985,1455
134514,199925,265138,2.5447668351,-6.8339013456,-6.3373906561,1456
134124,199827,265046,2.2983061073,-6.9104716688000005,-6.4414784392,1457
132635,199595,264868,2.3306092124,-6.8757757411,-6.46062102,1458
130941,199377,264696,2.4299113503,-6.8578295716,-6.5647088031,1459
129874,199269,264637,2.4239292938,-6.795616184,-6.4558353748,1460
129625,199257,264587,2.2492532439999997,-6.8004018292,-6.4558353748,1461
129724,199318,264678,2.2863419943,-6.838686990799999,-6.3756758177,1462
129950,199343,264758,2.4011974791,-6.7920269500999995,-6.5551375127,1463
130295,199383,264745,2.3676979627,-6.7968125953,-6.46062102,1464
130767,199431,264873,2.3581266723,-6.7920269500999995,-6.518048762399999,1465
131110,199476,264831,2.3054845751,-6.7633130788999996,-6.4462640844,1466
131154,199493,264782,2.3593230836,-6.9714886451,-6.4414784392,1467
131013,199455,264812,2.2683958248,-6.8949183219000005,-6.4749779556,1468
130979,199484,264797,2.2588245344,-6.725027917299999,-6.3948183985,1469
131055,199482,264828,2.3629123174999997,-6.891329088,-6.412764568,1470
131246,199519,264843,2.3246271559,-6.6484575941,-6.3469619465000005,1471
131500,199502,264933,2.321037922,-7.0289163875,-6.479763600799999,1472
131739,199595,264902,2.3784656644,-6.6915284009,-6.3230337205,1473
132027,199621,264971,2.3198415107,-6.8446690473,-6.388836342,1474
132304,199638,264971,2.3150558654999998,-6.7477597320000005,-6.5228344076,1475
132513,199672,264998,2.3641087288000002,-6.795616184,-6.412764568,1476
132747,199723,265022,2.368894374,-6.728617151199999,-6.4881384799,1477
132933,199721,265030,2.3258235672,-6.9009003784,-6.3792650516,1478
133118,199727,265060,2.3545374384,-6.8769721524,-6.342176301299999,1479
133295,199736,265028,2.4227328825,-6.7728843693,-6.484549246,1480
133485,199776,265046,2.2923240508,-6.8578295716,-6.4558353748,1481
133592,199780,265129,2.2648065909,-6.8446690473,-6.5036918268,1482
133901,199828,265113,2.3676979627,-6.8303121117,-6.4414784392,1483
133837,199802,265131,2.440679052,-6.9104716688000005,-6.4271215036000005,1484
132835,199617,264936,2.1930219129,-6.8339013456,-6.4271215036000005,1485
131184,199412,264701,2.3102702203,-6.878168563699999,-6.4462640844,1486
129937,199283,264671,2.3976082452,-6.81954441,-6.4319071488,1487
129537,199231,264544,2.4490539311,-6.8865434428,-6.5419769884,1488
129638,199278,264636,2.2683958248,-6.9260250157000005,-6.5120667059,1489
129906,199341,264661,2.3246271559,-6.7334027964,-6.3984076324000005,1490
130294,199402,264798,2.1786649773,-6.8721865072,-6.369693761200001,1491
130804,199483,264801,2.1930219129,-6.838686990799999,-6.4654066652,1492
131249,199534,264900,2.3916261887,-6.8147587648000005,-6.3517475917,1493
131391,199523,264900,2.3485553819,-6.7932233614,-6.479763600799999,1494
131341,199506,264809,2.3078773977,-6.881757797600001,-6.3038911397,1495
131291,199481,264867,2.3641087288000002,-6.843472636,-6.4749779556,1496
131373,199497,264862,2.3724836079,-7.0013989275999995,-6.3326050109,1497
131561,199547,264922,2.368894374,-6.8339013456,-6.4091753340999995,1498
131808,199565,264951,2.2492532439999997,-6.977470701600001,-6.6029939646999996,1499
132138,199638,265005,2.3162522768000002,-6.8578295716,-6.4474604957,1500
132437,199638,265003,2.2839491717,-6.8769721524,-6.4654066652,1501
132685,199686,264970,2.2468604214,-6.7441704981,-6.4187466245,1502
132952,199720,265049,2.3054845751,-6.824330055200001,-6.4139609793000005,1503
133192,199733,265074,2.3772692530999997,-6.8626152168,-6.4749779556,1504
133381,199775,265112,2.3916261887,-6.7764736032,-6.4881384799,1505
133548,199745,265055,2.3928226,-6.8626152168,-6.3936219871999995,1506
133807,199785,265084,2.3976082452,-6.8004018292,-6.484549246,1507
134048,199824,265159,2.297109696,-6.7728843693,-6.4701923104,1508
134331,199865,265134,2.4825534475,-6.8925254993,-6.4558353748,1509
134428,199842,265112,2.3389840915,-6.881757797600001,-6.436692794,1510
133740,199694,265013,2.4251257050999997,-6.81954441,-6.3756758177,1511
132353,199544,264820,2.3545374384,-6.9092752575,-6.384050696799999,1512
131243,199353,264689,2.1726829208,-6.9104716688000005,-6.451049729599999,1513
130798,199367,264720,2.4023938904,-6.8446690473,-6.4558353748,1514
130934,199369,264749,2.4107687694999997,-6.8339013456,-6.5072810607,1515
131306,199410,264824,2.4442682859,-6.783652071000001,-6.4235322697,1516
131723,199508,264850,2.3832513096,-6.7393848529,-6.4235322697,1517
132273,199574,264917,2.4394826406999996,-6.824330055200001,-6.46062102,1518
