green,red,IR,acc_x,acc_y,acc_z,sample_index
133949,204520,259700,4.9734817741,-3.9744783386,7.3160550995,1
133937,204529,259762,4.9674997176,-3.9098721283999995,7.267002236200001,2
133985,204492,259731,4.9627140724,-3.9529429352,7.2514488893,3
133996,204524,259735,5.169693227300001,-3.924229064,7.253841711900001,4
134043,204495,259746,5.0213382261,-3.8608192651000004,7.2000032034000006,5
134081,204528,259750,4.9423750803,-3.9493537012999997,7.1784678,6
134136,204541,259741,4.9351966125,-4.0366917262,7.2287170746000005,7
134219,204544,259805,4.995017177499999,-3.9134613623,7.1641108644,8
134284,204565,259775,4.965106895,-3.8452659182,7.2717878814,9
134368,204614,259782,5.1589255256,-4.0271204358,7.1533431627,10
134472,204603,259812,5.0344987504,-3.9577285803999995,7.2765735266,11
134486,204623,259800,4.9639104837,-3.9397824109,7.2574309458,12
134612,204664,259854,4.9363930238,-3.9553357578,7.1748785661,13
134637,204657,259832,4.9603212498,-3.9924245080999996,7.278966349199999,14
134574,204594,259884,4.9710889515,-3.8871403137,7.1880390904,15
134412,204628,259818,5.102694194500001,-4.092923057299999,7.240681187599999,16
134282,204601,259801,5.073980323300001,-3.9577285803999995,7.1736821548,17
134137,204652,259865,4.8646083458,-3.9218362414,7.221538606799999,18
134020,204565,259782,4.878965281399999,-4.0031922098,7.223931429399999,19
133929,204544,259776,5.0285166938999994,-3.8919259589,7.348358204599999,20
133876,204521,259805,5.0069812905,-3.9290147091999996,7.202396026,21
133772,204522,259769,4.929214556,-3.9074793058,7.2849484057,22
133861,204514,259817,5.036891573,-3.9254254753,7.240681187599999,23
133854,204561,259721,5.057230565099999,-3.9050864832,7.3316084464,24
133826,204531,259731,5.0033920566,-3.9529429352,7.223931429399999,25
133823,204501,259791,4.9639104837,-3.8979080154,7.2107709050999995,26
133838,204490,259679,4.9483571368,-3.9720855159999995,7.2586273571,27
133855,204507,259701,4.990231532299999,-3.8488551521,7.2311098972,28
133876,204524,259800,4.9842494758,-3.9194434188,7.2071816712,29
133953,204436,259740,4.9483571368,-3.8847474911,7.3268228012,30
133989,204472,259734,5.0380879843,-4.0271204358,7.221538606799999,31
134043,204457,259827,4.9974100001,-3.8153556357,7.29810893,32
134118,204469,259732,5.0596233877,-3.9672998708,7.223931429399999,33
134107,204554,259809,4.9926243549,-3.8847474911,7.320840744700001,34
134259,204486,259793,4.8107698373000005,-4.0007993872,7.2418775989,35
134314,204520,259835,5.0536413312,-3.9529429352,7.2753771152999995,36
134385,204523,259843,5.0093741131,-3.9864424516000003,7.1617180418,37
134492,204582,259784,4.8179483051,-3.9050864832,7.2179493729,38
134513,204601,259858,4.953142782,-4.019941968,7.323233567299999,39
134498,204564,259876,4.9507499594,-3.9936209194,7.1796642112999995,40
134336,204658,259830,5.0093741131,-3.9720855159999995,7.2095744938,41
134173,204586,259813,4.989035121000001,-3.8799618459,7.155735985300001,42
134021,204572,259831,5.0057848792,-3.9170505962,7.2681986475,43
133907,204578,259837,4.9220360882000005,-3.9517465239000003,7.2610201797,44
133698,204489,259837,4.8873401605,-4.0414773714,7.2442704215000004,45
133732,204526,259756,5.0093741131,-3.9038900719000003,7.2095744938,46
133670,204451,259724,4.9316073786,-3.9684962821,7.214360139,47
133582,204480,259744,5.0333023391000005,-3.9314075318,7.2574309458,48
133709,204464,259737,5.0309095165,-3.8668013215999997,7.2598237683999995,49
133701,204489,259725,4.995017177499999,-3.8919259589,7.2311098972,50
133664,204437,259702,5.036891573,-4.0031922098,7.184449856500001,51
133649,204457,259752,4.9328037898999995,-3.9326039431,7.2550381232,52
133599,204475,259714,5.102694194500001,-3.9218362414,7.1976103808000005,53
133737,204459,259712,4.9806602419,-3.8033915226999997,7.2969125187,54
133740,204442,259726,4.9363930238,-3.8153556357,7.3052873978,55
133838,204473,259734,4.9734817741,-3.7962130549,7.267002236200001,56
133903,204515,259741,5.0045884679,-3.9804603951,7.262216591,57
133981,204540,259721,4.8777688701,-3.9589249917,7.278966349199999,58
134059,204517,259732,4.961517661099999,-3.9792639838,7.198806792099999,59
134143,204505,259761,4.8478585876,-3.8979080154,7.278966349199999,60
134141,204540,259785,4.9340002012,-3.9912280968,7.2765735266,61
134196,204592,259780,5.1888358081,-4.0450666053,7.2011996147,62
134395,204559,259762,5.073980323300001,-3.9744783386,7.2203421955,63
134479,204497,259815,4.8658047571,-3.9744783386,7.214360139,64
134524,204575,259819,5.0392843956,-3.864408499,7.2849484057,65
134576,204543,259826,4.8670011684,-3.8775690233,7.2693950588,66
134490,204569,259837,4.9698925402,-3.9864424516000003,7.2490560667,67
134353,204603,259841,4.8646083458,-3.996013742,7.2311098972,68
134197,204583,259847,5.140979356100001,-3.9613178143,7.3148586882,69
134118,204548,259777,4.9866422984,-3.8703905555,7.2909304621999995,70
134033,204527,259803,5.0524449199,-3.8608192651000004,7.1880390904,71
133977,204486,259749,4.917250443,-3.9218362414,7.2598237683999995,72
133959,204383,259740,4.9435714916,-3.9888352742,7.1880390904,73
133971,204447,259733,4.9866422984,-3.9577285803999995,7.1090759446,74
133937,204406,259773,4.9806602419,-3.9230326527000003,7.2095744938,75
133984,204441,259748,4.8299124181,-3.8129628130999995,7.2311098972,76
133973,204455,259733,4.857429878,-3.9481572899999997,7.226324252,77
133987,204441,259752,4.8610191119,-4.0271204358,7.1928247355999995,78
134019,204436,259666,4.8741796362,-3.8392838617,7.214360139,79
134049,204431,259771,4.9375894351,-3.8967116041,7.2646094136,80
134111,204426,259702,4.9447679029,-3.9696926934,7.1952175581999995,81
134150,204449,259711,4.989035121000001,-3.8548372086000002,7.294519696099999,82
134218,204444,259699,5.0596233877,-3.9445680561,7.2777699379,83
134270,204323,259757,5.045266452099999,-3.9780675724999996,7.1856462678,84
134360,204387,259771,4.878965281399999,-3.9026936606000002,7.2155565503000005,85
134428,204379,259700,5.044070040799999,-3.9349967657,7.240681187599999,86
134501,204548,259751,5.0356951617,-3.8703905555,7.1509503401,87
134564,204551,259749,4.850251410199999,-3.9816568063999997,7.223931429399999,88
134558,204548,259720,5.0081777018,-3.8931223702,7.2287170746000005,89
134765,204539,259802,5.0620162103,-3.8500515634,7.2000032034000006,90
134807,204545,259803,5.0691946781,-3.9744783386,7.190431913,91
134772,204451,259783,4.9507499594,-4.0713876539,7.2047888486,92
134651,204535,259821,4.9698925402,-3.8679977328999997,7.1880390904,93
134521,204519,259817,5.0093741131,-3.9421752335,7.1748785661,94
134407,204546,259804,4.9866422984,-4.0366917262,7.154539573999999,95
134348,204506,259816,4.8418765311,-3.9984065645999998,7.307680220399999,96
134297,204492,259801,5.032105927799999,-3.8488551521,7.154539573999999,97
134311,204491,259727,5.032105927799999,-3.984049629,7.1569323966,98
134320,204485,259763,4.9304109673,-3.9649070482,7.2323063085,99
134282,204472,259768,4.883750926599999,-3.9074793058,7.237091953699999,100
134349,204490,259706,5.0644090329,-3.8871403137,7.286144817,101
134354,204498,259759,4.9686961289000005,-3.8847474911,7.3016981639,102
134359,204514,259784,5.036891573,-4.0725840652,7.2047888486,103
134341,204483,259745,5.0524449199,-3.9481572899999997,7.323233567299999,104
134399,204483,259784,4.8550370553999995,-3.9194434188,7.238288365000001,105
134421,204501,259709,4.9316073786,-3.9864424516000003,7.2000032034000006,106
134456,204494,259739,4.953142782,-3.9158541848999997,7.1210400576,107
134517,204486,259792,4.9483571368,-3.996013742,7.2574309458,108
134586,204498,259769,5.0380879843,-3.9912280968,7.2717878814,109
134671,204562,259750,4.9363930238,-3.9290147091999996,7.1760749774,110
134698,204595,259801,5.0117669357,-3.8955151927999996,7.2131637277000005,111
134788,204634,259826,5.0488556860000005,-3.9637106368999997,7.2047888486,112
134859,204606,259855,4.9363930238,-4.0247276132000005,7.2478596554,113
134906,204616,259846,4.9040899186999996,-3.9888352742,7.2167529616,114
134997,204625,259805,5.0069812905,-3.8524443859999997,7.252645300599999,115
135025,204647,259824,4.9100719752,-4.007977855,7.278966349199999,116
134963,204609,259812,4.9806602419,-4.0151563228,7.1126651784999995,117
134839,204618,259812,5.0273202826,-3.9481572899999997,7.267002236200001,118
134665,204685,259895,4.9112683865,-3.9110685397,7.1808606226,119
134544,204650,259820,5.1541398804,-3.9230326527000003,7.2287170746000005,120
134424,204554,259799,4.977071008,-3.9086757171,7.332804857699999,121
134302,204569,259818,4.9842494758,-3.9924245080999996,7.240681187599999,122
134251,204520,259755,4.9555356046000005,-4.0223347905999995,7.2562345345,123
134219,204534,259818,4.9387858464,-3.9577285803999995,7.1784678,124
134229,204545,259757,4.8406801198,-3.9684962821,7.190431913,125
134186,204545,259820,4.9459643142,-3.9744783386,7.1688965096,126
134152,204488,259787,4.9686961289000005,-3.7758740628,7.323233567299999,127
134087,204476,259755,4.9555356046000005,-3.8895331363000003,7.1820570339,128
134125,204409,259718,4.9698925402,-4.055834307,7.2873412283,129
134136,204442,259743,4.9962135888,-3.9708891047,7.196413969499999,130
134156,204496,259756,4.9112683865,-3.9314075318,7.2646094136,131
134198,204474,259726,4.995017177499999,-3.9493537012999997,7.2394847763,132
134273,204540,259775,4.9112683865,-3.8596228538,7.1928247355999995,133
134315,204550,259777,4.9866422984,-3.9613178143,7.2969125187,134
134372,204557,259758,5.1003013719000005,-4.0151563228,7.2837519944,135
134424,204498,259803,5.0093741131,-3.8679977328999997,7.1928247355999995,136
134509,204542,259797,4.9627140724,-4.0522450731,7.221538606799999,137
134568,204594,259743,5.0380879843,-3.9170505962,7.2430740102,138
134665,204634,259789,4.9100719752,-3.9409788222,7.3471617933,139
134712,204628,259870,4.9854458871,-4.0007993872,7.3244299786000004,140
134792,204664,259843,4.9818566531999995,-3.9290147091999996,7.1856462678,141
134852,204646,259836,5.0380879843,-3.9481572899999997,7.294519696099999,142
134861,204664,259825,4.9854458871,-3.924229064,7.2550381232,143
134760,204632,259883,4.9722853628,-3.9146577735999997,7.2155565503000005,144
134607,204634,259832,4.9543391933,-3.984049629,7.2335027198,145
134472,204594,259807,4.9483571368,-3.8129628130999995,7.267002236200001,146
134307,204554,259796,4.8909293944,-3.9625142255999997,7.171289332200001,147
134192,204488,259851,4.9806602419,-3.888336725,7.3088766317000005,148
134143,204556,259785,5.0045884679,-4.0247276132000005,7.2454668328,149
134089,204551,259753,4.9639104837,-3.9529429352,7.238288365000001,150
134070,204517,259734,4.9794638306,-3.8237305148,7.3423761481,151
134082,204505,259721,4.9663033062999995,-4.0594235409,7.2957161074000005,152
134061,204535,259784,5.0596233877,-3.9649070482,7.2394847763,153
134066,204521,259691,5.0057848792,-3.8775690233,7.2574309458,154
134027,204518,259763,5.036891573,-3.9541393465,7.237091953699999,155
134047,204528,259756,5.0536413312,-3.9385859996,7.2478596554,156
134064,204483,259691,5.0237310487,-3.9912280968,7.2693950588,157
134108,204507,259714,5.0141597583,-3.9553357578,7.2430740102,158
134147,204514,259729,5.0033920566,-3.9936209194,7.2753771152999995,159
134198,204557,259689,4.9028935074,-3.9529429352,7.2634130023,160
134251,204565,259756,4.9076791526,-3.9720855159999995,7.2311098972,161
134326,204548,259747,4.9818566531999995,-3.9924245080999996,7.2335027198,162
134380,204554,259775,5.0069812905,-3.8273197486999995,7.1976103808000005,163
134377,204569,259749,5.156532702999999,-4.0115670889,7.2311098972,164
134534,204497,259781,5.045266452099999,-3.9672998708,7.2358955424,165
134614,204592,259812,4.9722853628,-4.0259240245,7.166503687,166
134662,204598,259834,4.9722853628,-4.0259240245,7.166503687,167
134761,204620,259784,4.9722853628,-4.0259240245,7.166503687,168
134829,204619,259802,4.9722853628,-4.0259240245,7.166503687,169
134813,204597,259782,4.9722853628,-4.0259240245,7.166503687,170
134699,204589,259824,4.9722853628,-4.0259240245,7.166503687,171
134568,204591,259773,4.9722853628,-4.0259240245,7.166503687,172
134461,204545,259764,4.9722853628,-4.0259240245,7.166503687,173
134368,204573,259794,4.9722853628,-4.0259240245,7.166503687,174
134370,204569,259772,4.9722853628,-4.0259240245,7.166503687,175
134339,204530,259731,4.9722853628,-4.0259240245,7.166503687,176
134342,204521,259741,4.878965281399999,-3.9086757171,7.1461646949,177
134410,204519,259739,4.8765724588,-4.079762533,7.2358955424,178
134379,204525,259745,4.9483571368,-3.9625142255999997,7.2574309458,179
134355,204532,259729,5.000999234,-3.9314075318,7.1736821548,180
134322,204528,259765,4.9423750803,-3.8775690233,7.274180704,181
134388,204547,259724,5.0668018555,-3.9290147091999996,7.1892355017,182
134407,204490,259698,4.8562334667,-3.912264951,7.2323063085,183
134408,204548,259747,4.9986064114,-3.9625142255999997,7.2478596554,184
134466,204607,259766,4.9112683865,-3.9732819273,7.1772713886999995,185
134555,204629,259759,5.2570312522,-3.8967116041,7.211967316399999,186
134615,204610,259794,4.9495535481,-3.9661034595,7.2287170746000005,187
134632,204632,259778,4.9016970961,-3.9505501125999998,7.2681986475,188
134726,204659,259770,4.9016970961,-3.9505501125999998,7.2681986475,189
134792,204681,259855,4.9016970961,-3.9505501125999998,7.2681986475,190
134830,204692,259783,4.9016970961,-3.9505501125999998,7.2681986475,191
134910,204690,259874,4.9016970961,-3.9505501125999998,7.2681986475,192
134949,204691,259823,4.9016970961,-3.9505501125999998,7.2681986475,193
134888,204641,259865,4.9016970961,-3.9505501125999998,7.2681986475,194
134755,204675,259882,4.9016970961,-3.9505501125999998,7.2681986475,195
134586,204646,259845,4.9016970961,-3.9505501125999998,7.2681986475,196
134429,204648,259766,4.9016970961,-3.9505501125999998,7.2681986475,197
134302,204591,259809,4.9016970961,-3.9505501125999998,7.2681986475,198
134233,204599,259793,4.9016970961,-3.9505501125999998,7.2681986475,199
134172,204547,259771,4.9016970961,-3.9505501125999998,7.2681986475,200
134163,204616,259735,4.9016970961,-3.9505501125999998,7.2681986475,201
134139,204538,259740,4.9016970961,-3.9505501125999998,7.2681986475,202
134108,204538,259736,4.9016970961,-3.9505501125999998,7.2681986475,203
134095,204542,259737,4.9016970961,-3.9505501125999998,7.2681986475,204
134075,204565,259759,4.9016970961,-3.9505501125999998,7.2681986475,205
134082,204545,259708,4.9016970961,-3.9505501125999998,7.2681986475,206
134100,204525,259755,4.9016970961,-3.9505501125999998,7.2681986475,207
134096,204528,259790,4.9016970961,-3.9505501125999998,7.2681986475,208
134132,204597,259789,4.9016970961,-3.9505501125999998,7.2681986475,209
134198,204552,259772,4.9016970961,-3.9505501125999998,7.2681986475,210
134249,204575,259741,4.9016970961,-3.9505501125999998,7.2681986475,211
134277,204583,259772,4.9016970961,-3.9505501125999998,7.2681986475,212
134370,204609,259754,4.9016970961,-3.9505501125999998,7.2681986475,213
134418,204630,259784,4.9016970961,-3.9505501125999998,7.2681986475,214
134490,204623,259777,4.9926243549,-3.9146577735999997,7.2299134859,215
134564,204674,259802,4.9926243549,-3.9146577735999997,7.2299134859,216
134602,204660,259854,4.9926243549,-3.9146577735999997,7.2299134859,217
134613,204684,259823,4.9926243549,-3.9146577735999997,7.2299134859,218
134514,204626,259791,4.9926243549,-3.9146577735999997,7.2299134859,219
134335,204668,259821,4.9926243549,-3.9146577735999997,7.2299134859,220
134155,204617,259783,4.9926243549,-3.9146577735999997,7.2299134859,221
133998,204613,259766,4.9926243549,-3.9146577735999997,7.2299134859,222
133856,204575,259734,4.9926243549,-3.9146577735999997,7.2299134859,223
133780,204562,259757,4.9926243549,-3.9146577735999997,7.2299134859,224
133687,204556,259694,4.9926243549,-3.9146577735999997,7.2299134859,225
133662,204515,259716,4.9926243549,-3.9146577735999997,7.2299134859,226
133633,204492,259756,4.9926243549,-3.9146577735999997,7.2299134859,227
133607,204530,259652,4.953142782,-3.9900316855,7.2849484057,228
133595,204470,259709,4.953142782,-3.9900316855,7.2849484057,229
133570,204492,259742,4.953142782,-3.9900316855,7.2849484057,230
133584,204491,259651,4.953142782,-3.9900316855,7.2849484057,231
133590,204510,259667,4.953142782,-3.9900316855,7.2849484057,232
133618,204489,259691,4.953142782,-3.9900316855,7.2849484057,233
133684,204528,259715,4.953142782,-3.9900316855,7.2849484057,234
133722,204508,259694,4.953142782,-3.9900316855,7.2849484057,235
133805,204521,259730,4.953142782,-3.9900316855,7.2849484057,236
133854,204533,259715,4.953142782,-3.9900316855,7.2849484057,237
133948,204554,259694,4.953142782,-3.9900316855,7.2849484057,238
133997,204553,259756,4.953142782,-3.9900316855,7.2849484057,239
134069,204605,259735,4.953142782,-3.9900316855,7.2849484057,240
134170,204580,259748,4.9579284272,-3.9326039431,7.2717878814,241
134240,204617,259748,4.9579284272,-3.9326039431,7.2717878814,242
134304,204594,259777,4.9579284272,-3.9326039431,7.2717878814,243
134296,204564,259758,4.9579284272,-3.9326039431,7.2717878814,244
134160,204597,259783,4.9579284272,-3.9326039431,7.2717878814,245
133987,204570,259711,4.9579284272,-3.9326039431,7.2717878814,246
133842,204539,259741,4.9579284272,-3.9326039431,7.2717878814,247
133727,204529,259724,4.9579284272,-3.9326039431,7.2717878814,248
133655,204462,259697,4.9579284272,-3.9326039431,7.2717878814,249
133608,204472,259699,4.9579284272,-3.9326039431,7.2717878814,250
133598,204472,259684,4.9579284272,-3.9326039431,7.2717878814,251
133605,204444,259658,4.9579284272,-3.9326039431,7.2717878814,252
133608,204380,259663,4.9567320159,-3.8931223702,7.3507510272,253
133609,204453,259661,4.9746781854,-4.0043886211,7.274180704,254
133601,204447,259667,4.926821733400001,-4.0151563228,7.1521467514,255
133601,204408,259640,5.036891573,-3.9864424516000003,7.106683122,256
133614,204445,259659,5.0033920566,-3.9338003543999998,7.2299134859,257
133654,204444,259606,5.0596233877,-3.8787654346,7.3088766317000005,258
133695,204431,259630,4.9674997176,-3.8775690233,7.2933232848,259
133745,204477,259663,4.9340002012,-3.9732819273,7.2191457842,260
133790,204466,259643,4.9244289108,-3.9457644674,7.3052873978,261
133889,204439,259629,4.9986064114,-3.9445680561,7.2167529616,262
133989,204479,259664,4.9196432655999995,-4.115654872,7.1569323966,263
134045,204466,259630,4.9507499594,-3.9050864832,7.2323063085,264
134106,204524,259667,4.9124647978,-3.8811582571999996,7.363911551499999,265
134179,204535,259651,4.9124647978,-3.8811582571999996,7.363911551499999,266
134252,204485,259686,4.9124647978,-3.8811582571999996,7.363911551499999,267
134251,204481,259643,4.9124647978,-3.8811582571999996,7.363911551499999,268
134139,204467,259658,4.9124647978,-3.8811582571999996,7.363911551499999,269
133980,204486,259633,4.9124647978,-3.8811582571999996,7.363911551499999,270
133842,204467,259671,4.9124647978,-3.8811582571999996,7.363911551499999,271
133733,204472,259619,4.9124647978,-3.8811582571999996,7.363911551499999,272
133726,204468,259693,4.8526442328,-3.9338003543999998,7.2155565503000005,273
133680,204444,259616,5.0141597583,-4.0127635002,7.282555583100001,274
133682,204433,259577,5.084748025,-4.0570307183,7.2550381232,275
133671,204432,259641,5.0285166938999994,-3.9529429352,7.2335027198,276
133687,204420,259602,5.0285166938999994,-3.9529429352,7.2335027198,277
133683,204409,259593,5.0285166938999994,-3.9529429352,7.2335027198,278
133672,204427,259575,4.9340002012,-4.0031922098,7.2801627605000006,279
133699,204430,259602,5.070391089399999,-3.984049629,7.154539573999999,280
133717,204390,259614,5.036891573,-3.9756747499,7.2047888486,281
133722,204410,259642,4.8981078622,-3.8177484582999996,7.1796642112999995,282
133783,204515,259578,4.9806602419,-4.0689948312999995,7.253841711900001,283
133832,204446,259588,4.8370908858999995,-3.9768711611999996,7.2550381232,284
133919,204467,259620,4.9555356046000005,-3.8656049103,7.2311098972,285
133985,204485,259630,4.990231532299999,-3.816552047,7.29810893,286
134037,204477,259700,4.9698925402,-3.9816568063999997,7.320840744700001,287
134105,204526,259680,4.9698925402,-3.9816568063999997,7.320840744700001,288
134193,204508,259689,4.9698925402,-3.9816568063999997,7.320840744700001,289
134258,204530,259686,4.9698925402,-3.9816568063999997,7.320840744700001,290
134320,204565,259725,4.9698925402,-3.9816568063999997,7.320840744700001,291
134298,204535,259699,4.9351966125,-3.9912280968,7.274180704,292
134120,204391,259668,4.9435714916,-3.9397824109,7.1449682836,293
133978,204461,259648,5.0285166938999994,-3.8799618459,7.183253445199999,294
133781,204438,259664,5.1003013719000005,-3.9696926934,7.2837519944,295
133682,204348,259665,4.899304273499999,-3.9649070482,7.2287170746000005,296
133560,204441,259606,5.0141597583,-3.9050864832,7.3519474385,297
133487,204445,259611,4.977071008,-3.9816568063999997,7.1760749774,298
133491,204456,259575,5.096712138,-3.8596228538,7.1736821548,299
133474,204398,259563,4.9507499594,-3.8321053939,7.2430740102,300
133423,204406,259573,5.0033920566,-3.8249269261,7.3447689707,301
133393,204336,259568,4.8035913695,-3.8787654346,7.1952175581999995,302
133400,204380,259558,4.9842494758,-3.8464623295,7.2993053413,303
133385,204384,259571,4.9806602419,-3.9541393465,7.2490560667,304
133393,204352,259570,5.0213382261,-3.936193177,7.1952175581999995,305
133434,204398,259561,5.1098726623,-3.9338003543999998,7.2335027198,306
133433,204371,259610,4.9100719752,-4.0055850324,7.221538606799999,307
133573,204297,259571,5.0057848792,-3.8931223702,7.253841711900001,308
133632,204432,259613,4.9208396769,-3.9768711611999996,7.2430740102,309
133731,204419,259601,5.0189454035,-4.0163527341,7.2765735266,310
133779,204402,259584,4.977071008,-3.9338003543999998,7.3064838090999995,311
133863,204442,259631,5.1194439527,-3.9589249917,7.265805824899999,312
133935,204431,259648,5.000999234,-3.9768711611999996,7.281359171799999,313
134040,204471,259599,4.9148576204,-3.984049629,7.3005017526,314
134121,204530,259659,4.9555356046000005,-3.9768711611999996,7.3016981639,315
134177,204516,259634,4.8646083458,-3.9541393465,7.223931429399999,316
134237,204506,259634,5.0500520973,-4.0103706776,7.336394091599999,317
134132,204460,259655,4.9579284272,-4.0869410008000004,7.198806792099999,318
133959,204388,259649,4.9926243549,-3.8679977328999997,7.2478596554,319
133798,204460,259673,4.9316073786,-3.9661034595,7.2753771152999995,320
133655,204433,259637,5.045266452099999,-3.8979080154,7.190431913,321
133573,204416,259591,4.9543391933,-3.9457644674,7.335197680299999,322
133483,204392,259623,4.961517661099999,-4.0450666053,7.304090986499999,323
133494,204387,259600,4.9495535481,-3.8392838617,7.2957161074000005,324
133465,204379,259653,5.032105927799999,-3.8225341035,7.282555583100001,325
133462,204329,259538,5.0668018555,-3.9074793058,7.2335027198,326
133485,204351,259543,5.0117669357,-3.8464623295,7.238288365000001,327
133502,204347,259532,4.9471607255,-4.0235312019,7.238288365000001,328
133484,204361,259539,4.8358944746,-3.9720855159999995,7.1952175581999995,329
133554,204369,259540,5.1158547188000005,-3.9481572899999997,7.2335027198,330
133530,204362,259561,5.0464628634,-4.0761732991,7.2131637277000005,331
133625,204312,259544,4.9698925402,-3.9278182979,7.214360139,332
133658,204373,259529,5.0069812905,-3.9984065645999998,7.3375905029,333
133760,204345,259543,4.8909293944,-3.8811582571999996,7.2358955424,334
133799,204320,259542,4.9603212498,-3.936193177,7.221538606799999,335
133886,204364,259588,4.9842494758,-3.9672998708,7.1736821548,336
133953,204369,259534,4.8969114509,-3.8931223702,7.2681986475,337
134057,204348,259535,4.9100719752,-4.0378881375,7.2753771152999995,338
134155,204360,259525,4.881358104,-3.9338003543999998,7.2490560667,339
134261,204416,259592,4.9471607255,-3.9038900719000003,7.2430740102,340
134308,204452,259575,4.9603212498,-3.9888352742,7.2323063085,341
134433,204460,259617,5.0045884679,-3.996013742,7.2275206633,342
134510,204451,259561,5.0045884679,-3.996013742,7.2275206633,343
134482,204409,259599,5.0045884679,-3.996013742,7.2275206633,344
134381,204385,259635,5.0045884679,-3.996013742,7.2275206633,345
134264,204436,259625,5.0045884679,-3.996013742,7.2275206633,346
134184,204427,259609,5.0045884679,-3.996013742,7.2275206633,347
134120,204371,259602,5.0045884679,-3.996013742,7.2275206633,348
134120,204387,259577,5.0045884679,-3.996013742,7.2275206633,349
134108,204379,259523,5.0045884679,-3.996013742,7.2275206633,350
134135,204334,259516,5.0045884679,-3.996013742,7.2275206633,351
134143,204351,259541,5.0045884679,-3.996013742,7.2275206633,352
134166,204369,259543,5.0045884679,-3.996013742,7.2275206633,353
134150,204350,259533,5.0045884679,-3.996013742,7.2275206633,354
134206,204351,259511,5.0045884679,-3.996013742,7.2275206633,355
134219,204333,259518,5.0045884679,-3.996013742,7.2275206633,356
134247,204380,259479,5.0045884679,-3.996013742,7.2275206633,357
134278,204355,259585,5.0045884679,-3.996013742,7.2275206633,358
134340,204408,259521,5.0045884679,-3.996013742,7.2275206633,359
134395,204388,259576,5.0045884679,-3.996013742,7.2275206633,360
134470,204427,259606,5.0045884679,-3.996013742,7.2275206633,361
134542,204417,259567,4.8741796362,-3.9768711611999996,7.2418775989,362
134634,204432,259633,4.8741796362,-3.9768711611999996,7.2418775989,363
134714,204477,259585,4.8741796362,-3.9768711611999996,7.2418775989,364
134770,204459,259642,4.8741796362,-3.9768711611999996,7.2418775989,365
134854,204470,259642,4.8741796362,-3.9768711611999996,7.2418775989,366
134903,204506,259601,4.8741796362,-3.9768711611999996,7.2418775989,367
134894,204476,259642,4.8741796362,-3.9768711611999996,7.2418775989,368
134730,204495,259653,5.0955157266999995,-3.9014972492999997,7.1760749774,369
134559,204444,259645,5.0955157266999995,-3.9014972492999997,7.1760749774,370
134451,204403,259578,5.0955157266999995,-3.9014972492999997,7.1760749774,371
134340,204423,259566,5.0955157266999995,-3.9014972492999997,7.1760749774,372
134262,204402,259593,5.0955157266999995,-3.9014972492999997,7.1760749774,373
134220,204395,259598,5.0955157266999995,-3.9014972492999997,7.1760749774,374
134238,204359,259564,4.926821733400001,-3.9026936606000002,7.2430740102,375
134209,204335,259575,4.8562334667,-3.9577285803999995,7.237091953699999,376
134206,204326,259543,4.9758745967,-3.8727833781,7.2191457842,377
134195,204335,259573,4.9722853628,-3.876372612,7.2993053413,378
134193,204319,259560,4.881358104,-3.996013742,7.3160550995,379
134202,204339,259460,4.9998028226999995,-3.9266218866,7.2466632441,380
134224,204384,259548,5.0811587911,-3.9565321691,7.2299134859,381
134265,204419,259587,5.041677218199999,-4.0713876539,7.2071816712,382
134302,204377,259551,5.0691946781,-3.9996029759000002,7.1617180418,383
134386,204390,259597,5.0943193154,-3.960121403,7.2047888486,384
134455,204435,259533,4.9591248385,-4.031906081,7.2430740102,385
134518,204406,259521,5.02492746,-3.9038900719000003,7.250252477999999,386
134571,204461,259593,5.02492746,-3.9038900719000003,7.250252477999999,387
134643,204471,259586,5.02492746,-3.9038900719000003,7.250252477999999,388
134729,204513,259602,5.02492746,-3.9038900719000003,7.250252477999999,389
134805,204502,259638,5.02492746,-3.9038900719000003,7.250252477999999,390
134881,204505,259673,5.02492746,-3.9038900719000003,7.250252477999999,391
134968,204544,259642,5.02492746,-3.9038900719000003,7.250252477999999,392
134982,204490,259624,5.02492746,-3.9038900719000003,7.250252477999999,393
134887,204495,259629,4.8957150396,-3.8895331363000003,7.2167529616,394
134737,204511,259683,5.0141597583,-3.9912280968,7.2837519944,395
134650,204500,259655,4.8358944746,-4.0630127748,7.211967316399999,396
134458,204448,259598,4.9698925402,-3.9625142255999997,7.226324252,397
134374,204436,259569,4.9698925402,-3.9625142255999997,7.226324252,398
134271,204375,259610,4.9698925402,-3.9625142255999997,7.226324252,399
134238,204405,259560,4.9698925402,-3.9625142255999997,7.226324252,400
134212,204405,259611,4.9698925402,-3.9625142255999997,7.226324252,401
134208,204382,259488,4.9698925402,-3.9625142255999997,7.226324252,402
134189,204385,259552,4.9698925402,-3.9625142255999997,7.226324252,403
134191,204400,259544,4.9698925402,-3.9625142255999997,7.226324252,404
134177,204345,259562,4.9698925402,-3.9625142255999997,7.226324252,405
134197,204355,259538,4.9698925402,-3.9625142255999997,7.226324252,406
134208,204397,259560,4.929214556,-3.9888352742,7.4213392939,407
134247,204374,259492,4.8753760475,-3.8895331363000003,7.4021967130999995,408
134304,204385,259539,4.8753760475,-3.8895331363000003,7.4021967130999995,409
134347,204401,259548,4.8753760475,-3.8895331363000003,7.4021967130999995,410
134420,204404,259540,4.8753760475,-3.8895331363000003,7.4021967130999995,411
134492,204444,259574,4.8753760475,-3.8895331363000003,7.4021967130999995,412
134574,204434,259580,4.8753760475,-3.8895331363000003,7.4021967130999995,413
134652,204485,259576,4.8753760475,-3.8895331363000003,7.4021967130999995,414
134714,204449,259566,4.8753760475,-3.8895331363000003,7.4021967130999995,415
134815,204461,259591,4.8753760475,-3.8895331363000003,7.4021967130999995,416
134899,204501,259684,4.8753760475,-3.8895331363000003,7.4021967130999995,417
134968,204567,259635,4.8753760475,-3.8895331363000003,7.4021967130999995,418
135054,204542,259648,4.8753760475,-3.8895331363000003,7.4021967130999995,419
135136,204568,259637,4.8753760475,-3.8895331363000003,7.4021967130999995,420
135130,204548,259673,4.8753760475,-3.8895331363000003,7.4021967130999995,421
135050,204535,259625,4.8753760475,-3.8895331363000003,7.4021967130999995,422
134932,204554,259717,4.8753760475,-3.8895331363000003,7.4021967130999995,423
134764,204525,259701,4.8753760475,-3.8895331363000003,7.4021967130999995,424
134657,204478,259667,4.8753760475,-3.8895331363000003,7.4021967130999995,425
134604,204467,259599,4.8717868136,-3.960121403,7.221538606799999,426
134543,204462,259633,4.8717868136,-3.960121403,7.221538606799999,427
134538,204452,259547,4.8717868136,-3.960121403,7.221538606799999,428
134548,204429,259560,4.8717868136,-3.960121403,7.221538606799999,429
134549,204402,259506,4.8717868136,-3.960121403,7.221538606799999,430
134541,204399,259577,4.8717868136,-3.960121403,7.221538606799999,431
134527,204434,259606,4.8717868136,-3.960121403,7.221538606799999,432
134510,204425,259609,4.9483571368,-3.9074793058,7.2969125187,433
134551,204425,259562,4.9483571368,-3.9074793058,7.2969125187,434
134553,204421,259524,4.9483571368,-3.9074793058,7.2969125187,435
134632,204435,259541,4.9483571368,-3.9074793058,7.2969125187,436
134694,204461,259548,4.9483571368,-3.9074793058,7.2969125187,437
134725,204453,259558,4.9483571368,-3.9074793058,7.2969125187,438
134815,204486,259542,4.9483571368,-3.9074793058,7.2969125187,439
134881,204464,259577,4.9483571368,-3.9074793058,7.2969125187,440
134917,204509,259602,4.9483571368,-3.9074793058,7.2969125187,441
135024,204498,259577,4.9483571368,-3.9074793058,7.2969125187,442
135069,204502,259658,4.9483571368,-3.9074793058,7.2969125187,443
135165,204558,259581,4.9483571368,-3.9074793058,7.2969125187,444
135238,204542,259652,4.9483571368,-3.9074793058,7.2969125187,445
135315,204538,259673,4.9483571368,-3.9074793058,7.2969125187,446
135322,204578,259655,4.9483571368,-3.9074793058,7.2969125187,447
135251,204543,259641,4.9483571368,-3.9074793058,7.2969125187,448
135132,204549,259670,4.9483571368,-3.9074793058,7.2969125187,449
135021,204534,259669,4.9483571368,-3.9074793058,7.2969125187,450
134953,204528,259613,4.9483571368,-3.9074793058,7.2969125187,451
134930,204495,259618,4.9220360882000005,-3.9553357578,7.2311098972,452
134912,204480,259646,4.9220360882000005,-3.9553357578,7.2311098972,453
134926,204467,259602,4.9220360882000005,-3.9553357578,7.2311098972,454
134940,204488,259627,4.9220360882000005,-3.9553357578,7.2311098972,455
134975,204513,259632,4.9220360882000005,-3.9553357578,7.2311098972,456
134977,204492,259589,4.9220360882000005,-3.9553357578,7.2311098972,457
134977,204493,259624,4.9340002012,-3.9290147091999996,7.211967316399999,458
135013,204512,259621,5.0045884679,-3.9792639838,7.2693950588,459
135004,204548,259597,4.917250443,-3.8344982165,7.2550381232,460
135059,204519,259650,4.941178669,-3.8859439023999998,7.1330041706000005,461
135100,204543,259623,5.0500520973,-3.8979080154,7.183253445199999,462
135147,204543,259619,4.8885365718,-3.8871403137,7.2095744938,463
135200,204540,259584,5.0189454035,-4.0654055974,7.2358955424,464
135145,204558,259611,4.9459643142,-3.9445680561,7.252645300599999,465
135325,204588,259677,4.8311088294,-3.9577285803999995,7.2000032034000006,466
135370,204502,259653,4.8909293944,-3.9792639838,7.2059852599,467
135444,204539,259682,4.9938207662,-3.9314075318,7.1856462678,468
135500,204572,259693,4.9340002012,-3.9409788222,7.190431913,469
135512,204630,259730,5.0057848792,-3.9804603951,7.2753771152999995,470
135596,204630,259669,4.9603212498,-3.9828532177,7.334001269,471
135487,204610,259649,4.9232324995,-3.8931223702,7.1736821548,472
135289,204626,259693,5.0093741131,-3.9672998708,7.2227350181,473
135172,204598,259699,4.7892344339,-3.9457644674,7.2598237683999995,474
135031,204591,259652,4.8562334667,-3.9505501125999998,7.2167529616,475
134936,204515,259678,4.8586262893,-3.9529429352,7.278966349199999,476
134880,204563,259639,5.0476592747,-3.9134613623,7.320840744700001,477
134833,204571,259637,4.90528633,-3.960121403,7.2717878814,478
134841,204544,259675,4.8646083458,-4.0378881375,7.3088766317000005,479
134846,204549,259645,4.9316073786,-4.0534414844,7.2765735266,480
134815,204474,259639,4.989035121000001,-3.8608192651000004,7.1736821548,481
134789,204489,259635,5.0763731459,-3.8823546685,7.282555583100001,482
134788,204473,259607,4.9866422984,-4.0235312019,7.2777699379,483
134790,204566,259607,5.0189454035,-3.9230326527000003,7.1724857435,484
134804,204509,259620,4.9794638306,-3.9469608787,7.253841711900001,485
134799,204547,259597,4.8586262893,-4.0259240245,7.2071816712,486
134869,204513,259627,4.9483571368,-3.9864424516000003,7.2717878814,487
134932,204551,259643,4.995017177499999,-3.9732819273,7.2837519944,488
134980,204567,259641,4.9005006848,-4.0965122912,7.304090986499999,489
135028,204632,259650,4.8526442328,-4.0366917262,7.1569323966,490
135076,204600,259664,4.9866422984,-3.912264951,7.2646094136,491
135165,204627,259673,4.9591248385,-3.9649070482,7.2598237683999995,492
135234,204680,259668,4.9316073786,-3.9206398301,7.240681187599999,493
135297,204679,259712,4.9220360882000005,-3.9086757171,7.2646094136,494
135349,204714,259674,4.9375894351,-3.9146577735999997,7.2574309458,495
135412,204720,259689,4.9794638306,-4.0462630166,7.1617180418,496
135363,204673,259736,4.9794638306,-4.0462630166,7.1617180418,497
135255,204661,259722,4.9794638306,-4.0462630166,7.1617180418,498
135058,204659,259675,4.9794638306,-4.0462630166,7.1617180418,499
134909,204650,259705,4.9794638306,-4.0462630166,7.1617180418,500
134782,204615,259709,4.9794638306,-4.0462630166,7.1617180418,501
134684,204579,259706,4.9794638306,-4.0462630166,7.1617180418,502
134601,204566,259627,4.9794638306,-4.0462630166,7.1617180418,503
134567,204563,259646,4.9794638306,-4.0462630166,7.1617180418,504
134553,204578,259614,4.9794638306,-4.0462630166,7.1617180418,505
134564,204539,259620,4.9794638306,-4.0462630166,7.1617180418,506
134488,204539,259647,4.9794638306,-4.0462630166,7.1617180418,507
134524,204583,259629,4.9794638306,-4.0462630166,7.1617180418,508
134492,204540,259595,4.9794638306,-4.0462630166,7.1617180418,509
134486,204568,259614,4.9794638306,-4.0462630166,7.1617180418,510
134539,204566,259611,4.9794638306,-4.0462630166,7.1617180418,511
134560,204558,259611,4.9794638306,-4.0462630166,7.1617180418,512
134604,204544,259633,4.9794638306,-4.0462630166,7.1617180418,513
134646,204573,259583,4.9794638306,-4.0462630166,7.1617180418,514
134735,204562,259630,4.9794638306,-4.0462630166,7.1617180418,515
134775,204554,259646,5.0081777018,-3.9792639838,7.238288365000001,516
134867,204605,259684,4.9244289108,-3.936193177,7.3878397775,517
134927,204618,259623,4.9196432655999995,-4.043870194,7.3052873978,518
135008,204644,259658,4.9196432655999995,-4.043870194,7.3052873978,519
135117,204640,259590,4.9196432655999995,-4.043870194,7.3052873978,520
135176,204680,259677,4.9196432655999995,-4.043870194,7.3052873978,521
135268,204660,259712,4.9196432655999995,-4.043870194,7.3052873978,522
135334,204676,259678,4.9196432655999995,-4.043870194,7.3052873978,523
135272,204642,259675,4.9196432655999995,-4.043870194,7.3052873978,524
135143,204650,259640,4.9196432655999995,-4.043870194,7.3052873978,525
135006,204640,259656,4.9196432655999995,-4.043870194,7.3052873978,526
134880,204633,259653,4.9196432655999995,-4.043870194,7.3052873978,527
134785,204603,259697,4.9196432655999995,-4.043870194,7.3052873978,528
134741,204595,259651,4.9830530645,-3.9433716447999996,7.2693950588,529
134701,204566,259610,4.9830530645,-3.9433716447999996,7.2693950588,530
134707,204544,259610,4.9830530645,-3.9433716447999996,7.2693950588,531
134721,204542,259612,4.9830530645,-3.9433716447999996,7.2693950588,532
134715,204543,259639,4.9830530645,-3.9433716447999996,7.2693950588,533
134727,204503,259626,4.9830530645,-3.9433716447999996,7.2693950588,534
134706,204532,259579,4.977071008,-4.019941968,7.2311098972,535
134699,204486,259592,4.8861437492,-3.9062828945,7.2454668328,536
134741,204442,259583,4.9064827413000005,-4.055834307,7.2921268735,537
134773,204524,259603,4.941178669,-3.9493537012999997,7.2586273571,538
134815,204528,259551,4.9351966125,-3.9062828945,7.2646094136,539
134867,204541,259570,4.8634119345,-3.9158541848999997,7.2705914701,540
134924,204535,259555,4.8634119345,-3.9158541848999997,7.2705914701,541
134969,204550,259545,4.8634119345,-3.9158541848999997,7.2705914701,542
135065,204561,259541,4.8634119345,-3.9158541848999997,7.2705914701,543
135117,204570,259552,4.8634119345,-3.9158541848999997,7.2705914701,544
135182,204579,259592,4.8634119345,-3.9158541848999997,7.2705914701,545
135284,204598,259641,4.8634119345,-3.9158541848999997,7.2705914701,546
135353,204630,259616,4.8634119345,-3.9158541848999997,7.2705914701,547
135384,204602,259608,4.8634119345,-3.9158541848999997,7.2705914701,548
135280,204582,259664,4.8634119345,-3.9158541848999997,7.2705914701,549
135171,204581,259638,4.8634119345,-3.9158541848999997,7.2705914701,550
135048,204586,259637,4.8634119345,-3.9158541848999997,7.2705914701,551
134943,204548,259602,4.8634119345,-3.9158541848999997,7.2705914701,552
134888,204513,259600,4.8634119345,-3.9158541848999997,7.2705914701,553
134881,204525,259558,4.8634119345,-3.9158541848999997,7.2705914701,554
134862,204529,259600,4.8634119345,-3.9158541848999997,7.2705914701,555
134885,204542,259578,4.8634119345,-3.9158541848999997,7.2705914701,556
134867,204526,259583,4.8634119345,-3.9158541848999997,7.2705914701,557
134847,204535,259562,4.8634119345,-3.9158541848999997,7.2705914701,558
134850,204509,259551,4.8634119345,-3.9158541848999997,7.2705914701,559
134858,204518,259564,4.8634119345,-3.9158541848999997,7.2705914701,560
134880,204527,259549,4.9435714916,-3.9481572899999997,7.3304120351,561
134902,204547,259572,4.9435714916,-3.9481572899999997,7.3304120351,562
134953,204554,259613,4.9435714916,-3.9481572899999997,7.3304120351,563
135001,204556,259685,4.9435714916,-3.9481572899999997,7.3304120351,564
135053,204599,259555,4.9435714916,-3.9481572899999997,7.3304120351,565
135104,204586,259606,4.9435714916,-3.9481572899999997,7.3304120351,566
135161,204592,259638,4.869393991,-3.8679977328999997,7.4500531651,567
135231,204632,259596,4.869393991,-3.8679977328999997,7.4500531651,568
135295,204659,259615,4.869393991,-3.8679977328999997,7.4500531651,569
135364,204675,259714,4.869393991,-3.8679977328999997,7.4500531651,570
135429,204676,259713,4.869393991,-3.8679977328999997,7.4500531651,571
135430,204647,259678,4.869393991,-3.8679977328999997,7.4500531651,572
135319,204609,259620,4.869393991,-3.8679977328999997,7.4500531651,573
135137,204664,259659,4.869393991,-3.8679977328999997,7.4500531651,574
134973,204616,259634,4.869393991,-3.8679977328999997,7.4500531651,575
134819,204641,259655,4.869393991,-3.8679977328999997,7.4500531651,576
134697,204588,259656,4.869393991,-3.8679977328999997,7.4500531651,577
134608,204558,259595,4.869393991,-3.8679977328999997,7.4500531651,578
134566,204533,259604,4.869393991,-3.8679977328999997,7.4500531651,579
134530,204546,259571,4.893322217,-3.9672998708,7.262216591,580
134508,204548,259572,4.893322217,-3.9672998708,7.262216591,581
134482,204542,259559,4.893322217,-3.9672998708,7.262216591,582
134443,204519,259595,4.893322217,-3.9672998708,7.262216591,583
134428,204532,259571,4.893322217,-3.9672998708,7.262216591,584
134429,204533,259514,4.893322217,-3.9672998708,7.262216591,585
134434,204520,259546,4.893322217,-3.9672998708,7.262216591,586
134460,204532,259558,4.893322217,-3.9672998708,7.262216591,587
134516,204550,259535,4.893322217,-3.9672998708,7.262216591,588
134546,204529,259562,4.893322217,-3.9672998708,7.262216591,589
134600,204560,259583,4.893322217,-3.9672998708,7.262216591,590
134672,204565,259599,4.893322217,-3.9672998708,7.262216591,591
134730,204615,259626,4.893322217,-3.9672998708,7.262216591,592
134757,204605,259625,4.9794638306,-4.0055850324,7.2358955424,593
134854,204640,259601,4.9794638306,-4.0055850324,7.2358955424,594
134916,204658,259674,4.9794638306,-4.0055850324,7.2358955424,595
134960,204669,259591,4.9794638306,-4.0055850324,7.2358955424,596
135008,204651,259571,4.9794638306,-4.0055850324,7.2358955424,597
134909,204647,259596,4.9794638306,-4.0055850324,7.2358955424,598
134739,204634,259657,4.9794638306,-4.0055850324,7.2358955424,599
134558,204598,259579,4.9794638306,-4.0055850324,7.2358955424,600
134369,204610,259620,4.9794638306,-4.0055850324,7.2358955424,601
134237,204561,259596,4.9794638306,-4.0055850324,7.2358955424,602
134133,204538,259577,4.9794638306,-4.0055850324,7.2358955424,603
134068,204540,259554,4.9794638306,-4.0055850324,7.2358955424,604
134051,204522,259518,4.9794638306,-4.0055850324,7.2358955424,605
134014,204505,259526,4.9794638306,-4.0055850324,7.2358955424,606
134020,204486,259550,4.9794638306,-4.0055850324,7.2358955424,607
133989,204468,259495,4.9794638306,-4.0055850324,7.2358955424,608
133978,204443,259529,4.9794638306,-4.0055850324,7.2358955424,609
133973,204480,259497,4.9794638306,-4.0055850324,7.2358955424,610
133984,204478,259474,4.9794638306,-4.0055850324,7.2358955424,611
134007,204519,259495,4.9698925402,-3.9912280968,7.3220371559999995,612
134073,204476,259493,4.8287160068,-3.9409788222,7.307680220399999,613
134084,204486,259518,4.9734817741,-3.8955151927999996,7.2454668328,614
134179,204493,259471,4.9758745967,-3.9206398301,7.226324252,615
134247,204581,259507,4.8741796362,-3.960121403,7.1760749774,616
134307,204552,259526,4.9914279436,-3.912264951,7.2275206633,617
134361,204553,259524,4.9244289108,-3.9146577735999997,7.361518728899999,618
134453,204560,259550,4.9758745967,-3.8632120877,7.3375905029,619
134540,204573,259595,4.9782674193,-4.064209186099999,7.2837519944,620
134587,204604,259550,4.8550370553999995,-3.9936209194,7.3244299786000004,621
134691,204540,259532,4.929214556,-3.8715869668,7.1868426791,622
134739,204567,259566,4.965106895,-3.9529429352,7.3304120351,623
134759,204553,259559,4.9698925402,-3.9792639838,7.2167529616,624
134681,204479,259551,4.9603212498,-3.9649070482,7.2777699379,625
134502,204503,259567,4.9567320159,-4.0055850324,7.262216591,626
134377,204499,259551,5.032105927799999,-3.936193177,7.253841711900001,627
134249,204509,259510,4.8382872972,-3.9708891047,7.2957161074000005,628
134182,204496,259535,4.9986064114,-3.8727833781,7.183253445199999,629
134143,204505,259508,5.0596233877,-3.9373895883000003,7.2634130023,630
134147,204500,259478,5.0057848792,-3.9625142255999997,7.1880390904,631
134207,204503,259487,4.953142782,-3.9302111204999997,7.166503687,632
134175,204480,259484,4.941178669,-3.876372612,7.3447689707,633
134215,204517,259473,5.0907300815,-3.996013742,7.1928247355999995,634
134200,204491,259506,4.8670011684,-4.0151563228,7.2777699379,635
134189,204478,259475,5.072783911999999,-3.9421752335,7.1641108644,636
134199,204471,259482,5.0237310487,-4.0402809601,7.262216591,637
134223,204383,259476,4.9627140724,-4.0103706776,7.3375905029,638
134270,204514,259454,4.9986064114,-3.9194434188,7.332804857699999,639
134314,204474,259498,5.0309095165,-3.9541393465,7.3112694543000005,640
134368,204446,259472,4.9854458871,-3.9278182979,7.2777699379,641
134442,204512,259480,4.9998028226999995,-4.0378881375,7.2179493729,642
134552,204560,259464,4.9387858464,-3.9314075318,7.2000032034000006,643
134620,204514,259492,5.0285166938999994,-3.9768711611999996,7.2394847763,644
134627,204523,259553,4.9663033062999995,-3.9816568063999997,7.211967316399999,645
134777,204586,259487,4.977071008,-3.8656049103,7.2095744938,646
134895,204619,259542,5.0333023391000005,-3.8691941442,7.332804857699999,647
134871,204588,259547,5.02492746,-4.064209186099999,7.332804857699999,648
134800,204566,259553,5.0273202826,-3.996013742,7.142575461000001,649
134670,204535,259556,4.990231532299999,-3.9936209194,7.0743800169,650
134500,204524,259557,5.0033920566,-3.9014972492999997,7.2897340509,651
134311,204542,259543,4.9722853628,-3.8560336199000003,7.1868426791,652
134319,204522,259468,5.0285166938999994,-3.9708891047,7.281359171799999,653
134261,204471,259513,4.9926243549,-3.9696926934,7.223931429399999,654
134191,204469,259527,4.90528633,-4.0606199522,7.2897340509,655
134219,204428,259479,5.0117669357,-4.0031922098,7.166503687,656
134230,204507,259438,4.9914279436,-3.8524443859999997,7.1353969932,657
134229,204483,259491,4.8191447164,-3.8464623295,7.2454668328,658
134217,204477,259481,4.9363930238,-4.0833517669,7.2837519944,659
134191,204511,259475,4.926821733400001,-3.9493537012999997,7.320840744700001,660
134204,204445,259452,4.9340002012,-3.9266218866,7.2909304621999995,661
134239,204468,259480,5.0141597583,-3.8703905555,7.2071816712,662
134284,204522,259437,4.9005006848,-3.9553357578,7.183253445199999,663
134321,204513,259478,4.9100719752,-3.8967116041,7.238288365000001,664
134362,204484,259480,4.8765724588,-3.9876388629,7.2430740102,665
134453,204535,259509,4.8957150396,-3.9326039431,7.2478596554,666
134491,204558,259469,4.8478585876,-3.8584264425,7.307680220399999,667
134575,204541,259544,4.9316073786,-4.0211383793,7.250252477999999,668
134635,204587,259533,4.941178669,-3.8955151927999996,7.3280192125,669
134706,204502,259588,5.0500520973,-3.9026936606000002,7.2765735266,670
134789,204487,259570,4.9435714916,-3.9050864832,7.1928247355999995,671
134845,204636,259561,4.8622155232,-3.9517465239000003,7.3052873978,672
134804,204609,259546,4.8622155232,-3.9517465239000003,7.3052873978,673
134674,204576,259594,4.8622155232,-3.9517465239000003,7.3052873978,674
134495,204604,259529,4.8622155232,-3.9517465239000003,7.3052873978,675
134311,204588,259557,4.8622155232,-3.9517465239000003,7.3052873978,676
134180,204560,259532,4.8622155232,-3.9517465239000003,7.3052873978,677
134070,204568,259533,4.8622155232,-3.9517465239000003,7.3052873978,678
133996,204512,259489,4.8622155232,-3.9517465239000003,7.3052873978,679
133950,204499,259488,4.8622155232,-3.9517465239000003,7.3052873978,680
133941,204465,259443,4.8622155232,-3.9517465239000003,7.3052873978,681
133921,204488,259502,4.8622155232,-3.9517465239000003,7.3052873978,682
133916,204474,259455,4.8622155232,-3.9517465239000003,7.3052873978,683
133878,204450,259460,4.8622155232,-3.9517465239000003,7.3052873978,684
133865,204475,259445,4.8622155232,-3.9517465239000003,7.3052873978,685
133905,204458,259403,4.8622155232,-3.9517465239000003,7.3052873978,686
133905,204458,259394,4.8622155232,-3.9517465239000003,7.3052873978,687
133956,204467,259430,4.8622155232,-3.9517465239000003,7.3052873978,688
133992,204484,259482,4.9698925402,-3.8608192651000004,7.2610201797,689
134076,204525,259436,4.9698925402,-3.8608192651000004,7.2610201797,690
134154,204538,259477,4.9698925402,-3.8608192651000004,7.2610201797,691
134203,204541,259453,4.9698925402,-3.8608192651000004,7.2610201797,692
134279,204542,259480,4.9698925402,-3.8608192651000004,7.2610201797,693
134363,204561,259536,4.9698925402,-3.8608192651000004,7.2610201797,694
134448,204594,259469,4.9698925402,-3.8608192651000004,7.2610201797,695
134512,204584,259543,4.9698925402,-3.8608192651000004,7.2610201797,696
134579,204646,259524,4.9698925402,-3.8608192651000004,7.2610201797,697
134612,204598,259575,4.9698925402,-3.8608192651000004,7.2610201797,698
134512,204583,259489,4.9698925402,-3.8608192651000004,7.2610201797,699
134345,204593,259541,4.9698925402,-3.8608192651000004,7.2610201797,700
134149,204580,259510,4.9698925402,-3.8608192651000004,7.2610201797,701
134011,204539,259517,4.883750926599999,-3.9194434188,7.1497539288,702
133898,204540,259459,4.883750926599999,-3.9194434188,7.1497539288,703
133821,204475,259441,4.883750926599999,-3.9194434188,7.1497539288,704
133767,204504,259455,4.883750926599999,-3.9194434188,7.1497539288,705
133784,204476,259380,4.883750926599999,-3.9194434188,7.1497539288,706
133796,204462,259422,4.883750926599999,-3.9194434188,7.1497539288,707
133771,204458,259501,4.883750926599999,-3.9194434188,7.1497539288,708
133771,204427,259385,4.883750926599999,-3.9194434188,7.1497539288,709
133789,204449,259466,4.883750926599999,-3.9194434188,7.1497539288,710
133810,204481,259406,4.883750926599999,-3.9194434188,7.1497539288,711
133839,204488,259409,4.883750926599999,-3.9194434188,7.1497539288,712
133907,204439,259428,4.883750926599999,-3.9194434188,7.1497539288,713
133955,204458,259411,4.883750926599999,-3.9194434188,7.1497539288,714
134030,204438,259418,4.883750926599999,-3.9194434188,7.1497539288,715
134110,204486,259430,4.883750926599999,-3.9194434188,7.1497539288,716
134191,204489,259455,4.883750926599999,-3.9194434188,7.1497539288,717
134256,204492,259394,4.883750926599999,-3.9194434188,7.1497539288,718
134339,204521,259435,4.883750926599999,-3.9194434188,7.1497539288,719
134409,204478,259467,4.883750926599999,-3.9194434188,7.1497539288,720
134501,204525,259438,4.883750926599999,-3.9194434188,7.1497539288,721
134595,204542,259504,4.883750926599999,-3.9194434188,7.1497539288,722
134698,204526,259518,4.883750926599999,-3.9194434188,7.1497539288,723
134692,204550,259495,4.883750926599999,-3.9194434188,7.1497539288,724
134589,204532,259481,4.883750926599999,-3.9194434188,7.1497539288,725
134443,204500,259522,4.883750926599999,-3.9194434188,7.1497539288,726
134314,204573,259483,4.883750926599999,-3.9194434188,7.1497539288,727
134281,204442,259461,4.883750926599999,-3.9194434188,7.1497539288,728
134204,204496,259485,4.883750926599999,-3.9194434188,7.1497539288,729
134210,204476,259428,4.883750926599999,-3.9194434188,7.1497539288,730
134229,204438,259459,4.883750926599999,-3.9194434188,7.1497539288,731
134267,204484,259424,4.883750926599999,-3.9194434188,7.1497539288,732
134279,204467,259394,4.883750926599999,-3.9194434188,7.1497539288,733
134294,204461,259417,4.883750926599999,-3.9194434188,7.1497539288,734
134285,204417,259422,4.883750926599999,-3.9194434188,7.1497539288,735
134336,204493,259405,4.883750926599999,-3.9194434188,7.1497539288,736
134362,204448,259430,4.883750926599999,-3.9194434188,7.1497539288,737
134406,204481,259441,4.883750926599999,-3.9194434188,7.1497539288,738
134465,204461,259401,4.883750926599999,-3.9194434188,7.1497539288,739
134529,204459,259403,4.883750926599999,-3.9194434188,7.1497539288,740
134592,204481,259437,4.883750926599999,-3.9194434188,7.1497539288,741
134650,204513,259435,4.883750926599999,-3.9194434188,7.1497539288,742
134716,204523,259447,4.883750926599999,-3.9194434188,7.1497539288,743
134966,204591,259516,5.0500520973,-3.9553357578,7.240681187599999,744
135004,204574,259527,5.0500520973,-3.9553357578,7.240681187599999,745
135010,204573,259515,5.0500520973,-3.9553357578,7.240681187599999,746
134890,204540,259505,5.0500520973,-3.9553357578,7.240681187599999,747
134723,204584,259508,5.0500520973,-3.9553357578,7.240681187599999,748
134596,204541,259485,5.0500520973,-3.9553357578,7.240681187599999,749
134507,204523,259498,5.0500520973,-3.9553357578,7.240681187599999,750
134416,204542,259420,5.0500520973,-3.9553357578,7.240681187599999,751
134420,204498,259445,5.0500520973,-3.9553357578,7.240681187599999,752
134403,204492,259476,5.0500520973,-3.9553357578,7.240681187599999,753
134437,204478,259443,5.0500520973,-3.9553357578,7.240681187599999,754
134425,204501,259431,5.0500520973,-3.9553357578,7.240681187599999,755
134400,204487,259440,5.0500520973,-3.9553357578,7.240681187599999,756
134411,204461,259436,5.0500520973,-3.9553357578,7.240681187599999,757
134423,204490,259441,5.0500520973,-3.9553357578,7.240681187599999,758
134443,204487,259469,5.0500520973,-3.9553357578,7.240681187599999,759
134496,204518,259441,5.0500520973,-3.9553357578,7.240681187599999,760
134535,204528,259464,5.0500520973,-3.9553357578,7.240681187599999,761
134587,204536,259460,5.0500520973,-3.9553357578,7.240681187599999,762
134648,204537,259455,5.0500520973,-3.9553357578,7.240681187599999,763
134710,204547,259515,5.0500520973,-3.9553357578,7.240681187599999,764
134775,204555,259446,5.0500520973,-3.9553357578,7.240681187599999,765
134858,204579,259488,5.0500520973,-3.9553357578,7.240681187599999,766
134937,204603,259503,5.0500520973,-3.9553357578,7.240681187599999,767
135013,204640,259543,5.0500520973,-3.9553357578,7.240681187599999,768
135070,204667,259540,5.0500520973,-3.9553357578,7.240681187599999,769
135122,204669,259538,5.0500520973,-3.9553357578,7.240681187599999,770
135032,204601,259546,5.0500520973,-3.9553357578,7.240681187599999,771
134854,204628,259563,5.0500520973,-3.9553357578,7.240681187599999,772
134683,204636,259566,5.0500520973,-3.9553357578,7.240681187599999,773
134514,204594,259523,5.0500520973,-3.9553357578,7.240681187599999,774
134416,204560,259511,5.0500520973,-3.9553357578,7.240681187599999,775
134311,204517,259449,5.0428736295,-3.924229064,7.240681187599999,776
134276,204527,259463,5.0428736295,-3.924229064,7.240681187599999,777
134254,204489,259445,5.0428736295,-3.924229064,7.240681187599999,778
134215,204485,259424,5.0428736295,-3.924229064,7.240681187599999,779
134213,204501,259429,5.0428736295,-3.924229064,7.240681187599999,780
134185,204499,259440,5.0428736295,-3.924229064,7.240681187599999,781
134181,204492,259440,5.0428736295,-3.924229064,7.240681187599999,782
134182,204451,259440,5.0428736295,-3.924229064,7.240681187599999,783
134195,204490,259421,5.0428736295,-3.924229064,7.240681187599999,784
134236,204493,259425,5.0428736295,-3.924229064,7.240681187599999,785
134299,204503,259425,5.0428736295,-3.924229064,7.240681187599999,786
134358,204520,259421,5.0428736295,-3.924229064,7.240681187599999,787
134404,204531,259451,5.0428736295,-3.924229064,7.240681187599999,788
134465,204524,259449,4.8000021356,-3.9385859996,7.3088766317000005,789
134525,204500,259455,4.9818566531999995,-3.9744783386,7.2777699379,790
134589,204540,259434,4.8909293944,-3.8596228538,7.2765735266,791
134703,204567,259481,4.8717868136,-3.8464623295,7.3184479221,792
134760,204591,259499,5.0548377425,-3.9050864832,7.3028945752,793
134838,204625,259464,4.878965281399999,-3.8189448695999997,7.3064838090999995,794
134845,204626,259519,4.953142782,-3.9696926934,7.282555583100001,795
134749,204544,259538,4.9782674193,-3.9254254753,7.2610201797,796
134592,204545,259531,4.9196432655999995,-4.0151563228,7.2765735266,797
134426,204549,259497,4.878965281399999,-3.9744783386,7.2430740102,798
134285,204546,259452,5.0404808069,-3.8309089826,7.2191457842,799
134248,204493,259456,4.9351966125,-3.8811582571999996,7.2885376395999995,800
134161,204538,259434,4.9938207662,-3.9625142255999997,7.2287170746000005,801
134127,204463,259397,4.926821733400001,-3.8297125713,7.196413969499999,802
134107,204468,259367,4.8981078622,-3.9373895883000003,7.252645300599999,803
134114,204430,259387,5.0117669357,-3.9266218866,7.2287170746000005,804
134132,204462,259430,5.0117669357,-3.9266218866,7.2287170746000005,805
134112,204483,259438,5.0117669357,-3.9266218866,7.2287170746000005,806
134113,204448,259401,5.0117669357,-3.9266218866,7.2287170746000005,807
134129,204420,259374,5.0117669357,-3.9266218866,7.2287170746000005,808
134161,204431,259389,5.0117669357,-3.9266218866,7.2287170746000005,809
134218,204432,259400,5.0117669357,-3.9266218866,7.2287170746000005,810
134280,204480,259389,5.0117669357,-3.9266218866,7.2287170746000005,811
134337,204423,259342,5.0117669357,-3.9266218866,7.2287170746000005,812
134407,204449,259382,5.0117669357,-3.9266218866,7.2287170746000005,813
134478,204467,259346,5.0117669357,-3.9266218866,7.2287170746000005,814
134556,204478,259417,5.0117669357,-3.9266218866,7.2287170746000005,815
134632,204479,259418,5.0117669357,-3.9266218866,7.2287170746000005,816
134729,204517,259473,5.0117669357,-3.9266218866,7.2287170746000005,817
134796,204501,259432,5.0117669357,-3.9266218866,7.2287170746000005,818
134834,204515,259444,5.0117669357,-3.9266218866,7.2287170746000005,819
134756,204507,259514,5.0117669357,-3.9266218866,7.2287170746000005,820
134642,204532,259455,5.0117669357,-3.9266218866,7.2287170746000005,821
134510,204494,259379,5.0117669357,-3.9266218866,7.2287170746000005,822
134431,204483,259363,5.0117669357,-3.9266218866,7.2287170746000005,823
134411,204446,259401,5.0117669357,-3.9266218866,7.2287170746000005,824
134409,204443,259408,5.0117669357,-3.9266218866,7.2287170746000005,825
134444,204464,259343,5.0117669357,-3.9266218866,7.2287170746000005,826
134461,204417,259337,5.0117669357,-3.9266218866,7.2287170746000005,827
134463,204430,259383,4.9100719752,-3.8356946278,7.334001269,828
134499,204436,259380,4.9100719752,-3.8356946278,7.334001269,829
134520,204409,259338,4.9100719752,-3.8356946278,7.334001269,830
134525,204461,259375,4.9100719752,-3.8356946278,7.334001269,831
134563,204465,259381,4.9100719752,-3.8356946278,7.334001269,832
134586,204452,259399,4.9100719752,-3.8356946278,7.334001269,833
134635,204480,259406,4.9100719752,-3.8356946278,7.334001269,834
134699,204468,259417,4.9100719752,-3.8356946278,7.334001269,835
134767,204485,259388,4.9100719752,-3.8356946278,7.334001269,836
134825,204529,259377,4.9100719752,-3.8356946278,7.334001269,837
134909,204508,259429,4.9100719752,-3.8356946278,7.334001269,838
134969,204531,259432,4.9100719752,-3.8356946278,7.334001269,839
135039,204554,259443,4.9100719752,-3.8356946278,7.334001269,840
135068,204563,259465,4.9100719752,-3.8356946278,7.334001269,841
134982,204543,259459,4.9100719752,-3.8356946278,7.334001269,842
134822,204530,259458,4.9100719752,-3.8356946278,7.334001269,843
134653,204540,259472,4.9100719752,-3.8356946278,7.334001269,844
134527,204497,259393,4.9100719752,-3.8356946278,7.334001269,845
134412,204490,259433,4.9100719752,-3.8356946278,7.334001269,846
134340,204475,259384,5.1493542352,-3.984049629,7.240681187599999,847
134330,204468,259374,4.8646083458,-3.9170505962,7.2358955424,848
134325,204437,259388,4.8646083458,-3.9170505962,7.2358955424,849
134329,204461,259384,4.8646083458,-3.9170505962,7.2358955424,850
134302,204447,259398,4.8646083458,-3.9170505962,7.2358955424,851
134305,204407,259362,4.8646083458,-3.9170505962,7.2358955424,852
134291,204466,259421,4.9543391933,-3.9194434188,7.1808606226,853
134306,204461,259393,4.9112683865,-3.8512479747,7.304090986499999,854
134345,204475,259362,4.9914279436,-3.9194434188,7.2610201797,855
134349,204463,259376,4.9399822577,-3.8799618459,7.320840744700001,856
134444,204487,259383,4.8945186283,-4.007977855,7.223931429399999,857
134513,204485,259348,4.833501652,-3.9457644674,7.2598237683999995,858
134524,204495,259393,4.9459643142,-4.030709669699999,7.3268228012,859
134605,204524,259381,5.0524449199,-3.9912280968,7.262216591,860
134674,204532,259419,4.929214556,-3.9696926934,7.3375905029,861
134738,204581,259464,4.8598227006,-3.9672998708,7.3244299786000004,862
134816,204625,259411,4.8586262893,-3.9744783386,7.2047888486,863
134876,204611,259480,4.90528633,-4.0151563228,7.2550381232,864
134828,204592,259499,4.9495535481,-4.0701912426,7.238288365000001,865
134663,204587,259492,4.9591248385,-3.9493537012999997,7.2287170746000005,866
134514,204587,259467,4.8658047571,-3.9625142255999997,7.238288365000001,867
134334,204546,259381,5.0033920566,-3.8560336199000003,7.278966349199999,868
134168,204506,259366,5.0021956453,-3.8153556357,7.2598237683999995,869
134032,204506,259383,4.917250443,-3.9206398301,7.3543402611,870
133979,204442,259376,4.8562334667,-4.1048871703,7.2574309458,871
133913,204414,259327,4.917250443,-4.0175491454,7.335197680299999,872
133925,204415,259352,4.8741796362,-3.912264951,7.2466632441,873
133903,204374,259343,5.0189454035,-3.7986058774999996,7.1569323966,874
133879,204391,259294,4.850251410199999,-3.8488551521,7.267002236200001,875
133842,204384,259302,4.899304273499999,-3.8033915226999997,7.3184479221,876
133846,204401,259258,5.0225346374,-3.9266218866,7.226324252,877
133860,204369,259257,4.995017177499999,-4.0450666053,7.2287170746000005,878
133897,204382,259308,4.8646083458,-3.9254254753,7.3854469549,879
133915,204373,259326,4.9686961289000005,-3.9194434188,7.1880390904,880
133997,204391,259301,4.8670011684,-4.0773697104,7.363911551499999,881
134058,204426,259311,4.8670011684,-4.0773697104,7.363911551499999,882
134135,204457,259324,4.8670011684,-4.0773697104,7.363911551499999,883
134184,204454,259288,4.8670011684,-4.0773697104,7.363911551499999,884
134274,204438,259342,5.0500520973,-3.9098721283999995,7.3375905029,885
134341,204473,259358,4.8909293944,-4.0295132584,7.282555583100001,886
134441,204496,259370,5.0141597583,-3.9505501125999998,7.319644333399999,887
134497,204510,259437,4.8610191119,-3.8464623295,7.2323063085,888
134530,204527,259380,5.0237310487,-3.9014972492999997,7.405785946999999,889
134471,204514,259440,4.9028935074,-4.043870194,7.282555583100001,890
134271,204517,259402,4.8658047571,-3.9182470075,7.2681986475,891
134128,204450,259428,4.929214556,-3.8177484582999996,7.4177500599999995,892
133972,204415,259376,4.929214556,-3.8177484582999996,7.4177500599999995,893
133846,204407,259342,4.929214556,-3.8177484582999996,7.4177500599999995,894
133783,204408,259307,4.929214556,-3.8177484582999996,7.4177500599999995,895
133721,204357,259273,4.929214556,-3.8177484582999996,7.4177500599999995,896
133704,204302,259283,4.929214556,-3.8177484582999996,7.4177500599999995,897
133705,204330,259257,4.929214556,-3.8177484582999996,7.4177500599999995,898
133733,204310,259316,4.929214556,-3.8177484582999996,7.4177500599999995,899
133741,204344,259231,4.929214556,-3.8177484582999996,7.4177500599999995,900
133726,204313,259245,4.929214556,-3.8177484582999996,7.4177500599999995,901
133741,204270,259249,4.929214556,-3.8177484582999996,7.4177500599999995,902
133785,204284,259246,4.929214556,-3.8177484582999996,7.4177500599999995,903
133824,204288,259222,4.9471607255,-4.0175491454,7.2550381232,904
133895,204282,259221,4.9471607255,-4.0175491454,7.2550381232,905
133954,204316,259271,4.9471607255,-4.0175491454,7.2550381232,906
134042,204303,259262,4.9471607255,-4.0175491454,7.2550381232,907
134103,204364,259233,4.9471607255,-4.0175491454,7.2550381232,908
134190,204348,259257,4.9471607255,-4.0175491454,7.2550381232,909
134269,204342,259234,4.9471607255,-4.0175491454,7.2550381232,910
134367,204351,259266,4.9471607255,-4.0175491454,7.2550381232,911
134442,204403,259300,4.9471607255,-4.0175491454,7.2550381232,912
134527,204395,259320,4.9471607255,-4.0175491454,7.2550381232,913
134516,204362,259318,4.9471607255,-4.0175491454,7.2550381232,914
134415,204387,259307,4.9471607255,-4.0175491454,7.2550381232,915
134279,204373,259305,4.9471607255,-4.0175491454,7.2550381232,916
134146,204328,259336,4.9471607255,-4.0175491454,7.2550381232,917
134090,204318,259274,4.9471607255,-4.0175491454,7.2550381232,918
134079,204300,259260,4.9471607255,-4.0175491454,7.2550381232,919
134089,204283,259294,4.9471607255,-4.0175491454,7.2550381232,920
134111,204293,259205,4.9471607255,-4.0175491454,7.2550381232,921
134130,204304,259217,4.9471607255,-4.0175491454,7.2550381232,922
134152,204304,259227,4.9471607255,-4.0175491454,7.2550381232,923
134165,204300,259269,4.9471607255,-4.0175491454,7.2550381232,924
134168,204349,259241,4.9471607255,-4.0175491454,7.2550381232,925
134175,204315,259252,4.9471607255,-4.0175491454,7.2550381232,926
134219,204345,259194,4.9471607255,-4.0175491454,7.2550381232,927
134262,204298,259246,4.9471607255,-4.0175491454,7.2550381232,928
134309,204369,259303,4.9471607255,-4.0175491454,7.2550381232,929
134382,204372,259322,4.9447679029,-3.9266218866,7.2693950588,930
134437,204358,259280,4.9447679029,-3.9266218866,7.2693950588,931
134492,204411,259301,4.9447679029,-3.9266218866,7.2693950588,932
134591,204426,259279,4.9447679029,-3.9266218866,7.2693950588,933
134652,204448,259329,4.9447679029,-3.9266218866,7.2693950588,934
134731,204442,259309,4.9447679029,-3.9266218866,7.2693950588,935
134813,204490,259331,4.9447679029,-3.9266218866,7.2693950588,936
134837,204466,259305,4.9447679029,-3.9266218866,7.2693950588,937
134782,204488,259314,4.9447679029,-3.9266218866,7.2693950588,938
134591,204464,259358,4.9447679029,-3.9266218866,7.2693950588,939
134414,204469,259368,4.9447679029,-3.9266218866,7.2693950588,940
134291,204388,259326,4.9447679029,-3.9266218866,7.2693950588,941
134176,204395,259323,4.9447679029,-3.9266218866,7.2693950588,942
134122,204357,259273,5.0380879843,-3.8273197486999995,7.334001269,943
134064,204332,259342,4.9758745967,-3.8560336199000003,7.3304120351,944
134055,204334,259251,4.9028935074,-4.0582271296000005,7.3710900192999995,945
134055,204372,259256,5.0273202826,-3.9577285803999995,7.211967316399999,946
134037,204349,259241,4.8957150396,-3.9756747499,7.310073043,947
134050,204363,259267,5.0632126216,-3.936193177,7.2765735266,948
134048,204356,259264,4.8981078622,-3.9589249917,7.2598237683999995,949
134072,204399,259250,4.8418765311,-4.0031922098,7.3304120351,950
134107,204394,259260,4.9507499594,-3.8859439023999998,7.282555583100001,951
134113,204386,259243,4.9998028226999995,-3.8679977328999997,7.2191457842,952
134176,204375,259238,4.8885365718,-4.0127635002,7.190431913,953
134221,204314,259300,4.9124647978,-3.9984065645999998,7.317251510799999,954
134295,204381,259282,4.9076791526,-3.9744783386,7.2454668328,955
134366,204417,259276,4.9435714916,-4.064209186099999,7.2047888486,956
134467,204433,259283,4.8957150396,-3.9529429352,7.1892355017,957
134516,204458,259376,4.9746781854,-3.9481572899999997,7.3112694543000005,958
134597,204483,259321,4.9746781854,-3.9481572899999997,7.3112694543000005,959
134687,204550,259330,4.9746781854,-3.9481572899999997,7.3112694543000005,960
134762,204505,259366,4.9746781854,-3.9481572899999997,7.3112694543000005,961
134796,204508,259392,4.9040899186999996,-3.984049629,7.390232600099999,962
134677,204520,259396,4.8227339503,-3.9373895883000003,7.223931429399999,963
134532,204510,259364,4.797609313,-3.9780675724999996,7.3591259063,964
134332,204475,259378,4.9435714916,-3.9529429352,7.2000032034000006,965
134193,204458,259345,4.9567320159,-3.9134613623,7.2167529616,966
134073,204425,259325,4.9555356046000005,-3.9074793058,7.323233567299999,967
133991,204419,259357,5.1098726623,-3.9529429352,7.2335027198,968
133938,204374,259287,4.9878387097,-3.888336725,7.348358204599999,969
133948,204404,259265,4.9878387097,-3.888336725,7.348358204599999,970
133947,204375,259302,4.9878387097,-3.888336725,7.348358204599999,971
133945,204362,259238,4.9878387097,-3.888336725,7.348358204599999,972
133938,204363,259248,4.9878387097,-3.888336725,7.348358204599999,973
133941,204360,259243,4.9878387097,-3.888336725,7.348358204599999,974
133949,204343,259266,4.9878387097,-3.888336725,7.348358204599999,975
133970,204338,259214,4.9878387097,-3.888336725,7.348358204599999,976
134030,204391,259282,4.9878387097,-3.888336725,7.348358204599999,977
134091,204375,259248,4.9878387097,-3.888336725,7.348358204599999,978
134172,204396,259270,4.9878387097,-3.888336725,7.348358204599999,979
134232,204386,259252,4.9878387097,-3.888336725,7.348358204599999,980
134309,204431,259223,4.9878387097,-3.888336725,7.348358204599999,981
134376,204451,259253,4.9878387097,-3.888336725,7.348358204599999,982
134490,204476,259291,4.9878387097,-3.888336725,7.348358204599999,983
134559,204501,259328,4.9878387097,-3.888336725,7.348358204599999,984
134628,204502,259321,4.9878387097,-3.888336725,7.348358204599999,985
134737,204509,259324,4.9878387097,-3.888336725,7.348358204599999,986
134839,204563,259370,4.9878387097,-3.888336725,7.348358204599999,987
134834,204556,259342,4.9304109673,-3.9086757171,7.202396026,988
134745,204532,259368,4.9722853628,-3.9469608787,7.2035924373,989
134623,204546,259380,4.995017177499999,-3.9014972492999997,7.250252477999999,990
134376,204497,259381,5.0596233877,-3.9290147091999996,7.2849484057,991
134326,204449,259325,4.9124647978,-3.864408499,7.2993053413,992
134244,204462,259308,5.0656054442,-3.9493537012999997,7.274180704,993
134274,204415,259298,4.9603212498,-3.9864424516000003,7.2765735266,994
134260,204446,259290,5.0380879843,-3.8548372086000002,7.190431913,995
134263,204408,259323,4.990231532299999,-3.9864424516000003,7.345965381999999,996
134286,204396,259195,4.9627140724,-3.8943187815,7.2765735266,997
134258,204419,259283,4.9818566531999995,-3.9744783386,7.267002236200001,998
134254,204416,259254,4.9387858464,-4.0486558392,7.2287170746000005,999
134258,204368,259213,4.8323052407,-4.0103706776,7.2191457842,1000
134297,204400,259229,4.9040899186999996,-3.8727833781,7.2729842927,1001
134271,204382,259235,4.9471607255,-3.9672998708,7.2095744938,1002
134418,204380,259197,4.977071008,-3.9493537012999997,7.2885376395999995,1003
134459,204398,259257,4.90528633,-4.0115670889,7.332804857699999,1004
134535,204422,259258,5.1098726623,-4.0271204358,7.2418775989,1005
134617,204469,259241,4.9866422984,-3.8488551521,7.214360139,1006
134689,204352,259265,4.8311088294,-4.0893338234,7.223931429399999,1007
134772,204319,259281,4.8646083458,-3.9254254753,7.183253445199999,1008
134859,204358,259297,4.917250443,-3.9098721283999995,7.286144817,1009
134927,204491,259376,4.9124647978,-3.8368910391,7.307680220399999,1010
134998,204389,259335,5.1170511301,-3.9936209194,7.3950182453,1011
135050,204400,259328,5.0153561695999995,-3.8751762007000004,7.2574309458,1012
135017,204435,259289,4.9698925402,-4.0654055974,7.2071816712,1013
134876,204485,259315,4.9698925402,-4.0654055974,7.2071816712,1014
134750,204456,259284,4.9698925402,-4.0654055974,7.2071816712,1015
134667,204478,259313,4.9698925402,-4.0654055974,7.2071816712,1016
134623,204449,259316,4.9698925402,-4.0654055974,7.2071816712,1017
134614,204424,259287,4.9698925402,-4.0654055974,7.2071816712,1018
134601,204439,259298,4.9698925402,-4.0654055974,7.2071816712,1019
134639,204437,259252,4.8765724588,-3.9541393465,7.190431913,1020
134608,204415,259275,4.9483571368,-4.0630127748,7.336394091599999,1021
134678,204427,259252,4.9387858464,-3.8895331363000003,7.202396026,1022
134736,204456,259283,4.9974100001,-4.0713876539,7.2729842927,1023
134715,204478,259297,5.0141597583,-3.9050864832,7.253841711900001,1024
134740,204445,259339,4.8478585876,-4.0462630166,7.1952175581999995,1025
134760,204389,259322,5.0883372589,-3.9541393465,7.238288365000001,1026
134831,204444,259332,4.9782674193,-3.9290147091999996,7.3256263899,1027
134867,204505,259342,4.8670011684,-3.9254254753,7.2646094136,1028
134951,204497,259331,4.961517661099999,-3.8703905555,7.3244299786000004,1029
134994,204524,259326,4.9244289108,-4.0390845488,7.252645300599999,1030
135121,204579,259366,4.9686961289000005,-3.9672998708,7.3974110679,1031
135153,204560,259412,4.899304273499999,-3.9146577735999997,7.307680220399999,1032
135207,204584,259435,4.9627140724,-4.001995798499999,7.3603223176,1033
135277,204624,259428,4.8622155232,-3.8572300312,7.2729842927,1034
135334,204623,259367,5.0309095165,-3.8739797894,7.184449856500001,1035
135290,204609,259408,5.0309095165,-3.8739797894,7.184449856500001,1036
135131,204584,259407,5.0309095165,-3.8739797894,7.184449856500001,1037
134968,204603,259433,5.0309095165,-3.8739797894,7.184449856500001,1038
134833,204545,259452,4.9926243549,-3.9385859996,7.4428746973,1039
134719,204549,259383,4.9842494758,-4.0522450731,7.3722864306,1040
134644,204513,259389,5.0045884679,-4.0366917262,7.3292156238,1041
134616,204507,259371,4.8981078622,-3.8991044267,7.2765735266,1042
134605,204486,259328,4.9328037898999995,-3.9469608787,7.278966349199999,1043
134577,204463,259295,5.0033920566,-3.9457644674,7.267002236200001,1044
134559,204456,259358,4.9758745967,-4.0259240245,7.2478596554,1045
134551,204383,259292,5.0021956453,-4.007977855,7.1976103808000005,1046
134552,204368,259310,4.8753760475,-3.8608192651000004,7.2011996147,1047
134578,204479,259335,4.9830530645,-3.8943187815,7.2287170746000005,1048
134611,204490,259323,4.9806602419,-3.8081771679,7.349554615900001,1049
134625,204479,259306,4.7808595548,-3.9003008379999997,7.378268487100001,1050
134691,204542,259314,4.9555356046000005,-3.8823546685,7.361518728899999,1051
134682,204520,259327,4.9208396769,-3.9469608787,7.2550381232,1052
134833,204494,259358,4.9375894351,-3.9445680561,7.2275206633,1053
134906,204513,259303,4.8717868136,-3.9696926934,7.154539573999999,1054
134944,204550,259331,4.881358104,-3.9385859996,7.3136622769,1055
134994,204579,259387,4.8741796362,-3.9421752335,7.304090986499999,1056
135105,204575,259377,5.0141597583,-3.9577285803999995,7.2693950588,1057
135185,204611,259393,5.0141597583,-3.9577285803999995,7.2693950588,1058
135243,204626,259412,5.0141597583,-3.9577285803999995,7.2693950588,1059
135210,204619,259406,5.0141597583,-3.9577285803999995,7.2693950588,1060
135043,204592,259430,5.0141597583,-3.9577285803999995,7.2693950588,1061
134854,204553,259384,5.0141597583,-3.9577285803999995,7.2693950588,1062
134728,204516,259409,5.0141597583,-3.9577285803999995,7.2693950588,1063
134536,204501,259276,4.9304109673,-3.9625142255999997,7.3256263899,1064
134458,204441,259306,5.0093741131,-3.9744783386,7.2693950588,1065
134408,204427,259268,4.9280181447,-3.8392838617,7.2969125187,1066
134425,204423,259258,4.8358944746,-4.0654055974,7.2873412283,1067
134426,204425,259272,4.9710889515,-3.9672998708,7.211967316399999,1068
134467,204404,259231,4.9710889515,-3.9672998708,7.211967316399999,1069
134451,204410,259262,4.9710889515,-3.9672998708,7.211967316399999,1070
134456,204399,259293,4.9710889515,-3.9672998708,7.211967316399999,1071
134478,204414,259240,4.9710889515,-3.9672998708,7.211967316399999,1072
134554,204393,259274,4.9710889515,-3.9672998708,7.211967316399999,1073
134619,204387,259255,4.9710889515,-3.9672998708,7.211967316399999,1074
134657,204422,259265,4.9710889515,-3.9672998708,7.211967316399999,1075
134727,204457,259268,4.9710889515,-3.9672998708,7.211967316399999,1076
134784,204410,259277,4.9710889515,-3.9672998708,7.211967316399999,1077
134870,204440,259254,4.9710889515,-3.9672998708,7.211967316399999,1078
134943,204477,259301,4.9710889515,-3.9672998708,7.211967316399999,1079
135027,204492,259244,4.9710889515,-3.9672998708,7.211967316399999,1080
135098,204510,259280,4.9710889515,-3.9672998708,7.211967316399999,1081
135190,204499,259321,4.9710889515,-3.9672998708,7.211967316399999,1082
135131,204490,259320,4.7629133853,-3.9529429352,7.2418775989,1083
135051,204494,259308,4.9722853628,-3.9505501125999998,7.166503687,1084
134901,204497,259266,4.9483571368,-3.9912280968,7.2801627605000006,1085
134816,204473,259251,4.9399822577,-3.8991044267,7.2753771152999995,1086
134753,204416,259260,4.7724846757,-3.8739797894,7.282555583100001,1087
134708,204419,259209,5.0213382261,-3.936193177,7.265805824899999,1088
134718,204274,259207,5.0081777018,-3.9230326527000003,7.1401826384,1089
134747,204356,259236,4.8765724588,-4.055834307,7.2000032034000006,1090
134795,204396,259256,5.045266452099999,-3.9481572899999997,7.2765735266,1091
134799,204364,259205,4.929214556,-3.9218362414,7.2801627605000006,1092
134802,204368,259198,5.0153561695999995,-3.9864424516000003,7.240681187599999,1093
134807,204350,259220,5.026123871299999,-3.9888352742,7.2897340509,1094
134855,204334,259191,5.0201418148,-4.0271204358,7.1952175581999995,1095
134885,204336,259195,4.9974100001,-4.0366917262,7.307680220399999,1096
134914,204344,259227,4.8670011684,-3.9074793058,7.267002236200001,1097
134983,204363,259233,4.9579284272,-3.9314075318,7.267002236200001,1098
135046,204414,259224,4.9483571368,-3.9912280968,7.267002236200001,1099
135113,204409,259240,4.9351966125,-4.0486558392,7.171289332200001,1100
135181,204418,259250,4.8729832249000005,-4.0462630166,7.274180704,1101
135247,204432,259291,4.8729832249000005,-4.0462630166,7.274180704,1102
135306,204476,259267,4.8729832249000005,-4.0462630166,7.274180704,1103
135372,204481,259269,4.8729832249000005,-4.0462630166,7.274180704,1104
135325,204476,259283,4.8729832249000005,-4.0462630166,7.274180704,1105
135199,204467,259306,4.8729832249000005,-4.0462630166,7.274180704,1106
135032,204433,259292,4.8729832249000005,-4.0462630166,7.274180704,1107
134918,204433,259306,4.8729832249000005,-4.0462630166,7.274180704,1108
134825,204359,259237,4.8729832249000005,-4.0462630166,7.274180704,1109
134755,204406,259252,4.8729832249000005,-4.0462630166,7.274180704,1110
134737,204381,259261,4.8729832249000005,-4.0462630166,7.274180704,1111
134756,204332,259202,4.8729832249000005,-4.0462630166,7.274180704,1112
134748,204389,259263,4.8729832249000005,-4.0462630166,7.274180704,1113
134766,204340,259252,4.8729832249000005,-4.0462630166,7.274180704,1114
134758,204370,259247,4.7892344339,-3.9984065645999998,7.3112694543000005,1115
134766,204366,259252,4.7892344339,-3.9984065645999998,7.3112694543000005,1116
134753,204352,259212,4.7892344339,-3.9984065645999998,7.3112694543000005,1117
134795,204383,259219,4.7892344339,-3.9984065645999998,7.3112694543000005,1118
134853,204446,259243,4.7892344339,-3.9984065645999998,7.3112694543000005,1119
134897,204446,259245,4.7892344339,-3.9984065645999998,7.3112694543000005,1120
134949,204418,259243,4.7892344339,-3.9984065645999998,7.3112694543000005,1121
135017,204430,259250,4.7892344339,-3.9984065645999998,7.3112694543000005,1122
135063,204438,259291,4.7892344339,-3.9984065645999998,7.3112694543000005,1123
135142,204513,259268,4.7892344339,-3.9984065645999998,7.3112694543000005,1124
135222,204488,259304,4.7892344339,-3.9984065645999998,7.3112694543000005,1125
135299,204523,259351,4.7892344339,-3.9984065645999998,7.3112694543000005,1126
135302,204509,259362,4.7892344339,-3.9984065645999998,7.3112694543000005,1127
135231,204487,259318,4.7892344339,-3.9984065645999998,7.3112694543000005,1128
135085,204465,259324,4.7892344339,-3.9984065645999998,7.3112694543000005,1129
134888,204462,259256,4.7892344339,-3.9984065645999998,7.3112694543000005,1130
134750,204425,259268,4.7892344339,-3.9984065645999998,7.3112694543000005,1131
134617,204428,259262,4.7892344339,-3.9984065645999998,7.3112694543000005,1132
134530,204414,259215,4.7892344339,-3.9984065645999998,7.3112694543000005,1133
134465,204376,259234,4.7892344339,-3.9984065645999998,7.3112694543000005,1134
134436,204395,259193,4.7892344339,-3.9984065645999998,7.3112694543000005,1135
134436,204362,259197,4.7892344339,-3.9984065645999998,7.3112694543000005,1136
134428,204350,259237,4.7892344339,-3.9984065645999998,7.3112694543000005,1137
134398,204352,259171,4.7892344339,-3.9984065645999998,7.3112694543000005,1138
134420,204333,259179,4.7892344339,-3.9984065645999998,7.3112694543000005,1139
134428,204361,259165,5.0644090329,-3.8249269261,7.2610201797,1140
134438,204353,259163,5.0644090329,-3.8249269261,7.2610201797,1141
134478,204370,259178,5.0644090329,-3.8249269261,7.2610201797,1142
134541,204364,259216,5.0644090329,-3.8249269261,7.2610201797,1143
134587,204356,259178,5.0644090329,-3.8249269261,7.2610201797,1144
134662,204402,259199,5.0644090329,-3.8249269261,7.2610201797,1145
134729,204403,259248,5.0644090329,-3.8249269261,7.2610201797,1146
134795,204454,259206,5.0644090329,-3.8249269261,7.2610201797,1147
134859,204449,259269,5.0644090329,-3.8249269261,7.2610201797,1148
134939,204458,259240,5.0644090329,-3.8249269261,7.2610201797,1149
135023,204501,259279,5.0644090329,-3.8249269261,7.2610201797,1150
135088,204471,259244,5.0644090329,-3.8249269261,7.2610201797,1151
135101,204503,259287,5.0644090329,-3.8249269261,7.2610201797,1152
134964,204486,259315,5.0644090329,-3.8249269261,7.2610201797,1153
134806,204479,259290,5.0644090329,-3.8249269261,7.2610201797,1154
134641,204438,259271,5.0644090329,-3.8249269261,7.2610201797,1155
134526,204398,259238,5.0644090329,-3.8249269261,7.2610201797,1156
134428,204410,259286,5.0644090329,-3.8249269261,7.2610201797,1157
134364,204355,259162,5.0644090329,-3.8249269261,7.2610201797,1158
134354,204320,259211,5.0644090329,-3.8249269261,7.2610201797,1159
134377,204315,259150,5.0644090329,-3.8249269261,7.2610201797,1160
134390,204340,259156,5.0644090329,-3.8249269261,7.2610201797,1161
134388,204291,259184,5.0644090329,-3.8249269261,7.2610201797,1162
134362,204318,259183,5.0644090329,-3.8249269261,7.2610201797,1163
134371,204340,259167,5.0644090329,-3.8249269261,7.2610201797,1164
134406,204304,259138,5.0644090329,-3.8249269261,7.2610201797,1165
134448,204283,259148,5.0644090329,-3.8249269261,7.2610201797,1166
134485,204300,259165,5.0644090329,-3.8249269261,7.2610201797,1167
134543,204325,259103,5.0644090329,-3.8249269261,7.2610201797,1168
134615,204345,259164,5.0644090329,-3.8249269261,7.2610201797,1169
134709,204354,259138,5.0644090329,-3.8249269261,7.2610201797,1170
134772,204384,259219,5.0644090329,-3.8249269261,7.2610201797,1171
134828,204384,259202,5.0644090329,-3.8249269261,7.2610201797,1172
134936,204376,259225,5.0644090329,-3.8249269261,7.2610201797,1173
135025,204432,259223,5.0644090329,-3.8249269261,7.2610201797,1174
135082,204431,259239,5.0644090329,-3.8249269261,7.2610201797,1175
135114,204386,259205,5.0644090329,-3.8249269261,7.2610201797,1176
135069,204380,259223,5.0644090329,-3.8249269261,7.2610201797,1177
134941,204430,259255,5.0644090329,-3.8249269261,7.2610201797,1178
134802,204384,259225,4.9005006848,-4.079762533,7.3136622769,1179
134746,204376,259150,4.9005006848,-4.079762533,7.3136622769,1180
134707,204339,259197,4.9005006848,-4.079762533,7.3136622769,1181
134672,204390,259164,4.9005006848,-4.079762533,7.3136622769,1182
134730,204336,259189,4.9005006848,-4.079762533,7.3136622769,1183
134762,204349,259169,4.9005006848,-4.079762533,7.3136622769,1184
134780,204341,259139,4.9005006848,-4.079762533,7.3136622769,1185
134789,204354,259134,4.9005006848,-4.079762533,7.3136622769,1186
134787,204357,259177,4.9005006848,-4.079762533,7.3136622769,1187
134801,204335,259166,4.9005006848,-4.079762533,7.3136622769,1188
134826,204356,259167,4.9005006848,-4.079762533,7.3136622769,1189
134873,204386,259168,4.9005006848,-4.079762533,7.3136622769,1190
134927,204385,259202,4.9005006848,-4.079762533,7.3136622769,1191
134989,204396,259209,4.9005006848,-4.079762533,7.3136622769,1192
135019,204404,259233,4.9005006848,-4.079762533,7.3136622769,1193
135086,204432,259254,4.9005006848,-4.079762533,7.3136622769,1194
135174,204455,259218,4.9005006848,-4.079762533,7.3136622769,1195
135238,204474,259242,4.9005006848,-4.079762533,7.3136622769,1196
135320,204504,259296,4.9005006848,-4.079762533,7.3136622769,1197
135360,204520,259271,4.9005006848,-4.079762533,7.3136622769,1198
135366,204458,259286,4.9005006848,-4.079762533,7.3136622769,1199
135237,204485,259304,4.9005006848,-4.079762533,7.3136622769,1200
135088,204507,259268,4.9005006848,-4.079762533,7.3136622769,1201
134911,204469,259256,4.9005006848,-4.079762533,7.3136622769,1202
134785,204438,259310,4.9005006848,-4.079762533,7.3136622769,1203
134700,204431,259259,4.9005006848,-4.079762533,7.3136622769,1204
134622,204395,259245,4.9005006848,-4.079762533,7.3136622769,1205
134598,204399,259239,4.9005006848,-4.079762533,7.3136622769,1206
134589,204385,259194,4.9005006848,-4.079762533,7.3136622769,1207
134581,204405,259262,4.9005006848,-4.079762533,7.3136622769,1208
134541,204365,259182,4.9005006848,-4.079762533,7.3136622769,1209
134555,204396,259180,4.9005006848,-4.079762533,7.3136622769,1210
134523,204403,259183,4.9005006848,-4.079762533,7.3136622769,1211
134541,204420,259200,4.9005006848,-4.079762533,7.3136622769,1212
134557,204408,259196,4.9005006848,-4.079762533,7.3136622769,1213
134615,204443,259177,4.9005006848,-4.079762533,7.3136622769,1214
134661,204444,259208,4.9005006848,-4.079762533,7.3136622769,1215
134722,204454,259250,4.9005006848,-4.079762533,7.3136622769,1216
134800,204453,259253,4.9005006848,-4.079762533,7.3136622769,1217
134863,204492,259217,4.9005006848,-4.079762533,7.3136622769,1218
134926,204506,259255,4.9005006848,-4.079762533,7.3136622769,1219
134988,204539,259242,4.9005006848,-4.079762533,7.3136622769,1220
134052,204352,259139,4.7318066915,-3.8153556357,7.3005017526,1221
134043,204328,259102,4.7318066915,-3.8153556357,7.3005017526,1222
134057,204319,259078,4.7318066915,-3.8153556357,7.3005017526,1223
134034,204313,259150,4.7318066915,-3.8153556357,7.3005017526,1224
134066,204300,259098,4.7318066915,-3.8153556357,7.3005017526,1225
134077,204325,259157,4.7318066915,-3.8153556357,7.3005017526,1226
134126,204338,259096,4.7318066915,-3.8153556357,7.3005017526,1227
134181,204293,259113,4.7318066915,-3.8153556357,7.3005017526,1228
134266,204337,259111,4.7318066915,-3.8153556357,7.3005017526,1229
134293,204339,259149,4.7318066915,-3.8153556357,7.3005017526,1230
134382,204374,259081,4.7318066915,-3.8153556357,7.3005017526,1231
134464,204355,259152,4.7318066915,-3.8153556357,7.3005017526,1232
134518,204405,259151,4.7318066915,-3.8153556357,7.3005017526,1233
134614,204401,259117,4.7318066915,-3.8153556357,7.3005017526,1234
134685,204420,259219,4.7318066915,-3.8153556357,7.3005017526,1235
134703,204415,259182,4.7318066915,-3.8153556357,7.3005017526,1236
134582,204405,259196,4.7318066915,-3.8153556357,7.3005017526,1237
134425,204432,259197,4.7318066915,-3.8153556357,7.3005017526,1238
134311,204380,259187,4.7318066915,-3.8153556357,7.3005017526,1239
134212,204367,259192,4.7318066915,-3.8153556357,7.3005017526,1240
134187,204369,259146,4.7318066915,-3.8153556357,7.3005017526,1241
134156,204374,259167,4.7318066915,-3.8153556357,7.3005017526,1242
134187,204358,259143,4.7318066915,-3.8153556357,7.3005017526,1243
134197,204355,259162,4.7318066915,-3.8153556357,7.3005017526,1244
134195,204366,259166,4.7318066915,-3.8153556357,7.3005017526,1245
134187,204382,259177,4.7318066915,-3.8153556357,7.3005017526,1246
134187,204399,259195,4.7318066915,-3.8153556357,7.3005017526,1247
134221,204396,259219,4.7318066915,-3.8153556357,7.3005017526,1248
134259,204438,259229,4.7318066915,-3.8153556357,7.3005017526,1249
134304,204416,259210,4.7318066915,-3.8153556357,7.3005017526,1250
134351,204434,259179,4.7318066915,-3.8153556357,7.3005017526,1251
134441,204462,259177,4.7318066915,-3.8153556357,7.3005017526,1252
134493,204477,259211,4.7318066915,-3.8153556357,7.3005017526,1253
134555,204490,259274,4.7318066915,-3.8153556357,7.3005017526,1254
134632,204509,259290,4.7318066915,-3.8153556357,7.3005017526,1255
134710,204545,259267,4.7318066915,-3.8153556357,7.3005017526,1256
134789,204560,259254,4.7318066915,-3.8153556357,7.3005017526,1257
134870,204571,259286,4.7318066915,-3.8153556357,7.3005017526,1258
134899,204571,259304,4.7318066915,-3.8153556357,7.3005017526,1259
134779,204545,259320,4.7318066915,-3.8153556357,7.3005017526,1260
134593,204553,259305,4.7318066915,-3.8153556357,7.3005017526,1261
134386,204498,259323,4.7318066915,-3.8153556357,7.3005017526,1262
134065,204474,259189,4.8239303616,-3.9696926934,7.2957161074000005,1263
134038,204418,259224,4.8239303616,-3.9696926934,7.2957161074000005,1264
134008,204444,259183,4.8239303616,-3.9696926934,7.2957161074000005,1265
134005,204428,259191,4.8239303616,-3.9696926934,7.2957161074000005,1266
134006,204451,259173,4.8239303616,-3.9696926934,7.2957161074000005,1267
134013,204398,259184,4.8239303616,-3.9696926934,7.2957161074000005,1268
133990,204416,259202,4.8239303616,-3.9696926934,7.2957161074000005,1269
134000,204414,259182,4.8239303616,-3.9696926934,7.2957161074000005,1270
134037,204458,259205,4.8239303616,-3.9696926934,7.2957161074000005,1271
134093,204423,259225,4.8239303616,-3.9696926934,7.2957161074000005,1272
134155,204429,259175,4.8239303616,-3.9696926934,7.2957161074000005,1273
134197,204461,259237,4.8239303616,-3.9696926934,7.2957161074000005,1274
134276,204456,259206,4.8239303616,-3.9696926934,7.2957161074000005,1275
134361,204469,259234,4.8406801198,-3.9433716447999996,7.3304120351,1276
134424,204496,259261,4.8287160068,-3.9445680561,7.3591259063,1277
134516,204545,259312,4.8287160068,-3.9445680561,7.3591259063,1278
134601,204540,259294,4.8287160068,-3.9445680561,7.3591259063,1279
134663,204552,259303,4.8287160068,-3.9445680561,7.3591259063,1280
134670,204504,259314,4.8287160068,-3.9445680561,7.3591259063,1281
134595,204558,259285,4.8287160068,-3.9445680561,7.3591259063,1282
134387,204529,259308,4.8287160068,-3.9445680561,7.3591259063,1283
134228,204528,259294,4.8287160068,-3.9445680561,7.3591259063,1284
134085,204509,259311,4.8287160068,-3.9445680561,7.3591259063,1285
133969,204448,259228,4.8287160068,-3.9445680561,7.3591259063,1286
133918,204443,259253,4.8287160068,-3.9445680561,7.3591259063,1287
133877,204430,259233,4.8287160068,-3.9445680561,7.3591259063,1288
133864,204419,259205,4.9244289108,-3.9852460403000003,7.3591259063,1289
133896,204422,259227,4.9244289108,-3.9852460403000003,7.3591259063,1290
133910,204393,259156,4.9244289108,-3.9852460403000003,7.3591259063,1291
133905,204380,259143,4.9244289108,-3.9852460403000003,7.3591259063,1292
133918,204420,259201,4.9244289108,-3.9852460403000003,7.3591259063,1293
133951,204391,259198,4.9244289108,-3.9852460403000003,7.3591259063,1294
133989,204414,259176,4.9244289108,-3.9852460403000003,7.3591259063,1295
134051,204407,259143,4.9244289108,-3.9852460403000003,7.3591259063,1296
134110,204399,259181,4.9244289108,-3.9852460403000003,7.3591259063,1297
134196,204425,259174,4.9244289108,-3.9852460403000003,7.3591259063,1298
134272,204429,259156,4.9244289108,-3.9852460403000003,7.3591259063,1299
134345,204445,259179,4.9244289108,-3.9852460403000003,7.3591259063,1300
134418,204435,259216,4.9244289108,-3.9852460403000003,7.3591259063,1301
134521,204433,259236,4.8311088294,-4.0247276132000005,7.3950182453,1302
134596,204466,259214,4.8311088294,-4.0247276132000005,7.3950182453,1303
134679,204468,259219,4.8311088294,-4.0247276132000005,7.3950182453,1304
134762,204489,259241,4.8311088294,-4.0247276132000005,7.3950182453,1305
134740,204479,259235,4.8311088294,-4.0247276132000005,7.3950182453,1306
134610,204426,259242,4.8311088294,-4.0247276132000005,7.3950182453,1307
134465,204454,259239,4.8311088294,-4.0247276132000005,7.3950182453,1308
134335,204436,259189,4.8311088294,-4.0247276132000005,7.3950182453,1309
134305,204419,259230,4.8311088294,-4.0247276132000005,7.3950182453,1310
134290,204414,259192,4.8311088294,-4.0247276132000005,7.3950182453,1311
134297,204382,259186,4.8311088294,-4.0247276132000005,7.3950182453,1312
134324,204375,259164,4.8311088294,-4.0247276132000005,7.3950182453,1313
134355,204376,259144,4.8311088294,-4.0247276132000005,7.3950182453,1314
134383,204388,259191,4.926821733400001,-3.768695595,7.2000032034000006,1315
134384,204367,259169,4.9375894351,-4.0426737827,7.2059852599,1316
134427,204428,259159,4.9830530645,-3.9577285803999995,7.2550381232,1317
134475,204438,259169,4.9244289108,-3.9409788222,7.2071816712,1318
134505,204391,259187,4.9148576204,-3.9912280968,7.3088766317000005,1319
134534,204415,259143,4.9603212498,-3.9696926934,7.323233567299999,1320
134592,204434,259153,4.926821733400001,-3.9792639838,7.3567330837,1321
134677,204428,259216,4.8299124181,-3.9397824109,7.278966349199999,1322
134718,204435,259158,4.9244289108,-4.0163527341,7.278966349199999,1323
134798,204514,259218,4.9674997176,-3.7914274097,7.282555583100001,1324
134877,204499,259243,4.9483571368,-3.9672998708,7.2430740102,1325
134935,204514,259233,5.0691946781,-4.0247276132000005,7.2837519944,1326
135012,204584,259287,4.8466621763,-3.8213376922,7.0983082429,1327
135083,204571,259281,4.9567320159,-3.9577285803999995,7.3627151402,1328
135016,204517,259303,4.926821733400001,-3.9864424516000003,7.282555583100001,1329
134877,204569,259300,5.0380879843,-3.9170505962,7.2610201797,1330
134733,204509,259260,4.9124647978,-3.8847474911,7.3304120351,1331
134597,204514,259296,4.8897329831,-3.9290147091999996,7.320840744700001,1332
134503,204490,259236,4.8897329831,-3.9290147091999996,7.320840744700001,1333
134451,204478,259257,4.8897329831,-3.9290147091999996,7.320840744700001,1334
134420,204468,259233,4.8897329831,-3.9290147091999996,7.320840744700001,1335
134401,204461,259230,4.8897329831,-3.9290147091999996,7.320840744700001,1336
134423,204463,259206,4.8897329831,-3.9290147091999996,7.320840744700001,1337
134427,204431,259247,4.8897329831,-3.9290147091999996,7.320840744700001,1338
134422,204456,259223,4.8897329831,-3.9290147091999996,7.320840744700001,1339
134413,204473,259177,5.0117669357,-4.0390845488,7.190431913,1340
134455,204407,259215,4.9399822577,-3.8895331363000003,7.214360139,1341
134448,204449,259174,4.9926243549,-3.8452659182,7.3124658656,1342
134486,204472,259203,4.878965281399999,-3.9074793058,7.2335027198,1343
134552,204472,259223,5.0225346374,-3.984049629,7.3052873978,1344
134618,204513,259173,4.9028935074,-3.9062828945,7.2909304621999995,1345
134675,204502,259259,5.0081777018,-3.8823546685,7.2311098972,1346
134744,204529,259221,4.8622155232,-3.9792639838,7.2634130023,1347
134775,204560,259314,4.893322217,-3.8967116041,7.2562345345,1348
134865,204577,259273,4.7700918531,-3.9792639838,7.3304120351,1349
134934,204669,259314,5.045266452099999,-3.8464623295,7.365107962800001,1350
134997,204666,259239,4.8430729424,-3.8895331363000003,7.2287170746000005,1351
135067,204648,259314,4.9005006848,-3.9649070482,7.3016981639,1352
135094,204580,259353,4.9495535481,-3.9481572899999997,7.345965381999999,1353
135011,204623,259343,4.878965281399999,-3.9218362414,7.1282185253999995,1354
134774,204588,259312,4.881358104,-4.0582271296000005,7.267002236200001,1355
134589,204561,259298,4.9495535481,-3.9266218866,7.348358204599999,1356
134434,204530,259282,4.9746781854,-3.9529429352,7.2801627605000006,1357
134293,204515,259255,5.0021956453,-3.8524443859999997,7.3052873978,1358
134284,204400,259201,4.881358104,-3.7698920062999997,7.274180704,1359
134149,204458,259243,4.8981078622,-4.0223347905999995,7.2550381232,1360
134204,204474,259247,4.8287160068,-3.8608192651000004,7.3184479221,1361
134190,204486,259232,5.0141597583,-3.9433716447999996,7.2574309458,1362
134228,204489,259173,5.0691946781,-3.9457644674,7.221538606799999,1363
134198,204509,259214,4.8741796362,-4.0881374121,7.2777699379,1364
134137,204447,259160,4.7904308452,-3.876372612,7.2562345345,1365
134090,204437,259201,4.9435714916,-3.9158541848999997,7.317251510799999,1366
134178,204459,259166,4.8358944746,-3.9816568063999997,7.3830541323,1367
134247,204475,259240,4.8981078622,-4.06779842,7.304090986499999,1368
134253,204465,259146,4.833501652,-3.8608192651000004,7.3184479221,1369
134329,204468,259223,4.8658047571,-3.9338003543999998,7.2837519944,1370
134415,204505,259241,4.9974100001,-3.8919259589,7.2514488893,1371
134461,204519,259234,4.9962135888,-3.7890345870999997,7.262216591,1372
134525,204546,259233,4.9316073786,-3.912264951,7.310073043,1373
134596,204581,259268,4.9734817741,-3.8536407972999998,7.319644333399999,1374
134672,204553,259305,5.02492746,-3.9900316855,7.357929495,1375
134772,204581,259300,4.9842494758,-4.0139599115,7.281359171799999,1376
134845,204593,259278,4.9842494758,-4.0139599115,7.281359171799999,1377
134845,204574,259297,4.9842494758,-4.0139599115,7.281359171799999,1378
134710,204555,259272,4.9483571368,-3.924229064,7.223931429399999,1379
134549,204588,259308,5.1361937109,-4.0127635002,7.2478596554,1380
134393,204566,259288,4.917250443,-3.9649070482,7.2729842927,1381
134256,204490,259227,5.1062834284,-3.9505501125999998,7.2765735266,1382
134151,204467,259225,4.9519463707,-3.9349967657,7.3304120351,1383
134106,204497,259196,4.9710889515,-3.9050864832,7.2035924373,1384
134092,204460,259210,4.9663033062999995,-3.996013742,7.3064838090999995,1385
134104,204371,259173,4.8646083458,-4.0498522505,7.3052873978,1386
134113,204467,259164,5.058426976400001,-3.9146577735999997,7.2311098972,1387
134099,204424,259222,4.8646083458,-3.8919259589,7.3375905029,1388
134108,204500,259177,5.0404808069,-3.9194434188,7.1976103808000005,1389
134116,204394,259171,4.8981078622,-3.9038900719000003,7.223931429399999,1390
134119,204378,259163,4.893322217,-3.8967116041,7.2335027198,1391
134207,204356,259166,5.0189454035,-4.0701912426,7.252645300599999,1392
134244,204428,259132,4.953142782,-3.9553357578,7.2849484057,1393
134304,204442,259177,4.8358944746,-3.8488551521,7.1916283243,1394
134400,204488,259170,4.7306102802,-3.9026936606000002,7.2909304621999995,1395
134421,204440,259177,4.881358104,-3.9338003543999998,7.304090986499999,1396
134413,204474,259219,4.8885365718,-3.9529429352,7.3136622769,1397
134591,204466,259250,4.9567320159,-3.8967116041,7.294519696099999,1398
134654,204551,259212,4.7724846757,-3.9457644674,7.2765735266,1399
134732,204547,259219,4.8191447164,-3.984049629,7.2047888486,1400
134836,204560,259252,4.857429878,-3.9768711611999996,7.3256263899,1401
134861,204583,259209,4.9998028226999995,-4.0342989036,7.2837519944,1402
134801,204560,259237,5.1230331866,-3.8943187815,7.237091953699999,1403
134692,204515,259269,4.869393991,-3.9864424516000003,7.3016981639,1404
134528,204498,259249,4.8430729424,-3.8967116041,7.250252477999999,1405
134428,204471,259231,4.8885365718,-3.8177484582999996,7.4261249391,1406
134425,204485,259180,5.0404808069,-3.8201412809,7.2047888486,1407
134401,204453,259168,4.9854458871,-3.924229064,7.1605216305,1408
134412,204512,259254,4.8681975797,-3.8608192651000004,7.1688965096,1409
134466,204469,259167,4.9591248385,-4.0235312019,7.3447689707,1410
134492,204458,259227,4.9351966125,-4.0761732991,7.2454668328,1411
134497,204379,259220,4.7940200791,-3.9302111204999997,7.238288365000001,1412
134503,204325,259191,4.9220360882000005,-3.8775690233,7.2837519944,1413
134525,204397,259238,4.9782674193,-4.055834307,7.1952175581999995,1414
134557,204400,259247,4.9974100001,-3.9984065645999998,7.2287170746000005,1415
134525,204422,259220,4.926821733400001,-4.0582271296000005,7.2765735266,1416
134630,204411,259220,4.881358104,-3.9062828945,7.3064838090999995,1417
134708,204415,259202,4.9543391933,-3.9338003543999998,7.2765735266,1418
134762,204493,259228,4.9806602419,-3.9038900719000003,7.223931429399999,1419
134803,204504,259254,4.8909293944,-3.984049629,7.2167529616,1420
134892,204553,259293,4.9854458871,-4.0654055974,7.2634130023,1421
134967,204576,259311,4.881358104,-3.9732819273,7.2071816712,1422
135040,204626,259285,4.9340002012,-3.8608192651000004,7.3543402611,1423
135135,204663,259298,4.990231532299999,-3.9338003543999998,7.238288365000001,1424
135186,204654,259290,4.9878387097,-3.8943187815,7.2765735266,1425
135131,204586,259336,4.9447679029,-3.8620156764,7.3591259063,1426
135023,204634,259302,5.02492746,-3.9541393465,7.1856462678,1427
134821,204601,259322,4.9591248385,-3.9696926934,7.250252477999999,1428
134664,204596,259262,4.8705904022999995,-3.8273197486999995,7.223931429399999,1429
134508,204538,259289,4.8981078622,-3.9110685397,7.1928247355999995,1430
134431,204512,259262,4.9447679029,-3.8895331363000003,7.281359171799999,1431
134379,204522,259215,4.7318066915,-3.9409788222,7.2753771152999995,1432
134341,204526,259267,4.9351966125,-3.9266218866,7.3603223176,1433
134329,204492,259209,4.8430729424,-3.936193177,7.2909304621999995,1434
134327,204484,259266,4.8969114509,-3.9876388629,7.336394091599999,1435
134313,204489,259189,4.9447679029,-3.8321053939,7.286144817,1436
134283,204490,259237,4.8861437492,-3.8344982165,7.2167529616,1437
134307,204526,259234,4.9495535481,-4.0546378957,7.238288365000001,1438
134325,204504,259232,4.833501652,-3.9326039431,7.336394091599999,1439
134334,204524,259257,5.0404808069,-4.0474594279,7.2765735266,1440
134383,204496,259181,5.012963347,-3.8416766843000003,7.2933232848,1441
134443,204510,259259,4.9842494758,-4.0115670889,7.3124658656,1442
134468,204531,259239,4.9459643142,-3.8979080154,7.1928247355999995,1443
134565,204568,259237,4.893322217,-3.9493537012999997,7.183253445199999,1444
134636,204548,259256,4.8705904022999995,-3.8907295476,7.335197680299999,1445
134686,204603,259239,4.9220360882000005,-3.8081771679,7.3005017526,1446
134765,204591,259289,4.7952164904,-3.9086757171,7.3435725594,1447
134834,204625,259274,4.926821733400001,-3.8608192651000004,7.2227350181,1448
134899,204640,259300,4.7569313288,-3.996013742,7.3806613097,1449
134866,204608,259299,4.844269353700001,-3.9290147091999996,7.198806792099999,1450
134670,204584,259301,4.9148576204,-3.9708891047,7.294519696099999,1451
134463,204562,259285,4.816751893799999,-3.9625142255999997,7.2957161074000005,1452
134276,204542,259291,4.9663033062999995,-3.8931223702,7.2071816712,1453
134114,204532,259227,5.057230565099999,-3.9074793058,7.2598237683999995,1454
134019,204475,259251,4.881358104,-3.9672998708,7.3543402611,1455
133951,204475,259235,4.8622155232,-3.9553357578,7.250252477999999,1456
133909,204468,259194,4.8981078622,-3.9541393465,7.2909304621999995,1457
133917,204472,259213,4.9483571368,-3.8787654346,7.3005017526,1458
133874,204459,259172,4.8658047571,-3.9732819273,7.278966349199999,1459
133868,204438,259161,4.917250443,-4.0127635002,7.2693950588,1460
133894,204366,259156,4.9495535481,-3.996013742,7.2454668328,1461
133848,204431,259171,4.9340002012,-3.8775690233,7.190431913,1462
133903,204406,259153,4.8514478215,-3.9696926934,7.2311098972,1463
133928,204412,259176,4.8717868136,-3.9481572899999997,7.378268487100001,1464
133963,204450,259195,4.8000021356,-3.8943187815,7.2681986475,1465
134028,204472,259187,4.9112683865,-4.0127635002,7.223931429399999,1466
134107,204451,259217,4.9328037898999995,-3.8967116041,7.3052873978,1467
134172,204475,259210,4.9064827413000005,-3.9457644674,7.334001269,1468
134254,204501,259245,4.8753760475,-4.0211383793,7.2550381232,1469
134300,204522,259178,4.8861437492,-3.7962130549,7.3471617933,1470
134413,204424,259221,4.9351966125,-3.9900316855,7.334001269,1471
134462,204535,259290,4.9698925402,-3.864408499,7.214360139,1472
134546,204464,259271,5.0273202826,-3.9852460403000003,7.495516794499999,1473
134521,204451,259274,4.8646083458,-3.9816568063999997,7.2430740102,1474
134395,204513,259270,4.9160540317,-3.9421752335,7.332804857699999,1475
134204,204522,259259,4.8801616927,-3.9744783386,7.1593252192,1476
134031,204401,259263,4.833501652,-4.0175491454,7.252645300599999,1477
133923,204335,259237,4.9340002012,-3.9194434188,7.3471617933,1478
133821,204348,259227,4.9459643142,-3.9194434188,7.2107709050999995,1479
133799,204374,259190,4.883750926599999,-3.9529429352,7.1641108644,1480
133820,204420,259178,4.7928236678,-3.9720855159999995,7.2095744938,1481
133801,204431,259173,4.8430729424,-3.9553357578,7.2191457842,1482
133814,204398,259141,4.9184468543,-4.0115670889,7.2885376395999995,1483
133828,204380,259114,5.0069812905,-3.9924245080999996,7.2287170746000005,1484
133787,204388,259171,4.9698925402,-4.0271204358,7.2454668328,1485
133829,204379,259143,5.0141597583,-3.960121403,7.1641108644,1486
133860,204336,259126,4.941178669,-4.0127635002,7.281359171799999,1487
133916,204373,259106,4.8598227006,-4.0187455567,7.240681187599999,1488
133974,204376,259142,4.9914279436,-3.9732819273,7.2933232848,1489
134048,204395,259123,4.965106895,-3.996013742,7.3184479221,1490
134083,204434,259191,4.8981078622,-3.9254254753,7.3280192125,1491
134211,204405,259149,4.8741796362,-3.8979080154,7.2610201797,1492
134257,204392,259149,4.9686961289000005,-3.9984065645999998,7.1629144531,1493
134338,204473,259158,4.9806602419,-3.9720855159999995,7.262216591,1494
134438,204502,259157,4.9028935074,-3.8775690233,7.2167529616,1495
134512,204501,259237,4.9160540317,-4.0857445895,7.3268228012,1496
134432,204457,259164,4.9387858464,-3.960121403,7.1270221141,1497
134357,204429,259222,4.8957150396,-4.1359938641000005,7.2897340509,1498
134168,204442,259177,4.8418765311,-3.9385859996,7.1784678,1499
134019,204399,259212,4.9722853628,-3.9409788222,7.3411797368,1500
133923,204404,259180,4.8741796362,-3.9074793058,7.3878397775,1501
133868,204340,259105,4.8430729424,-4.0091742663,7.2000032034000006,1502
133876,204374,259144,4.9028935074,-4.0295132584,7.240681187599999,1503
133882,204357,259143,4.8514478215,-3.9290147091999996,7.252645300599999,1504
133849,204357,259106,4.9579284272,-3.8668013215999997,7.2311098972,1505
133880,204341,259185,5.0309095165,-3.9290147091999996,7.3292156238,1506
133847,204336,259094,4.9148576204,-3.8656049103,7.2478596554,1507
133856,204323,259157,4.8622155232,-3.9421752335,7.2837519944,1508
133869,204375,259107,4.8610191119,-3.9625142255999997,7.1593252192,1509
133889,204355,259142,4.9256253221,-3.9338003543999998,7.2646094136,1510
133927,204376,259153,4.9220360882000005,-4.0031922098,7.3304120351,1511
133933,204380,259176,5.0620162103,-3.9912280968,7.3064838090999995,1512
134042,204375,259161,4.9974100001,-3.8679977328999997,7.1617180418,1513
134133,204411,259128,4.8203411277,-4.0414773714,7.262216591,1514
134141,204428,259144,4.9196432655999995,-3.9098721283999995,7.3028945752,1515
134204,204406,259176,4.961517661099999,-3.9421752335,7.3064838090999995,1516
134201,204439,259191,4.9555356046000005,-3.9649070482,7.238288365000001,1517
134378,204444,259191,4.8897329831,-3.9517465239000003,7.1880390904,1518
