green,red,IR,acc_x,acc_y,acc_z,sample_index
49688,157669,148827,2.2061824372,-9.1453679772,3.7651063610999995,1
49714,157681,148849,2.2109680824,-9.041280194099999,3.7028929734999996,2
49802,157713,148852,2.3641087288000002,-9.1549392676,3.6167513599,3
49781,157682,148885,2.2205393728,-9.131011041599999,3.6897324492,4
49793,157705,148884,2.2109680824,-9.068797654,3.637090352,5
49828,157710,148906,2.3772692530999997,-9.054440718399999,3.5844482548,6
49855,157727,148892,2.1930219129,-8.918049830200001,3.7124642639,7
49882,157739,148894,2.2624137683,-9.054440718399999,3.5892339,8
49893,157774,148892,2.1834506225,-9.1262253964,3.5940195452,9
49821,157736,148870,2.2301106632,-9.09272588,3.5270205124,10
49945,157766,148861,2.3054845751,-9.0735832992,3.5748769644,11
50001,157785,148876,2.3772692530999997,-9.1453679772,3.6418759972,12
49973,157774,148894,2.1355941704999997,-9.0400837828,3.5461630932,13
49803,157713,148882,2.4299113503,-9.1776710823,3.6610185779999997,14
49713,157640,148818,2.2049860259000003,-9.0783689444,3.5222348672,15
49640,157606,148826,2.4574288102,-9.006584266399999,3.6311082955,16
49602,157597,148830,2.2492532439999997,-9.0400837828,3.7758740628,17
49576,157609,148813,2.177468566,-9.21236701,3.6227334164,18
49617,157596,148811,2.1678972756,-8.9647098709,3.5258241011,19
49668,157625,148824,2.3581266723,-9.0879402348,3.7459637803,20
49696,157639,148829,2.2683958248,-9.0891366461,3.5940195452,21
49686,157616,148843,2.2145573163,-9.0269232585,3.6083764808,22
49701,157647,148850,2.0781664281,-9.0747797105,3.6502508763,23
49620,157666,148872,2.2025932033,-9.2219383004,3.7028929734999996,24
49744,157666,148887,2.2528424779,-9.068797654,3.6275190616,25
49773,157675,148877,2.2815563491,-9.1011007591,3.613162126,26
49807,157694,148830,2.3736800192,-9.044869428,3.4133614389,27
49827,157731,148843,2.344966148,-9.1262253964,3.7028929734999996,28
49876,157724,148874,2.3246271559,-9.0975115252,3.5318061576,29
49876,157730,148853,2.297109696,-9.0269232585,3.6119657146999997,30
49912,157749,148872,2.3246271559,-9.1118684608,3.5126635768,31
49929,157765,148899,2.3341984463,-9.020941202,3.5461630932,32
49953,157794,148869,2.3102702203,-9.0161555568,3.6167513599,33
49982,157750,148884,2.3808584870000002,-9.178867493599999,3.6945180944,34
49967,157758,148869,2.0913269524,-8.9742811613,3.5928231339,35
49875,157696,148820,2.2875384056,-9.117850517299999,3.6741791022999997,36
49726,157641,148802,2.2636101795999997,-8.9587278144,3.517449222,37
49662,157583,148810,2.1810577999,-9.1680997919,3.5222348672,38
49631,157565,148804,2.4777678023000003,-9.340383019099999,3.5796626096,39
49615,157553,148827,2.3533410271,-9.0735832992,3.5844482548,40
49636,157601,148814,2.2540388892,-9.020941202,3.5330025689,41
49687,157636,148819,2.3341984463,-9.188438784,3.6514472876,42
49726,157609,148815,2.2456640101,-9.2685983411,3.6119657146999997,43
49633,157633,148831,2.1583259852,-9.1154576947,3.5605200288,44
49721,157633,148848,2.3294128011,-9.09272588,3.5988051904000002,45
49737,157657,148825,2.3150558654999998,-9.121439751199999,3.7363924898999996,46
49769,157671,148862,2.297109696,-9.121439751199999,3.637090352,47
49803,157656,148826,2.2671994135,-9.0460658393,3.5952159565,48
49822,157693,148837,2.3054845751,-9.2111705987,3.5940195452,49
49774,157669,148859,2.105683888,-9.0257268472,3.6454652310999998,50
49870,157696,148855,2.2683958248,-9.2171526552,3.565305674,51
49899,157704,148862,2.2576281231,-9.121439751199999,3.5617164401,52
49916,157717,148854,2.2157537276,-8.9503529353,3.6562329328,53
49948,157719,148848,2.1487546948,-9.0305124924,3.6119657146999997,54
49964,157737,148865,2.2767707039,-9.0592263636,3.4707891813,55
49994,157747,148864,2.0590238472999998,-9.1453679772,3.6741791022999997,56
50015,157747,148890,2.3294128011,-9.0879402348,3.4947174072999996,57
49907,157703,148850,2.3736800192,-9.0939222913,3.4707891813,58
49748,157636,148813,2.2121644937,-8.9359959997,3.6035908356,59
49654,157592,148787,2.2396819536,-9.1034935817,3.5736805531,60
49546,157571,148787,2.4107687694999997,-9.2506521716,3.6023944243,61
49582,157564,148773,2.3581266723,-9.1118684608,3.684946804,62
49584,157569,148797,2.2157537276,-9.0592263636,3.7124642639,63
49630,157588,148833,2.15354034,-9.020941202,3.6658042232,64
49671,157607,148831,2.2779671152,-9.1633141467,3.5988051904000002,65
49681,157597,148824,2.4299113503,-9.116654106,3.6610185779999997,66
49698,157627,148822,2.2013967919999997,-9.0915294687,3.5700913192,67
49694,157640,148804,2.2492532439999997,-9.050851484499999,3.6227334164,68
49678,157632,148847,2.2265214293,-8.9934237421,3.637090352,69
49738,157632,148800,2.2911276395,-9.0221376133,3.7172499091,70
49773,157663,148830,2.3389840915,-9.064012008799999,3.6885360378999996,71
49795,157650,148844,2.1451654609,-8.9551385805,3.6275190616,72
49824,157688,148857,2.1738793321000003,-9.050851484499999,3.5856446661000003,73
49845,157641,148837,2.3389840915,-9.041280194099999,3.6885360378999996,74
49874,157700,148851,2.2432711875,-9.1357966868,3.5940195452,75
49891,157695,148860,2.3042881638,-8.939585233599999,3.6418759972,76
49816,157711,148836,2.2432711875,-8.916853418899999,3.6646078119,77
49980,157736,148849,2.4538395763,-9.044869428,3.637090352,78
49986,157746,148872,2.3497517932000003,-9.1393859207,3.565305674,79
49913,157685,148816,2.3521446158,-9.1633141467,3.7268211995,80
49755,157686,148797,2.3150558654999998,-9.0017986212,3.6418759972,81
49632,157591,148783,2.2205393728,-9.0113699116,3.6167513599,82
49516,157556,148757,2.1966111468,-9.1633141467,3.7316068447,83
49548,157527,148776,2.3114666316,-9.0699940653,3.6897324492,84
49546,157505,148777,2.2061824372,-8.9647098709,3.7220355542999997,85
49579,157554,148803,2.2157537276,-9.0245304359,3.6550365215,86
49632,157579,148798,2.2827527603999997,-9.1022971704,3.6610185779999997,87
49653,157581,148796,2.2779671152,-9.1034935817,3.6047872469,88
49705,157573,148793,2.2241286067,-9.0496550732,3.7411781350999997,89
49679,157623,148819,2.1643080417,-9.0460658393,3.6179477712,90
49724,157628,148809,2.3916261887,-9.0783689444,3.637090352,91
49724,157617,148823,2.2061824372,-9.041280194099999,3.6753755136,92
49744,157660,148829,2.2588245344,-9.0460658393,3.6514472876,93
49777,157651,148811,2.3150558654999998,-9.0879402348,3.6275190616,94
49795,157642,148829,2.2875384056,-9.2015993083,3.6406795858999996,95
49838,157657,148849,2.1870398563999998,-9.041280194099999,3.6801611588,96
49841,157664,148808,2.3485553819,-9.09272588,3.6610185779999997,97
49811,157694,148830,2.3294128011,-9.1058864043,3.637090352,98
49900,157687,148834,2.3485553819,-8.9359959997,3.5988051904000002,99
49932,157693,148849,2.297109696,-8.9790668065,3.6562329328,100
49947,157741,148855,2.4346969955,-8.9802632178,3.7651063610999995,101
49993,157740,148849,2.2911276395,-9.1022971704,3.5557343836,102
49883,157706,148831,2.3018953412000003,-9.0711904766,3.5844482548,103
49721,157642,148781,2.27318147,-9.1022971704,3.5976087790999998,104
49647,157575,148809,2.3820548983,-9.1226361625,3.6311082955,105
49619,157598,148806,2.3401805028,-9.055637129700001,3.6945180944,106
49598,157572,148767,2.3413769141,-9.2494557603,3.5700913192,107
49605,157586,148794,2.2313070745,-8.9036928946,3.4552358344000003,108
49561,157618,148812,2.1631116304,-9.152546445,3.7268211995,109
49684,157579,148792,2.4358934068,-9.140582332,3.4671999473999997,110
49688,157598,148797,2.2624137683,-8.9826560404,3.5700913192,111
49696,157591,148800,2.3389840915,-8.9216390641,3.6837503927,112
49704,157600,148818,2.2636101795999997,-9.1357966868,3.5377882141000003,113
49728,157606,148794,2.2444675988,-9.1920280179,3.5365918028000003,114
49766,157668,148822,2.1726829208,-9.0783689444,3.6358939407,115
49777,157639,148821,2.2923240508,-8.9694955161,3.5844482548,116
49814,157643,148822,2.3006989299,-9.0173519681,3.6610185779999997,117
49833,157712,148852,2.0973090089,-9.0496550732,3.6550365215,118
49899,157663,148837,2.2959132847,-9.1262253964,3.5461630932,119
49899,157681,148823,2.2600209457,-9.0676012427,3.7220355542999997,120
49927,157677,148848,2.297109696,-9.1501536224,3.4947174072999996,121
49988,157675,148841,2.344966148,-9.2111705987,3.7268211995,122
50088,157668,148816,2.3724836079,-9.140582332,3.5473595045,123
50155,157630,148774,1.9441683625,-9.1369930981,3.4025937372,124
50149,157552,148759,2.2683958248,-9.3212404383,3.7028929734999996,125
50104,157514,148751,2.2121644937,-9.1334038642,3.493520996,126
50181,157527,148782,2.2073788485,-9.0352981376,3.493520996,127
50226,157576,148798,2.1080767106,-9.5210411254,3.5629128513999997,128
50298,157664,148838,2.3676979627,-9.2171526552,3.4360932536,129
50362,157699,148846,2.2588245344,-9.116654106,3.4253255519,130
50486,157773,148909,2.5208386090999997,-9.131011041599999,3.23031051,131
50595,157844,148962,2.1942183242,-9.397810761499999,3.23031051,132
50745,157944,149015,2.3772692530999997,-9.1680997919,3.1453653077,133
50864,158037,149088,2.3066809864,-9.367900479,3.1393832512,134
50947,158105,149075,2.5064816735,-9.0317089037,3.3595229304,135
51020,158191,149145,2.5555345367999998,-9.1597249128,3.4683963587,136
51154,158225,149191,1.7395820302,-9.0532443071,2.9982067177999996,137
51301,158321,149221,2.045863323,-9.391828705,3.2961131315000003,138
51422,158407,149248,2.6356940939,-9.1022971704,3.3200413575,139
51524,158453,149273,2.3545374384,-9.1417787433,3.2602207924999997,140
51568,158480,149345,2.4729821571,-9.273383986299999,3.1393832512,141
51648,158510,149313,2.3126630429,-9.1669033806,3.1357940173,142
51722,158607,149318,2.4981067944,-9.09272588,3.3774690999,143
51764,158627,149379,2.4921247379,-9.2159562439,3.2925238975999997,144
51849,158653,149383,2.3880369548,-9.1932244292,3.1441688964,145
51870,158671,149376,2.4969103831,-9.1800639049,3.4073793824000003,146
51740,158567,149344,2.5028924396,-9.1501536224,3.2255248647999997,147
51523,158497,149326,2.3294128011,-9.0400837828,3.1872397032,148
51398,158441,149290,2.4311077616,-9.1932244292,3.2482566795000003,149
51316,158431,149285,2.4693929232,-9.2219383004,3.4013973259,150
51253,158325,149305,2.3641087288000002,-9.164510558,3.3200413575,151
51267,158412,149290,2.416750826,-9.140582332,3.1776684127999997,152
51324,158427,149326,2.464607278,-9.117850517299999,3.3451659948,153
51369,158439,149324,2.5172493752,-9.3140619705,3.2207392196,154
51372,158440,149296,2.4681965119,-9.0879402348,3.182454058,155
51386,158438,149316,2.5447668351,-9.1633141467,3.2590243811999997,156
51404,158435,149279,2.3593230836,-9.2315095908,3.2123643404999997,157
51435,158496,149328,2.4693929232,-9.1417787433,3.1776684127999997,158
51446,158465,149320,2.4059831243,-9.3020978575,3.1968109935999998,159
51463,158419,149320,2.4538395763,-9.0783689444,3.278166962,160
51471,158362,149283,2.4825534475,-8.9096749511,3.6239298277,161
51485,158338,149257,2.4394826406999996,-9.055637129700001,3.4660035360999997,162
51490,158263,149227,2.3353948576,-9.1070828156,3.2925238975999997,163
51475,158254,149227,2.297109696,-9.1369930981,3.3403803495999997,164
51458,158242,149162,2.2396819536,-9.0364945489,3.326023414,165
51466,158266,149175,2.2552353005,-9.1836531388,3.3690942208,166
51460,158244,149146,2.3162522768000002,-9.3212404383,3.5246276898,167
51371,158244,149161,2.3306092124,-9.1453679772,3.4205399067,168
51301,158187,149140,2.3222343333,-9.1609213241,3.4205399067,169
51073,158037,149063,2.1966111468,-9.0305124924,3.2925238975999997,170
50914,158014,149060,2.452643165,-9.1357966868,3.4875389395,171
50829,157947,149024,2.2683958248,-9.3619184225,3.4121650276000004,172
50704,157945,149020,2.1607188078,-9.2985086236,3.4683963587,173
50677,157933,148999,2.1631116304,-9.0460658393,3.3200413575,174
50703,157920,148995,2.3294128011,-9.165706969299999,3.3690942208,175
50734,157948,149016,2.4442682859,-9.2973122123,3.3786655112000004,176
50742,157958,149002,2.4574288102,-9.1118684608,3.3882368016,177
50739,157924,149022,2.3437697367,-9.0867438235,3.4157542615,178
50788,157955,149007,2.3174486881,-9.2877409219,3.2362925665,179
50764,157939,149017,2.1978075581,-9.1465643885,3.397808092,180
50783,157923,149004,2.3330020350000003,-9.131011041599999,3.3176485349,181
50770,157851,148969,2.3760728418,-9.0891366461,3.4313076084,182
50734,157836,148942,2.27318147,-9.175278259699999,3.5916267225999996,183
50685,157768,148900,2.3114666316,-9.0317089037,3.4707891813,184
50626,157743,148863,2.2109680824,-9.1130648721,3.5222348672,185
50578,157721,148837,2.344966148,-9.006584266399999,3.5497523270999998,186
50551,157789,148857,2.3916261887,-9.2937229784,3.5748769644,187
50543,157722,148830,2.2432711875,-9.1022971704,3.4265219632000004,188
50535,157708,148828,2.1978075581,-9.175278259699999,3.5258241011,189
50521,157716,148851,2.0961125976,-9.3655076564,3.4025937372,190
50467,157651,148830,2.2959132847,-9.175278259699999,3.4073793824000003,191
50271,157581,148797,2.177468566,-9.1346002755,3.5976087790999998,192
50078,157502,148750,2.1439690496,-9.0604227749,3.3882368016,193
49979,157444,148732,2.2767707039,-9.1549392676,3.5270205124,194
49879,157416,148703,2.2384855423,-9.232706002099999,3.613162126,195
49846,157436,148714,2.2049860259000003,-9.1262253964,3.4265219632000004,196
49864,157437,148716,2.2336998971,-8.9922273308,3.4313076084,197
49913,157463,148739,2.3186450994000003,-9.1980100744,3.5497523270999998,198
49932,157431,148774,2.2540388892,-9.0795653557,3.4073793824000003,199
49928,157441,148768,2.2827527603999997,-9.2219383004,3.3224341800999997,200
49941,157466,148769,2.1248264688,-9.121439751199999,3.5880374887,201
49999,157448,148801,2.1786649773,-9.09272588,3.5449666819,202
49972,157481,148746,2.3234307446,-9.2877409219,3.5078779316,203
50007,157499,148748,2.1726829208,-8.9874416856,3.4887353508000003,204
50032,157512,148774,2.3389840915,-9.1357966868,3.4755748265,205
50068,157477,148791,2.2145573163,-9.164510558,3.517449222,206
50076,157529,148753,2.2815563491,-9.1453679772,3.4887353508000003,207
50099,157519,148793,2.2289142519,-9.0879402348,3.5545379723,208
50116,157524,148801,2.3533410271,-9.207581364800001,3.5078779316,209
50145,157545,148781,2.2002003807,-8.9934237421,3.4791640604,210
50175,157537,148759,2.3246271559,-9.1932244292,3.5796626096,211
50190,157549,148763,2.2289142519,-9.1369930981,3.5162528107,212
50168,157529,148800,2.3066809864,-9.0460658393,3.5365918028000003,213
50001,157449,148763,2.1391834043999998,-9.1980100744,3.4791640604,214
49818,157435,148714,2.2049860259000003,-9.1369930981,3.3834511564,215
49736,157347,148730,2.2002003807,-9.2015993083,3.5126635768,216
49692,157339,148732,2.2408783649,-9.131011041599999,3.6035908356,217
49684,157355,148710,2.1918255016,-9.1896351953,3.4983066412,218
49722,157356,148737,1.9920248145,-8.944370878800001,3.5162528107,219
49786,157385,148747,2.3808584870000002,-9.1453679772,3.4037901484999997,220
49800,157374,148760,2.1726829208,-9.1848495501,3.493520996,221
49742,157380,148774,2.15354034,-9.116654106,3.5748769644,222
49831,157385,148765,2.2540388892,-9.1692962032,3.4588250683,223
49848,157401,148767,2.129612114,-9.2494557603,3.5832518435,224
49878,157388,148780,2.15354034,-9.2279203569,3.4875389395,225
49916,157430,148757,2.0925233637,-9.1022971704,3.5593236175,226
50000,157442,148786,2.3102702203,-9.0747797105,3.5162528107,227
49985,157459,148767,2.1487546948,-9.0843510009,3.493520996,228
50020,157457,148806,2.1487546948,-9.1836531388,3.4995030524999997,229
50040,157459,148785,2.1308085253,-9.1357966868,3.4887353508000003,230
50070,157490,148758,2.3916261887,-9.068797654,3.5030922864000003,231
50102,157459,148814,2.15354034,-9.0879402348,3.5270205124,232
50128,157496,148804,2.3282163898,-9.108279226899999,3.5078779316,233
50160,157515,148839,2.2815563491,-9.140582332,3.5078779316,234
50138,157520,148796,2.4394826406999996,-9.2267239456,3.5270205124,235
49980,157443,148779,2.2492532439999997,-9.1022971704,3.5509487384000002,236
49805,157362,148718,2.2576281231,-9.0496550732,3.445664544,237
49719,157326,148746,2.1068802992999998,-9.2638126959,3.493520996,238
49666,157308,148734,2.2911276395,-9.1932244292,3.5557343836,239
49650,157298,148729,2.2863419943,-9.0831545896,3.4313076084,240
49597,157311,148744,2.3150558654999998,-9.1980100744,3.4779676491,241
49765,157356,148767,2.1547367513,-9.1824567275,3.5557343836,242
49802,157345,148774,2.2779671152,-9.109475638200001,3.4648071248,243
49821,157347,148759,2.1678972756,-9.041280194099999,3.4791640604,244
49846,157421,148799,2.2432711875,-9.096315113900001,3.445664544,245
49891,157364,148790,2.321037922,-9.148957211099999,3.5497523270999998,246
49901,157384,148784,2.3006989299,-9.1118684608,3.4133614389,247
49874,157381,148825,2.15354034,-9.0017986212,3.5162528107,248
49958,157401,148798,2.1918255016,-9.0795653557,3.4408788988000003,249
50015,157446,148797,2.2576281231,-9.1692962032,3.3463624061,250
50046,157428,148812,2.2061824372,-9.1070828156,3.4600214796,251
50088,157485,148804,2.1068802992999998,-9.2111705987,3.5270205124,252
50116,157469,148814,2.1403798157,-9.2219383004,3.6071800695,253
50152,157475,148826,2.1631116304,-9.121439751199999,3.4707891813,254
50184,157509,148805,2.2683958248,-9.1058864043,3.3942188581,255
50147,157524,148814,2.1547367513,-9.3834538259,3.4755748265,256
50225,157502,148803,2.1391834043999998,-9.164510558,3.4360932536,257
50112,157449,148790,2.3341984463,-9.178867493599999,3.4839497056,258
49949,157377,148751,2.2002003807,-9.006584266399999,3.5461630932,259
49850,157333,148769,2.2205393728,-9.0221376133,3.4121650276000004,260
49807,157319,148777,2.2396819536,-9.2027957196,3.493520996,261
49779,157306,148753,2.321037922,-9.044869428,3.4504501892,262
49809,157320,148750,2.3437697367,-9.0221376133,3.4600214796,263
49872,157343,148789,2.2157537276,-9.0352981376,3.6119657146999997,264
49926,157367,148805,2.2815563491,-9.2793660428,3.4791640604,265
49859,157350,148774,2.15354034,-9.1417787433,3.5078779316,266
49969,157390,148804,2.2480568327,-9.0735832992,3.3738798660000002,267
49994,157377,148786,2.225325018,-9.1357966868,3.4420753101,268
50013,157390,148799,2.2205393728,-9.188438784,3.6358939407,269
50062,157407,148793,2.1858434451,-9.1728854371,3.4408788988000003,270
50096,157438,148824,2.129612114,-9.0185483794,3.4839497056,271
50129,157434,148782,2.2588245344,-9.1453679772,3.5210384559,272
50152,157442,148777,2.2193429615,-9.220741889100001,3.565305674,273
50122,157453,148833,2.1391834043999998,-9.1501536224,3.5210384559,274
50213,157438,148847,2.1667008643,-9.1980100744,3.4360932536,275
50252,157480,148800,2.2624137683,-9.121439751199999,3.4743784152000003,276
50239,157494,148818,2.105683888,-9.0257268472,3.4420753101,277
50310,157531,148807,2.2241286067,-9.0783689444,3.5988051904000002,278
50349,157524,148832,2.2002003807,-9.1836531388,3.5306097463,279
50341,157495,148794,2.1966111468,-9.0125663229,3.4372896648999998,280
50216,157423,148802,2.3856441322,-9.0364945489,3.6023944243,281
50071,157359,148752,2.2636101795999997,-9.0173519681,3.46959277,282
49981,157339,148781,2.2911276395,-9.1357966868,3.4839497056,283
49934,157369,148736,2.1080767106,-9.260223461999999,3.4743784152000003,284
49926,157313,148751,2.2205393728,-9.1369930981,3.5449666819,285
49944,157329,148740,2.2049860259000003,-9.0173519681,3.4408788988000003,286
50007,157371,148777,2.3102702203,-9.1549392676,3.5832518435,287
50071,157359,148773,2.2719850587,-9.273383986299999,3.4983066412,288
50072,157376,148775,2.129612114,-9.2590270507,3.5557343836,289
50073,157390,148781,2.105683888,-9.0317089037,3.4743784152000003,290
50013,157381,148766,2.2815563491,-9.1992064857,3.4564322457,291
50138,157413,148801,2.0733807828999997,-9.1118684608,3.5222348672,292
50177,157376,148796,2.1726829208,-8.9886380969,3.6263226502999997,293
50207,157437,148794,2.1870398563999998,-9.21236701,3.541377448,294
50245,157431,148769,2.2002003807,-9.188438784,3.4779676491,295
50274,157453,148809,2.2348963083999998,-9.0843510009,3.4360932536,296
50341,157485,148823,2.1248264688,-9.1034935817,3.5844482548,297
50304,157450,148798,1.9740786449999999,-9.0879402348,3.5557343836,298
50358,157460,148795,2.2636101795999997,-9.0269232585,3.4887353508000003,299
50383,157508,148838,2.1391834043999998,-9.020941202,3.445664544,300
50419,157506,148808,2.2444675988,-9.206384953499999,3.5892339,301
50448,157495,148805,2.2049860259000003,-9.1836531388,3.5509487384000002,302
50425,157490,148843,2.4251257050999997,-9.2446701151,3.5700913192,303
50281,157444,148789,2.2061824372,-9.164510558,3.4552358344000003,304
50147,157399,148770,2.0542382021,-9.1920280179,3.3690942208,305
50073,157353,148768,2.2588245344,-9.21236701,3.5748769644,306
50029,157324,148691,2.3437697367,-9.165706969299999,3.6035908356,307
50020,157321,148728,2.177468566,-9.055637129700001,3.4313076084,308
50078,157352,148743,2.1391834043999998,-9.0735832992,3.5162528107,309
50127,157383,148741,2.3437697367,-9.2793660428,3.6023944243,310
50058,157377,148769,2.3006989299,-9.1465643885,3.5796626096,311
50153,157383,148739,2.2384855423,-9.041280194099999,3.5401810367,312
50168,157406,148758,2.2444675988,-9.1740818484,3.4983066412,313
50189,157413,148778,2.2109680824,-9.1417787433,3.5078779316,314
50210,157443,148776,2.1954147355,-9.0939222913,3.4887353508000003,315
50268,157443,148799,2.3294128011,-9.1549392676,3.4348968423,316
50280,157445,148796,2.2145573163,-9.2350988247,3.6358939407,317
50303,157465,148774,2.1487546948,-9.207581364800001,3.4552358344000003,318
50333,157436,148778,2.2767707039,-9.1034935817,3.3798619225,319
50354,157446,148794,2.1822542112,-9.140582332,3.5593236175,320
50380,157474,148797,2.3533410271,-9.1357966868,3.5365918028000003,321
50406,157498,148797,2.1547367513,-9.1968136631,3.4983066412,322
50432,157504,148800,2.2959132847,-9.2889373332,3.4707891813,323
50461,157470,148798,2.2301106632,-9.1262253964,3.4061829711000002,324
50440,157495,148794,2.2863419943,-9.3260260835,3.5222348672,325
50306,157425,148786,2.3784656644,-9.1417787433,3.4791640604,326
50160,157377,148754,2.0255243308999997,-8.9934237421,3.3738798660000002,327
50074,157370,148734,2.225325018,-9.164510558,3.4504501892,328
50029,157270,148749,2.2109680824,-9.0999043478,3.5892339,329
50013,157318,148767,2.1308085253,-9.1130648721,3.4360932536,330
50034,157349,148749,2.2301106632,-9.0161555568,3.5078779316,331
50099,157362,148739,2.4203400599,-9.284151688,3.5270205124,332
50116,157354,148721,2.1930219129,-9.104689993,3.5401810367,333
50136,157384,148736,2.1487546948,-9.0592263636,3.46959277,334
50162,157377,148746,2.1966111468,-9.0939222913,3.4743784152000003,335
50162,157391,148752,2.2205393728,-9.273383986299999,3.5162528107,336
50194,157432,148779,2.2169501389,-9.0795653557,3.4839497056,337
50221,157431,148781,2.1726829208,-9.0939222913,3.4504501892,338
50247,157435,148780,2.2073788485,-9.2494557603,3.4121650276000004,339
50273,157447,148780,2.2336998971,-9.117850517299999,3.5210384559,340
50308,157459,148778,2.2205393728,-9.1130648721,3.4875389395,341
50368,157448,148800,2.2707886474,-9.2985086236,3.541377448,342
50382,157456,148779,2.2576281231,-9.116654106,3.5270205124,343
50383,157452,148800,2.1870398563999998,-9.1501536224,3.5030922864000003,344
50404,157503,148821,2.2145573163,-9.1728854371,3.4827532943,345
50474,157505,148809,2.1631116304,-8.9036928946,3.6215370051,346
50441,157505,148792,2.1690936869,-9.0257268472,3.4408788988000003,347
50328,157494,148750,2.2636101795999997,-9.117850517299999,3.6215370051,348
50172,157361,148749,2.177468566,-8.9503529353,3.4648071248,349
50041,157345,148728,2.2444675988,-9.0735832992,3.5497523270999998,350
49989,157326,148732,2.1487546948,-8.9862452743,3.5258241011,351
49956,157295,148734,2.1726829208,-9.1070828156,3.493520996,352
49954,157299,148736,2.2959132847,-9.042476605400001,3.5832518435,353
50014,157343,148749,2.2396819536,-9.0113699116,3.46959277,354
50042,157325,148777,2.3617159062,-9.2171526552,3.5509487384000002,355
50055,157356,148759,2.1343977592,-9.1740818484,3.6406795858999996,356
50066,157376,148772,2.1152551784,-9.0592263636,3.445664544,357
50092,157387,148757,2.2384855423,-9.1968136631,3.4636107135,358
50111,157400,148774,2.2157537276,-9.0735832992,3.5401810367,359
50130,157374,148755,2.3054845751,-8.9802632178,3.6789647475,360
50167,157420,148789,2.1822542112,-8.9778703952,3.493520996,361
50184,157430,148766,2.1822542112,-9.1118684608,3.6071800695,362
50165,157431,148764,2.2061824372,-9.0783689444,3.4360932536,363
50249,157446,148773,2.2109680824,-9.260223461999999,3.5461630932,364
50198,157453,148793,2.27318147,-9.0939222913,3.493520996,365
50288,157415,148801,2.2648065909,-9.1980100744,3.4791640604,366
50319,157502,148803,2.225325018,-8.913264185,3.4875389395,367
50341,157504,148810,2.2540388892,-9.207581364800001,3.5270205124,368
50375,157501,148761,2.2671994135,-8.970691927399999,3.5796626096,369
50316,157462,148791,2.2480568327,-9.1549392676,3.5940195452,370
50155,157384,148761,2.1822542112,-9.1262253964,3.5928231339,371
50030,157324,148775,2.1188444122999996,-9.1680997919,3.4648071248,372
49954,157303,148744,2.3018953412000003,-9.116654106,3.5976087790999998,373
49905,157283,148733,2.2348963083999998,-9.0939222913,3.6023944243,374
49882,157280,148740,2.1726829208,-9.2267239456,3.4504501892,375
49920,157311,148759,2.2827527603999997,-9.0604227749,3.5222348672,376
49987,157314,148760,2.2289142519,-9.1932244292,3.4372896648999998,377
50013,157339,148754,2.2636101795999997,-9.1848495501,3.4408788988000003,378
50014,157367,148767,2.1822542112,-9.0400837828,3.5736805531,379
50037,157383,148773,2.2576281231,-9.0783689444,3.5700913192,380
50063,157373,148777,2.1116659445,-9.2219383004,3.5748769644,381
50085,157406,148788,2.3294128011,-9.1920280179,3.4923245847,382
50120,157402,148778,1.9968104597,-9.1597249128,3.5784661983,383
50138,157376,148762,2.2348963083999998,-9.0795653557,3.5126635768,384
50176,157350,148799,2.2528424779,-9.0161555568,3.4839497056,385
50122,157438,148764,2.2073788485,-9.178867493599999,3.5988051904000002,386
50215,157464,148803,2.2959132847,-9.140582332,3.46959277,387
50244,157456,148811,2.2779671152,-9.1992064857,3.5641092626999997,388
50261,157451,148791,2.1499511061,-9.044869428,3.6071800695,389
50313,157465,148801,2.2432711875,-9.0783689444,3.5784661983,390
50331,157469,148803,2.1726829208,-9.0257268472,3.5880374887,391
50300,157460,148794,2.3006989299,-9.0987079365,3.541377448,392
50123,157402,148791,2.2360927197000002,-8.9790668065,3.5748769644,393
49996,157334,148733,2.0147566292,-9.1262253964,3.4755748265,394
49921,157310,148723,2.2444675988,-9.3355973739,3.4887353508000003,395
49899,157284,148724,2.2492532439999997,-9.178867493599999,3.6023944243,396
49869,157274,148725,2.1595223965,-9.2793660428,3.4839497056,397
49914,157314,148716,2.2576281231,-8.8785682573,3.4408788988000003,398
49981,157328,148750,2.1882362677000002,-9.1501536224,3.6693934571,399
50004,157354,148780,2.4191436486,-9.1357966868,3.4600214796,400
50011,157326,148739,2.1487546948,-9.0939222913,3.4743784152000003,401
50022,157379,148783,2.1631116304,-9.0460658393,3.4540394231000002,402
50054,157376,148798,2.2683958248,-9.232706002099999,3.5365918028000003,403
50097,157387,148792,2.3856441322,-9.0699940653,3.5593236175,404
50099,157400,148792,2.1918255016,-9.1501536224,3.5832518435,405
50029,157380,148771,2.2492532439999997,-9.0352981376,3.5461630932,406
50156,157412,148795,2.2671994135,-9.1417787433,3.5976087790999998,407
50175,157408,148794,2.1678972756,-9.1118684608,3.5605200288,408
50212,157432,148799,2.2241286067,-9.0592263636,3.4887353508000003,409
50228,157422,148804,2.1690936869,-9.1130648721,3.5928231339,410
50255,157435,148788,2.1212372348999997,-9.1728854371,3.5784661983,411
50291,157445,148799,2.2145573163,-9.165706969299999,3.5700913192,412
50320,157463,148774,2.309073809,-9.1740818484,3.493520996,413
50321,157422,148791,2.2432711875,-9.1740818484,3.5700913192,414
50114,157379,148765,2.0961125976,-8.9994057986,3.3942188581,415
50021,157310,148721,2.1164515897,-9.044869428,3.4121650276000004,416
49923,157313,148724,2.2683958248,-9.1932244292,3.6263226502999997,417
49801,157281,148761,2.1870398563999998,-9.2410808812,3.5509487384000002,418
49906,157264,148734,2.2671994135,-9.2171526552,3.4169506728,419
49947,157332,148772,2.3006989299,-8.9635134596,3.46959277,420
50000,157313,148745,2.225325018,-9.1513500337,3.541377448,421
50024,157333,148773,2.0925233637,-9.2410808812,3.3882368016,422
50029,157374,148758,2.1343977592,-9.068797654,3.5844482548,423
50046,157383,148748,2.1870398563999998,-9.121439751199999,3.5270205124,424
50070,157370,148786,2.2109680824,-9.0652084201,3.4360932536,425
50109,157406,148764,2.2815563491,-9.1357966868,3.493520996,426
50138,157412,148800,2.1726829208,-9.1728854371,3.6227334164,427
50163,157417,148809,2.3018953412000003,-9.1262253964,3.5497523270999998,428
50196,157413,148819,2.3341984463,-9.068797654,3.4468609552999996,429
50267,157426,148822,2.2205393728,-9.2398844699,3.5605200288,430
50259,157457,148831,2.2540388892,-9.274580397600001,3.601198013,431
50280,157458,148790,2.225325018,-9.042476605400001,3.4600214796,432
50318,157458,148775,2.2384855423,-9.050851484499999,3.4731820039,433
50339,157468,148821,2.4011974791,-9.0269232585,3.5976087790999998,434
50365,157475,148795,2.2301106632,-9.1118684608,3.5318061576,435
50244,157397,148763,2.2540388892,-9.1597249128,3.5545379723,436
50084,157363,148773,2.1523439287,-8.9599242257,3.5318061576,437
49993,157313,148742,2.2779671152,-9.0747797105,3.4600214796,438
49932,157289,148706,2.2540388892,-9.1992064857,3.493520996,439
49917,157256,148714,2.1487546948,-9.206384953499999,3.4408788988000003,440
49930,157282,148715,2.1152551784,-9.1597249128,3.5018958750999998,441
49982,157318,148734,2.2193429615,-9.0269232585,3.5509487384000002,442
50019,157350,148765,2.3246271559,-9.108279226899999,3.5365918028000003,443
50054,157268,148774,2.2444675988,-9.121439751199999,3.5641092626999997,444
50050,157375,148748,2.1343977592,-8.9886380969,3.5557343836,445
50084,157363,148737,2.2779671152,-9.2303131795,3.5449666819,446
50131,157375,148776,2.3294128011,-9.0496550732,3.5796626096,447
50132,157393,148785,2.0973090089,-9.0699940653,3.5401810367,448
50174,157399,148774,2.2061824372,-9.121439751199999,3.5832518435,449
50193,157408,148779,2.225325018,-9.1022971704,3.6167513599,450
50224,157429,148766,2.1822542112,-9.1836531388,3.5509487384000002,451
50275,157429,148806,2.2109680824,-9.1357966868,3.4779676491,452
50281,157453,148780,2.1918255016,-9.0747797105,3.541377448,453
50320,157454,148789,2.15354034,-9.0831545896,3.493520996,454
50335,157475,148797,2.3294128011,-9.0652084201,3.5784661983,455
50372,157474,148808,2.2432711875,-9.131011041599999,3.5892339,456
50373,157469,148814,2.177468566,-9.247062937699999,3.4588250683,457
50266,157429,148781,2.2396819536,-9.2410808812,3.5318061576,458
50092,157361,148739,2.0111673952999998,-9.1118684608,3.5210384559,459
50009,157315,148708,2.1631116304,-9.108279226899999,3.4552358344000003,460
49948,157301,148723,2.3581266723,-9.1226361625,3.5318061576,461
49937,157234,148748,2.3234307446,-9.108279226899999,3.4923245847,462
49947,157319,148716,2.1870398563999998,-9.008977089,3.4923245847,463
50015,157309,148731,2.2384855423,-9.121439751199999,3.5270205124,464
50065,157373,148723,2.2588245344,-9.2697947524,3.4839497056,465
50065,157351,148742,2.2157537276,-9.1357966868,3.4839497056,466
50062,157369,148783,2.1619152191,-9.0113699116,3.445664544,467
50101,157360,148766,2.2875384056,-9.2458665264,3.5832518435,468
50142,157354,148774,2.2959132847,-9.1369930981,3.4743784152000003,469
50169,157395,148800,2.2432711875,-9.1034935817,3.4408788988000003,470
50198,157341,148766,2.2863419943,-9.0735832992,3.5365918028000003,471
50226,157404,148768,2.1439690496,-9.1872423727,3.565305674,472
50257,157420,148793,2.1188444122999996,-9.1501536224,3.5078779316,473
50287,157419,148765,2.1966111468,-9.1262253964,3.5641092626999997,474
50209,157406,148756,2.3150558654999998,-9.121439751199999,3.5928231339,475
50343,157458,148819,2.2336998971,-9.0305124924,3.5318061576,476
50375,157459,148792,2.1619152191,-9.09272588,3.5832518435,477
50397,157472,148797,2.1164515897,-9.2315095908,3.5126635768,478
50418,157479,148815,2.1966111468,-9.041280194099999,3.4325040196999996,479
50325,157435,148760,2.1966111468,-9.2410808812,3.5401810367,480
50175,157350,148777,2.1152551784,-9.0496550732,3.5162528107,481
50057,157312,148724,2.2049860259000003,-9.2494557603,3.5210384559,482
50018,157293,148718,2.3066809864,-9.2410808812,3.7124642639,483
49995,157294,148728,2.2073788485,-9.2267239456,3.6119657146999997,484
50003,157318,148750,2.1631116304,-9.0604227749,3.4408788988000003,485
50064,157336,148745,2.1858434451,-9.041280194099999,3.5976087790999998,486
50106,157406,148775,2.3258235672,-9.0747797105,3.4839497056,487
50163,157349,148767,2.2779671152,-9.2255275343,3.4360932536,488
50130,157367,148790,2.1343977592,-9.0975115252,3.4313076084,489
50169,157394,148802,2.1619152191,-9.2159562439,3.6167513599,490
50187,157372,148772,2.1966111468,-9.1465643885,3.5461630932,491
50221,157326,148751,2.1212372348999997,-9.0735832992,3.4983066412,492
50242,157414,148769,2.15354034,-9.044869428,3.4743784152000003,493
50274,157397,148760,2.0877377184999997,-9.1692962032,3.493520996,494
50293,157445,148801,2.1714865095,-9.260223461999999,3.6227334164,495
50332,157435,148786,2.2348963083999998,-9.0747797105,3.5126635768,496
50357,157483,148819,2.27318147,-9.0855474122,3.493520996,497
50386,157472,148799,2.1020946541,-9.1561356789,3.5306097463,498
50405,157488,148788,2.2109680824,-9.0364945489,3.4875389395,499
50433,157496,148828,2.2265214293,-9.2087777761,3.5940195452,500
50433,157446,148782,2.2480568327,-9.2506521716,3.5162528107,501
50260,157437,148761,2.177468566,-9.1609213241,3.5784661983,502
50190,157364,148739,2.15354034,-9.064012008799999,3.5784661983,503
50094,157332,148741,2.3389840915,-9.0305124924,3.4313076084,504
50048,157313,148723,2.2923240508,-9.178867493599999,3.4420753101,505
50028,157312,148729,2.2396819536,-9.1262253964,3.541377448,506
50096,157304,148733,2.2540388892,-9.0652084201,3.5353953915,507
50116,157345,148741,2.2061824372,-9.09272588,3.5509487384000002,508
50143,157348,148771,2.2444675988,-9.3738825355,3.5605200288,509
50156,157371,148776,2.2336998971,-9.0496550732,3.5449666819,510
50167,157386,148754,2.2013967919999997,-9.1118684608,3.4085757937,511
50192,157393,148763,2.1487546948,-9.1980100744,3.5162528107,512
50221,157392,148750,2.2097716711,-9.0221376133,3.5210384559,513
50247,157421,148779,2.4107687694999997,-8.9802632178,3.4600214796,514
50272,157415,148790,2.2241286067,-9.1692962032,3.5976087790999998,515
50280,157450,148806,1.9824535241,-8.9790668065,3.6071800695,516
50333,157416,148788,2.225325018,-9.2171526552,3.4540394231000002,517
50349,157475,148799,2.2815563491,-9.1561356789,3.517449222,518
50376,157404,148789,2.2671994135,-9.108279226899999,3.5449666819,519
50413,157470,148751,2.3294128011,-9.0747797105,3.4887353508000003,520
50436,157486,148784,2.3006989299,-9.117850517299999,3.5114671655,521
50474,157474,148795,2.3198415107,-9.1346002755,3.5318061576,522
50483,157506,148797,2.3234307446,-9.0747797105,3.4983066412,523
50397,157442,148776,2.3066809864,-9.2219383004,3.5509487384000002,524
50211,157388,148747,2.1104695332,-9.0400837828,3.493520996,525
50111,157338,148711,2.1487546948,-9.121439751199999,3.5976087790999998,526
50058,157306,148739,2.3198415107,-9.2973122123,3.5892339,527
50007,157306,148694,2.3066809864,-9.0747797105,3.6406795858999996,528
50003,157308,148768,2.1631116304,-9.1465643885,3.5270205124,529
50056,157360,148772,2.0913269524,-9.206384953499999,3.5222348672,530
50061,157379,148765,2.2624137683,-9.2889373332,3.4277183745,531
50119,157378,148757,2.2875384056,-9.0077806777,3.4791640604,532
50134,157332,148753,2.129612114,-9.1501536224,3.5497523270999998,533
50141,157382,148745,2.2827527603999997,-9.1800639049,3.5222348672,534
50175,157390,148779,2.3341984463,-9.1836531388,3.6071800695,535
50201,157418,148733,2.2169501389,-9.0831545896,3.5126635768,536
50222,157399,148775,2.2348963083999998,-9.2590270507,3.5066815203,537
50279,157445,148779,2.2384855423,-8.9802632178,3.5401810367,538
50291,157466,148780,2.1104695332,-9.1453679772,3.4468609552999996,539
50317,157430,148793,2.1200408236,-9.1322074529,3.6550365215,540
50341,157476,148773,2.1200408236,-9.1322074529,3.6550365215,541
50365,157457,148786,2.1200408236,-9.1322074529,3.6550365215,542
50393,157454,148791,2.1200408236,-9.1322074529,3.6550365215,543
50426,157487,148798,2.1200408236,-9.1322074529,3.6550365215,544
50457,157527,148798,2.1200408236,-9.1322074529,3.6550365215,545
50450,157501,148795,2.1200408236,-9.1322074529,3.6550365215,546
50305,157423,148719,2.1200408236,-9.1322074529,3.6550365215,547
50146,157345,148738,2.1200408236,-9.1322074529,3.6550365215,548
50047,157339,148729,2.1200408236,-9.1322074529,3.6550365215,549
50019,157313,148718,2.1200408236,-9.1322074529,3.6550365215,550
49986,157325,148721,2.1200408236,-9.1322074529,3.6550365215,551
50017,157331,148747,2.1200408236,-9.1322074529,3.6550365215,552
50092,157333,148717,2.1200408236,-9.1322074529,3.6550365215,553
50117,157366,148760,2.1200408236,-9.1322074529,3.6550365215,554
50125,157402,148766,2.1200408236,-9.1322074529,3.6550365215,555
50144,157399,148755,2.1200408236,-9.1322074529,3.6550365215,556
50170,157378,148771,2.1200408236,-9.1322074529,3.6550365215,557
50185,157418,148783,2.1200408236,-9.1322074529,3.6550365215,558
50221,157433,148790,2.1200408236,-9.1322074529,3.6550365215,559
50250,157439,148778,2.1200408236,-9.1322074529,3.6550365215,560
50278,157454,148764,2.1200408236,-9.1322074529,3.6550365215,561
50302,157452,148756,2.1200408236,-9.1322074529,3.6550365215,562
50330,157466,148790,2.1200408236,-9.1322074529,3.6550365215,563
50347,157451,148800,2.1200408236,-9.1322074529,3.6550365215,564
50379,157505,148778,2.1200408236,-9.1322074529,3.6550365215,565
50404,157482,148791,2.1200408236,-9.1322074529,3.6550365215,566
50437,157494,148798,2.1200408236,-9.1322074529,3.6550365215,567
50408,157502,148787,2.1200408236,-9.1322074529,3.6550365215,568
50258,157397,148757,2.1200408236,-9.1322074529,3.6550365215,569
50119,157353,148755,2.1200408236,-9.1322074529,3.6550365215,570
50048,157333,148722,2.1200408236,-9.1322074529,3.6550365215,571
50018,157340,148708,2.1200408236,-9.1322074529,3.6550365215,572
49985,157312,148721,2.1200408236,-9.1322074529,3.6550365215,573
50029,157341,148728,2.1200408236,-9.1322074529,3.6550365215,574
50087,157364,148785,2.1200408236,-9.1322074529,3.6550365215,575
50114,157384,148745,2.1200408236,-9.1322074529,3.6550365215,576
50126,157372,148743,2.1200408236,-9.1322074529,3.6550365215,577
50134,157368,148752,2.1200408236,-9.1322074529,3.6550365215,578
50166,157392,148747,2.1200408236,-9.1322074529,3.6550365215,579
50188,157406,148744,2.1200408236,-9.1322074529,3.6550365215,580
50221,157445,148791,2.1200408236,-9.1322074529,3.6550365215,581
50184,157380,148705,2.1248264688,-9.2027957196,3.4779676491,582
50223,157443,148760,2.1248264688,-9.2027957196,3.4779676491,583
50251,157462,148743,2.1248264688,-9.2027957196,3.4779676491,584
50277,157461,148775,2.1248264688,-9.2027957196,3.4779676491,585
50297,157457,148775,2.1248264688,-9.2027957196,3.4779676491,586
50329,157473,148748,2.1248264688,-9.2027957196,3.4779676491,587
50350,157451,148756,2.1248264688,-9.2027957196,3.4779676491,588
50384,157490,148772,2.1248264688,-9.2027957196,3.4779676491,589
50410,157497,148754,2.1248264688,-9.2027957196,3.4779676491,590
50411,157501,148789,2.1248264688,-9.2027957196,3.4779676491,591
50309,157471,148764,2.1248264688,-9.2027957196,3.4779676491,592
50157,157395,148729,2.1248264688,-9.2027957196,3.4779676491,593
50059,157360,148714,2.1248264688,-9.2027957196,3.4779676491,594
50027,157360,148729,2.3712871966,-9.2566342281,3.4121650276000004,595
50015,157341,148696,2.3712871966,-9.2566342281,3.4121650276000004,596
50042,157335,148709,2.1631116304,-9.0664048314,3.4025937372,597
50081,157308,148752,2.177468566,-9.1776710823,3.5892339,598
50103,157371,148737,2.3198415107,-9.2662055185,3.565305674,599
50117,157393,148728,2.3198415107,-8.9515493466,3.5126635768,600
50137,157361,148722,2.3054845751,-8.9551385805,3.3798619225,601
50141,157367,148739,2.2815563491,-9.2542414055,3.5880374887,602
50175,157370,148746,2.2348963083999998,-9.008977089,3.4887353508000003,603
50164,157413,148740,2.1918255016,-9.0604227749,3.397808092,604
50242,157414,148740,2.2624137683,-9.0843510009,3.5114671655,605
50263,157416,148736,2.1104695332,-9.0317089037,3.5497523270999998,606
50299,157469,148743,2.2193429615,-9.1262253964,3.5880374887,607
50321,157440,148764,2.2217357841,-9.080761767,3.5449666819,608
50346,157473,148698,2.1391834043999998,-9.116654106,3.5270205124,609
50364,157477,148750,2.0350956213,-8.9072821285,3.5222348672,610
50422,157463,148766,2.3018953412000003,-9.1692962032,3.5928231339,611
50419,157478,148738,2.1714865095,-9.1501536224,3.6071800695,612
50298,157459,148726,2.2492532439999997,-9.056833541,3.5509487384000002,613
50185,157382,148709,2.1810577999,-8.949156524,3.6263226502999997,614
49972,157313,148693,2.2348963083999998,-9.1453679772,3.4396824875,615
50021,157295,148689,2.3341984463,-9.4121676971,3.5078779316,616
49970,157276,148703,2.1738793321000003,-9.0939222913,3.5976087790999998,617
49917,157303,148709,2.081755662,-9.064012008799999,3.5545379723,618
50011,157338,148721,2.0494525569,-9.0831545896,3.5222348672,619
50066,157346,148718,2.3533410271,-9.09272588,3.4899317621,620
50099,157351,148681,2.2193429615,-9.2542414055,3.5796626096,621
50103,157325,148720,2.0973090089,-9.116654106,3.3750762773,622
50120,157365,148729,2.225325018,-9.164510558,3.4229327293,623
50148,157389,148692,2.1918255016,-9.0843510009,3.6646078119,624
50186,157384,148755,2.1499511061,-9.0364945489,3.565305674,625
50200,157372,148732,2.225325018,-9.1070828156,3.5030922864000003,626
50234,157379,148732,2.1822542112,-9.128618219,3.5545379723,627
50267,157420,148748,2.2193429615,-9.1597249128,3.5318061576,628
50284,157434,148736,2.1523439287,-9.0352981376,3.517449222,629
50324,157408,148716,2.2588245344,-9.2219383004,3.5365918028000003,630
50308,157403,148746,2.3772692530999997,-9.0783689444,3.4360932536,631
50268,157396,148724,2.1355941704999997,-9.064012008799999,3.5569307949000004,632
50262,157363,148737,2.3018953412000003,-9.178867493599999,3.4229327293,633
50207,157362,148729,2.2624137683,-9.4133641084,3.4983066412,634
50148,157326,148679,2.2624137683,-9.247062937699999,3.5605200288,635
50030,157279,148654,2.2205393728,-9.0975115252,3.6562329328,636
50000,157291,148650,2.1595223965,-8.873782612100001,3.5796626096,637
50002,157288,148667,2.2875384056,-9.1346002755,3.565305674,638
50001,157289,148685,2.27318147,-9.1692962032,3.5318061576,639
50045,157303,148682,2.1439690496,-9.0987079365,3.5018958750999998,640
50085,157337,148697,2.15354034,-9.0257268472,3.6323047068,641
50120,157353,148727,2.2336998971,-9.1501536224,3.517449222,642
50122,157339,148704,2.1152551784,-9.1393859207,3.4648071248,643
50123,157368,148719,2.2671994135,-9.1776710823,3.5641092626999997,644
50159,157318,148711,2.4143580034,-9.044869428,3.4360932536,645
50202,157356,148735,2.3772692530999997,-9.131011041599999,3.5928231339,646
50218,157363,148726,2.3246271559,-9.1322074529,3.5078779316,647
50227,157406,148748,2.1631116304,-9.0795653557,3.5832518435,648
50191,157406,148724,2.1690936869,-9.006584266399999,3.5796626096,649
50275,157419,148749,2.1499511061,-9.0879402348,3.5461630932,650
50311,157400,148755,2.2827527603999997,-9.042476605400001,3.4133614389,651
50331,157439,148727,2.3150558654999998,-9.1932244292,3.4995030524999997,652
50370,157428,148736,2.1858434451,-9.0879402348,3.4372896648999998,653
50387,157455,148732,2.105683888,-9.2315095908,3.6023944243,654
50417,157485,148700,2.2803599377999997,-9.117850517299999,3.4277183745,655
50409,157427,148712,2.1068802992999998,-9.1357966868,3.6837503927,656
50206,157347,148679,2.105683888,-9.0735832992,3.5461630932,657
50090,157369,148677,2.1954147355,-9.0783689444,3.5078779316,658
50029,157287,148691,2.2636101795999997,-9.1369930981,3.4791640604,659
49989,157268,148678,2.3533410271,-9.2315095908,3.6119657146999997,660
49997,157269,148662,2.1595223965,-9.2781696315,3.5162528107,661
50084,157306,148692,2.1200408236,-9.0113699116,3.4731820039,662
50107,157323,148700,2.2444675988,-9.050851484499999,3.5796626096,663
50109,157312,148728,2.2301106632,-9.1501536224,3.5282169237,664
50114,157330,148712,2.2109680824,-9.0628155975,3.5449666819,665
50136,157355,148710,2.2193429615,-9.178867493599999,3.5162528107,666
50154,157362,148715,2.3018953412000003,-9.1369930981,3.5258241011,667
50182,157361,148704,2.2683958248,-9.0400837828,3.4265219632000004,668
50209,157392,148749,2.2205393728,-9.1118684608,3.5126635768,669
50271,157387,148712,2.129612114,-9.0783689444,3.4803604716999996,670
50260,157375,148757,2.1116659445,-9.1501536224,3.5988051904000002,671
50289,157404,148722,2.2767707039,-9.0843510009,3.5090743428999995,672
50310,157399,148723,2.2671994135,-9.2027957196,3.5353953915,673
50329,157412,148726,2.2336998971,-9.1453679772,3.5605200288,674
50362,157462,148731,2.2444675988,-9.1453679772,3.6119657146999997,675
50385,157470,148755,2.0793628394,-9.0975115252,3.4743784152000003,676
50352,157411,148729,2.2265214293,-9.1597249128,3.5270205124,677
50199,157341,148698,2.2624137683,-9.0592263636,3.5892339,678
50068,157301,148656,2.1822542112,-9.0879402348,3.4408788988000003,679
50021,157307,148710,2.1583259852,-9.1740818484,3.4229327293,680
50010,157239,148665,2.3042881638,-9.1549392676,3.4612178908999995,681
50008,157292,148673,2.129612114,-9.140582332,3.4971102299,682
50058,157322,148692,2.2624137683,-8.864211321700001,3.4360932536,683
50115,157330,148695,2.1200408236,-9.1453679772,3.5712877305000004,684
50115,157311,148709,2.1499511061,-9.2315095908,3.5030922864000003,685
50128,157349,148669,2.2528424779,-9.041280194099999,3.4791640604,686
50156,157327,148691,2.1690936869,-9.1692962032,3.5700913192,687
50171,157392,148715,2.2480568327,-9.2219383004,3.5449666819,688
50196,157376,148682,2.2025932033,-9.1597249128,3.4779676491,689
50223,157372,148699,2.2193429615,-9.1872423727,3.4875389395,690
50239,157392,148680,2.2073788485,-9.2793660428,3.541377448,691
50257,157397,148727,2.3102702203,-9.1022971704,3.4660035360999997,692
50343,157419,148708,2.0913269524,-9.140582332,3.6023944243,693
50243,157436,148710,2.3676979627,-9.095118702599999,3.4504501892,694
50339,157447,148704,2.1966111468,-9.0221376133,3.4360932536,695
50366,157468,148690,2.297109696,-9.1824567275,3.4995030524999997,696
50354,157436,148706,2.1726829208,-9.1274218077,3.6263226502999997,697
50327,157398,148728,2.2636101795999997,-9.2255275343,3.5796626096,698
50158,157298,148685,2.0542382021,-9.0400837828,3.5030922864000003,699
50043,157304,148667,2.1667008643,-8.9024964833,3.6071800695,700
50003,157256,148648,2.2923240508,-9.236295236,3.6023944243,701
49974,157283,148702,2.2480568327,-9.1369930981,3.5270205124,702
49984,157314,148642,2.2109680824,-9.1980100744,3.5748769644,703
50031,157300,148647,2.1810577999,-9.0747797105,3.517449222,704
50072,157329,148665,2.4239292938,-9.1597249128,3.4743784152000003,705
50084,157311,148693,2.1188444122999996,-8.983852451699999,3.5270205124,706
50092,157362,148690,2.15354034,-9.148957211099999,3.4600214796,707
50119,157323,148685,2.2911276395,-9.1597249128,3.4265219632000004,708
50131,157330,148686,2.2241286067,-9.1417787433,3.5078779316,709
50169,157361,148686,2.1583259852,-9.0975115252,3.5796626096,710
50192,157401,148715,2.1391834043999998,-9.0652084201,3.5222348672,711
50235,157383,148715,2.2241286067,-9.2027957196,3.5593236175,712
50236,157431,148713,2.2217357841,-9.1274218077,3.4887353508000003,713
50291,157378,148690,2.2671994135,-9.206384953499999,3.5461630932,714
50285,157374,148685,2.3054845751,-9.0759761218,3.5545379723,715
50324,157430,148719,2.3341984463,-9.064012008799999,3.4564322457,716
50343,157423,148703,2.2815563491,-9.207581364800001,3.6933216830999998,717
50354,157427,148723,2.1583259852,-9.09272588,3.6023944243,718
50285,157404,148700,2.3018953412000003,-9.2027957196,3.5736805531,719
50125,157289,148665,2.0913269524,-8.9790668065,3.4648071248,720
49998,157276,148690,2.1236300575,-9.0496550732,3.5437702705999996,721
49939,157243,148662,2.2301106632,-9.2638126959,3.5880374887,722
49898,157234,148661,2.3198415107,-9.0364945489,3.5940195452,723
49894,157234,148674,2.2815563491,-9.0783689444,3.5126635768,724
49936,157267,148658,1.9968104597,-9.1011007591,3.5796626096,725
49985,157288,148676,2.1822542112,-9.164510558,3.6035908356,726
50009,157310,148679,2.2683958248,-9.0987079365,3.6406795858999996,727
50027,157306,148674,2.1020946541,-9.0400837828,3.4947174072999996,728
50058,157304,148678,2.3533410271,-8.9934237421,3.46959277,729
50071,157324,148708,2.2504496553,-9.1262253964,3.4408788988000003,730
50098,157327,148701,2.177468566,-9.0975115252,3.6275190616,731
50111,157316,148691,2.2049860259000003,-9.1441715659,3.5641092626999997,732
50140,157325,148682,2.2576281231,-9.2219383004,3.4133614389,733
50183,157357,148698,2.2205393728,-9.2015993083,3.4408788988000003,734
50184,157350,148704,2.2157537276,-9.2590270507,3.6777683362,735
50226,157348,148710,2.2013967919999997,-9.0747797105,3.4660035360999997,736
50248,157356,148674,2.0877377184999997,-9.0029950325,3.4408788988000003,737
50270,157392,148709,2.2528424779,-9.2638126959,3.5748769644,738
50295,157391,148746,2.0877377184999997,-9.1597249128,3.4313076084,739
50321,157384,148698,2.2540388892,-9.21236701,3.6023944243,740
50134,157298,148681,2.2683958248,-9.1501536224,3.613162126,741
49920,157245,148648,2.0446669117,-9.064012008799999,3.5593236175,742
49917,157217,148632,2.3054845751,-9.2303131795,3.5126635768,743
49873,157198,148618,2.2779671152,-9.0843510009,3.5940195452,744
49846,157225,148654,2.2863419943,-9.236295236,3.493520996,745
49884,157231,148628,2.1942183242,-9.0257268472,3.5641092626999997,746
49933,157259,148661,2.2767707039,-9.2350988247,3.5545379723,747
49978,157270,148658,2.3006989299,-9.3212404383,3.5401810367,748
50019,157268,148647,2.3389840915,-9.0735832992,3.445664544,749
50003,157282,148672,2.2049860259000003,-9.1597249128,3.4743784152000003,750
50035,157265,148685,2.3629123174999997,-9.1980100744,3.6263226502999997,751
50072,157293,148698,2.1930219129,-9.0987079365,3.5138599880999997,752
50097,157304,148676,2.2097716711,-9.0975115252,3.4851461168999998,753
50125,157339,148683,2.368894374,-9.050851484499999,3.5126635768,754
50141,157391,148650,2.3330020350000003,-9.1357966868,3.4791640604,755
50198,157327,148710,2.1643080417,-9.0987079365,3.5509487384000002,756
50187,157326,148694,2.1966111468,-9.1944208405,3.5270205124,757
50173,157349,148695,2.1152551784,-9.0891366461,3.6167513599,758
50258,157363,148712,2.1583259852,-9.0077806777,3.5545379723,759
50288,157359,148701,2.3006989299,-9.2554378168,3.4420753101,760
50286,157405,148683,2.2719850587,-9.273383986299999,3.5401810367,761
50213,157345,148679,2.3820548983,-9.2039921309,3.5796626096,762
50052,157264,148688,2.2301106632,-9.0939222913,3.5892339,763
49970,157195,148624,2.1678972756,-9.0975115252,3.4791640604,764
49935,157204,148616,2.4191436486,-9.1692962032,3.6035908356,765
49906,157207,148623,2.2767707039,-9.2171526552,3.4755748265,766
49936,157222,148640,2.2109680824,-8.9551385805,3.4600214796,767
50039,157233,148662,2.2863419943,-8.9886380969,3.7124642639,768
50033,157255,148678,2.2157537276,-9.2877409219,3.5461630932,769
49958,157274,148676,2.1499511061,-9.2315095908,3.5928231339,770
50088,157284,148645,2.2444675988,-9.0496550732,3.5736805531,771
50079,157280,148678,2.2671994135,-9.140582332,3.5365918028000003,772
50101,157288,148676,2.2193429615,-9.1896351953,3.4408788988000003,773
50134,157311,148689,2.1212372348999997,-9.041280194099999,3.4265219632000004,774
50175,157309,148710,2.2301106632,-9.1357966868,3.4851461168999998,775
50187,157337,148719,2.1343977592,-9.1417787433,3.5126635768,776
50231,157351,148678,2.1678972756,-9.0735832992,3.6071800695,777
50264,157353,148696,2.1583259852,-9.140582332,3.4755748265,778
50278,157401,148661,2.3724836079,-9.09272588,3.5461630932,779
50311,157361,148686,2.1523439287,-9.041280194099999,3.5401810367,780
50338,157373,148688,2.3006989299,-9.1980100744,3.5880374887,781
50360,157366,148700,2.2049860259000003,-9.2267239456,3.4265219632000004,782
50295,157406,148686,2.3676979627,-9.2039921309,3.5748769644,783
50176,157257,148629,2.2827527603999997,-9.0735832992,3.4660035360999997,784
50050,157230,148643,2.3006989299,-9.2350988247,3.4552358344000003,785
50011,157237,148648,2.0973090089,-9.2518485829,3.6275190616,786
49986,157208,148597,2.2683958248,-9.1800639049,3.5078779316,787
49992,157236,148637,2.2899312282,-9.117850517299999,3.4504501892,788
50054,157250,148624,2.1631116304,-9.0735832992,3.4983066412,789
50100,157197,148652,2.2959132847,-9.207581364800001,3.565305674,790
50111,157269,148646,2.1834506225,-9.1322074529,3.5401810367,791
50131,157254,148655,2.2013967919999997,-8.9682991048,3.4851461168999998,792
50172,157309,148672,2.2301106632,-9.09272588,3.5365918028000003,793
50190,157296,148695,2.3006989299,-8.983852451699999,3.5593236175,794
50212,157318,148665,2.2767707039,-9.0496550732,3.4313076084,795
50269,157318,148680,2.1631116304,-9.1549392676,3.5976087790999998,796
50270,157363,148702,2.2217357841,-9.121439751199999,3.46959277,797
50305,157362,148690,2.2636101795999997,-9.0317089037,3.6729826909999996,798
50327,157370,148679,2.3581266723,-9.0735832992,3.4612178908999995,799
50361,157368,148683,2.0494525569,-9.1118684608,3.5365918028000003,800
50380,157363,148679,2.2528424779,-9.0352981376,3.6119657146999997,801
50414,157384,148690,2.2707886474,-9.1322074529,3.4301111971,802
50442,157383,148678,2.2217357841,-9.131011041599999,3.6215370051,803
50460,157390,148676,2.1678972756,-9.2638126959,3.541377448,804
50336,157313,148668,2.4095723582,-9.0699940653,3.5988051904000002,805
50177,157270,148618,2.2863419943,-9.0053878551,3.5700913192,806
50088,157222,148603,2.2013967919999997,-9.175278259699999,3.6227334164,807
50057,157215,148629,2.3006989299,-9.1836531388,3.5509487384000002,808
50018,157194,148616,2.4490539311,-9.0879402348,3.5976087790999998,809
50028,157250,148630,2.2911276395,-9.2027957196,3.5844482548,810
50092,157255,148633,2.2384855423,-8.9874416856,3.4648071248,811
50133,157301,148657,2.3294128011,-9.2506521716,3.4408788988000003,812
50166,157273,148645,2.03389921,-9.2446701151,3.4887353508000003,813
50167,157336,148657,2.2827527603999997,-8.9826560404,3.4707891813,814
50196,157306,148667,2.2719850587,-9.164510558,3.5844482548,815
50214,157321,148644,2.2313070745,-9.1836531388,3.4648071248,816
50234,157340,148662,2.2588245344,-9.1453679772,3.5940195452,817
50269,157307,148687,2.2348963083999998,-9.140582332,3.5796626096,818
50356,157353,148639,2.3054845751,-9.1118684608,3.4887353508000003,819
50326,157339,148658,2.2193429615,-9.207581364800001,3.5042886977,820
50355,157363,148672,2.3617159062,-9.0652084201,3.4037901484999997,821
50388,157390,148689,2.3006989299,-9.178867493599999,3.5365918028000003,822
50412,157390,148706,2.1343977592,-9.1980100744,3.4648071248,823
50434,157383,148703,2.2863419943,-9.0029950325,3.4360932536,824
50448,157384,148650,2.3102702203,-9.1190469286,3.4468609552999996,825
50478,157401,148684,2.0973090089,-9.0496550732,3.5030922864000003,826
50395,157349,148667,2.1439690496,-9.21236701,3.4707891813,827
50224,157273,148624,2.1343977592,-8.983852451699999,3.6179477712,828
50122,157244,148603,2.2624137683,-9.2626162846,3.5641092626999997,829
50069,157182,148596,2.1822542112,-9.080761767,3.5892339,830
50030,157198,148608,2.2839491717,-9.1501536224,3.493520996,831
50029,157250,148624,2.177468566,-9.0400837828,3.4660035360999997,832
50137,157245,148626,2.2959132847,-9.1346002755,3.5976087790999998,833
50129,157273,148642,2.3198415107,-9.274580397600001,3.6023944243,834
50150,157285,148619,2.1391834043999998,-9.1465643885,3.5114671655,835
50157,157318,148637,2.1870398563999998,-9.064012008799999,3.46959277,836
50186,157290,148687,2.3341984463,-9.1968136631,3.4839497056,837
50201,157310,148663,2.1918255016,-9.2255275343,3.5509487384000002,838
50174,157304,148639,2.3150558654999998,-9.116654106,3.6119657146999997,839
50257,157320,148674,2.2049860259000003,-9.0699940653,3.5030922864000003,840
50286,157330,148640,2.1966111468,-9.2267239456,3.5461630932,841
50296,157333,148669,2.2061824372,-9.0879402348,3.6502508763,842
50334,157352,148668,2.1355941704999997,-9.0795653557,3.4600214796,843
50289,157374,148669,2.2169501389,-9.1262253964,3.637090352,844
50376,157405,148671,2.2013967919999997,-9.0795653557,3.5557343836,845
50407,157390,148683,2.2061824372,-9.1022971704,3.5365918028000003,846
50468,157404,148673,2.1439690496,-9.1262253964,3.6358939407,847
50357,157398,148677,2.2480568327,-9.2027957196,3.5126635768,848
50446,157416,148678,2.1858434451,-9.0173519681,3.565305674,849
50341,157338,148641,2.3066809864,-9.0783689444,3.637090352,850
50183,157275,148642,2.2576281231,-9.0592263636,3.5162528107,851
50085,157247,148611,2.1260228801,-9.1597249128,3.517449222,852
50038,157245,148635,2.2779671152,-9.1226361625,3.6885360378999996,853
50020,157287,148629,2.3760728418,-9.1070828156,3.4887353508000003,854
50072,157255,148600,2.1678972756,-8.9802632178,3.5461630932,855
50099,157254,148660,2.2624137683,-9.064012008799999,3.6646078119,856
50123,157254,148643,2.3676979627,-9.2554378168,3.5126635768,857
50143,157284,148640,2.2289142519,-9.108279226899999,3.4504501892,858
50152,157282,148627,2.3425733254,-9.1680997919,3.5318061576,859
50175,157283,148662,2.2779671152,-9.0699940653,3.5988051904000002,860
50188,157276,148650,2.3341984463,-9.1513500337,3.4636107135,861
50216,157337,148662,2.1212372348999997,-9.233902413400001,3.4983066412,862
50244,157317,148689,2.3712871966,-9.233902413400001,3.5234312785000004,863
50279,157369,148683,2.2432711875,-9.207581364800001,3.5318061576,864
50293,157384,148654,2.3820548983,-9.050851484499999,3.4648071248,865
50336,157366,148655,2.2528424779,-9.178867493599999,3.5844482548,866
50335,157392,148646,2.2348963083999998,-8.9359959997,3.5401810367,867
50365,157384,148660,2.1260228801,-9.1968136631,3.5892339,868
50396,157416,148698,2.1678972756,-9.09272588,3.6071800695,869
50422,157403,148675,2.225325018,-9.2135634213,3.6466616424,870
50455,157413,148684,2.2157537276,-9.0077806777,3.5461630932,871
50354,157352,148632,2.297109696,-9.0795653557,3.5270205124,872
50192,157280,148652,2.1487546948,-8.9587278144,3.565305674,873
50117,157278,148618,2.0542382021,-9.1262253964,3.5736805531,874
50057,157270,148626,2.3198415107,-9.2937229784,3.5892339,875
50025,157237,148654,2.2145573163,-9.1274218077,3.6083764808,876
50048,157270,148612,2.1870398563999998,-9.21236701,3.6119657146999997,877
50106,157291,148638,2.1571295739000003,-9.0400837828,3.5461630932,878
50136,157318,148645,2.2827527603999997,-9.0747797105,3.5784661983,879
50156,157263,148650,2.1726829208,-9.0269232585,3.4468609552999996,880
50180,157309,148630,2.15354034,-9.0173519681,3.5126635768,881
50196,157339,148671,2.1343977592,-9.1920280179,3.5461630932,882
50218,157321,148650,2.225325018,-9.178867493599999,3.5222348672,883
50238,157373,148650,2.2444675988,-9.0317089037,3.5892339,884
50274,157371,148659,2.1020946541,-9.0269232585,3.5509487384000002,885
50297,157285,148652,2.2336998971,-9.236295236,3.5988051904000002,886
50322,157389,148689,2.3066809864,-8.9934237421,3.4743784152000003,887
50346,157380,148679,2.3629123174999997,-9.1609213241,3.5940195452,888
50376,157416,148628,2.2145573163,-9.1118684608,3.5126635768,889
50405,157416,148671,2.2492532439999997,-9.0592263636,3.5880374887,890
50420,157422,148684,2.1631116304,-9.0604227749,3.6119657146999997,891
50459,157448,148657,2.2109680824,-9.260223461999999,3.565305674,892
50483,157447,148689,2.1678972756,-9.206384953499999,3.493520996,893
50487,157430,148658,2.27318147,-9.188438784,3.5940195452,894
50295,157354,148669,2.3353948576,-8.983852451699999,3.493520996,895
50136,157306,148640,2.1954147355,-9.0364945489,3.5306097463,896
50086,157274,148595,2.2157537276,-9.0843510009,3.541377448,897
50049,157270,148632,2.3712871966,-9.1692962032,3.4791640604,898
50039,157246,148612,2.2671994135,-9.064012008799999,3.3846475676999996,899
50064,157267,148634,2.2492532439999997,-9.09272588,3.6071800695,900
50186,157304,148644,2.3724836079,-9.1549392676,3.5736805531,901
50158,157315,148637,2.3258235672,-9.178867493599999,3.6035908356,902
50214,157303,148647,2.2588245344,-9.068797654,3.5042886977,903
50190,157336,148649,2.2683958248,-9.1824567275,3.5593236175,904
50213,157345,148646,2.2875384056,-9.055637129700001,3.6071800695,905
50248,157343,148666,2.2205393728,-9.1896351953,3.6035908356,906
50273,157359,148634,2.2396819536,-9.068797654,3.6406795858999996,907
50302,157356,148697,2.2097716711,-9.121439751199999,3.5210384559,908
50332,157386,148699,2.2767707039,-9.1357966868,3.5557343836,909
50350,157399,148680,2.1200408236,-9.09272588,3.4887353508000003,910
50382,157403,148713,2.105683888,-9.0987079365,3.5605200288,911
50408,157433,148690,2.2683958248,-9.0592263636,3.5461630932,912
50436,157405,148655,2.2109680824,-9.21236701,3.5186456333,913
50498,157463,148676,2.2899312282,-9.121439751199999,3.4612178908999995,914
50498,157439,148701,2.1726829208,-9.1872423727,3.5976087790999998,915
50427,157436,148670,2.3282163898,-9.2027957196,3.493520996,916
50513,157465,148702,2.3916261887,-9.2829552767,3.6023944243,917
50374,157406,148655,2.3377876802,-9.2315095908,3.5641092626999997,918
50226,157320,148625,2.057827436,-9.1058864043,3.4313076084,919
50166,157357,148620,2.1583259852,-9.178867493599999,3.4648071248,920
50150,157287,148622,2.2588245344,-9.188438784,3.5222348672,921
50114,157286,148618,2.3294128011,-9.131011041599999,3.4839497056,922
50127,157306,148625,2.2396819536,-9.054440718399999,3.5748769644,923
50186,157340,148631,2.1619152191,-9.1549392676,3.5593236175,924
50216,157319,148624,2.225325018,-9.2255275343,3.5688949079,925
50236,157337,148660,2.3246271559,-9.0460658393,3.6083764808,926
50238,157341,148656,2.3676979627,-9.1453679772,3.5126635768,927
50263,157355,148696,2.1355941704999997,-9.1597249128,3.4887353508000003,928
50275,157388,148664,2.2432711875,-9.054440718399999,3.4360932536,929
50213,157387,148673,2.1870398563999998,-9.2542414055,3.5318061576,930
50334,157415,148687,2.2301106632,-8.9359959997,3.5473595045,931
50372,157442,148674,2.2013967919999997,-9.2590270507,3.6562329328,932
50399,157420,148675,2.2396819536,-9.178867493599999,3.5844482548,933
50426,157459,148692,2.0973090089,-9.044869428,3.5461630932,934
50498,157431,148688,2.2301106632,-9.1633141467,3.5509487384000002,935
50474,157432,148675,2.2767707039,-9.0891366461,3.5641092626999997,936
50494,157432,148673,2.2157537276,-9.0975115252,3.4181470840999997,937
50531,157469,148682,2.2396819536,-9.0592263636,3.5461630932,938
50551,157485,148694,2.3485553819,-9.21236701,3.6323047068,939
50592,157492,148707,2.2061824372,-9.1262253964,3.541377448,940
50554,157451,148645,2.2683958248,-9.265009107200001,3.5748769644,941
50391,157392,148644,2.1918255016,-8.9790668065,3.5473595045,942
50264,157357,148641,2.2540388892,-8.926424709299999,3.4360932536,943
50203,157248,148622,2.2767707039,-9.1680997919,3.5796626096,944
50164,157327,148602,2.1583259852,-9.0652084201,3.4755748265,945
50146,157338,148616,2.3581266723,-9.1369930981,3.5928231339,946
50158,157304,148630,2.3198415107,-8.985048863000001,3.4983066412,947
50237,157369,148649,2.2624137683,-9.0699940653,3.6215370051,948
50282,157426,148625,2.3389840915,-9.1274218077,3.6502508763,949
50324,157376,148646,2.2576281231,-9.09272588,3.5318061576,950
50287,157386,148674,2.1439690496,-9.0221376133,3.5940195452,951
50321,157405,148673,2.1678972756,-9.1453679772,3.6837503927,952
50345,157410,148676,2.3389840915,-9.0592263636,3.517449222,953
50364,157421,148673,2.3234307446,-9.0747797105,3.5126635768,954
50392,157418,148657,2.1164515897,-9.0221376133,3.6311082955,955
50414,157428,148666,2.1499511061,-9.044869428,3.5748769644,956
50431,157447,148660,2.2959132847,-9.0843510009,3.541377448,957
50482,157450,148665,2.2875384056,-9.1597249128,3.4743784152000003,958
50504,157473,148692,2.1822542112,-9.1393859207,3.6167513599,959
50529,157472,148684,2.1487546948,-9.1980100744,3.4887353508000003,960
50542,157464,148667,2.0195422744,-9.0783689444,3.5365918028000003,961
50567,157467,148688,2.3760728418,-9.1226361625,3.517449222,962
50595,157489,148690,2.15354034,-9.0939222913,3.4755748265,963
50580,157476,148689,2.15354034,-9.1357966868,3.6646078119,964
50459,157443,148638,2.2791635265,-9.1597249128,3.5318061576,965
50316,157387,148617,2.1918255016,-9.0364945489,3.4360932536,966
50242,157356,148625,2.2348963083999998,-8.985048863000001,3.5401810367,967
50190,157337,148634,2.2157537276,-9.0843510009,3.6227334164,968
50196,157344,148637,2.2923240508,-9.008977089,3.5736805531,969
50263,157375,148655,2.1822542112,-8.8689969669,3.4743784152000003,970
50294,157413,148629,2.1930219129,-9.21236701,3.6981073283,971
50317,157411,148655,2.2767707039,-9.2219383004,3.613162126,972
50317,157388,148675,2.2205393728,-9.175278259699999,3.5712877305000004,973
50337,157442,148668,2.2815563491,-9.0975115252,3.541377448,974
50371,157421,148659,2.2301106632,-9.1202433399,3.6167513599,975
50369,157410,148699,2.15354034,-9.0221376133,3.4552358344000003,976
50390,157427,148675,2.2959132847,-9.3152583818,3.5509487384000002,977
50432,157430,148679,2.3054845751,-9.2446701151,3.5880374887,978
50444,157469,148654,2.1200408236,-9.0939222913,3.5545379723,979
50466,157454,148692,2.2384855423,-9.2315095908,3.5748769644,980
50493,157470,148692,2.2265214293,-9.207581364800001,3.4947174072999996,981
50510,157475,148678,2.0685951377,-9.0795653557,3.4660035360999997,982
50546,157522,148690,2.2408783649,-8.998209387300001,3.5593236175,983
50579,157485,148669,2.1200408236,-9.0783689444,3.4947174072999996,984
50578,157499,148700,2.1822542112,-9.1692962032,3.6311082955,985
50588,157503,148722,2.3006989299,-9.0843510009,3.5126635768,986
50470,157435,148660,2.1116659445,-9.1513500337,3.6514472876,987
50314,157396,148636,2.1858434451,-9.0400837828,3.4372896648999998,988
50226,157377,148638,2.3042881638,-9.0843510009,3.5688949079,989
50211,157356,148651,2.2827527603999997,-9.2159562439,3.6227334164,990
50178,157330,148603,2.3676979627,-9.1597249128,3.5748769644,991
50183,157349,148642,2.2588245344,-9.1824567275,3.5976087790999998,992
50241,157362,148654,2.3114666316,-9.1848495501,3.5509487384000002,993
50283,157392,148632,2.2636101795999997,-9.0939222913,3.4887353508000003,994
50285,157392,148652,2.2923240508,-9.0221376133,3.493520996,995
50287,157427,148672,2.2815563491,-9.0496550732,3.4899317621,996
50323,157398,148663,2.2241286067,-9.164510558,3.5234312785000004,997
50319,157440,148647,2.1667008643,-9.236295236,3.5976087790999998,998
50345,157445,148662,2.1714865095,-9.1274218077,3.6454652310999998,999
50378,157454,148665,2.2205393728,-9.0077806777,3.5222348672,1000
50405,157461,148671,2.3150558654999998,-9.0987079365,3.6023944243,1001
50424,157482,148670,2.2719850587,-9.108279226899999,3.4947174072999996,1002
50435,157489,148679,2.3066809864,-9.1262253964,3.5557343836,1003
50466,157488,148678,2.3389840915,-9.140582332,3.6921252718,1004
50492,157490,148686,2.2384855423,-9.178867493599999,3.5892339,1005
50518,157523,148667,2.129612114,-9.041280194099999,3.5210384559,1006
50541,157527,148688,2.3306092124,-9.1597249128,3.5844482548,1007
50548,157542,148661,2.2588245344,-9.1932244292,3.5497523270999998,1008
50500,157473,148662,2.3162522768000002,-9.1369930981,3.5796626096,1009
50316,157397,148642,2.1451654609,-9.0352981376,3.4887353508000003,1010
50196,157345,148617,2.0781664281,-9.2685983411,3.5126635768,1011
50162,157356,148605,2.3353948576,-9.2087777761,3.5700913192,1012
50113,157327,148614,2.3389840915,-9.2638126959,3.4899317621,1013
50029,157343,148633,2.1308085253,-9.0604227749,3.5318061576,1014
50160,157376,148620,2.1403798157,-9.1740818484,3.541377448,1015
50203,157416,148670,2.3437697367,-9.207581364800001,3.5030922864000003,1016
50184,157382,148627,2.3904297774,-9.2171526552,3.6454652310999998,1017
50227,157382,148687,2.1068802992999998,-9.09272588,3.5700913192,1018
50238,157388,148672,2.2947168733999996,-9.1369930981,3.5700913192,1019
50253,157392,148655,2.2241286067,-9.1501536224,3.5796626096,1020
50278,157420,148681,2.2588245344,-9.0831545896,3.5844482548,1021
50271,157408,148668,2.1918255016,-9.0975115252,3.6263226502999997,1022
50339,157452,148707,2.2767707039,-9.041280194099999,3.5832518435,1023
50409,157422,148655,2.2348963083999998,-9.1118684608,3.5318061576,1024
50404,157441,148694,2.2815563491,-9.0460658393,3.4420753101,1025
50404,157447,148697,2.2013967919999997,-9.1262253964,3.5928231339,1026
50439,157472,148685,2.2923240508,-8.9742811613,3.6693934571,1027
50453,157462,148665,2.3724836079,-9.0125663229,3.5282169237,1028
50487,157489,148672,2.225325018,-9.0604227749,3.5605200288,1029
50521,157488,148670,2.2636101795999997,-9.0987079365,3.4791640604,1030
50497,157462,148674,2.3114666316,-8.9958165647,3.565305674,1031
50355,157386,148665,2.0721843716,-9.0484586619,3.5605200288,1032
50205,157345,148659,2.1343977592,-9.0352981376,3.4731820039,1033
50125,157348,148602,2.2492532439999997,-9.2506521716,3.4887353508000003,1034
50113,157297,148604,2.2815563491,-9.0795653557,3.5665020853000002,1035
50062,157320,148621,2.2348963083999998,-9.008977089,3.4791640604,1036
50001,157333,148667,2.0638094925,-9.044869428,3.5078779316,1037
50145,157361,148668,2.2396819536,-9.1357966868,3.6311082955,1038
50178,157349,148665,2.2875384056,-9.1561356789,3.5030922864000003,1039
50189,157397,148651,2.2289142519,-9.116654106,3.5700913192,1040
50205,157369,148629,2.2157537276,-8.9694955161,3.4887353508000003,1041
50218,157402,148667,2.3341984463,-9.0939222913,3.5030922864000003,1042
50156,157390,148676,2.4000010678,-9.2554378168,3.6275190616,1043
50275,157412,148642,2.2384855423,-9.0604227749,3.517449222,1044
50304,157398,148694,2.297109696,-9.0783689444,3.5461630932,1045
50335,157405,148674,2.2875384056,-9.2027957196,3.5282169237,1046
50349,157419,148702,2.3054845751,-9.2027957196,3.5461630932,1047
50364,157447,148699,2.27318147,-9.1022971704,3.6071800695,1048
50404,157387,148692,2.428714939,-9.116654106,3.4325040196999996,1049
50416,157436,148679,2.4430718746,-8.9647098709,3.5270205124,1050
50447,157452,148692,2.2396819536,-8.9647098709,3.5258241011,1051
50472,157503,148720,2.2432711875,-9.2027957196,3.6550365215,1052
50484,157511,148659,2.2767707039,-9.1274218077,3.5401810367,1053
50445,157467,148684,2.297109696,-9.0400837828,3.4983066412,1054
50276,157368,148617,2.1870398563999998,-9.1070828156,3.4325040196999996,1055
50155,157345,148621,2.2683958248,-9.068797654,3.4624143022,1056
50121,157301,148610,2.2432711875,-9.284151688,3.6502508763,1057
50100,157306,148620,2.1834506225,-9.2219383004,3.565305674,1058
50082,157309,148636,2.105683888,-9.1836531388,3.541377448,1059
50124,157348,148633,2.2013967919999997,-9.0352981376,3.6023944243,1060
50184,157353,148678,2.2193429615,-9.1980100744,3.6323047068,1061
50193,157355,148631,2.1810577999,-9.2183490665,3.5401810367,1062
50208,157276,148666,2.1930219129,-9.1920280179,3.3834511564,1063
50222,157354,148633,2.2432711875,-8.9503529353,3.5509487384000002,1064
50225,157359,148665,2.3198415107,-9.0460658393,3.4133614389,1065
50243,157402,148692,2.2875384056,-9.080761767,3.4983066412,1066
50278,157397,148652,2.2827527603999997,-9.3260260835,3.5030922864000003,1067
50298,157401,148699,2.2313070745,-9.3499543095,3.6035908356,1068
50332,157436,148670,2.2109680824,-8.925228298,3.493520996,1069
50370,157447,148713,2.27318147,-8.9216390641,3.6837503927,1070
50393,157454,148690,2.129612114,-9.0699940653,3.517449222,1071
50439,157463,148681,2.0255243308999997,-9.427721044,3.3690942208,1072
50423,157484,148695,2.2013967919999997,-9.054440718399999,3.3164521235999995,1073
50449,157461,148688,2.4825534475,-9.116654106,3.5688949079,1074
50463,157449,148682,2.2923240508,-9.1357966868,3.5688949079,1075
50433,157423,148679,2.1978075581,-9.3738825355,3.6083764808,1076
50321,157404,148646,2.1547367513,-9.0843510009,3.613162126,1077
50190,157331,148626,1.9920248145,-8.9587278144,3.5042886977,1078
50171,157306,148651,2.177468566,-9.1501536224,3.5688949079,1079
50113,157299,148619,2.3186450994000003,-9.116654106,3.5365918028000003,1080
50106,157312,148649,2.2707886474,-9.1932244292,3.4313076084,1081
50131,157330,148666,2.1439690496,-9.1920280179,3.5222348672,1082
50179,157364,148671,2.1260228801,-9.1070828156,3.5796626096,1083
50193,157379,148659,2.3581266723,-9.0987079365,3.6311082955,1084
50214,157345,148675,2.2624137683,-8.9694955161,3.3882368016,1085
50272,157379,148702,2.2336998971,-9.178867493599999,3.6227334164,1086
50236,157366,148678,2.1583259852,-9.2219383004,3.5940195452,1087
50269,157386,148682,2.225325018,-9.116654106,3.5940195452,1088
50292,157393,148686,2.1870398563999998,-9.09272588,3.5306097463,1089
50353,157414,148696,2.2169501389,-9.0795653557,3.5641092626999997,1090
50350,157407,148664,2.1200408236,-9.0604227749,3.6550365215,1091
50313,157406,148711,2.1487546948,-9.2267239456,3.6167513599,1092
50391,157425,148684,2.4000010678,-9.1369930981,3.517449222,1093
50415,157434,148655,2.3868405435,-9.1022971704,3.5545379723,1094
50424,157459,148680,2.0925233637,-9.064012008799999,3.4301111971,1095
50447,157461,148691,2.2049860259000003,-9.21236701,3.5940195452,1096
50492,157471,148693,2.1822542112,-9.116654106,3.637090352,1097
50462,157438,148659,2.2480568327,-9.0400837828,3.5928231339,1098
50300,157367,148638,2.3294128011,-8.9503529353,3.5988051904000002,1099
50176,157324,148650,2.2049860259000003,-9.1022971704,3.4229327293,1100
50152,157319,148642,2.2313070745,-9.21236701,3.6406795858999996,1101
50072,157291,148617,2.3198415107,-9.1513500337,3.5138599880999997,1102
50058,157306,148627,2.2719850587,-9.188438784,3.3798619225,1103
50079,157308,148644,2.1667008643,-9.1262253964,3.4755748265,1104
50145,157325,148640,2.2767707039,-9.0771725331,3.6646078119,1105
50163,157333,148650,2.1104695332,-9.2231347117,3.565305674,1106
50180,157357,148659,2.4143580034,-9.0747797105,3.3882368016,1107
50204,157345,148632,2.2779671152,-9.054440718399999,3.7280176108,1108
50215,157355,148688,2.2241286067,-9.1692962032,3.5473595045,1109
50237,157373,148677,2.2348963083999998,-9.3463650756,3.4313076084,1110
50267,157380,148683,2.1726829208,-8.983852451699999,3.5449666819,1111
50299,157407,148702,2.1930219129,-9.1728854371,3.5712877305000004,1112
50326,157395,148676,2.2636101795999997,-9.1357966868,3.5700913192,1113
50351,157403,148672,2.3665015514,-9.0652084201,3.5832518435,1114
50367,157429,148690,2.344966148,-9.0125663229,3.5222348672,1115
50389,157426,148686,2.2360927197000002,-9.1968136631,3.493520996,1116
50416,157434,148675,2.2959132847,-9.0364945489,3.5928231339,1117
50365,157439,148693,2.2265214293,-9.206384953499999,3.5892339,1118
50440,157422,148672,2.297109696,-9.0747797105,3.5796626096,1119
50364,157417,148657,2.3006989299,-9.131011041599999,3.613162126,1120
50250,157344,148645,2.0829520733,-8.997012975999999,3.5545379723,1121
50112,157327,148649,2.2241286067,-9.0843510009,3.46959277,1122
50057,157283,148632,2.3629123174999997,-8.9599242257,3.5270205124,1123
50070,157267,148637,2.2145573163,-9.164510558,3.517449222,1124
50022,157284,148649,2.1104695332,-9.1357966868,3.4073793824000003,1125
50089,157278,148658,2.2959132847,-8.9742811613,3.5641092626999997,1126
50127,157320,148649,2.2779671152,-9.178867493599999,3.5509487384000002,1127
50118,157298,148670,2.2109680824,-9.0783689444,3.6358939407,1128
50052,157329,148680,2.4011974791,-9.0699940653,3.5078779316,1129
50148,157333,148671,2.2875384056,-9.1501536224,3.6215370051,1130
50177,157249,148693,2.297109696,-9.0987079365,3.5832518435,1131
50193,157331,148673,2.2384855423,-9.0113699116,3.6598221666999997,1132
50221,157352,148684,2.2432711875,-9.1776710823,3.6275190616,1133
50297,157364,148699,2.2540388892,-9.1441715659,3.6705898684,1134
50297,157376,148696,2.2636101795999997,-9.0352981376,3.637090352,1135
50318,157406,148687,2.2911276395,-9.054440718399999,3.5832518435,1136
50347,157423,148665,2.3904297774,-9.178867493599999,3.4839497056,1137
50354,157420,148681,2.2492532439999997,-9.1034935817,3.4444681327,1138
50374,157425,148673,2.3880369548,-9.4169533423,3.5545379723,1139
50397,157433,148705,2.1595223965,-9.2027957196,3.5270205124,1140
50332,157365,148665,2.344966148,-9.1130648721,3.5557343836,1141
50185,157307,148669,2.2839491717,-9.0436730167,3.5796626096,1142
50062,157341,148652,2.1678972756,-9.020941202,3.4420753101,1143
50009,157254,148638,2.4239292938,-9.0831545896,3.7172499091,1144
49905,157251,148638,2.1116659445,-9.188438784,3.6000016017000003,1145
49977,157268,148660,2.1355941704999997,-9.0125663229,3.6311082955,1146
50020,157279,148665,2.1643080417,-8.9922273308,3.4791640604,1147
50060,157292,148683,2.4023938904,-9.2279203569,3.6358939407,1148
50066,157355,148663,2.2636101795999997,-9.1549392676,3.5497523270999998,1149
50069,157317,148672,2.1918255016,-9.220741889100001,3.5545379723,1150
50084,157322,148684,2.1726829208,-9.0676012427,3.4648071248,1151
50112,157303,148676,2.2025932033,-9.178867493599999,3.5557343836,1152
50143,157341,148704,2.3665015514,-9.0699940653,3.5928231339,1153
50166,157393,148684,2.2911276395,-9.2219383004,3.5042886977,1154
50222,157336,148681,2.2444675988,-9.3655076564,3.5748769644,1155
50213,157343,148698,2.2408783649,-9.1980100744,3.6035908356,1156
50248,157356,148703,2.2923240508,-8.8701933782,3.6741791022999997,1157
50282,157365,148697,2.2061824372,-8.9216390641,3.6275190616,1158
50314,157435,148717,2.0590238472999998,-9.1585285015,3.5784661983,1159
50326,157402,148721,2.1726829208,-9.2171526552,3.5078779316,1160
50355,157426,148692,2.1918255016,-9.1118684608,3.5700913192,1161
50382,157379,148707,2.3509482045,-9.188438784,3.4372896648999998,1162
50399,157453,148708,2.3054845751,-9.0161555568,3.6406795858999996,1163
50431,157441,148703,2.1966111468,-9.1836531388,3.4839497056,1164
50453,157439,148731,2.2061824372,-9.1549392676,3.517449222,1165
50480,157494,148687,2.129612114,-9.068797654,3.4791640604,1166
50515,157460,148713,2.1511475174,-9.0305124924,3.6119657146999997,1167
50496,157480,148699,2.2863419943,-9.055637129700001,3.5748769644,1168
50576,157476,148720,2.1690936869,-9.0077806777,3.5605200288,1169
50594,157519,148706,2.3006989299,-9.1836531388,3.6263226502999997,1170
50618,157533,148717,2.3246271559,-9.2697947524,3.5736805531,1171
50651,157533,148744,2.225325018,-9.0843510009,3.5928231339,1172
50585,157528,148695,2.2588245344,-8.916853418899999,3.5557343836,1173
50711,157567,148745,2.2683958248,-9.1920280179,3.6406795858999996,1174
50731,157576,148728,2.3676979627,-9.1609213241,3.6885360378999996,1175
50805,157553,148728,2.2492532439999997,-9.3499543095,3.6311082955,1176
50806,157574,148742,2.3581266723,-9.1022971704,3.5784661983,1177
50843,157582,148740,2.2241286067,-9.1824567275,3.5593236175,1178
50867,157595,148754,2.2480568327,-8.9587278144,3.5892339,1179
50901,157591,148768,2.2815563491,-9.178867493599999,3.5988051904000002,1180
50939,157619,148752,2.3401805028,-9.1932244292,3.5509487384000002,1181
50943,157647,148772,2.3736800192,-9.4121676971,3.4983066412,1182
50811,157577,148694,2.4346969955,-9.2410808812,3.4743784152000003,1183
50663,157485,148680,2.3102702203,-8.806783579300001,3.5700913192,1184
50518,157448,148665,2.2863419943,-9.153742856300001,3.5210384559,1185
50449,157423,148671,2.2348963083999998,-9.2829552767,3.6083764808,1186
50443,157372,148662,2.3018953412000003,-8.9742811613,3.5988051904000002,1187
50456,157432,148650,2.3246271559,-9.1501536224,3.5748769644,1188
50516,157460,148691,2.1164515897,-9.064012008799999,3.6167513599,1189
50547,157456,148699,2.225325018,-9.121439751199999,3.4899317621,1190
50561,157469,148699,2.177468566,-9.0352981376,3.6119657146999997,1191
50562,157504,148713,2.3593230836,-9.140582332,3.517449222,1192
50590,157465,148694,2.1966111468,-9.3032942688,3.6837503927,1193
50607,157522,148723,2.3198415107,-8.9515493466,3.493520996,1194
50646,157510,148699,2.356930261,-9.0305124924,3.6981073283,1195
50653,157512,148723,2.3772692530999997,-9.0592263636,3.6227334164,1196
50700,157556,148702,2.0650059038,-9.188438784,3.517449222,1197
50726,157556,148714,2.1822542112,-9.131011041599999,3.565305674,1198
50757,157555,148669,2.2492532439999997,-8.9682991048,3.5557343836,1199
50774,157591,148726,2.2827527603999997,-9.0221376133,3.5641092626999997,1200
50798,157590,148720,2.3162522768000002,-9.064012008799999,3.4983066412,1201
50833,157566,148724,2.4729821571,-9.2219383004,3.5186456333,1202
50858,157617,148741,2.2707886474,-9.2506521716,3.517449222,1203
50825,157582,148718,2.2193429615,-9.0891366461,3.5928231339,1204
50691,157517,148680,2.1020946541,-8.873782612100001,3.517449222,1205
50566,157509,148668,2.15354034,-8.9682991048,3.517449222,1206
50537,157444,148663,2.368894374,-9.2697947524,3.5353953915,1207
50482,157439,148675,2.3246271559,-9.1597249128,3.5461630932,1208
50477,157451,148695,2.3258235672,-9.1740818484,3.4360932536,1209
50536,157470,148689,2.177468566,-9.1549392676,3.5030922864000003,1210
50565,157479,148697,2.3545374384,-9.0317089037,3.5880374887,1211
50594,157484,148697,2.2205393728,-9.224331123,3.5844482548,1212
50612,157503,148719,2.237289131,-9.1585285015,3.5365918028000003,1213
50654,157579,148717,2.1810577999,-9.140582332,3.6179477712,1214
50667,157534,148701,2.2911276395,-9.0879402348,3.6658042232,1215
50707,157551,148753,2.2205393728,-9.068797654,3.4277183745,1216
50746,157560,148759,2.3162522768000002,-9.0077806777,3.4121650276000004,1217
50756,157568,148767,2.3006989299,-9.1070828156,3.5018958750999998,1218
50773,157570,148780,2.3533410271,-9.0843510009,3.4360932536,1219
50801,157570,148758,2.3222343333,-9.0652084201,3.5796626096,1220
50818,157554,148748,2.2025932033,-9.2685983411,3.5461630932,1221
50848,157611,148756,2.1631116304,-9.2374916473,3.5700913192,1222
50804,157604,148792,2.1391834043999998,-9.1262253964,3.541377448,1223
50880,157615,148767,2.1355941704999997,-9.0257268472,3.5880374887,1224
50750,157528,148739,2.2301106632,-9.006584266399999,3.6275190616,1225
50611,157483,148707,2.2396819536,-9.1932244292,3.3798619225,1226
50537,157445,148705,2.3006989299,-9.0077806777,3.4971102299,1227
50503,157473,148720,2.297109696,-9.1740818484,3.6562329328,1228
50477,157442,148707,2.3270199785,-9.2231347117,3.4923245847,1229
50489,157479,148725,2.2719850587,-8.944370878800001,3.4731820039,1230
50449,157483,148750,2.0925233637,-9.1501536224,3.4743784152000003,1231
50568,157509,148743,2.1834506225,-9.3128655592,3.6945180944,1232
50575,157516,148724,2.3808584870000002,-8.9359959997,3.5078779316,1233
50600,157550,148765,2.2145573163,-9.0532443071,3.5700913192,1234
50621,157559,148774,2.4155544147,-8.9934237421,3.5557343836,1235
50659,157577,148789,2.3401805028,-9.3355973739,3.637090352,1236
50681,157570,148804,2.1391834043999998,-9.1262253964,3.6167513599,1237
50763,157601,148779,2.2959132847,-9.0771725331,3.4983066412,1238
50726,157589,148805,2.1008982428,-9.1549392676,3.6323047068,1239
50745,157607,148787,2.404786713,-9.1501536224,3.4887353508000003,1240
50782,157623,148812,2.2205393728,-9.1034935817,3.5700913192,1241
50777,157631,148786,2.2719850587,-9.041280194099999,3.541377448,1242
50693,157614,148813,2.2169501389,-9.1704926145,3.5270205124,1243
50847,157641,148809,2.1643080417,-8.9886380969,3.5365918028000003,1244
50716,157575,148758,2.1547367513,-9.1453679772,3.7220355542999997,1245
50523,157529,148765,2.2025932033,-9.064012008799999,3.517449222,1246
50404,157464,148762,2.1667008643,-8.9790668065,3.397808092,1247
50345,157502,148774,2.1786649773,-9.164510558,3.7268211995,1248
50302,157482,148749,2.0638094925,-9.131011041599999,3.7698920062999997,1249
50312,157486,148775,2.177468566,-9.1453679772,3.613162126,1250
50374,157547,148787,2.1200408236,-8.949156524,3.6167513599,1251
50428,157556,148794,2.4011974791,-9.2925265671,3.4660035360999997,1252
50417,157564,148775,2.2444675988,-9.1597249128,3.4791640604,1253
50421,157529,148784,2.2540388892,-9.2781696315,3.5892339,1254
50442,157547,148812,2.1619152191,-9.188438784,3.4755748265,1255
50454,157590,148821,2.1152551784,-9.0699940653,3.6023944243,1256
50439,157630,148810,2.225325018,-8.930013943199999,3.5401810367,1257
50523,157605,148839,2.0925233637,-8.739784546500001,3.4277183745,1258
50525,157601,148853,2.2779671152,-9.2398844699,3.5593236175,1259
50533,157603,148850,2.3772692530999997,-9.633503787599999,3.8189448695999997,1260
50554,157605,148799,2.2157537276,-9.5054877785,3.5820554322,1261
50517,157648,148809,1.9824535241,-8.650053698999999,3.3547372851999997,1262
50644,157687,148822,1.8412769907000002,-8.4801632944,3.3547372851999997,1263
50682,157676,148870,2.2444675988,-9.0723868879,3.6083764808,1264
50684,157679,148861,2.0913269524,-9.399007172800001,3.6382867633,1265
50586,157627,148796,2.3581266723,-9.509077012399999,3.6466616424,1266
50367,157502,148770,2.1152551784,-9.1369930981,3.7447673690000003,1267
50244,157498,148760,2.2480568327,-8.9587278144,3.565305674,1268
50177,157477,148748,2.2061824372,-8.9587278144,3.4121650276000004,1269
50128,157472,148772,2.297109696,-9.1549392676,3.5030922864000003,1270
50023,157446,148806,2.2217357841,-9.2889373332,3.6263226502999997,1271
50186,157474,148736,2.3018953412000003,-9.175278259699999,3.7746776515,1272
50248,157510,148753,2.1918255016,-9.1932244292,3.7088750299999997,1273
50258,157524,148797,2.0195422744,-9.1346002755,3.7387853125,1274
50289,157538,148796,2.1523439287,-9.0747797105,3.4983066412,1275
50319,157515,148827,2.0673987264,-8.9539421692,3.4875389395,1276
50368,157548,148812,2.2875384056,-9.0831545896,3.4121650276000004,1277
50375,157545,148834,2.2923240508,-9.332008140000001,3.4265219632000004,1278
50384,157546,148795,2.2707886474,-9.3367937852,3.6550365215,1279
50390,157497,148805,2.3294128011,-9.1932244292,3.5557343836,1280
50404,157550,148828,2.2923240508,-9.1633141467,3.5557343836,1281
50438,157515,148788,2.1140587671,-8.9216390641,3.6550365215,1282
50472,157586,148833,1.9669001771999999,-9.1357966868,3.5030922864000003,1283
50514,157642,148825,2.009970984,-9.1453679772,3.5449666819,1284
50596,157628,148835,2.1571295739000003,-8.8965144268,3.4313076084,1285
50511,157644,148840,2.3306092124,-9.1022971704,3.5988051904000002,1286
50600,157612,148845,2.321037922,-9.4085784632,3.5605200288,1287
50539,157596,148838,2.3545374384,-9.3332045513,3.5976087790999998,1288
50380,157512,148819,2.2396819536,-9.041280194099999,3.5593236175,1289
50245,157459,148779,2.0159530405,-8.9575314031,3.5557343836,1290
50178,157447,148794,2.0961125976,-9.0879402348,3.6023944243,1291
50061,157423,148768,1.9968104597,-9.1549392676,3.5509487384000002,1292
50127,157418,148782,2.0721843716,-9.3260260835,3.4504501892,1293
50166,157415,148774,2.1020946541,-9.2805624541,3.5030922864000003,1294
50240,157457,148778,2.4011974791,-9.0723868879,3.5222348672,1295
50262,157520,148773,2.5028924396,-9.1417787433,3.7172499091,1296
50309,157487,148801,2.0626130812,-8.998209387300001,3.6466616424,1297
50292,157482,148819,2.0685951377,-9.265009107200001,3.5940195452,1298
50346,157491,148806,2.0542382021,-9.108279226899999,3.7710884175999997,1299
50383,157516,148819,2.2959132847,-9.0592263636,3.5282169237,1300
50427,157553,148843,2.2875384056,-9.1262253964,3.565305674,1301
50476,157537,148837,2.2109680824,-9.096315113900001,3.3738798660000002,1302
50478,157564,148836,2.2336998971,-9.2171526552,3.4313076084,1303
50490,157538,148844,2.3880369548,-9.0185483794,3.4887353508000003,1304
50528,157543,148840,2.2683958248,-9.1130648721,3.7220355542999997,1305
50549,157618,148849,2.0039889275,-9.09272588,3.6502508763,1306
50623,157567,148860,2.3581266723,-8.97308475,3.5748769644,1307
50626,157629,148883,2.2157537276,-8.8486579748,3.8333018051999996,1308
50649,157622,148853,2.3341984463,-9.1597249128,3.4360932536,1309
50692,157689,148859,2.2743778813,-9.379864592,3.4301111971,1310
50746,157645,148832,2.2109680824,-9.109475638200001,3.6789647475,1311
50688,157618,148840,2.1200408236,-9.056833541,3.4037901484999997,1312
50586,157567,148791,2.3521446158,-9.0460658393,3.5605200288,1313
50398,157519,148800,2.1690936869,-9.2315095908,3.4301111971,1314
50310,157479,148765,2.1164515897,-8.9886380969,3.5461630932,1315
50266,157418,148817,2.2205393728,-8.916853418899999,3.7603207159,1316
50241,157425,148812,2.15354034,-9.1022971704,3.5473595045,1317
50259,157456,148817,2.2013967919999997,-9.2937229784,3.4648071248,1318
50307,157384,148816,2.2205393728,-9.0783689444,3.6023944243,1319
50369,157469,148813,2.2588245344,-9.2111705987,3.5509487384000002,1320
50372,157482,148803,2.2588245344,-9.1274218077,3.4229327293,1321
50392,157502,148834,2.2719850587,-9.0125663229,3.5545379723,1322
50423,157526,148826,2.3006989299,-9.1346002755,3.5784661983,1323
50467,157509,148860,2.2061824372,-9.2829552767,3.6323047068,1324
50490,157562,148859,2.2384855423,-9.236295236,3.5449666819,1325
50515,157567,148816,2.3066809864,-9.0029950325,3.6215370051,1326
50545,157576,148837,2.1678972756,-9.0496550732,3.5222348672,1327
50573,157552,148858,2.129612114,-9.0843510009,3.4743784152000003,1328
50600,157609,148863,2.3102702203,-9.0125663229,3.421736318,1329
50619,157599,148870,2.2480568327,-9.054440718399999,3.5605200288,1330
50656,157594,148872,2.2683958248,-9.1824567275,3.4552358344000003,1331
50666,157609,148831,2.2480568327,-9.1932244292,3.5222348672,1332
50695,157625,148833,2.3066809864,-9.2494557603,3.6598221666999997,1333
50730,157600,148878,2.1918255016,-9.3391866078,3.4743784152000003,1334
50756,157655,148857,2.3186450994000003,-9.152546445,3.5461630932,1335
50749,157631,148872,2.2002003807,-9.0867438235,3.6646078119,1336
50625,157623,148809,2.3246271559,-9.21236701,3.5832518435,1337
50458,157548,148817,2.1571295739000003,-9.121439751199999,3.5892339,1338
50393,157474,148771,2.404786713,-9.2279203569,3.6227334164,1339
50309,157480,148785,2.2504496553,-9.1118684608,3.5700913192,1340
50281,157441,148773,2.2025932033,-9.1585285015,3.5796626096,1341
50287,157477,148799,2.3916261887,-9.041280194099999,3.4408788988000003,1342
50397,157475,148826,2.2241286067,-8.9790668065,3.5832518435,1343
50389,157526,148822,2.3353948576,-9.1549392676,3.4504501892,1344
50411,157494,148811,2.2779671152,-9.1800639049,3.5270205124,1345
50406,157524,148828,2.3581266723,-9.0699940653,3.421736318,1346
50435,157561,148821,2.177468566,-9.1022971704,3.6466616424,1347
50474,157531,148849,2.1583259852,-9.0317089037,3.5557343836,1348
50527,157567,148856,2.3341984463,-9.1022971704,3.4552358344000003,1349
50550,157564,148859,2.1583259852,-8.916853418899999,3.5892339,1350
50568,157602,148844,2.2540388892,-9.1549392676,3.5641092626999997,1351
50591,157606,148819,2.2827527603999997,-9.2877409219,3.5449666819,1352
50647,157624,148858,2.2588245344,-9.1932244292,3.5796626096,1353
50638,157629,148824,2.4011974791,-9.0747797105,3.5497523270999998,1354
50661,157630,148861,2.1523439287,-8.9778703952,3.5784661983,1355
50677,157639,148828,2.1870398563999998,-9.1776710823,3.7088750299999997,1356
50705,157648,148876,2.1643080417,-9.1453679772,3.4085757937,1357
50742,157627,148842,2.2875384056,-9.2985086236,3.541377448,1358
50761,157673,148839,2.1822542112,-8.9790668065,3.613162126,1359
50689,157660,148853,2.1152551784,-8.7146599092,3.6119657146999997,1360
50812,157694,148816,2.2049860259000003,-9.1980100744,3.7603207159,1361
50809,157618,148840,2.3102702203,-9.5330052384,3.5736805531,1362
50689,157593,148811,2.3018953412000003,-9.232706002099999,3.5461630932,1363
50527,157553,148774,2.0015961049,-8.7828553533,3.4923245847,1364
50458,157508,148795,2.1104695332,-8.9898345082,3.6610185779999997,1365
50377,157501,148784,2.4059831243,-9.3690968903,3.637090352,1366
50328,157504,148765,2.1631116304,-9.3511507208,3.6203405937999995,1367
50249,157480,148797,2.2911276395,-9.055637129700001,3.5078779316,1368
50404,157534,148786,2.1966111468,-8.885746725099999,3.6167513599,1369
50428,157565,148792,2.1391834043999998,-9.2015993083,3.5617164401,1370
50448,157576,148820,2.1355941704999997,-9.0843510009,3.5234312785000004,1371
50468,157555,148808,2.1212372348999997,-9.1226361625,3.6406795858999996,1372
50477,157561,148827,2.2360927197000002,-9.0939222913,3.5748769644,1373
50499,157560,148825,2.2683958248,-9.0699940653,3.5569307949000004,1374
50546,157575,148822,2.0685951377,-9.0735832992,3.5306097463,1375
50564,157573,148821,2.2671994135,-9.020941202,3.6837503927,1376
50593,157619,148829,2.1966111468,-9.0879402348,3.541377448,1377
50616,157623,148856,2.1714865095,-9.2027957196,3.6023944243,1378
50645,157606,148836,2.2444675988,-9.0783689444,3.6071800695,1379
50659,157619,148837,2.129612114,-8.9790668065,3.5700913192,1380
50696,157597,148827,2.27318147,-9.140582332,3.4277183745,1381
50723,157669,148837,2.3006989299,-9.0460658393,3.6646078119,1382
50736,157642,148805,2.2444675988,-9.1549392676,3.5282169237,1383
50767,157647,148821,2.1918255016,-9.1932244292,3.6406795858999996,1384
50793,157663,148836,2.2791635265,-9.055637129700001,3.6981073283,1385
50803,157668,148855,2.1858434451,-8.9766739839,3.4887353508000003,1386
50844,157700,148828,2.2480568327,-9.1776710823,3.5126635768,1387
50852,157709,148829,2.1918255016,-9.1393859207,3.5832518435,1388
50813,157664,148817,2.3246271559,-9.188438784,3.5700913192,1389
50680,157628,148824,2.105683888,-9.116654106,3.4408788988000003,1390
50523,157567,148744,2.0626130812,-8.9024964833,3.4600214796,1391
50456,157553,148762,2.0398812665,-9.1932244292,3.6514472876,1392
50441,157546,148760,2.3676979627,-9.0460658393,3.6837503927,1393
50426,157522,148796,2.3676979627,-9.2219383004,3.5832518435,1394
50473,157569,148811,2.2013967919999997,-8.998209387300001,3.5318061576,1395
50510,157581,148797,2.2827527603999997,-9.1597249128,3.5784661983,1396
50531,157592,148815,2.1726829208,-9.260223461999999,3.5605200288,1397
50523,157600,148775,2.1726829208,-9.044869428,3.5318061576,1398
50537,157562,148769,2.2013967919999997,-9.0125663229,3.5030922864000003,1399
50571,157601,148800,2.1738793321000003,-9.0735832992,3.5892339,1400
50597,157606,148804,2.3330020350000003,-9.178867493599999,3.5078779316,1401
50640,157640,148818,2.309073809,-9.2398844699,3.5270205124,1402
50659,157632,148837,2.2683958248,-9.1250289851,3.6023944243,1403
50693,157662,148815,2.2396819536,-9.265009107200001,3.493520996,1404
50707,157689,148834,2.2145573163,-9.1597249128,3.5030922864000003,1405
50761,157689,148819,2.2109680824,-9.117850517299999,3.517449222,1406
50746,157668,148816,2.2348963083999998,-9.0029950325,3.6502508763,1407
50774,157659,148844,2.2779671152,-8.9742811613,3.6071800695,1408
50750,157690,148826,2.2923240508,-9.0735832992,3.6227334164,1409
50810,157706,148834,2.2528424779,-9.0317089037,3.5593236175,1410
50828,157721,148807,2.2432711875,-9.081958178299999,3.4887353508000003,1411
50867,157711,148832,2.1547367513,-9.1369930981,3.5318061576,1412
50879,157717,148808,2.1116659445,-9.1298146303,3.5904303113,1413
50857,157686,148776,2.4011974791,-9.0879402348,3.565305674,1414
50706,157625,148746,2.1391834043999998,-9.21236701,3.4791640604,1415
50559,157597,148773,2.1870398563999998,-9.0017986212,3.5018958750999998,1416
50489,157589,148786,2.4095723582,-9.260223461999999,3.565305674,1417
50449,157544,148773,2.2396819536,-9.1920280179,3.5844482548,1418
50426,157558,148742,2.3330020350000003,-9.0831545896,3.4791640604,1419
50466,157570,148772,2.428714939,-9.0221376133,3.5473595045,1420
50528,157620,148788,2.2540388892,-9.0915294687,3.4983066412,1421
50584,157616,148800,2.2935204621,-9.1130648721,3.4169506728,1422
50564,157626,148757,2.2719850587,-9.0735832992,3.5509487384000002,1423
50551,157627,148807,2.2061824372,-9.1968136631,3.517449222,1424
50584,157630,148820,2.297109696,-9.2171526552,3.5605200288,1425
50610,157636,148774,2.2767707039,-9.0987079365,3.6119657146999997,1426
50673,157639,148792,2.0829520733,-9.1298146303,3.4983066412,1427
50657,157657,148850,2.3114666316,-9.1740818484,3.5078779316,1428
50681,157695,148793,2.2205393728,-9.1932244292,3.5222348672,1429
50704,157730,148795,2.2348963083999998,-9.054440718399999,3.5318061576,1430
50735,157704,148806,2.1020946541,-9.2638126959,3.6023944243,1431
50740,157693,148822,2.177468566,-9.1034935817,3.5605200288,1432
50774,157680,148822,2.3724836079,-9.0604227749,3.4899317621,1433
50797,157731,148807,2.3485553819,-9.0831545896,3.5748769644,1434
50812,157738,148793,2.2815563491,-9.1836531388,3.5641092626999997,1435
50831,157717,148812,2.3868405435,-9.0364945489,3.6550365215,1436
50851,157778,148809,2.2540388892,-9.0879402348,3.5892339,1437
50888,157753,148811,2.1403798157,-9.2685983411,3.6789647475,1438
50934,157731,148799,2.069791549,-9.116654106,3.6358939407,1439
50861,157744,148740,2.2779671152,-9.108279226899999,3.6502508763,1440
50719,157637,148787,2.356930261,-8.9551385805,3.493520996,1441
50494,157629,148795,2.2301106632,-9.0149591455,3.6167513599,1442
50467,157596,148752,2.1355941704999997,-9.1118684608,3.4983066412,1443
50424,157562,148713,2.1308085253,-9.0747797105,3.6658042232,1444
50397,157561,148742,2.2959132847,-9.1118684608,3.5030922864000003,1445
50424,157582,148769,2.3150558654999998,-8.926424709299999,3.6215370051,1446
50528,157626,148753,2.0195422744,-9.153742856300001,3.565305674,1447
50495,157640,148789,2.3485553819,-9.3128655592,3.5557343836,1448
50498,157642,148777,2.1116659445,-9.1872423727,3.5318061576,1449
50512,157624,148763,2.2779671152,-9.1453679772,3.517449222,1450
50556,157589,148761,2.297109696,-9.1896351953,3.5892339,1451
50570,157632,148800,2.2719850587,-9.236295236,3.5593236175,1452
50541,157637,148795,2.2671994135,-9.0795653557,3.5880374887,1453
50634,157661,148797,2.1834506225,-9.1346002755,3.5976087790999998,1454
50646,157675,148810,2.1631116304,-9.188438784,3.565305674,1455
50674,157695,148792,2.0925233637,-9.0699940653,3.5353953915,1456
50699,157733,148822,2.0913269524,-9.044869428,3.5976087790999998,1457
50764,157709,148808,2.2863419943,-9.0317089037,3.5832518435,1458
50744,157720,148781,2.2492532439999997,-9.1692962032,3.5976087790999998,1459
50770,157724,148799,2.3246271559,-9.188438784,3.4791640604,1460
50784,157709,148788,2.1583259852,-9.0891366461,3.493520996,1461
50815,157681,148781,2.2348963083999998,-9.2398844699,3.5892339,1462
50836,157728,148826,2.1523439287,-8.8402830957,3.5509487384000002,1463
50883,157706,148802,2.2815563491,-9.1872423727,3.5940195452,1464
50924,157722,148821,2.1595223965,-8.9599242257,3.5844482548,1465
50867,157736,148788,2.2396819536,-9.0843510009,3.5078779316,1466
50750,157744,148754,2.3102702203,-9.0281196698,3.5880374887,1467
50579,157655,148755,2.2085752598,-8.872586200799999,3.5784661983,1468
50517,157599,148744,2.2911276395,-9.1034935817,3.5078779316,1469
50455,157603,148745,2.3306092124,-9.1968136631,3.6275190616,1470
50416,157600,148752,2.2157537276,-9.2446701151,3.6119657146999997,1471
50411,157563,148783,2.2779671152,-9.0843510009,3.5557343836,1472
50459,157606,148770,2.2301106632,-9.0161555568,3.5928231339,1473
50493,157551,148763,2.2827527603999997,-9.1704926145,3.5844482548,1474
50558,157633,148772,2.2348963083999998,-9.0604227749,3.5928231339,1475
50526,157623,148778,2.2301106632,-9.1453679772,3.6299118841999998,1476
50535,157630,148764,2.1487546948,-9.1692962032,3.5880374887,1477
50563,157656,148749,2.2456640101,-9.041280194099999,3.5461630932,1478
50628,157648,148813,2.2025932033,-9.0592263636,3.5318061576,1479
50617,157686,148770,2.3389840915,-9.0496550732,3.5988051904000002,1480
50640,157707,148772,2.2624137683,-9.2027957196,3.7316068447,1481
50670,157680,148775,2.2301106632,-9.0652084201,3.6263226502999997,1482
50706,157696,148781,2.3198415107,-9.1453679772,3.6119657146999997,1483
50725,157716,148782,2.2899312282,-9.1680997919,3.4372896648999998,1484
50726,157699,148802,2.2492532439999997,-9.1836531388,3.5844482548,1485
50755,157708,148774,2.1714865095,-9.0652084201,3.6729826909999996,1486
50739,157715,148784,2.2169501389,-9.1453679772,3.5557343836,1487
50781,157718,148782,2.27318147,-9.121439751199999,3.4743784152000003,1488
50809,157758,148801,2.321037922,-9.0161555568,3.5736805531,1489
50860,157727,148752,2.4107687694999997,-9.3738825355,3.565305674,1490
50838,157720,148767,2.2863419943,-9.0831545896,3.5988051904000002,1491
50701,157682,148790,2.4011974791,-9.0652084201,3.6119657146999997,1492
50607,157615,148714,2.0542382021,-9.068797654,3.4600214796,1493
50504,157597,148752,2.2815563491,-9.1932244292,3.6023944243,1494
50451,157613,148714,2.1918255016,-9.2458665264,3.5796626096,1495
50434,157552,148702,2.2360927197000002,-9.1692962032,3.5557343836,1496
50436,157583,148720,2.105683888,-9.0604227749,3.5365918028000003,1497
50460,157601,148731,2.3006989299,-9.0017986212,3.4743784152000003,1498
50517,157628,148762,2.3832513096,-9.1417787433,3.5222348672,1499
50524,157636,148755,2.1966111468,-9.050851484499999,3.5365918028000003,1500
50523,157622,148742,2.1810577999,-9.0460658393,3.4791640604,1501
50536,157621,148752,2.2145573163,-9.1022971704,3.5784661983,1502
50560,157635,148747,2.2396819536,-9.188438784,3.5126635768,1503
50582,157584,148745,2.1690936869,-9.1118684608,3.541377448,1504
50605,157664,148773,2.2157537276,-9.0592263636,3.5030922864000003,1505
50633,157600,148762,2.3772692530999997,-9.2027957196,3.4552358344000003,1506
50660,157695,148777,2.2767707039,-9.0783689444,3.6693934571,1507
50685,157665,148799,2.1260228801,-9.3020978575,3.5988051904000002,1508
50706,157708,148755,2.2588245344,-9.1070828156,3.6023944243,1509
50630,157667,148755,2.1439690496,-9.1501536224,3.4360932536,1510
50742,157677,148754,2.27318147,-8.9072821285,3.5976087790999998,1511
50756,157683,148752,2.3665015514,-9.140582332,3.5832518435,1512
50781,157711,148782,2.1714865095,-9.020941202,3.4504501892,1513
50797,157725,148785,2.2157537276,-9.236295236,3.4995030524999997,1514
50824,157705,148794,2.2061824372,-9.0496550732,3.6023944243,1515
50753,157684,148741,2.1978075581,-9.0125663229,3.5318061576,1516
50612,157582,148701,2.1343977592,-9.068797654,3.5461630932,1517
50488,157611,148703,2.1822542112,-9.220741889100001,3.5449666819,1518
