green,red,IR,acc_x,acc_y,acc_z,sample_index
112662,196185,237229,3.8105699905,-1.5864413838,-8.9216390641,1
112637,196242,237285,3.7674991837,-1.6606188843999998,-8.8666041443,2
112606,196298,237297,3.6059836581999996,-1.6654045296,-8.8378902731,3
112647,196313,237397,3.6478580537000003,-1.7431712641,-8.757730716,4
112663,196362,237361,3.7758740628,-1.6319050132,-8.8247297488,5
112702,196392,237424,3.7746776515,-1.5924234403000002,-8.8307118053,6
112744,196433,237407,3.6323047068,-1.6079767872,-8.8127656358,7
112788,196428,237450,3.7005001509,-1.6725829974,-8.85344362,8
112886,196428,237443,3.6155549486,-1.6773686425999998,-8.8008015228,9
112946,196429,237445,3.6634114006,-1.5649059803999998,-8.901300072,10
113055,196485,237450,3.6658042232,-1.5170495284,-8.781658942,11
113121,196476,237401,3.5820554322,-1.6319050132,-8.8271225714,12
113234,196485,237456,3.6466616424,-1.5960126741999998,-8.8378902731,13
113329,196505,237531,3.6071800695,-1.7204394494000002,-8.817551281,14
113443,196508,237496,3.6550365215,-1.7300107398,-8.8103728132,15
113533,196524,237517,3.6957145057000003,-1.5756736821000001,-8.8366938618,16
113641,196531,237471,3.7172499091,-1.6654045296,-8.8630149104,17
113604,196428,237424,3.6167513599,-1.6319050132,-8.9048893059,18
113414,196305,237336,3.6993037396,-1.663011707,-8.8235333375,19
113186,195967,237179,3.6059836581999996,-1.615155255,-8.8366938618,20
112912,195667,236981,3.6251262389999996,-1.5026925928000001,-8.8570328539,21
112651,195469,236888,3.7938202323,-1.3842478741,-8.846265152199999,22
112444,195367,236856,3.6634114006,-1.4261222696,-8.9467637014,23
112194,195338,236786,3.7399817238,-1.6558332392,-8.877371846,24
112175,195390,236797,3.7196427317,-1.6534404165999999,-8.864211321700001,25
112167,195557,236917,3.6813575701,-1.6498511827,-8.7852481759,26
112126,195627,236989,3.7088750299999997,-1.6725829974,-8.8486579748,27
112143,195717,237041,3.7220355542999997,-1.4871392459,-8.937192411,28
112222,195845,237076,3.6287154729,-1.6007983194,-8.901300072,29
112256,195897,237096,3.6765719249,-1.5493526335,-8.8366938618,30
112329,196020,237138,3.7567314819999997,-1.5601203352,-8.8043907567,31
112410,196046,237147,3.7160534978000004,-1.6701901747999999,-8.8845503138,32
112491,196018,237162,3.6239298277,-1.6965112234000002,-8.7852481759,33
112556,196128,237214,3.7196427317,-1.6295121905999999,-8.846265152199999,34
112678,196119,237245,3.7447673690000003,-1.6007983194,-8.8438723296,35
112773,196189,237232,3.6442688197999997,-1.5254244074999999,-8.9036928946,36
112916,196240,237281,3.6729826909999996,-1.7335999736999999,-8.7924266437,37
113031,196283,237359,3.5796626096,-1.5732808595,-8.8678005556,38
113144,196352,237372,3.7112678526000002,-1.4572289634,-8.761319949899999,39
113293,196420,237425,3.6275190616,-1.6414763036,-8.8510507974,40
113408,196461,237421,3.6167513599,-1.5732808595,-8.8103728132,41
113493,196512,237424,3.5629128513999997,-1.5517454561000001,-8.8438723296,42
113476,196442,237406,3.5270205124,-1.4799607781,-8.865407733,43
113334,196272,237337,3.6825539814000003,-1.6055839645999999,-8.8797646686,44
113117,196079,237178,3.7184463204,-1.7240286833,-8.833104627900001,45
112905,195947,237057,3.6586257553999997,-1.6067803759000001,-8.8606220878,46
112693,195814,236973,3.6993037396,-1.6319050132,-8.8510507974,47
112509,195760,236966,3.6753755136,-1.5804593273,-8.818747692299999,48
112355,195767,236935,3.6598221666999997,-1.6103696098,-8.781658942,49
112337,195841,237050,3.7447673690000003,-1.6366906583999998,-8.7661055951,50
112362,195930,237126,3.5617164401,-1.6223337227999999,-8.7984087002,51
112384,196048,237130,3.7387853125,-1.591227029,-8.85344362,52
112435,196135,237167,3.5569307949000004,-1.5349956979000001,-8.7912302324,53
112501,196193,237200,3.6047872469,-1.5684952143000002,-8.85344362,54
112534,196286,237269,3.6323047068,-1.6438691261999998,-8.998209387300001,55
112590,196298,237268,3.5964123677999997,-1.5696916256,-8.831908216599999,56
112696,196386,237287,3.6729826909999996,-1.6175480776,-8.841479506999999,57
112790,196459,237294,3.6442688197999997,-1.6510475939999998,-8.7326060787,58
112899,196499,237330,3.6023944243,-1.7312071511,-8.916853418899999,59
113009,196554,237405,3.7268211995,-1.5050854154,-8.774480474199999,60
113106,196673,237451,3.613162126,-1.5421741657,-8.8390866844,61
113243,196756,237512,3.5617164401,-1.6247265454,-8.7900338211,62
113413,196937,237520,3.6311082955,-1.7216358607,-8.9036928946,63
113472,196976,237573,3.6335011181000003,-1.5254244074999999,-8.889335959,64
113553,197038,237615,3.7615171272,-1.639083481,-8.9228354754,65
113664,197114,237614,3.5988051904000002,-1.6055839645999999,-8.818747692299999,66
113499,196993,237611,3.6071800695,-1.6247265454,-8.7960158776,67
113352,196859,237608,3.7339996673,-1.5373885205000002,-8.8247297488,68
113155,196752,237469,3.7292140221,-1.543370577,-8.8965144268,69
112908,196656,237428,3.6179477712,-1.615155255,-8.9419780562,70
112750,196497,237381,3.6789647475,-1.6773686425999998,-8.7948194663,71
112642,196513,237397,3.5940195452,-1.6247265454,-8.8570328539,72
112627,196544,237408,3.5210384559,-1.5565311013,-8.7912302324,73
112599,196592,237444,3.6670006345,-1.5565311013,-8.8558364426,74
112627,196650,237494,3.7507494254999996,-1.5936198516,-8.864211321700001,75
112657,196682,237487,3.6562329328,-1.5565311013,-8.8378902731,76
112708,196766,237535,3.6646078119,-1.531406464,-8.8845503138,77
112742,196688,237564,3.6705898684,-1.6462619487999999,-8.918049830200001,78
112786,196837,237627,3.6107693033999997,-1.698904046,-8.8833539025,79
112885,196861,237553,3.6933216830999998,-1.5804593273,-8.9659062822,80
112986,196890,237632,3.6346975294,-1.543370577,-8.8606220878,81
113033,196931,237615,3.6442688197999997,-1.5146567058,-8.7780697081,82
113150,196992,237701,3.7351960786,-1.6103696098,-8.8091764019,83
113257,197046,237664,3.6801611588,-1.5852449725,-8.8701933782,84
113378,197090,237715,3.7483566029,-1.5541382787000002,-8.761319949899999,85
113452,197128,237738,3.6059836581999996,-1.5948162629,-8.7541414821,86
113554,197222,237752,3.613162126,-1.6127624323999998,-8.8390866844,87
113669,197333,237854,3.6705898684,-1.6295121905999999,-8.864211321700001,88
113601,197279,237814,3.5557343836,-1.7084753364,-8.865407733,89
113452,197130,237737,3.6825539814000003,-1.6534404165999999,-8.8498543861,90
113224,196985,237648,3.7531422481,-1.6402798923,-8.8103728132,91
113023,196764,237548,3.6346975294,-1.6283157793,-8.7684984177,92
112781,196602,237454,3.6622149893000002,-1.5242279962,-8.7924266437,93
112549,196502,237410,3.5006994637999997,-1.6701901747999999,-8.749355836900001,94
112404,196440,237380,3.637090352,-1.6307086019,-8.9216390641,95
112317,196429,237412,3.6418759972,-1.639083481,-8.8008015228,96
112338,196511,237458,3.6514472876,-1.5278172301,-8.8390866844,97
112371,196540,237470,3.6418759972,-1.6402798923,-8.8989072494,98
112265,196566,237469,3.6275190616,-1.6749758199999998,-8.8845503138,99
112404,196586,237517,3.6562329328,-1.6414763036,-8.9060857172,100
112480,196623,237495,3.6418759972,-1.6307086019,-8.7756768855,101
112545,196641,237494,3.5892339,-1.6857435217,-8.913264185,102
112662,196671,237525,3.6227334164,-1.5086746492999998,-8.872586200799999,103
112762,196713,237503,3.7016965622000004,-1.5816557385999999,-8.949156524,104
112840,196677,237544,3.6825539814000003,-1.6342978358,-8.918049830200001,105
112971,196690,237569,3.7758740628,-1.5601203352,-8.841479506999999,106
113064,196747,237572,3.6538401101999995,-1.663011707,-8.8438723296,107
113173,196754,237543,3.553341561,-1.6091731985,-8.8247297488,108
113289,196720,237564,3.7268211995,-1.5984054967999999,-8.901300072,109
113342,196760,237546,3.5665020853000002,-1.5661023917,-8.7326060787,110
113406,196815,237594,3.6586257553999997,-1.4967105363,-8.8546400313,111
113625,196827,237583,3.7040893848,-1.5649059803999998,-8.818747692299999,112
113680,196885,237589,3.7603207159,-1.746760498,-8.8390866844,113
113571,196644,237488,3.7112678526000002,-1.5158531170999998,-8.7589271273,114
113375,196424,237362,3.7088750299999997,-1.5780665047,-8.8474615635,115
113126,196154,237215,3.6717862797,-1.6283157793,-8.8749790234,116
112923,195871,237089,3.6777683362,-1.6199409001999998,-8.85344362,117
112720,195702,236959,3.7124642639,-1.6438691261999998,-8.8366938618,118
112558,195603,236951,3.7052857961,-1.7192430381,-8.8390866844,119
112461,195580,236892,3.6813575701,-1.5278172301,-8.8247297488,120
112431,195624,236929,3.7112678526000002,-1.5804593273,-8.926424709299999,121
112424,195738,237000,3.6203405937999995,-1.6366906583999998,-8.8749790234,122
112410,195798,237102,3.7040893848,-1.6534404165999999,-8.8558364426,123
112505,195888,237038,3.7674991837,-1.6941184008,-8.819944103600001,124
112557,195996,237131,3.6681970457999995,-1.5397813431,-8.793623055,125
112619,196025,237163,3.5976087790999998,-1.615155255,-8.873782612100001,126
112660,196070,237208,3.5868410774,-1.5158531170999998,-8.8343010392,127
112699,196100,237180,3.6681970457999995,-1.7359927963,-8.8749790234,128
112877,196092,237203,3.684946804,-1.6713865861,-8.7661055951,129
112980,196112,237256,3.7603207159,-1.5960126741999998,-8.8917287816,130
113106,196199,237252,3.6729826909999996,-1.6319050132,-8.8103728132,131
113205,196297,237293,3.6275190616,-1.5326028753,-8.8941216042,132
113338,196271,237295,3.6610185779999997,-1.5780665047,-8.831908216599999,133
113479,196399,237357,3.613162126,-1.5804593273,-8.8941216042,134
113611,196399,237357,3.7447673690000003,-1.5469598109,-8.8019979341,135
113709,196396,237354,3.6670006345,-1.6438691261999998,-8.873782612100001,136
113795,196455,237382,3.5832518435,-1.6606188843999998,-8.8091764019,137
113825,196326,237312,3.5700913192,-1.6223337227999999,-8.8378902731,138
113690,196106,237203,3.649054465,-1.6199409001999998,-8.8127656358,139
113482,195861,237057,3.4995030524999997,-1.7072789251,-8.8917287816,140
113347,195608,236861,3.7722848289,-1.6713865861,-8.8247297488,141
113160,195416,236750,3.7028929734999996,-1.5625131578,-8.831908216599999,142
112988,195346,236728,3.7028929734999996,-1.6127624323999998,-8.8366938618,143
112906,195383,236736,3.5258241011,-1.5948162629,-8.8558364426,144
112919,195491,236820,3.6299118841999998,-1.7515461432000001,-8.9419780562,145
112827,195590,236922,3.6753755136,-1.5062818266999998,-8.817551281,146
112926,195790,236971,3.6933216830999998,-1.5206387623,-8.8235333375,147
112967,195866,237022,3.684946804,-1.5254244074999999,-8.913264185,148
112944,195935,237056,3.5222348672,-1.6929219895,-8.85344362,149
113130,196109,237101,3.5330025689,-1.710868159,-8.7780697081,150
113142,196168,237154,3.637090352,-1.6199409001999998,-8.8235333375,151
113278,196255,237194,3.5940195452,-1.6570296505,-8.8390866844,152
113365,196354,237235,3.7363924898999996,-1.6965112234000002,-8.7864445872,153
113499,196441,237283,3.768695595,-1.5708880369,-8.8223369262,154
113612,196547,237240,3.6107693033999997,-1.5936198516,-8.9108713624,155
113735,196648,237333,3.6681970457999995,-1.5840485612,-8.9347995884,156
113867,196689,237352,3.7256247882,-1.5421741657,-8.865407733,157
113987,196730,237437,3.5940195452,-1.5720844482,-8.918049830200001,158
114113,196818,237476,3.7160534978000004,-1.6247265454,-8.8821574912,159
114257,196968,237500,3.6000016017000003,-1.6295121905999999,-8.8558364426,160
114218,197001,237563,3.5102707542,-1.663011707,-8.865407733,161
114236,196934,237525,3.6753755136,-1.6175480776,-8.901300072,162
114130,196823,237463,3.6885360378999996,-1.6079767872,-8.918049830200001,163
113932,196644,237347,3.6155549486,-1.5457633996,-8.8582292652,164
113722,196503,237330,3.5796626096,-1.734796385,-8.829515394,165
113638,196407,237285,3.7854453531999996,-1.6295121905999999,-8.8917287816,166
113543,196388,237234,3.6681970457999995,-1.5864413838,-8.8701933782,167
113520,196420,237309,3.6921252718,-1.5960126741999998,-8.8163548697,168
113537,196490,237347,3.7172499091,-1.5445669883000002,-8.9204426528,169
113580,196567,237385,3.6418759972,-1.5936198516,-8.8917287816,170
113619,196602,237386,3.6981073283,-1.6462619487999999,-8.8582292652,171
113671,196676,237444,3.6801611588,-1.5421741657,-8.805587167999999,172
113652,196720,237442,3.5868410774,-1.615155255,-8.7900338211,173
113803,196794,237470,3.649054465,-1.5840485612,-8.8821574912,174
113894,196861,237472,3.6059836581999996,-1.6606188843999998,-8.846265152199999,175
113954,196843,237488,3.6658042232,-1.6115660211,-8.828318982699999,176
114025,196891,237503,3.6610185779999997,-1.5984054967999999,-8.8797646686,177
114126,196934,237545,3.7316068447,-1.6331014245,-8.872586200799999,178
114256,197016,237553,3.7555350706999997,-1.4991033588999998,-8.8917287816,179
114322,197062,237582,3.5485559157999997,-1.5302100526999998,-8.8307118053,180
114407,197075,237674,3.780659708,-1.5409777544,-8.8223369262,181
114466,197171,237677,3.6705898684,-1.6019947307,-8.8965144268,182
114467,197176,237683,3.7734812402,-1.6965112234000002,-8.8486579748,183
114349,197064,237653,3.5964123677999997,-1.6474583601,-8.7948194663,184
114141,196926,237550,3.7698920062999997,-1.698904046,-8.8486579748,185
114012,196855,237493,3.7100714413,-1.4883356572,-8.901300072,186
113706,196784,237459,3.6478580537000003,-1.6319050132,-8.8438723296,187
113558,196666,237379,3.6215370051,-1.639083481,-8.9324067658,188
113420,196663,237345,3.5569307949000004,-1.5182459396999999,-8.8426759183,189
113355,196610,237378,3.6681970457999995,-1.6654045296,-8.9635134596,190
113345,196674,237393,3.5760733757,-1.6749758199999998,-8.8091764019,191
113386,196778,237474,3.5772697869999996,-1.4500504956,-8.8402830957,192
113378,196787,237509,3.7124642639,-1.6223337227999999,-8.8689969669,193
113402,196850,237492,3.6083764808,-1.6797614652,-8.8522472087,194
113491,196906,237543,3.6323047068,-1.6701901747999999,-8.9024964833,195
113530,196949,237533,3.7280176108,-1.5481562222,-8.8390866844,196
113619,197005,237559,3.7052857961,-1.6295121905999999,-8.8103728132,197
113682,196989,237599,3.6227334164,-1.615155255,-8.9060857172,198
113772,197029,237590,3.7423745464,-1.6319050132,-8.9515493466,199
113856,197062,237580,3.6550365215,-1.5577275125999999,-8.841479506999999,200
113929,197101,237639,3.7435709577,-1.5613167465000002,-8.749355836900001,201
114054,197094,237652,3.7375889012,-1.6893327556000002,-8.7852481759,202
114186,197119,237646,3.6227334164,-1.5960126741999998,-8.8630149104,203
114273,197169,237685,3.5988051904000002,-1.6582260617999998,-8.841479506999999,204
114377,197245,237734,3.6263226502999997,-1.4967105363,-8.8749790234,205
114435,197323,237800,3.7064822074,-1.6941184008,-8.846265152199999,206
114351,197173,237718,3.6346975294,-1.6019947307,-8.9515493466,207
114172,196936,237597,3.6059836581999996,-1.5421741657,-8.8546400313,208
113954,196578,237427,3.6753755136,-1.6175480776,-8.805587167999999,209
113737,196372,237221,3.7950166436,-1.5158531170999998,-8.7421773691,210
113522,196126,237134,3.6562329328,-1.6462619487999999,-8.913264185,211
113275,196036,237096,3.613162126,-1.7168502155,-8.7684984177,212
113122,196008,237079,3.6957145057000003,-1.5637095691,-8.7780697081,213
113155,196096,237174,3.6622149893000002,-1.7132609816000002,-8.7780697081,214
113170,196251,237241,3.6466616424,-1.5696916256,-8.8749790234,215
113159,196361,237275,3.6059836581999996,-1.6534404165999999,-8.85344362,216
113200,196445,237272,3.613162126,-1.6510475939999998,-8.930013943199999,217
113256,196594,237352,3.6813575701,-1.4847464232999998,-8.7996051115,218
113321,196645,237393,3.6071800695,-1.6725829974,-8.873782612100001,219
113398,196736,237389,3.6885360378999996,-1.5373885205000002,-8.8678005556,220
113514,196790,237400,3.6155549486,-1.6462619487999999,-8.8965144268,221
113583,196889,237428,3.7076786186999997,-1.5768700934,-8.872586200799999,222
113720,196976,237461,3.7064822074,-1.5349956979000001,-8.9563349918,223
113821,197073,237515,3.5748769644,-1.7072789251,-8.8666041443,224
113894,197190,237551,3.6382867633,-1.5852449725,-8.7996051115,225
114117,197393,237673,3.7076786186999997,-1.5038890041,-8.918049830200001,226
114283,197634,237760,3.7172499091,-1.6319050132,-8.9563349918,227
114369,197652,237788,3.6574293441,-1.5230315848999998,-8.8510507974,228
114502,197679,237927,3.4624143022,-1.543370577,-8.805587167999999,229
114590,197636,237884,3.7627135385,-1.4787643668000001,-8.9204426528,230
114662,197507,237918,3.6107693033999997,-1.6199409001999998,-8.8989072494,231
114595,197061,237816,3.6538401101999995,-1.6079767872,-8.8139620471,232
114449,196656,237618,3.5916267225999996,-1.6462619487999999,-8.8941216042,233
114259,196198,237345,3.7268211995,-1.6498511827,-8.9336031771,234
114070,195797,237143,3.5796626096,-1.7982061838999999,-8.8139620471,235
113884,195463,237033,3.7986058774999996,-1.7611174336,-8.8845503138,236
113756,195413,237029,3.8392838617,-1.7383856189,-8.7469630143,237
113723,195420,237023,3.6634114006,-1.7252250946,-8.7110706753,238
113716,195572,237140,3.7734812402,-1.8520446924,-8.7732840629,239
113697,195687,237179,3.8596228538,-1.8005990065,-8.717052731799999,240
113648,195801,237256,3.9134613623,-1.8017954178,-8.6345003521,241
113780,195946,237343,3.8656049103,-1.9728822337,-8.817551281,242
113864,196035,237376,3.8715869668,-1.8771693297,-8.7050886188,243
113910,196059,237377,3.9732819273,-1.8317057003,-8.6703926911,244
113944,196081,237443,3.8596228538,-1.7599210223,-8.7565343047,245
114063,196133,237466,3.9421752335,-1.9022939669999999,-8.7625163612,246
114141,196168,237476,3.9756747499,-1.8149559420999999,-8.7780697081,247
114224,196204,237521,3.9553357578,-1.9884355805999998,-8.6524465216,248
114324,196255,237540,3.9003008379999997,-1.998006871,-8.6967137397,249
114423,196296,237618,3.8859439023999998,-1.9094724347999998,-8.717052731799999,250
114503,196350,237633,4.1024943476999995,-1.9896319919,-8.739784546500001,251
114593,196469,237662,3.9385859996,-2.057827436,-8.6787675702,252
114687,196438,237684,3.8021951114,-1.9058832009,-8.6596249894,253
114831,196528,237715,3.960121403,-1.9094724347999998,-8.6249290617,254
114881,196466,237756,3.8931223702,-1.9800607015,-8.697910151,255
114920,196500,237751,4.0007993872,-1.9477575963999998,-8.6871424493,256
115046,196522,237700,3.9158541848999997,-1.8628123941,-8.5710905532,257
115062,196457,237672,3.9266218866,-1.9286150156,-8.650053698999999,258
114873,196254,237594,4.030709669699999,-2.0291135648000003,-8.5340018029,259
114687,196051,237455,4.0259240245,-1.9046867896,-8.6907316832,260
114481,195976,237349,4.0007993872,-2.0650059038,-8.584251077500001,261
114294,195872,237267,3.9649070482,-1.9537396529,-8.6835532154,262
114139,195832,237229,3.9373895883000003,-1.9585252981,-8.5615192628,263
114022,195759,237192,3.9744783386,-2.0350956213,-8.6117685374,264
113939,195781,237209,3.960121403,-2.0829520733,-8.6069828922,265
113878,195849,237288,3.9218362414,-2.0027925162,-8.673981925,266
113922,195877,237309,3.7962130549,-1.9692929998,-8.6715891024,267
113904,195876,237334,3.9936209194,-1.9573288867999998,-8.5675013193,268
113931,195855,237311,3.8979080154,-2.1020946541,-8.596215190499999,269
113843,195648,237258,3.9936209194,-1.8628123941,-8.749355836900001,270
113794,195477,237180,3.9074793058,-1.9345970721,-8.7625163612,271
113632,195118,237016,3.8656049103,-1.9070796122,-8.7553378934,272
113614,194810,236828,3.7854453531999996,-1.7024932798999999,-8.752945070800001,273
113627,194915,236861,3.9086757171,-1.7060825138000002,-8.721838377,274
113716,194975,236887,3.7375889012,-1.6235301341000001,-8.764909183799999,275
113826,195023,236909,3.7854453531999996,-1.7300107398,-8.8510507974,276
113923,195096,236983,3.7220355542999997,-1.6558332392,-8.7254276109,277
113997,195262,237083,3.7926238210000003,-1.6941184008,-8.7792661194,278
114150,195522,237199,3.7974094662,-1.6953148121,-8.8151584584,279
114259,195689,237320,3.7663027724,-1.6546368279,-8.8247297488,280
114383,195849,237299,3.7304104334000003,-1.7252250946,-8.817551281,281
114292,195748,237327,3.7830525306,-1.6199409001999998,-8.752945070800001,282
114150,195559,237188,3.7950166436,-1.6797614652,-8.8151584584,283
114014,195429,237113,3.8081771679,-1.6067803759000001,-8.7254276109,284
113791,195232,236997,3.8141592244,-1.6677973521999998,-8.8941216042,285
113688,195114,236918,3.7100714413,-1.5888342063999998,-8.8797646686,286
113574,195015,236886,3.7782668854000003,-1.5804593273,-8.9240318867,287
113538,195067,236887,3.7986058774999996,-1.6366906583999998,-8.8821574912,288
113541,195114,236893,3.7842489418999996,-1.6378870697,-8.7720876516,289
113557,195280,236980,3.7423745464,-1.4811571894,-8.8127656358,290
113631,195396,237027,3.8153556357,-1.6319050132,-8.877371846,291
113629,195432,237047,3.7998022888,-1.6103696098,-8.9001036607,292
113696,195590,237148,3.7268211995,-1.6091731985,-8.7948194663,293
113738,195618,237181,3.82851616,-1.6199409001999998,-8.8366938618,294
113780,195682,237209,3.7591243046000002,-1.5613167465000002,-8.7708912403,295
113857,195788,237207,3.7088750299999997,-1.639083481,-8.8223369262,296
113943,195869,237276,3.7890345870999997,-1.4871392459,-8.8486579748,297
114059,195925,237348,3.6155549486,-1.5876377951,-8.918049830200001,298
114174,196017,237382,3.6382867633,-1.5038890041,-8.8079799906,299
114290,196076,237351,3.8668013215999997,-1.6869399330000001,-8.8833539025,300
114418,196173,237399,3.6897324492,-1.7144573929,-8.8785682573,301
114460,196176,237458,3.7734812402,-1.7551353771,-8.8271225714,302
114554,196245,237498,3.7854453531999996,-1.603191142,-8.8797646686,303
114538,196307,237550,3.8416766843000003,-1.79461695,-8.8606220878,304
114502,196119,237393,3.7854453531999996,-1.6558332392,-8.918049830200001,305
114363,195885,237299,3.8548372086000002,-1.6366906583999998,-8.8558364426,306
114107,195620,237103,3.7495530142,-1.5373885205000002,-8.831908216599999,307
113894,195397,236987,3.7639099498,-1.4608181972999998,-8.8127656358,308
113661,195237,236873,3.7663027724,-1.6462619487999999,-8.8163548697,309
113484,195063,236846,3.8297125713,-1.663011707,-8.7254276109,310
113371,195073,236818,3.6801611588,-1.5625131578,-8.872586200799999,311
113383,195141,236809,3.8201412809,-1.6737794087,-8.885746725099999,312
113283,195121,236888,3.9038900719000003,-1.6295121905999999,-8.7469630143,313
113334,195206,236903,3.7375889012,-1.6498511827,-8.833104627900001,314
113305,195158,236864,3.8321053939,-1.7288143285,-8.793623055,315
113333,195238,236913,3.6095728921,-1.6414763036,-8.7110706753,316
113370,195234,236919,3.6646078119,-1.5242279962,-8.805587167999999,317
113483,195272,236941,3.6813575701,-1.5816557385999999,-8.749355836900001,318
113466,195244,236916,3.8297125713,-1.6677973521999998,-8.8510507974,319
113578,195303,236919,3.720839143,-1.5445669883000002,-8.7505522482,320
113622,195310,237002,3.684946804,-1.6833506991,-8.8115692245,321
113738,195358,237006,3.7005001509,-1.5625131578,-8.8582292652,322
113872,195402,236988,3.7866417645,-1.6259229567,-8.885746725099999,323
113950,195409,237012,3.8775690233,-1.6055839645999999,-8.7625163612,324
114055,195435,237058,3.7591243046000002,-1.7395820302,-8.872586200799999,325
114107,195354,237047,3.6275190616,-1.6845471104,-8.8247297488,326
114203,195392,237074,3.8344982165,-1.5134602944999997,-8.9383888223,327
114267,195410,237023,3.8380874503999998,-1.6342978358,-8.8247297488,328
114173,195210,236923,3.8129628130999995,-1.5050854154,-8.8678005556,329
114011,194944,236755,3.7351960786,-1.6271193679999998,-8.7984087002,330
113819,194535,236619,3.7627135385,-1.5996019081000001,-8.7780697081,331
113558,194368,236402,3.7399817238,-1.6103696098,-8.9060857172,332
113354,194153,236257,3.7926238210000003,-1.7479569093,-8.8486579748,333
113150,194022,236211,3.768695595,-1.663011707,-8.8151584584,334
112957,194042,236214,3.6239298277,-1.5349956979000001,-8.7840517646,335
112972,194166,236220,3.6705898684,-1.5505490447999999,-8.9228354754,336
112956,194262,236315,3.7878381758,-1.6642081183,-8.717052731799999,337
112927,194385,236368,3.8201412809,-1.5996019081000001,-8.865407733,338
112927,194388,236389,3.8213376922,-1.6055839645999999,-8.7840517646,339
112905,194512,236472,3.7591243046000002,-1.603191142,-8.831908216599999,340
113073,194628,236532,3.6933216830999998,-1.5206387623,-8.8797646686,341
113103,194663,236527,3.6538401101999995,-1.6103696098,-8.8390866844,342
113104,194670,236571,3.8273197486999995,-1.7012968686,-8.8079799906,343
113276,194733,236559,3.5808590209,-1.5254244074999999,-8.8366938618,344
113325,194768,236614,3.7172499091,-1.6067803759000001,-8.8223369262,345
113343,194835,236691,3.7184463204,-1.7036896912000001,-8.8366938618,346
113584,194936,236663,3.7136606752,-1.6486547714,-8.7409809578,347
113630,194927,236738,3.6430724085,-1.5661023917,-8.8366938618,348
113749,195017,236760,3.7160534978000004,-1.6654045296,-8.8390866844,349
113849,195010,236787,3.6358939407,-1.7001004573,-8.7349989013,350
113945,194964,236811,3.7351960786,-1.6366906583999998,-8.7625163612,351
114041,195082,236812,3.7148570865,-1.8245272325,-8.761319949899999,352
114021,194991,236739,3.7232319655999997,-1.6055839645999999,-8.8953180155,353
113907,194686,236553,3.7100714413,-1.5996019081000001,-8.7708912403,354
113705,194371,236409,3.6681970457999995,-1.639083481,-8.6847496267,355
113503,194104,236163,3.8727833781,-1.4931213024,-8.8630149104,356
113274,193921,236085,3.7256247882,-1.5888342063999998,-8.7924266437,357
113105,193839,236023,3.7770704741,-1.6055839645999999,-8.7972122889,358
112970,193800,236005,3.7866417645,-1.6606188843999998,-8.8366938618,359
112913,193890,236058,3.6598221666999997,-1.5302100526999998,-8.7732840629,360
112884,193992,236129,3.7459637803,-1.5421741657,-8.8438723296,361
112888,194113,236163,3.7423745464,-1.6366906583999998,-8.8438723296,362
112900,194224,236219,3.7124642639,-1.7371892076000002,-8.8354974505,363
112931,194371,236293,3.7256247882,-1.6139588437,-8.7984087002,364
113019,194431,236329,3.6765719249,-1.6067803759000001,-8.781658942,365
113077,194449,236383,3.6119657146999997,-1.7383856189,-8.7601235386,366
113057,194585,236474,3.8536407972999998,-1.6749758199999998,-8.8127656358,367
113266,194697,236547,3.6921252718,-1.6654045296,-8.7948194663,368
113369,194781,236552,3.6311082955,-1.6498511827,-8.8965144268,369
113453,194813,236629,3.7986058774999996,-1.6462619487999999,-8.8510507974,370
113535,194921,236665,3.7543386594,-1.6606188843999998,-8.7756768855,371
113644,194988,236783,3.7938202323,-1.5601203352,-8.901300072,372
113813,195111,236792,3.6993037396,-1.6378870697,-8.7469630143,373
113918,195171,236846,3.7040893848,-1.6510475939999998,-8.85344362,374
114055,195234,236875,3.7591243046000002,-1.5948162629,-8.8689969669,375
114191,195315,236990,3.8213376922,-1.5816557385999999,-8.8031943454,376
114243,195461,236977,3.5940195452,-1.5996019081000001,-8.7720876516,377
114199,195330,236897,3.8189448695999997,-1.5529418674,-8.8008015228,378
114011,195097,236795,3.6993037396,-1.5373885205000002,-8.8749790234,379
113855,194895,236714,3.6119657146999997,-1.5385849318,-8.7326060787,380
113645,194753,236543,3.8392838617,-1.6354942471,-8.846265152199999,381
113420,194639,236461,3.7447673690000003,-1.6295121905999999,-8.8797646686,382
113369,194627,236410,3.7483566029,-1.5864413838,-8.7960158776,383
113315,194660,236454,3.684946804,-1.6402798923,-8.7349989013,384
113300,194753,236479,3.6873396266,-1.7024932798999999,-8.805587167999999,385
113300,194846,236524,3.7244283769,-1.5768700934,-8.757730716,386
113326,194891,236586,3.6406795858999996,-1.7300107398,-8.9036928946,387
113344,194955,236660,3.7615171272,-1.8017954178,-8.7565343047,388
113396,195051,236712,3.7555350706999997,-1.6199409001999998,-8.8223369262,389
113460,195152,236736,3.7076786186999997,-1.6785650538999999,-8.752945070800001,390
113540,195222,236781,3.7399817238,-1.5840485612,-8.9072821285,391
113605,195285,236843,3.6634114006,-1.4775679554999999,-8.8343010392,392
113696,195310,236931,3.6993037396,-1.6342978358,-8.8343010392,393
113791,195437,236923,3.7710884175999997,-1.5960126741999998,-8.8606220878,394
113840,195473,236970,3.7040893848,-1.6773686425999998,-8.831908216599999,395
114018,195554,237022,3.924229064,-1.6701901747999999,-8.8510507974,396
114068,195620,237054,3.5868410774,-1.7335999736999999,-8.931210354500001,397
114208,195681,237093,3.7280176108,-1.4775679554999999,-8.7804625307,398
114294,195713,237164,3.6753755136,-1.6654045296,-8.7888374098,399
114322,195769,237115,3.7794632967,-1.5960126741999998,-8.7888374098,400
114147,195605,236993,3.6670006345,-1.6534404165999999,-8.8247297488,401
113977,195432,236972,3.7471601916,-1.6271193679999998,-8.8378902731,402
113757,195267,236817,3.8608192651000004,-1.6007983194,-8.829515394,403
113572,195098,236748,3.7914274097,-1.5266208188,-8.8941216042,404
113378,195012,236693,3.6801611588,-1.5349956979000001,-8.846265152199999,405
113195,194972,236639,3.8344982165,-1.6007983194,-8.7768732968,406
113241,195057,236663,3.8225341035,-1.4919248910999998,-8.720641965699999,407
113208,195121,236711,3.6825539814000003,-1.6007983194,-8.7517486595,408
113185,195193,236746,3.6897324492,-1.5852449725,-8.9144605963,409
113188,195258,236746,3.6993037396,-1.6235301341000001,-8.931210354500001,410
113214,195244,236806,3.6717862797,-1.6773686425999998,-8.7625163612,411
113252,195299,236868,3.8093735792,-1.734796385,-8.7804625307,412
113302,195345,236872,3.6705898684,-1.6546368279,-8.8127656358,413
113384,195479,236871,3.7830525306,-1.567298803,-8.774480474199999,414
113508,195516,236939,3.8608192651000004,-1.6809578765,-8.805587167999999,415
113511,195549,237012,3.6502508763,-1.6366906583999998,-8.7852481759,416
113596,195601,237039,3.6801611588,-1.6091731985,-8.739784546500001,417
113697,195631,237092,3.7232319655999997,-1.6474583601,-8.8450687409,418
113805,195665,237143,3.7160534978000004,-1.6319050132,-8.8953180155,419
113887,195763,237090,3.6957145057000003,-1.5637095691,-8.9060857172,420
113966,195881,237152,3.9038900719000003,-1.5493526335,-8.8127656358,421
113944,195895,237155,3.7316068447,-1.6582260617999998,-8.885746725099999,422
113892,195713,237061,3.8081771679,-1.5960126741999998,-8.9204426528,423
113734,195513,236924,3.6897324492,-1.6319050132,-8.7876409985,424
113502,195280,236833,3.8057843452999998,-1.5266208188,-8.85344362,425
113233,195072,236692,3.7256247882,-1.6271193679999998,-8.8259261601,426
112973,194879,236612,3.7830525306,-1.5936198516,-8.708677852700001,427
112737,194795,236547,3.6993037396,-1.5086746492999998,-8.8390866844,428
112693,194825,236475,3.6610185779999997,-1.5349956979000001,-8.7373917239,429
112650,194871,236496,3.8033915226999997,-1.6115660211,-8.8438723296,430
112605,194881,236552,3.7088750299999997,-1.5960126741999998,-8.8749790234,431
112601,194943,236523,3.6945180944,-1.5541382787000002,-8.8486579748,432
112591,194938,236636,3.6873396266,-1.663011707,-8.7266240222,433
112679,195023,236607,3.7375889012,-1.591227029,-8.8498543861,434
112795,195059,236642,3.6897324492,-1.7407784414999998,-8.8845503138,435
112797,195037,236648,3.7471601916,-1.6654045296,-8.8343010392,436
112857,195059,236652,3.8536407972999998,-1.5768700934,-8.8031943454,437
112942,195094,236708,3.7878381758,-1.6438691261999998,-8.85344362,438
113082,195196,236757,3.6418759972,-1.5613167465000002,-8.872586200799999,439
113100,195132,236738,3.7663027724,-1.591227029,-8.8043907567,440
113243,195156,236761,3.7423745464,-1.6450655375,-8.872586200799999,441
113336,195199,236806,3.7842489418999996,-1.6354942471,-8.9001036607,442
113457,195211,236783,3.7256247882,-1.5684952143000002,-8.8127656358,443
113553,195269,236751,3.8608192651000004,-1.6091731985,-8.7768732968,444
113564,195274,236792,3.7998022888,-1.567298803,-8.8558364426,445
113717,195351,236795,3.6705898684,-1.6342978358,-8.8821574912,446
113653,195173,236689,3.8584264425,-1.5768700934,-8.829515394,447
113514,194841,236565,3.8117664018,-1.6414763036,-8.8008015228,448
113274,194575,236375,3.7411781350999997,-1.5541382787000002,-8.8247297488,449
113031,194269,236183,3.768695595,-1.6271193679999998,-8.7756768855,450
112787,194015,236032,3.6969109170000003,-1.5218351736,-8.7840517646,451
112638,193947,235932,3.7579278933,-1.5948162629,-8.7948194663,452
112424,193888,235918,3.6873396266,-1.5972090855,-8.817551281,453
112364,193950,235988,3.7543386594,-1.6103696098,-8.8079799906,454
112324,194053,235996,3.8464623295,-1.5517454561000001,-8.817551281,455
112352,194133,236054,3.7052857961,-1.5661023917,-8.7445701917,456
112427,194232,236110,3.6729826909999996,-1.4991033588999998,-8.817551281,457
112422,194253,236205,3.7998022888,-1.5457633996,-8.85344362,458
112463,194370,236194,3.7555350706999997,-1.663011707,-8.819944103600001,459
112556,194429,236242,3.6634114006,-1.579262916,-8.7984087002,460
112642,194443,236268,3.7591243046000002,-1.5948162629,-8.8043907567,461
112718,194460,236329,3.5808590209,-1.6019947307,-8.818747692299999,462
112807,194486,236344,3.7423745464,-1.6606188843999998,-8.8941216042,463
112932,194568,236353,3.8440695069,-1.5768700934,-8.7840517646,464
113028,194635,236348,3.6873396266,-1.6677973521999998,-8.805587167999999,465
113100,194666,236396,3.684946804,-1.5110674719,-8.8989072494,466
113171,194690,236439,3.7627135385,-1.7335999736999999,-8.9216390641,467
113374,194750,236492,3.7136606752,-1.5098710606,-8.752945070800001,468
113506,194746,236466,3.7304104334000003,-1.6893327556000002,-8.8606220878,469
113646,194785,236510,3.6753755136,-1.4679966650999998,-8.8701933782,470
113724,194806,236518,3.7914274097,-1.6677973521999998,-8.7445701917,471
113737,194749,236499,3.8297125713,-1.4931213024,-8.8450687409,472
113946,194827,236530,3.7399817238,-1.5972090855,-8.846265152199999,473
113868,194566,236373,3.7148570865,-1.5900306177,-8.817551281,474
113686,194369,236288,3.7136606752,-1.5960126741999998,-8.7684984177,475
113572,194132,236141,3.7076786186999997,-1.5529418674,-8.7673020064,476
113348,193995,235986,3.6729826909999996,-1.6869399330000001,-8.8606220878,477
113135,193871,235925,3.6586257553999997,-1.6175480776,-8.7804625307,478
112981,193874,235868,3.6346975294,-1.7060825138000002,-8.8630149104,479
112914,193910,235941,3.7040893848,-1.615155255,-8.8127656358,480
112887,194107,236024,3.7866417645,-1.6510475939999998,-8.872586200799999,481
112878,194189,236052,3.7471601916,-1.5637095691,-8.7864445872,482
112824,194287,236160,3.6969109170000003,-1.6175480776,-8.872586200799999,483
112972,194438,236245,3.7471601916,-1.6725829974,-8.7924266437,484
113016,194527,236292,3.7818561193,-1.6522440053,-8.889335959,485
113106,194648,236380,3.684946804,-1.5421741657,-8.7541414821,486
113183,194735,236479,3.7698920062999997,-1.5505490447999999,-8.8797646686,487
113252,194878,236544,3.5736805531,-1.6079767872,-8.8869431364,488
113345,194915,236580,3.7962130549,-1.6546368279,-8.7565343047,489
113426,195027,236631,3.6622149893000002,-1.5565311013,-8.7421773691,490
113580,195080,236654,3.7136606752,-1.5182459396999999,-8.8869431364,491
113698,195201,236742,3.6251262389999996,-1.5278172301,-8.889335959,492
113802,195271,236762,3.8679977328999997,-1.6510475939999998,-8.805587167999999,493
113920,195386,236821,3.7220355542999997,-1.5326028753,-8.818747692299999,494
114041,195478,236873,3.5880374887,-1.6007983194,-8.7768732968,495
114152,195560,236947,3.7256247882,-1.6558332392,-8.7756768855,496
114309,195642,236954,3.8632120877,-1.6498511827,-8.872586200799999,497
114398,195688,236961,3.7627135385,-1.6139588437,-8.8701933782,498
114302,195607,236898,3.8344982165,-1.6462619487999999,-8.9060857172,499
114170,195414,236763,3.7124642639,-1.5625131578,-8.7984087002,500
113982,195237,236737,3.7555350706999997,-1.6175480776,-8.8091764019,501
113779,195082,236624,3.6598221666999997,-1.6307086019,-8.8965144268,502
113653,194967,236528,3.8225341035,-1.6438691261999998,-8.819944103600001,503
113548,194932,236475,3.7459637803,-1.6295121905999999,-8.7840517646,504
113515,195008,236509,3.7232319655999997,-1.6486547714,-8.8701933782,505
113494,195067,236575,3.7603207159,-1.710868159,-8.8366938618,506
113495,195110,236554,3.6753755136,-1.5589239239000001,-8.944370878800001,507
113528,195177,236628,3.7136606752,-1.7479569093,-8.7349989013,508
113550,195255,236680,3.8009987001,-1.5756736821000001,-8.7505522482,509
113594,195282,236670,3.6586257553999997,-1.6606188843999998,-8.846265152199999,510
113655,195316,236703,3.6670006345,-1.6342978358,-8.8343010392,511
113721,195383,236792,3.7280176108,-1.5684952143000002,-8.8821574912,512
113776,195398,236791,3.7016965622000004,-1.6570296505,-8.864211321700001,513
113877,195449,236829,3.6502508763,-1.5505490447999999,-8.7876409985,514
113968,195525,236789,3.8129628130999995,-1.6079767872,-8.846265152199999,515
114004,195530,236863,3.7471601916,-1.6414763036,-8.8450687409,516
114103,195651,236913,3.6837503927,-1.5577275125999999,-8.9060857172,517
114176,195697,236885,3.7627135385,-1.6067803759000001,-8.889335959,518
114267,195750,236945,3.6945180944,-1.4895320685,-8.8510507974,519
114365,195800,236995,3.8177484582999996,-1.5565311013,-8.8438723296,520
114379,195681,236978,3.7124642639,-1.7132609816000002,-8.8223369262,521
114279,195650,236868,3.6993037396,-1.6450655375,-8.8630149104,522
114042,195398,236725,3.6406795858999996,-1.6582260617999998,-8.8701933782,523
113816,195188,236673,3.6514472876,-1.615155255,-8.8606220878,524
113580,195048,236559,3.6993037396,-1.6103696098,-8.8678005556,525
113364,194924,236467,3.8141592244,-1.615155255,-8.8522472087,526
113097,194840,236412,3.7531422481,-1.6893327556000002,-8.8965144268,527
113080,194843,236394,3.7734812402,-1.6642081183,-8.829515394,528
113039,194874,236469,3.7016965622000004,-1.5457633996,-8.7828553533,529
112978,194900,236424,3.7088750299999997,-1.6414763036,-8.7864445872,530
112993,194985,236529,3.6885360378999996,-1.5182459396999999,-8.8558364426,531
113029,194998,236486,3.7351960786,-1.6319050132,-8.8570328539,532
113090,195074,236565,3.7459637803,-1.531406464,-8.865407733,533
113112,195054,236538,3.7088750299999997,-1.5649059803999998,-8.865407733,534
113127,195133,236567,3.7220355542999997,-1.6319050132,-8.793623055,535
113257,195106,236595,3.7603207159,-1.5278172301,-8.913264185,536
113341,195142,236604,3.7639099498,-1.5936198516,-8.7661055951,537
113415,195166,236642,3.6921252718,-1.6749758199999998,-8.8582292652,538
113504,195234,236653,3.6921252718,-1.615155255,-8.864211321700001,539
113639,195231,236689,3.7770704741,-1.5230315848999998,-8.8630149104,540
113762,195299,236734,3.9792639838,-1.5637095691,-8.7984087002,541
113801,195277,236704,3.7758740628,-1.6331014245,-8.841479506999999,542
113905,195284,236681,3.7794632967,-1.6869399330000001,-8.8941216042,543
113957,195329,236706,3.8656049103,-1.4967105363,-8.8917287816,544
114149,195356,236656,3.7471601916,-1.6582260617999998,-8.7565343047,545
114110,195206,236670,3.7232319655999997,-1.5242279962,-8.9036928946,546
113899,194954,236486,3.7256247882,-1.6666009409,-8.865407733,547
113734,194674,236281,3.7256247882,-1.5517454561000001,-8.8031943454,548
113479,194370,236125,3.7579278933,-1.5242279962,-8.781658942,549
113255,194095,235943,3.7447673690000003,-1.6342978358,-8.864211321700001,550
113058,193885,235877,3.7112678526000002,-1.5972090855,-8.749355836900001,551
112908,193943,235820,3.7351960786,-1.6797614652,-8.7661055951,552
112834,193980,235799,3.8009987001,-1.5302100526999998,-8.8558364426,553
112804,194085,235914,3.7710884175999997,-1.6462619487999999,-8.7589271273,554
112789,194191,235943,3.720839143,-1.6725829974,-8.805587167999999,555
112794,194294,235993,3.7016965622000004,-1.543370577,-8.833104627900001,556
112837,194304,236039,3.6239298277,-1.5577275125999999,-8.9623170483,557
112771,194392,236077,3.6933216830999998,-1.6199409001999998,-8.8869431364,558
112991,194466,236109,3.7028929734999996,-1.4943177136999999,-8.8103728132,559
112972,194441,236153,3.7316068447,-1.6187444889,-8.7900338211,560
113147,194495,236158,3.6921252718,-1.5780665047,-8.8343010392,561
113192,194468,236205,3.7423745464,-1.5505490447999999,-8.7684984177,562
113333,194549,236245,3.6753755136,-1.5529418674,-8.8953180155,563
113397,194614,236242,3.7663027724,-1.6929219895,-8.8630149104,564
113517,194647,236322,3.7543386594,-1.5086746492999998,-8.901300072,565
113639,194659,236303,3.6299118841999998,-1.5816557385999999,-8.8115692245,566
113810,194760,236325,3.6203405937999995,-1.579262916,-8.769694829,567
113870,194795,236315,3.7579278933,-1.7623138449,-8.9108713624,568
113991,194785,236352,3.7962130549,-1.5541382787000002,-8.8989072494,569
114111,194799,236399,3.7387853125,-1.6079767872,-8.841479506999999,570
114193,194822,236366,3.7567314819999997,-1.6821542877999998,-8.8031943454,571
114162,194604,236275,3.8081771679,-1.5601203352,-8.8235333375,572
114038,194388,236171,3.5796626096,-1.4584253747,-8.913264185,573
113858,194221,235977,3.6586257553999997,-1.6666009409,-8.819944103600001,574
113665,194021,235881,3.7280176108,-1.6785650538999999,-8.846265152199999,575
113484,193965,235847,3.8237305148,-1.7060825138000002,-8.8821574912,576
113328,193956,235834,3.7519458368,-1.5684952143000002,-8.8438723296,577
113235,194037,235868,3.7196427317,-1.5278172301,-8.8881395477,578
113200,194245,235975,3.7519458368,-1.8197415872999998,-8.846265152199999,579
113216,194337,236006,3.8344982165,-1.6139588437,-8.8450687409,580
113250,194470,236077,3.637090352,-1.5816557385999999,-8.9024964833,581
113300,194535,236156,3.7088750299999997,-1.639083481,-8.8749790234,582
113359,194596,236234,3.6526436989,-1.5589239239000001,-8.8103728132,583
113433,194718,236287,3.6933216830999998,-1.5876377951,-8.7852481759,584
113514,194863,236348,3.8069807566000002,-1.6414763036,-8.6931245058,585
113602,194957,236387,3.732803256,-1.4787643668000001,-8.8223369262,586
113715,195013,236473,3.8297125713,-1.7024932798999999,-8.7517486595,587
113812,195066,236560,3.7663027724,-1.6366906583999998,-8.8103728132,588
113958,195179,236579,3.7184463204,-1.5960126741999998,-8.8211405149,589
114102,195307,236661,3.684946804,-1.6869399330000001,-8.8689969669,590
114182,195406,236695,3.7280176108,-1.6055839645999999,-8.8390866844,591
114294,195508,236747,3.6837503927,-1.6426727149,-8.8438723296,592
114423,195563,236782,3.7459637803,-1.6785650538999999,-8.8510507974,593
114554,195579,236872,3.6885360378999996,-1.5337992866,-8.8163548697,594
114637,195717,236874,3.6945180944,-1.5529418674,-8.8079799906,595
114589,195662,236826,3.7435709577,-1.5744772707999999,-8.8510507974,596
114470,195506,236712,3.7531422481,-1.6175480776,-8.8390866844,597
114323,195292,236668,3.7112678526000002,-1.4081761001,-8.8390866844,598
114166,195163,236560,3.7639099498,-1.6761722313,-8.7541414821,599
113992,195037,236462,3.7423745464,-1.5649059803999998,-8.9563349918,600
113897,195026,236438,3.6729826909999996,-1.591227029,-8.8271225714,601
113836,194999,236429,3.7878381758,-1.639083481,-8.7828553533,602
113838,195062,236445,3.649054465,-1.6354942471,-8.8031943454,603
113857,195155,236480,3.7100714413,-1.5062818266999998,-8.8031943454,604
113884,195222,236567,3.7519458368,-1.591227029,-8.872586200799999,605
113916,195237,236604,3.7280176108,-1.6869399330000001,-8.7828553533,606
113949,195323,236622,3.7914274097,-1.4979069476,-8.8247297488,607
114018,195419,236652,3.6969109170000003,-1.6187444889,-8.7708912403,608
114104,195460,236670,3.7112678526000002,-1.7395820302,-8.8259261601,609
114144,195519,236718,3.8081771679,-1.5326028753,-8.8139620471,610
114217,195545,236772,3.7040893848,-1.5206387623,-8.7505522482,611
114322,195617,236811,3.7304104334000003,-1.7036896912000001,-8.806783579300001,612
114432,195665,236809,3.780659708,-1.4763715442,-8.8474615635,613
114498,195694,236868,3.8703905555,-1.5038890041,-8.8917287816,614
114586,195754,236883,3.6909288605,-1.7060825138000002,-8.865407733,615
114682,195787,236901,3.7471601916,-1.5565311013,-8.8630149104,616
114823,195922,236955,3.7663027724,-1.5888342063999998,-8.8343010392,617
114822,195902,236967,3.7184463204,-1.6319050132,-8.7984087002,618
114708,195777,236874,3.684946804,-1.4584253747,-8.8127656358,619
114559,195590,236774,3.720839143,-1.615155255,-8.8211405149,620
114349,195406,236647,3.6335011181000003,-1.603191142,-8.749355836900001,621
114115,195158,236531,3.8452659182,-1.6199409001999998,-8.8881395477,622
113860,195051,236458,3.6873396266,-1.6139588437,-8.8271225714,623
113782,194971,236419,3.7435709577,-1.6175480776,-8.8905323703,624
113671,194967,236399,3.7256247882,-1.5960126741999998,-8.8438723296,625
113640,195014,236481,3.7160534978000004,-1.6247265454,-8.865407733,626
113617,194994,236450,3.7519458368,-1.5684952143000002,-8.817551281,627
113602,195049,236479,3.7854453531999996,-1.5684952143000002,-8.8259261601,628
113544,195107,236509,3.7256247882,-1.639083481,-8.8426759183,629
113734,195173,236547,3.7304104334000003,-1.6247265454,-8.7708912403,630
113753,195163,236567,3.6729826909999996,-1.7383856189,-8.7278204335,631
113787,195162,236584,3.6777683362,-1.603191142,-8.9204426528,632
113879,195214,236639,3.7040893848,-1.6103696098,-8.8091764019,633
113994,195269,236634,3.6933216830999998,-1.6534404165999999,-8.8881395477,634
114017,195206,236646,3.6825539814000003,-1.5445669883000002,-8.8797646686,635
114014,195283,236635,3.7555350706999997,-1.6271193679999998,-8.817551281,636
114198,195277,236705,3.6921252718,-1.6486547714,-8.8630149104,637
114326,195299,236682,3.8273197486999995,-1.6342978358,-8.8678005556,638
114382,195333,236716,3.7627135385,-1.5984054967999999,-8.7756768855,639
114490,195351,236688,3.7076786186999997,-1.6175480776,-8.7828553533,640
114578,195408,236729,3.9732819273,-1.5158531170999998,-8.831908216599999,641
114620,195329,236670,3.7507494254999996,-1.6223337227999999,-8.865407733,642
114551,195179,236624,3.6598221666999997,-1.5086746492999998,-8.841479506999999,643
114431,194853,236425,3.6741791022999997,-1.6797614652,-8.8151584584,644
114218,194586,236276,3.768695595,-1.4919248910999998,-8.833104627900001,645
113984,194293,236103,3.7902309983999998,-1.5134602944999997,-8.8366938618,646
113794,194089,236023,3.7938202323,-1.6007983194,-8.831908216599999,647
113620,194016,235942,3.7926238210000003,-1.6462619487999999,-8.8917287816,648
113516,194031,235910,3.6789647475,-1.6713865861,-8.831908216599999,649
113466,194096,235951,3.6693934571,-1.6055839645999999,-8.761319949899999,650
113429,194222,236057,3.7495530142,-1.5780665047,-8.819944103600001,651
113426,194317,236005,3.6837503927,-1.6582260617999998,-8.9228354754,652
113458,194401,236132,3.7184463204,-1.6534404165999999,-8.8797646686,653
113545,194492,236160,3.7196427317,-1.5996019081000001,-8.8546400313,654
113496,194514,236174,3.8045879339999997,-1.5062818266999998,-8.8558364426,655
113611,194577,236222,3.7040893848,-1.6606188843999998,-8.8402830957,656
113604,194628,236292,3.6693934571,-1.6833506991,-8.8678005556,657
113780,194674,236264,3.7375889012,-1.5984054967999999,-8.7804625307,658
113851,194750,236338,3.8297125713,-1.5613167465000002,-8.876175434699999,659
113916,194728,236334,3.5928231339,-1.6510475939999998,-8.7852481759,660
114030,194778,236392,3.7459637803,-1.6881363443,-8.9144605963,661
114136,194823,236437,3.6442688197999997,-1.6414763036,-8.818747692299999,662
114221,194891,236477,3.6897324492,-1.5170495284,-8.7517486595,663
114324,194932,236463,3.6945180944,-1.5421741657,-8.872586200799999,664
114362,194964,236542,3.6945180944,-1.6929219895,-8.8606220878,665
114540,195027,236545,3.768695595,-1.6019947307,-8.9060857172,666
114641,195065,236529,3.7543386594,-1.5864413838,-8.8606220878,667
114662,194967,236506,3.7160534978000004,-1.7814564256999998,-8.7792661194,668
114569,194761,236357,3.7160534978000004,-1.5505490447999999,-8.8630149104,669
114412,194409,236194,3.7746776515,-1.6522440053,-8.8678005556,670
114216,194088,236034,3.6550365215,-1.4991033588999998,-8.829515394,671
114008,193916,235911,3.7088750299999997,-1.6761722313,-8.8366938618,672
113846,193813,235775,3.6825539814000003,-1.6725829974,-8.9204426528,673
113669,193794,235722,3.6203405937999995,-1.5948162629,-8.8247297488,674
113614,193845,235794,3.7842489418999996,-1.7958133612999998,-8.817551281,675
113628,194021,235883,3.7184463204,-1.7001004573,-8.8343010392,676
113561,194088,235945,3.7962130549,-1.5852449725,-8.7924266437,677
113532,194224,235985,3.6909288605,-1.5984054967999999,-8.8390866844,678
113646,194338,236070,3.7890345870999997,-1.5732808595,-8.8630149104,679
113709,194444,236147,3.7926238210000003,-1.6474583601,-8.8211405149,680
113727,194492,236165,3.7423745464,-1.4967105363,-8.8139620471,681
113810,194624,236278,3.6681970457999995,-1.4823536007,-8.9635134596,682
113900,194729,236320,3.7986058774999996,-1.6486547714,-8.944370878800001,683
113987,194834,236385,3.6789647475,-1.6558332392,-8.7876409985,684
114065,194906,236470,3.6705898684,-1.6797614652,-8.8223369262,685
114196,195006,236522,3.7064822074,-1.6199409001999998,-8.8079799906,686
114309,195109,236599,3.7962130549,-1.6091731985,-8.7565343047,687
114345,195222,236698,3.6047872469,-1.6007983194,-8.8211405149,688
114599,195341,236702,3.732803256,-1.6043875533,-8.831908216599999,689
114641,195400,236763,3.5976087790999998,-1.6486547714,-8.7876409985,690
114774,195497,236812,3.7507494254999996,-1.5517454561000001,-8.8941216042,691
114899,195579,236882,3.7375889012,-1.6319050132,-8.9144605963,692
114946,195670,236889,3.5844482548,-1.6534404165999999,-8.9120677737,693
114901,195549,236858,3.7770704741,-1.5649059803999998,-8.817551281,694
114794,195409,236762,3.7184463204,-1.6917255782,-8.8235333375,695
114707,195237,236670,3.7160534978000004,-1.6833506991,-8.918049830200001,696
114559,195127,236547,3.7232319655999997,-1.5708880369,-8.865407733,697
114398,194997,236485,3.8392838617,-1.6965112234000002,-8.7780697081,698
114281,194918,236440,3.6765719249,-1.5816557385999999,-8.8438723296,699
114186,194946,236451,3.7052857961,-1.603191142,-8.8271225714,700
114257,195057,236483,3.6681970457999995,-1.5960126741999998,-8.7302132561,701
114270,195105,236520,3.8249269261,-1.5337992866,-8.7972122889,702
114291,195193,236592,3.5066815203,-1.6606188843999998,-8.8271225714,703
114284,195261,236587,3.5976087790999998,-1.6917255782,-8.8031943454,704
114367,195307,236625,3.8727833781,-1.6007983194,-8.7565343047,705
114413,195404,236703,3.7998022888,-1.6295121905999999,-8.8438723296,706
114498,195472,236739,3.7351960786,-1.5134602944999997,-8.7924266437,707
114553,195469,236783,3.7603207159,-1.5864413838,-8.9216390641,708
114609,195543,236851,3.7722848289,-1.5529418674,-8.865407733,709
114706,195627,236852,3.6705898684,-1.6175480776,-8.877371846,710
114839,195663,236954,3.6933216830999998,-1.5984054967999999,-8.7302132561,711
114921,195751,236926,3.6921252718,-1.5649059803999998,-8.8833539025,712
114994,195767,236981,3.8249269261,-1.7431712641,-8.8941216042,713
115078,195862,236990,3.7818561193,-1.4871392459,-8.8343010392,714
115218,195903,237075,3.6622149893000002,-1.7599210223,-8.829515394,715
115207,195967,237021,3.7040893848,-1.5780665047,-8.7601235386,716
115113,195800,236973,3.7543386594,-1.6510475939999998,-8.9144605963,717
114952,195599,236879,3.6681970457999995,-1.5505490447999999,-8.8031943454,718
114814,195437,236772,3.7375889012,-1.6127624323999998,-8.7852481759,719
114606,195279,236702,3.6813575701,-1.5720844482,-8.8582292652,720
114456,195187,236592,3.7914274097,-1.5517454561000001,-8.7433737804,721
114327,195166,236624,3.7040893848,-1.6331014245,-8.889335959,722
114242,195203,236599,3.7842489418999996,-1.6654045296,-8.7637127725,723
114233,195245,236643,3.8021951114,-1.6163516663,-8.7254276109,724
114188,195333,236705,3.7890345870999997,-1.6402798923,-8.9001036607,725
114186,195349,236707,3.7351960786,-1.7180466268,-8.913264185,726
114176,195379,236750,3.8440695069,-1.5756736821000001,-8.9036928946,727
114154,195429,236768,3.7495530142,-1.579262916,-8.8402830957,728
114294,195468,236833,3.7100714413,-1.6510475939999998,-8.8151584584,729
114318,195532,236837,3.7507494254999996,-1.7240286833,-8.8558364426,730
114360,195546,236837,3.6993037396,-1.591227029,-8.8917287816,731
114423,195559,236851,3.6155549486,-1.6127624323999998,-8.781658942,732
114447,195555,236865,3.768695595,-1.6019947307,-8.831908216599999,733
114621,195635,236932,3.6550365215,-1.6342978358,-8.8008015228,734
114677,195652,236954,3.7543386594,-1.5780665047,-8.8582292652,735
114754,195661,236935,3.6418759972,-1.5266208188,-8.831908216599999,736
114846,195689,236955,3.6825539814000003,-1.5828521499000001,-8.9407816449,737
114922,195711,236968,3.9050864832,-1.6797614652,-8.846265152199999,738
114888,195741,236950,3.7387853125,-1.6498511827,-8.831908216599999,739
114894,195602,236909,3.8225341035,-1.6007983194,-8.926424709299999,740
114700,195324,236753,3.6801611588,-1.6414763036,-8.8558364426,741
114518,195000,236617,3.7543386594,-1.6211373115,-8.8139620471,742
114241,194788,236476,3.7639099498,-1.6007983194,-8.901300072,743
114111,194593,236331,3.7770704741,-1.5349956979000001,-8.829515394,744
113928,194515,236255,3.7112678526000002,-1.5158531170999998,-8.7912302324,745
113770,194442,236229,3.8273197486999995,-1.6342978358,-8.865407733,746
113715,194488,236253,3.6717862797,-1.6115660211,-8.8031943454,747
113734,194556,236282,3.7423745464,-1.6450655375,-8.7948194663,748
113683,194609,236326,3.6933216830999998,-1.6737794087,-8.8259261601,749
113724,194725,236346,3.6969109170000003,-1.6857435217,-8.745766603,750
113682,194690,236392,3.6705898684,-1.7264215058999999,-8.8510507974,751
113686,194738,236391,3.6466616424,-1.543370577,-8.846265152199999,752
113781,194768,236456,3.684946804,-1.5924234403000002,-8.9455672901,753
113858,194851,236428,3.6921252718,-1.4847464232999998,-8.8343010392,754
113889,194824,236447,3.7040893848,-1.6534404165999999,-8.8570328539,755
113959,194843,236483,3.7471601916,-1.6450655375,-8.819944103600001,756
114060,194924,236472,3.5964123677999997,-1.6510475939999998,-8.8079799906,757
114122,194928,236546,3.7531422481,-1.5732808595,-8.7828553533,758
114205,194931,236563,3.7519458368,-1.5134602944999997,-8.8390866844,759
114309,194993,236582,3.8141592244,-1.5613167465000002,-8.806783579300001,760
114445,195056,236611,3.7854453531999996,-1.4584253747,-8.7517486595,761
114529,195059,236616,3.7854453531999996,-1.5373885205000002,-8.865407733,762
114506,194969,236594,3.7016965622000004,-1.6965112234000002,-8.8103728132,763
114342,194744,236451,3.7064822074,-1.543370577,-8.8558364426,764
114228,194493,236343,3.6430724085,-1.6342978358,-8.9635134596,765
114015,194179,236164,3.8500515634,-1.6331014245,-8.8510507974,766
113778,193916,236009,3.8500515634,-1.4823536007,-8.8091764019,767
113653,193825,235992,3.7136606752,-1.6115660211,-8.749355836900001,768
113476,193828,235917,3.7387853125,-1.5840485612,-8.872586200799999,769
113380,193878,235958,3.7746776515,-1.5613167465000002,-8.9036928946,770
113336,194045,236007,3.732803256,-1.5134602944999997,-8.9024964833,771
113312,194137,236063,3.7124642639,-1.6055839645999999,-8.8438723296,772
113334,194236,236112,3.7280176108,-1.5720844482,-8.9144605963,773
113349,194306,236174,3.8620156764,-1.6905291669,-8.8043907567,774
113324,194378,236227,3.7304104334000003,-1.6546368279,-8.7517486595,775
113468,194512,236247,3.6430724085,-1.6965112234000002,-8.7960158776,776
113496,194532,236302,3.6693934571,-1.6606188843999998,-8.8235333375,777
113547,194591,236345,3.7483566029,-1.6007983194,-8.8701933782,778
113614,194653,236366,3.7268211995,-1.5326028753,-8.828318982699999,779
113695,194640,236423,3.8500515634,-1.5469598109,-8.748159425599999,780
113796,194745,236490,3.7316068447,-1.6642081183,-8.817551281,781
113892,194828,236523,3.876372612,-1.6725829974,-8.8426759183,782
113999,194868,236545,3.8069807566000002,-1.5888342063999998,-8.8558364426,783
114068,194889,236552,3.6394831745999996,-1.7180466268,-8.8211405149,784
114163,194872,236581,3.7447673690000003,-1.6725829974,-8.846265152199999,785
114254,194933,236637,3.6693934571,-1.4811571894,-8.9635134596,786
114304,194833,236579,3.6346975294,-1.5517454561000001,-8.761319949899999,787
114227,194733,236433,3.6897324492,-1.6366906583999998,-8.8785682573,788
114080,194463,236367,3.6514472876,-1.663011707,-8.8510507974,789
113923,194280,236175,3.7854453531999996,-1.6953148121,-8.819944103600001,790
113678,194039,236073,3.7734812402,-1.6654045296,-8.805587167999999,791
113499,193952,236005,3.6514472876,-1.5517454561000001,-8.9156570076,792
113386,193952,236001,3.6586257553999997,-1.5565311013,-8.749355836900001,793
113348,194019,236022,3.8225341035,-1.7024932798999999,-8.8797646686,794
113278,194198,236111,3.7196427317,-1.519442351,-8.901300072,795
113350,194359,236215,3.8069807566000002,-1.5266208188,-8.925228298,796
113381,194477,236234,3.7280176108,-1.5696916256,-8.781658942,797
113448,194584,236290,3.8117664018,-1.6893327556000002,-8.9120677737,798
113447,194656,236377,3.7818561193,-1.6677973521999998,-8.7924266437,799
113518,194768,236422,3.7698920062999997,-1.615155255,-8.9156570076,800
113576,194810,236505,3.8237305148,-1.5984054967999999,-8.846265152199999,801
113675,194924,236524,3.6562329328,-1.5948162629,-8.8558364426,802
113775,194967,236605,3.6562329328,-1.6462619487999999,-8.8821574912,803
113781,195110,236678,3.6933216830999998,-1.7048861025,-8.7804625307,804
113977,195200,236748,3.6418759972,-1.6307086019,-8.8582292652,805
114113,195301,236818,3.7268211995,-1.5888342063999998,-8.865407733,806
114178,195345,236830,3.7040893848,-1.6713865861,-8.8031943454,807
114252,195422,236868,3.7471601916,-1.5349956979000001,-8.7565343047,808
114327,195537,236907,3.8344982165,-1.6342978358,-8.8259261601,809
114489,195623,236980,3.601198013,-1.6462619487999999,-8.9096749511,810
114412,195484,236875,3.8129628130999995,-1.6211373115,-8.7661055951,811
114307,195410,236791,3.7196427317,-1.7084753364,-8.8869431364,812
114149,195182,236708,3.6993037396,-1.5840485612,-8.829515394,813
113992,195082,236611,3.7447673690000003,-1.5684952143000002,-8.7828553533,814
113843,194996,236611,3.8572300312,-1.6438691261999998,-8.8343010392,815
113757,195037,236604,3.6921252718,-1.5756736821000001,-8.8115692245,816
113763,195127,236612,3.768695595,-1.5637095691,-8.943174467499999,817
113743,195254,236723,3.6921252718,-1.5720844482,-8.8390866844,818
113707,195290,236756,3.7387853125,-1.5086746492999998,-8.85344362,819
113632,195362,236790,3.8560336199000003,-1.5972090855,-8.8091764019,820
113779,195400,236786,3.6897324492,-1.543370577,-8.8749790234,821
113784,195432,236823,3.7579278933,-1.6773686425999998,-8.7661055951,822
113880,195557,236814,3.6777683362,-1.5469598109,-8.8366938618,823
113913,195583,236839,3.7160534978000004,-1.7479569093,-8.841479506999999,824
113912,195660,236880,3.7160534978000004,-1.6965112234000002,-8.8582292652,825
114057,195724,236887,3.6921252718,-1.6235301341000001,-8.761319949899999,826
114132,195733,236956,3.7531422481,-1.6654045296,-8.901300072,827
114228,195788,237013,3.7447673690000003,-1.5768700934,-8.7828553533,828
114302,195831,236999,3.7651063610999995,-1.663011707,-8.817551281,829
114378,195831,237023,3.8273197486999995,-1.6342978358,-8.7385881352,830
114460,195881,237083,3.5952159565,-1.6139588437,-8.8163548697,831
114456,195888,237029,3.7136606752,-1.5230315848999998,-8.8031943454,832
114333,195697,236977,3.8105699905,-1.6199409001999998,-8.7661055951,833
114167,195569,236867,3.7543386594,-1.5086746492999998,-8.817551281,834
113991,195426,236720,3.7399817238,-1.5122638832,-8.8271225714,835
113755,195195,236632,3.8201412809,-1.6223337227999999,-8.8247297488,836
113527,195037,236562,3.7974094662,-1.6199409001999998,-8.8019979341,837
113291,194985,236570,3.7088750299999997,-1.7216358607,-8.8151584584,838
113351,195066,236570,3.6813575701,-1.5146567058,-8.7924266437,839
113317,195110,236625,3.8392838617,-1.6247265454,-8.7792661194,840
113168,195208,236667,3.7555350706999997,-1.7670994901,-8.793623055,841
113295,195425,236784,3.6801611588,-1.5948162629,-8.865407733,842
113322,195563,236908,3.6921252718,-1.567298803,-8.8043907567,843
113373,195702,236909,3.649054465,-1.5505490447999999,-8.8438723296,844
113406,195715,236927,3.6945180944,-1.6007983194,-8.9108713624,845
113450,195612,236896,3.7591243046000002,-1.5888342063999998,-8.8259261601,846
113516,195640,236896,3.7040893848,-1.6271193679999998,-8.8606220878,847
113485,195622,236902,3.6071800695,-1.6486547714,-8.930013943199999,848
113711,195728,236905,3.720839143,-1.5469598109,-8.8941216042,849
113729,195722,236917,3.7040893848,-1.6019947307,-8.9001036607,850
113765,195771,236948,3.7890345870999997,-1.5888342063999998,-8.85344362,851
113977,195853,236939,3.5856446661000003,-1.5876377951,-8.8008015228,852
114001,195820,236992,3.7112678526000002,-1.5397813431,-8.8558364426,853
114058,195834,237030,3.7734812402,-1.6175480776,-8.8666041443,854
114122,195759,236932,3.7064822074,-1.6689937635,-8.8678005556,855
113964,195475,236777,3.7351960786,-1.6331014245,-8.877371846,856
113774,195118,236651,3.6897324492,-1.6797614652,-8.8247297488,857
113547,194830,236489,3.7543386594,-1.55533469,-8.7541414821,858
113309,194551,236362,3.6634114006,-1.6510475939999998,-8.7996051115,859
113109,194426,236241,3.6753755136,-1.8053846516999998,-8.9228354754,860
112864,194279,236150,3.7016965622000004,-1.6079767872,-8.8701933782,861
112863,194319,236160,3.7172499091,-1.5696916256,-8.8103728132,862
112801,194363,236218,3.780659708,-1.7838492483,-8.829515394,863
112741,194381,236236,3.6741791022999997,-1.5960126741999998,-8.7984087002,864
112693,194366,236174,3.6526436989,-1.6307086019,-8.8008015228,865
112665,194225,236128,3.7112678526000002,-1.5972090855,-8.8390866844,866
112588,194203,236103,3.7579278933,-1.6079767872,-8.9276211206,867
112715,194178,236061,3.7471601916,-1.6821542877999998,-8.872586200799999,868
112750,194309,236118,3.7651063610999995,-1.6869399330000001,-8.872586200799999,869
112845,194305,236125,3.7064822074,-1.6103696098,-8.7804625307,870
112863,194268,236125,3.7722848289,-1.6941184008,-8.8965144268,871
112852,194292,236125,3.7184463204,-1.4895320685,-8.9288175319,872
113052,194317,236186,3.7040893848,-1.6618152957,-8.8845503138,873
113110,194342,236227,3.6167513599,-1.5326028753,-8.7637127725,874
113190,194381,236242,3.7028929734999996,-1.5457633996,-8.8630149104,875
113300,194454,236293,3.6777683362,-1.5661023917,-8.865407733,876
113372,194529,236337,3.6969109170000003,-1.6295121905999999,-8.694320917099999,877
113523,194577,236355,3.6634114006,-1.4895320685,-8.781658942,878
113591,194577,236328,3.7986058774999996,-1.5960126741999998,-8.841479506999999,879
113435,194260,236201,3.7136606752,-1.5457633996,-8.8582292652,880
113266,193938,235987,3.7495530142,-1.5804593273,-8.7421773691,881
113065,193638,235866,3.6693934571,-1.5337992866,-8.831908216599999,882
112834,193418,235743,3.7651063610999995,-1.5182459396999999,-8.831908216599999,883
112665,193283,235622,3.7304104334000003,-1.7503497318999999,-8.829515394,884
112533,193236,235608,3.6442688197999997,-1.7479569093,-8.8151584584,885
112429,193365,235619,3.6801611588,-1.6055839645999999,-8.8019979341,886
112414,193413,235701,3.6837503927,-1.6342978358,-8.944370878800001,887
112410,193579,235742,3.8201412809,-1.7096717476999999,-8.8031943454,888
112425,193722,235852,3.7471601916,-1.6007983194,-8.876175434699999,889
112489,193821,235907,3.6801611588,-1.5649059803999998,-8.8271225714,890
112542,193875,235958,3.8428730956,-1.4943177136999999,-8.8630149104,891
112617,194034,236081,3.7435709577,-1.7252250946,-8.865407733,892
112694,194080,236101,3.7160534978000004,-1.5158531170999998,-8.8582292652,893
112722,194171,236121,3.7375889012,-1.5864413838,-8.8570328539,894
112894,194231,236209,3.7232319655999997,-1.6606188843999998,-8.8869431364,895
112998,194340,236219,3.7136606752,-1.603191142,-8.7948194663,896
113100,194392,236319,3.8045879339999997,-1.5696916256,-8.7673020064,897
113265,194483,236376,3.6873396266,-1.5768700934,-8.7900338211,898
113394,194641,236459,3.7722848289,-1.7168502155,-8.8749790234,899
113587,194752,236534,3.6777683362,-1.6079767872,-8.8211405149,900
113589,194797,236544,3.6502508763,-1.6402798923,-8.9204426528,901
113781,194898,236559,3.7674991837,-1.4632110199,-8.913264185,902
113914,194919,236622,3.6526436989,-1.7216358607,-8.8678005556,903
113915,194765,236629,3.46959277,-1.5349956979000001,-8.8989072494,904
113920,194706,236588,3.6873396266,-1.6797614652,-8.8378902731,905
113813,194611,236586,3.7459637803,-1.6319050132,-8.8390866844,906
113719,194528,236556,3.7543386594,-1.6342978358,-8.7876409985,907
113587,194421,236515,3.8093735792,-1.79461695,-8.7912302324,908
113511,194461,236477,3.7854453531999996,-1.7072789251,-8.872586200799999,909
113497,194585,236533,3.7950166436,-1.7635102562,-8.8151584584,910
113539,194712,236665,3.8225341035,-1.7216358607,-8.6560357555,911
113567,194853,236754,3.7782668854000003,-1.8137595308,-8.7972122889,912
113620,194884,236737,3.9541393465,-1.6474583601,-8.793623055,913
113595,194834,236788,3.82851616,-1.6977076347,-8.7385881352,914
113677,194915,236802,3.8596228538,-1.8759729184,-8.7720876516,915
113718,194982,236833,3.8237305148,-1.7623138449,-8.720641965699999,916
113758,194985,236887,3.8739797894,-1.7838492483,-8.774480474199999,917
113866,195049,236900,3.888336725,-1.8520446924,-8.7122670866,918
113954,195067,236910,3.9014972492999997,-1.7754743692000001,-8.781658942,919
114034,195102,236990,3.7782668854000003,-1.8364913454999998,-8.8749790234,920
114127,195174,236921,3.7555350706999997,-1.7371892076000002,-8.7254276109,921
114190,195154,236988,3.7268211995,-1.8807585636,-8.8008015228,922
114239,195148,236944,3.6107693033999997,-1.8580267489000002,-8.831908216599999,923
114248,195242,236847,3.7040893848,-1.6354942471,-8.7517486595,924
114324,195361,236968,3.864408499,-1.6331014245,-8.85344362,925
114367,195432,237017,3.684946804,-1.6833506991,-8.8019979341,926
114310,195294,236972,3.8464623295,-1.5158531170999998,-8.818747692299999,927
114222,195061,236783,3.7423745464,-1.6965112234000002,-8.8450687409,928
114019,194858,236668,3.8871403137,-1.5385849318,-8.889335959,929
113802,194607,236528,3.7016965622000004,-1.6881363443,-8.7684984177,930
113648,194513,236405,3.8201412809,-1.7383856189,-8.7984087002,931
113508,194453,236392,3.6777683362,-1.6283157793,-8.8008015228,932
113409,194407,236434,3.8344982165,-1.567298803,-8.8247297488,933
113391,194618,236438,3.6299118841999998,-1.6534404165999999,-8.8785682573,934
113387,194730,236543,3.5712877305000004,-1.603191142,-8.8558364426,935
113422,194873,236531,3.7280176108,-1.7060825138000002,-8.8558364426,936
113425,194920,236595,3.8560336199000003,-1.6905291669,-8.7804625307,937
113405,195013,236720,3.7076786186999997,-1.5756736821000001,-8.8259261601,938
113595,195098,236712,3.7519458368,-1.7694923127,-8.7708912403,939
113560,195165,236772,3.5605200288,-1.6510475939999998,-8.7661055951,940
113690,195264,236836,3.6634114006,-1.6007983194,-8.8115692245,941
113697,195287,236872,3.7962130549,-1.6342978358,-8.9228354754,942
113823,195350,236865,3.8057843452999998,-1.6079767872,-8.8606220878,943
113916,195478,236949,3.7280176108,-1.5732808595,-8.8666041443,944
114007,195480,237008,3.7351960786,-1.7335999736999999,-8.8474615635,945
114109,195525,237001,3.732803256,-1.5684952143000002,-8.8223369262,946
114177,195551,237014,3.7543386594,-1.6438691261999998,-8.828318982699999,947
114297,195623,236993,3.8129628130999995,-1.6271193679999998,-8.9024964833,948
114343,195648,237060,3.6789647475,-1.7084753364,-8.764909183799999,949
114268,195487,236967,3.7184463204,-1.6235301341000001,-8.8343010392,950
114098,195158,236745,3.8392838617,-1.6295121905999999,-8.720641965699999,951
113890,194824,236603,3.732803256,-1.6366906583999998,-8.841479506999999,952
113662,194541,236419,3.6586257553999997,-1.639083481,-8.7960158776,953
113445,194252,236301,3.8213376922,-1.7024932798999999,-8.8606220878,954
113275,194301,236236,3.684946804,-1.5888342063999998,-8.8354974505,955
113166,194230,236198,3.8297125713,-1.5924234403000002,-8.8235333375,956
113138,194310,236207,3.7962130549,-1.5936198516,-8.8211405149,957
113053,194336,236235,3.7663027724,-1.6701901747999999,-8.7589271273,958
113054,194369,236241,3.6717862797,-1.7001004573,-8.7996051115,959
113075,194423,236270,3.6921252718,-1.5888342063999998,-8.8008015228,960
113096,194463,236278,3.7304104334000003,-1.5732808595,-8.926424709299999,961
113114,194434,236309,3.6586257553999997,-1.5948162629,-8.8343010392,962
113177,194413,236355,3.7268211995,-1.5708880369,-8.8079799906,963
113226,194531,236339,3.7639099498,-1.6366906583999998,-8.7852481759,964
113338,194550,236373,3.7950166436,-1.6773686425999998,-8.818747692299999,965
113431,194613,236362,3.8225341035,-1.4775679554999999,-8.9108713624,966
113500,194613,236417,3.7172499091,-1.6307086019,-8.8271225714,967
113550,194656,236444,3.649054465,-1.6354942471,-8.8606220878,968
113696,194710,236425,3.6897324492,-1.5840485612,-8.793623055,969
113744,194686,236443,3.6059836581999996,-1.5828521499000001,-8.8486579748,970
113805,194726,236502,3.5760733757,-1.5864413838,-8.7601235386,971
113858,194749,236470,3.7447673690000003,-1.4763715442,-8.8845503138,972
114067,194783,236508,3.7232319655999997,-1.6558332392,-8.8749790234,973
113926,194505,236382,3.7028929734999996,-1.6546368279,-8.8426759183,974
113786,194200,236214,3.6598221666999997,-1.5852449725,-8.9108713624,975
113607,193890,235987,3.8081771679,-1.6366906583999998,-8.817551281,976
113350,193620,235843,3.8476587407999996,-1.4871392459,-8.8402830957,977
113156,193461,235701,3.7938202323,-1.7288143285,-8.8606220878,978
113008,193454,235667,3.7974094662,-1.7503497318999999,-8.8486579748,979
112880,193497,235646,3.7746776515,-1.5493526335,-8.8366938618,980
112737,193562,235720,3.7447673690000003,-1.663011707,-8.8558364426,981
112857,193743,235807,3.684946804,-1.5888342063999998,-8.859425676499999,982
112785,193822,235901,3.6897324492,-1.6606188843999998,-8.885746725099999,983
112820,193917,235951,3.7914274097,-1.591227029,-8.9156570076,984
112861,194024,236031,3.6406795858999996,-1.6402798923,-8.9084785398,985
112916,194085,236049,3.7411781350999997,-1.5421741657,-8.873782612100001,986
112979,194161,236128,3.8273197486999995,-1.5936198516,-8.7960158776,987
113058,194246,236153,3.6729826909999996,-1.6103696098,-8.9324067658,988
113163,194286,236155,3.7471601916,-1.5409777544,-8.9060857172,989
113212,194314,236235,3.7459637803,-1.663011707,-8.9156570076,990
113298,194354,236298,3.7639099498,-1.5696916256,-8.7349989013,991
113391,194374,236263,3.7064822074,-1.6271193679999998,-8.7708912403,992
113498,194451,236268,3.7483566029,-1.710868159,-8.8127656358,993
113604,194504,236388,3.6442688197999997,-1.6654045296,-8.7445701917,994
113704,194623,236381,3.6215370051,-1.6929219895,-8.925228298,995
113870,194699,236426,3.8273197486999995,-1.6438691261999998,-8.8582292652,996
113921,194701,236472,3.6586257553999997,-1.6055839645999999,-8.889335959,997
113868,194637,236414,3.7423745464,-1.4895320685,-8.8223369262,998
113902,194432,236295,3.6382867633,-1.5134602944999997,-8.8630149104,999
113717,194168,236159,3.6526436989,-1.5529418674,-8.761319949899999,1000
113485,193958,235950,3.6993037396,-1.591227029,-8.9001036607,1001
113369,193849,235894,3.7591243046000002,-1.7551353771,-8.7924266437,1002
113144,193729,235827,3.6418759972,-1.6366906583999998,-8.8833539025,1003
112972,193768,235847,3.7423745464,-1.567298803,-8.8031943454,1004
112975,193882,235879,3.8093735792,-1.5302100526999998,-8.9228354754,1005
112999,194040,235910,3.7734812402,-1.6187444889,-8.872586200799999,1006
112951,194196,236065,3.601198013,-1.6809578765,-8.8965144268,1007
112955,194223,236089,3.7758740628,-1.5924234403000002,-8.85344362,1008
113040,194340,236174,3.7698920062999997,-1.6654045296,-8.7673020064,1009
113133,194479,236260,3.684946804,-1.6701901747999999,-8.8785682573,1010
113160,194575,236334,3.7196427317,-1.6845471104,-8.8474615635,1011
113245,194646,236367,3.6047872469,-1.5996019081000001,-8.8211405149,1012
113336,194751,236452,3.7232319655999997,-1.5397813431,-8.8486579748,1013
113441,194829,236499,3.7280176108,-1.6019947307,-8.8127656358,1014
113448,194910,236537,3.7507494254999996,-1.6319050132,-8.8821574912,1015
113670,195018,236586,3.7746776515,-1.6498511827,-8.8091764019,1016
113743,195068,236647,3.7172499091,-1.5684952143000002,-8.841479506999999,1017
113875,195196,236731,3.6346975294,-1.6510475939999998,-8.8127656358,1018
113953,195255,236744,3.649054465,-1.6905291669,-8.833104627900001,1019
114057,195345,236804,3.7447673690000003,-1.6486547714,-8.9539421692,1020
114156,195486,236825,3.5665020853000002,-1.6785650538999999,-8.818747692299999,1021
114124,195374,236783,3.7818561193,-1.5218351736,-8.7553378934,1022
114017,195216,236671,3.7746776515,-1.5684952143000002,-8.8869431364,1023
113853,195096,236646,3.7866417645,-1.5768700934,-8.7792661194,1024
113676,194897,236483,3.6574293441,-1.6103696098,-8.8558364426,1025
113508,194776,236375,3.7423745464,-1.6019947307,-8.7876409985,1026
113399,194743,236400,3.720839143,-1.5062818266999998,-8.8438723296,1027
113287,194798,236464,3.8392838617,-1.6534404165999999,-8.8689969669,1028
113317,194864,236440,3.7160534978000004,-1.6438691261999998,-8.970691927399999,1029
113307,194943,236477,3.7770704741,-1.5577275125999999,-8.8749790234,1030
113318,194990,236546,3.7148570865,-1.6510475939999998,-8.9156570076,1031
113340,195047,236571,3.7112678526000002,-1.5684952143000002,-8.939585233599999,1032
113368,195107,236638,3.6717862797,-1.5960126741999998,-8.8845503138,1033
113416,195131,236613,3.7244283769,-1.6378870697,-8.769694829,1034
113419,195211,236695,3.7280176108,-1.6773686425999998,-8.7708912403,1035
113552,195265,236711,3.7543386594,-1.6642081183,-8.8582292652,1036
113621,195342,236742,3.8751762007000004,-1.6259229567,-8.8271225714,1037
113599,195378,236790,3.7387853125,-1.579262916,-8.8008015228,1038
113823,195441,236840,3.8823546685,-1.5936198516,-8.8438723296,1039
113870,195435,236860,3.8273197486999995,-1.5577275125999999,-8.8223369262,1040
113956,195476,236869,3.7698920062999997,-1.615155255,-8.85344362,1041
114059,195567,236910,3.7663027724,-1.5206387623,-8.8043907567,1042
114101,195634,236946,3.6658042232,-1.7419748528,-8.8869431364,1043
114072,195586,236903,3.7746776515,-1.5158531170999998,-8.8486579748,1044
113934,195386,236807,3.8356946278,-1.710868159,-8.8438723296,1045
113717,195182,236655,3.7040893848,-1.6319050132,-8.7780697081,1046
113468,194987,236527,3.7818561193,-1.4799607781,-8.8582292652,1047
113172,194821,236432,3.8201412809,-1.6438691261999998,-8.749355836900001,1048
113073,194757,236414,3.732803256,-1.5744772707999999,-8.7469630143,1049
112900,194701,236328,3.6993037396,-1.639083481,-8.7876409985,1050
112810,194734,236379,3.780659708,-1.5481562222,-8.819944103600001,1051
112773,194832,236434,3.7316068447,-1.615155255,-8.8211405149,1052
112752,194818,236456,3.7351960786,-1.6941184008,-8.7912302324,1053
112770,194906,236440,3.720839143,-1.6378870697,-8.8558364426,1054
112771,194951,236496,3.7758740628,-1.6175480776,-8.8008015228,1055
112781,194961,236499,3.6430724085,-1.639083481,-8.7852481759,1056
112844,194964,236531,3.7734812402,-1.5625131578,-8.8606220878,1057
112905,194952,236562,3.7304104334000003,-1.5984054967999999,-8.831908216599999,1058
112953,195063,236568,3.7172499091,-1.4703894876999999,-8.7684984177,1059
113027,195109,236628,3.6705898684,-1.6366906583999998,-8.793623055,1060
113082,195118,236649,3.7579278933,-1.6007983194,-8.8821574912,1061
113219,195124,236649,3.7040893848,-1.5589239239000001,-8.8438723296,1062
113286,195221,236665,3.7172499091,-1.6055839645999999,-8.829515394,1063
113387,195214,236704,3.6897324492,-1.4668002538,-8.819944103600001,1064
113483,195230,236693,3.6000016017000003,-1.6139588437,-8.865407733,1065
113568,195288,236695,3.6143585373000002,-1.5266208188,-8.8929251929,1066
113656,195327,236696,3.6526436989,-1.6187444889,-8.8630149104,1067
113626,195175,236719,3.7160534978000004,-1.5158531170999998,-8.7924266437,1068
113473,194906,236512,3.7698920062999997,-1.6642081183,-8.7780697081,1069
113266,194636,236343,3.7280176108,-1.5577275125999999,-8.8091764019,1070
113007,194275,236157,3.9014972492999997,-1.6558332392,-8.8582292652,1071
112774,194045,235970,3.8057843452999998,-1.5361921092,-8.8486579748,1072
112540,193910,235880,3.6897324492,-1.6342978358,-8.865407733,1073
112346,193861,235824,3.8069807566000002,-1.6881363443,-8.7960158776,1074
112263,193882,235801,3.6610185779999997,-1.5936198516,-8.8019979341,1075
112252,194031,235857,3.8703905555,-1.5026925928000001,-8.7637127725,1076
112288,194104,235941,3.7160534978000004,-1.5062818266999998,-8.865407733,1077
112242,194141,236013,3.7076786186999997,-1.5290136414,-8.8079799906,1078
112261,194190,235992,3.8416766843000003,-1.639083481,-8.8438723296,1079
112306,194263,236102,3.7136606752,-1.639083481,-8.8869431364,1080
112347,194273,236090,3.6394831745999996,-1.7276179172000001,-8.8917287816,1081
112439,194305,236102,3.8512479747,-1.5972090855,-8.939585233599999,1082
112494,194299,236113,3.7986058774999996,-1.6737794087,-8.846265152199999,1083
112576,194294,236170,3.7890345870999997,-1.6247265454,-8.8510507974,1084
112665,194347,236168,3.7615171272,-1.4727823103,-8.7804625307,1085
112770,194396,236216,3.7674991837,-1.4201402131,-8.8247297488,1086
112816,194527,236265,3.7064822074,-1.5816557385999999,-8.8343010392,1087
112989,194576,236295,3.8775690233,-1.6725829974,-8.8606220878,1088
113144,194645,236357,3.7890345870999997,-1.663011707,-8.8163548697,1089
113208,194612,236325,3.8368910391,-1.567298803,-8.9694955161,1090
113302,194657,236364,3.6993037396,-1.5481562222,-8.7888374098,1091
113339,194553,236320,3.6586257553999997,-1.5924234403000002,-8.7960158776,1092
113237,194310,236159,3.7459637803,-1.6103696098,-8.8043907567,1093
113052,194003,235927,3.6346975294,-1.5780665047,-8.8869431364,1094
112838,193682,235792,3.7734812402,-1.7012968686,-8.8881395477,1095
112630,193486,235629,3.7256247882,-1.6797614652,-8.8701933782,1096
112428,193433,235583,3.8177484582999996,-1.6295121905999999,-8.7972122889,1097
112283,193384,235558,3.7411781350999997,-1.6486547714,-8.841479506999999,1098
112204,193425,235565,3.6335011181000003,-1.567298803,-8.7852481759,1099
112082,193681,235699,3.7519458368,-1.5852449725,-8.8235333375,1100
112190,193808,235769,3.7507494254999996,-1.4775679554999999,-8.9072821285,1101
112241,193918,235851,3.6658042232,-1.6223337227999999,-8.7852481759,1102
112315,194090,235940,3.7316068447,-1.639083481,-8.916853418899999,1103
112324,194166,235971,3.7351960786,-1.5744772707999999,-8.8582292652,1104
112401,194266,236108,3.6801611588,-1.6666009409,-8.819944103600001,1105
112503,194422,236175,3.6658042232,-1.8029918290999998,-8.8821574912,1106
112578,194536,236229,3.8632120877,-1.5960126741999998,-8.8689969669,1107
112684,194646,236286,3.6873396266,-1.6007983194,-8.8031943454,1108
112791,194717,236409,3.6729826909999996,-1.7359927963,-8.7708912403,1109
112869,194842,236416,3.7818561193,-1.5397813431,-8.8091764019,1110
113061,194900,236524,3.7435709577,-1.6725829974,-8.7732840629,1111
113211,195040,236552,3.6562329328,-1.6642081183,-8.8845503138,1112
113311,195165,236689,3.6634114006,-1.6235301341000001,-8.806783579300001,1113
113447,195238,236673,3.7639099498,-1.6019947307,-8.8510507974,1114
113535,195310,236706,3.7160534978000004,-1.7144573929,-8.937192411,1115
113538,195301,236706,3.6945180944,-1.6079767872,-8.8247297488,1116
113520,195176,236644,3.6813575701,-1.5768700934,-8.8522472087,1117
113366,195019,236512,3.6885360378999996,-1.6558332392,-8.9144605963,1118
113178,194823,236409,3.8368910391,-1.5816557385999999,-8.761319949899999,1119
113030,194711,236301,3.7268211995,-1.7431712641,-8.8678005556,1120
112843,194573,236260,3.6574293441,-1.6115660211,-8.7230347883,1121
112751,194525,236230,3.7423745464,-1.698904046,-8.7804625307,1122
112749,194587,236270,3.6658042232,-1.6426727149,-8.8953180155,1123
112812,194711,236337,3.9170505962,-1.6677973521999998,-8.9204426528,1124
112887,194786,236557,3.6562329328,-1.6247265454,-8.7732840629,1125
112951,194904,236580,3.7184463204,-1.5996019081000001,-8.7864445872,1126
113014,194969,236684,3.8213376922,-1.710868159,-8.7541414821,1127
113006,195056,236762,3.7268211995,-1.6534404165999999,-8.8031943454,1128
113140,195104,236747,3.6945180944,-1.8161523534,-8.8223369262,1129
113184,195161,236716,3.7938202323,-1.6498511827,-8.7804625307,1130
113231,195212,236757,3.816552047,-1.6354942471,-8.901300072,1131
113267,195372,236818,3.6610185779999997,-1.5852449725,-8.873782612100001,1132
113367,195466,236858,3.6729826909999996,-1.6929219895,-8.8630149104,1133
113481,195645,236945,3.8201412809,-1.6773686425999998,-8.9036928946,1134
113597,195811,236978,3.6179477712,-1.6450655375,-8.8474615635,1135
113703,195823,237041,3.7567314819999997,-1.5936198516,-8.6991065623,1136
113826,195970,237125,3.7579278933,-1.6725829974,-8.8941216042,1137
113880,195967,237085,3.7184463204,-1.6342978358,-8.749355836900001,1138
113760,195698,236960,3.7112678526000002,-1.7539389658,-8.8821574912,1139
113596,195459,236788,3.7268211995,-1.6127624323999998,-8.7996051115,1140
113379,195239,236672,3.720839143,-1.5565311013,-8.8343010392,1141
113168,195029,236541,3.6753755136,-1.6007983194,-8.9276211206,1142
112928,194878,236453,3.5676984966,-1.615155255,-8.8271225714,1143
112745,194842,236419,3.6610185779999997,-1.5684952143000002,-8.7230347883,1144
112637,194844,236423,3.6993037396,-1.6079767872,-8.865407733,1145
112608,194907,236456,3.7902309983999998,-1.6079767872,-8.8163548697,1146
112555,194953,236505,3.7184463204,-1.5577275125999999,-8.7888374098,1147
112565,195021,236584,3.7914274097,-1.6809578765,-8.8965144268,1148
112576,195106,236600,3.7818561193,-1.6438691261999998,-8.769694829,1149
112586,195170,236638,3.6717862797,-1.5960126741999998,-8.748159425599999,1150
112664,195218,236642,3.8321053939,-1.5816557385999999,-8.7792661194,1151
112741,195263,236692,3.7770704741,-1.5326028753,-8.818747692299999,1152
112786,195338,236711,3.7890345870999997,-1.6175480776,-8.8211405149,1153
112850,195314,236730,3.5964123677999997,-1.5828521499000001,-8.831908216599999,1154
112950,195355,236763,3.6801611588,-1.5158531170999998,-8.8881395477,1155
113091,195456,236777,3.7184463204,-1.5996019081000001,-8.901300072,1156
113175,195499,236823,3.7064822074,-1.6558332392,-8.8701933782,1157
113204,195544,236918,3.7890345870999997,-1.6462619487999999,-8.918049830200001,1158
113351,195548,236882,3.6765719249,-1.5972090855,-8.8008015228,1159
113459,195615,236915,3.7232319655999997,-1.6307086019,-8.8869431364,1160
113502,195621,236929,3.8105699905,-1.6115660211,-8.8965144268,1161
113346,195417,236765,3.6873396266,-1.6307086019,-8.8749790234,1162
113126,195072,236584,3.6526436989,-1.6414763036,-8.8127656358,1163
112888,194708,236365,3.7160534978000004,-1.6857435217,-8.8785682573,1164
112594,194377,236237,3.7064822074,-1.6079767872,-8.7840517646,1165
112366,194247,236095,3.6801611588,-1.543370577,-8.8378902731,1166
112176,194187,236012,3.82851616,-1.5900306177,-8.9108713624,1167
112060,194177,236032,3.6921252718,-1.6654045296,-8.8965144268,1168
111974,194171,236016,3.7100714413,-1.4883356572,-8.7852481759,1169
111901,194289,236050,3.7591243046000002,-1.6271193679999998,-8.8139620471,1170
112022,194331,236076,3.6993037396,-1.5361921092,-8.7912302324,1171
112070,194395,236083,3.8153556357,-1.5816557385999999,-8.8307118053,1172
112061,194409,236121,3.7471601916,-1.5744772707999999,-8.7720876516,1173
112093,194445,236191,3.7160534978000004,-1.5577275125999999,-8.9228354754,1174
112186,194452,236176,3.7280176108,-1.5493526335,-8.806783579300001,1175
112252,194495,236225,3.8620156764,-1.603191142,-8.8271225714,1176
112341,194519,236247,3.684946804,-1.6893327556000002,-8.7876409985,1177
112449,194524,236212,3.6000016017000003,-1.5038890041,-8.9084785398,1178
112572,194629,236241,3.7555350706999997,-1.6354942471,-8.9048893059,1179
112672,194621,236281,3.7914274097,-1.5493526335,-8.7565343047,1180
112792,194672,236317,3.6323047068,-1.6606188843999998,-8.8821574912,1181
112903,194737,236365,3.6299118841999998,-1.639083481,-8.819944103600001,1182
113029,194746,236361,3.5904303113,-1.6965112234000002,-8.8127656358,1183
113111,194813,236382,3.82851616,-1.6785650538999999,-8.8438723296,1184
113127,194653,236315,3.7040893848,-1.6366906583999998,-8.7780697081,1185
113014,194359,236164,3.6478580537000003,-1.5373885205000002,-8.9587278144,1186
112822,193993,236013,3.7555350706999997,-1.5421741657,-8.872586200799999,1187
112590,193761,235796,3.7591243046000002,-1.6677973521999998,-8.841479506999999,1188
112366,193525,235597,3.8141592244,-1.663011707,-8.7900338211,1189
112164,193464,235591,3.7950166436,-1.6582260617999998,-8.7720876516,1190
112007,193466,235546,3.6191441825000004,-1.5565311013,-8.8821574912,1191
111921,193522,235586,3.6598221666999997,-1.5589239239000001,-8.8618184991,1192
111918,193694,235632,3.6335011181000003,-1.6857435217,-8.7732840629,1193
111901,193877,235764,3.7351960786,-1.6127624323999998,-8.8438723296,1194
111867,193850,235765,3.7256247882,-1.7276179172000001,-8.8127656358,1195
112039,194005,235860,3.6933216830999998,-1.5349956979000001,-8.8941216042,1196
112063,194149,235943,3.7040893848,-1.6007983194,-8.8486579748,1197
112100,194136,235936,3.7674991837,-1.603191142,-8.8510507974,1198
112123,194222,236060,3.8536407972999998,-1.5972090855,-8.8941216042,1199
112306,194308,236069,3.6825539814000003,-1.6007983194,-8.8019979341,1200
112402,194284,236062,3.7483566029,-1.5445669883000002,-8.7876409985,1201
112505,194352,236095,3.720839143,-1.5661023917,-8.829515394,1202
112637,194421,236181,3.8356946278,-1.5888342063999998,-8.8151584584,1203
112763,194523,236201,3.7351960786,-1.5780665047,-8.7708912403,1204
112951,194600,236306,3.7339996673,-1.5266208188,-8.841479506999999,1205
113035,194660,236301,3.7064822074,-1.6354942471,-8.9204426528,1206
113177,194747,236385,3.7196427317,-1.5972090855,-8.7912302324,1207
113302,194849,236415,3.7495530142,-1.5984054967999999,-8.7708912403,1208
113391,194892,236437,3.5688949079,-1.6462619487999999,-8.9036928946,1209
113346,194716,236366,3.6681970457999995,-1.4823536007,-8.7661055951,1210
113216,194535,236227,3.5605200288,-1.5445669883000002,-8.7720876516,1211
113040,194250,236099,3.7531422481,-1.7096717476999999,-8.8223369262,1212
112830,194071,235937,3.7016965622000004,-1.7443676754000002,-8.8402830957,1213
112626,193981,235889,3.6598221666999997,-1.5888342063999998,-8.818747692299999,1214
112418,193980,235888,3.5665020853000002,-1.6283157793,-8.9324067658,1215
112469,194085,235909,3.7974094662,-1.6211373115,-8.8354974505,1216
112511,194249,235979,3.732803256,-1.6857435217,-8.8797646686,1217
112468,194313,236025,3.684946804,-1.6845471104,-8.8163548697,1218
112513,194420,236126,3.6729826909999996,-1.6055839645999999,-8.925228298,1219
112559,194509,236168,3.7746776515,-1.5960126741999998,-8.8043907567,1220
112624,194624,236203,3.6538401101999995,-1.6677973521999998,-8.8869431364,1221
112763,194733,236261,3.732803256,-1.5960126741999998,-8.8043907567,1222
112811,194774,236364,3.7615171272,-1.6941184008,-8.846265152199999,1223
112880,194859,236410,3.6981073283,-1.6007983194,-8.859425676499999,1224
112998,194927,236400,3.684946804,-1.5972090855,-8.9192462415,1225
113129,195018,236502,3.6406795858999996,-1.5996019081000001,-8.865407733,1226
113247,195090,236613,3.7411781350999997,-1.6067803759000001,-8.8929251929,1227
113375,195245,236642,3.6550365215,-1.7383856189,-8.8522472087,1228
113476,195254,236679,3.7555350706999997,-1.6917255782,-8.7840517646,1229
113566,195352,236684,3.8105699905,-1.6342978358,-8.761319949899999,1230
113720,195436,236716,3.7256247882,-1.5661023917,-8.8211405149,1231
113751,195403,236670,3.6753755136,-1.615155255,-8.8247297488,1232
113615,195283,236574,3.6418759972,-1.6725829974,-8.9587278144,1233
113451,195128,236540,3.8129628130999995,-1.6019947307,-8.7924266437,1234
113258,194934,236407,3.82851616,-1.6606188843999998,-8.7708912403,1235
113093,194762,236367,3.6741791022999997,-1.5768700934,-8.8678005556,1236
112969,194688,236305,3.7148570865,-1.5349956979000001,-8.720641965699999,1237
112908,194754,236325,3.864408499,-1.5684952143000002,-8.8558364426,1238
112911,194848,236329,3.5952159565,-1.579262916,-8.8103728132,1239
112949,194951,236389,3.6861432153,-1.5326028753,-8.8977108381,1240
112943,195028,236403,3.6885360378999996,-1.5852449725,-8.85344362,1241
112953,195035,236436,3.7256247882,-1.5397813431,-8.8749790234,1242
113024,195100,236471,3.8225341035,-1.5756736821000001,-8.8917287816,1243
113090,195160,236540,3.6670006345,-1.5254244074999999,-8.8031943454,1244
113161,195220,236598,3.7878381758,-1.6067803759000001,-8.819944103600001,1245
113203,195270,236633,3.7639099498,-1.4536397294999999,-8.841479506999999,1246
113226,195323,236680,3.7076786186999997,-1.6534404165999999,-8.8390866844,1247
113408,195433,236666,3.7890345870999997,-1.6749758199999998,-8.8343010392,1248
113472,195474,236729,3.6969109170000003,-1.6223337227999999,-8.7960158776,1249
113565,195497,236746,3.7064822074,-1.6965112234000002,-8.9036928946,1250
113665,195527,236751,3.7136606752,-1.5158531170999998,-8.889335959,1251
113759,195618,236784,3.7746776515,-1.5098710606,-8.8438723296,1252
113823,195665,236813,3.7603207159,-1.6534404165999999,-8.8450687409,1253
113745,195483,236743,3.649054465,-1.5960126741999998,-8.8678005556,1254
113594,195242,236572,3.7172499091,-1.6139588437,-8.8474615635,1255
113284,195008,236484,3.6981073283,-1.6342978358,-8.7302132561,1256
113106,194836,236382,3.7351960786,-1.5984054967999999,-8.8582292652,1257
112871,194681,236199,3.82851616,-1.6845471104,-8.8211405149,1258
112712,194640,236154,3.7531422481,-1.6977076347,-8.831908216599999,1259
112528,194533,236192,3.6993037396,-1.5948162629,-8.85344362,1260
112468,194617,236216,3.7519458368,-1.5206387623,-8.8438723296,1261
112461,194675,236231,3.7088750299999997,-1.7180466268,-8.7409809578,1262
112482,194746,236286,3.637090352,-1.5625131578,-8.8271225714,1263
112485,194849,236327,3.8189448695999997,-1.6271193679999998,-8.8343010392,1264
112523,194882,236314,3.8608192651000004,-1.5541382787000002,-8.8223369262,1265
112621,194909,236383,3.7304104334000003,-1.5756736821000001,-8.9084785398,1266
112590,194936,236474,3.7639099498,-1.6127624323999998,-8.877371846,1267
112757,195000,236412,3.7196427317,-1.6271193679999998,-8.85344362,1268
112846,195031,236455,3.7770704741,-1.5720844482,-8.8869431364,1269
112919,195067,236510,3.6945180944,-1.7670994901,-8.8749790234,1270
112925,195131,236510,3.7770704741,-1.6654045296,-8.7517486595,1271
113119,195102,236517,3.7770704741,-1.5720844482,-8.846265152199999,1272
113214,195166,236581,3.8368910391,-1.6845471104,-8.7637127725,1273
113316,195201,236602,3.7495530142,-1.5349956979000001,-8.8019979341,1274
113439,195178,236586,3.8009987001,-1.6654045296,-8.757730716,1275
113523,195204,236588,3.8225341035,-1.5565311013,-8.9060857172,1276
113621,195303,236627,3.6861432153,-1.6450655375,-8.8378902731,1277
113575,195127,236551,3.613162126,-1.5744772707999999,-8.8271225714,1278
113440,194870,236378,3.6753755136,-1.6366906583999998,-8.7565343047,1279
113152,194510,236203,3.7914274097,-1.6606188843999998,-8.8043907567,1280
112936,194245,236016,3.7339996673,-1.5696916256,-8.829515394,1281
112700,194028,235836,3.720839143,-1.6666009409,-8.8247297488,1282
112477,193907,235781,3.732803256,-1.6187444889,-8.8713897895,1283
112318,193879,235735,3.8057843452999998,-1.6342978358,-8.7876409985,1284
112239,193864,235760,3.8141592244,-1.6725829974,-8.8378902731,1285
112209,193983,235809,3.8536407972999998,-1.6522440053,-8.8558364426,1286
112216,194084,235835,3.8189448695999997,-1.5816557385999999,-8.865407733,1287
112227,194176,235891,3.6418759972,-1.5146567058,-8.7637127725,1288
112297,194238,235943,3.6562329328,-1.6199409001999998,-8.846265152199999,1289
112345,194231,235974,3.768695595,-1.5457633996,-8.8223369262,1290
112393,194323,236036,3.7052857961,-1.6570296505,-8.8438723296,1291
112489,194326,236049,3.7567314819999997,-1.5696916256,-8.877371846,1292
112623,194409,236066,3.6634114006,-1.5349956979000001,-8.8103728132,1293
112653,194401,236115,3.7423745464,-1.5804593273,-8.8558364426,1294
112753,194455,236131,3.8081771679,-1.5972090855,-8.8223369262,1295
112883,194499,236189,3.82851616,-1.6450655375,-8.8366938618,1296
113003,194566,236224,3.7375889012,-1.6737794087,-8.8749790234,1297
113067,194604,236233,3.8416766843000003,-1.6893327556000002,-8.757730716,1298
113190,194584,236277,3.6598221666999997,-1.5984054967999999,-8.865407733,1299
113318,194657,236267,3.7124642639,-1.6043875533,-8.9204426528,1300
113450,194654,236307,3.8189448695999997,-1.4931213024,-8.708677852700001,1301
113513,194642,236296,3.7519458368,-1.7694923127,-8.8582292652,1302
113474,194480,236166,3.5760733757,-1.5684952143000002,-8.7900338211,1303
113351,194152,235931,3.7782668854000003,-1.5361921092,-8.944370878800001,1304
113112,193883,235785,3.732803256,-1.6725829974,-8.7732840629,1305
112905,193685,235696,3.7196427317,-1.4859428346,-8.8151584584,1306
112718,193647,235614,3.6550365215,-1.6271193679999998,-8.9036928946,1307
112553,193609,235616,3.6466616424,-1.6558332392,-8.8749790234,1308
112449,193694,235645,3.7363924898999996,-1.5290136414,-8.8821574912,1309
112421,193889,235730,3.7172499091,-1.6809578765,-8.8235333375,1310
112449,194034,235783,3.7555350706999997,-1.5972090855,-8.7565343047,1311
112467,194140,235855,3.7710884175999997,-1.6295121905999999,-8.828318982699999,1312
112517,194254,235957,3.780659708,-1.6007983194,-8.8558364426,1313
112589,194350,236049,3.6777683362,-1.6354942471,-8.8438723296,1314
112654,194450,236116,3.7184463204,-1.5684952143000002,-8.8713897895,1315
112739,194583,236160,3.6358939407,-1.603191142,-8.7948194663,1316
112897,194692,236215,3.6538401101999995,-1.6462619487999999,-8.8438723296,1317
112946,194756,236301,3.6251262389999996,-1.6965112234000002,-8.7517486595,1318
113057,194883,236425,3.7399817238,-1.6438691261999998,-8.9802632178,1319
113193,195001,236433,3.684946804,-1.5445669883000002,-8.877371846,1320
113296,195062,236477,3.7842489418999996,-1.5457633996,-8.8103728132,1321
113432,195156,236534,3.7914274097,-1.6773686425999998,-8.8701933782,1322
113538,195290,236564,3.7304104334000003,-1.5230315848999998,-8.864211321700001,1323
113680,195373,236633,3.7734812402,-1.6127624323999998,-8.8390866844,1324
113779,195468,236715,3.6598221666999997,-1.5816557385999999,-8.8570328539,1325
113817,195419,236642,3.6993037396,-1.5541382787000002,-8.873782612100001,1326
113734,195277,236633,3.6705898684,-1.6893327556000002,-8.9407816449,1327
113572,195083,236462,3.7782668854000003,-1.6917255782,-8.8510507974,1328
113445,194884,236417,3.7040893848,-1.5182459396999999,-8.8510507974,1329
113258,194828,236262,3.7495530142,-1.6869399330000001,-8.901300072,1330
113114,194732,236234,3.7088750299999997,-1.5469598109,-8.749355836900001,1331
113040,194776,236275,3.7651063610999995,-1.567298803,-8.85344362,1332
113031,194863,236261,3.613162126,-1.6773686425999998,-8.8701933782,1333
113037,194921,236337,3.7351960786,-1.6558332392,-8.7984087002,1334
113066,195019,236420,3.6610185779999997,-1.663011707,-8.8558364426,1335
113097,195115,236457,3.6777683362,-1.5864413838,-8.8366938618,1336
113162,195101,236440,3.6777683362,-1.6079767872,-8.8965144268,1337
113201,195174,236430,3.7770704741,-1.6366906583999998,-8.8821574912,1338
113289,195166,236529,3.6825539814000003,-1.5936198516,-8.7924266437,1339
113325,195187,236588,3.6299118841999998,-1.5134602944999997,-8.8438723296,1340
113434,195189,236608,3.7663027724,-1.5349956979000001,-8.7589271273,1341
113513,195353,236647,3.720839143,-1.5505490447999999,-8.8450687409,1342
113601,195465,236762,3.6801611588,-1.6187444889,-8.8402830957,1343
113747,195736,236798,3.6717862797,-1.5026925928000001,-8.85344362,1344
113838,195807,236855,3.7758740628,-1.2358928729,-8.8103728132,1345
113882,195779,236913,3.5760733757,-1.8687944506,-8.872586200799999,1346
114000,195783,236869,3.8943187815,-1.7503497318999999,-8.8989072494,1347
114079,195789,236886,3.6945180944,-1.6079767872,-8.8390866844,1348
113907,195523,236719,3.7316068447,-1.7335999736999999,-8.9228354754,1349
113739,195240,236620,3.7387853125,-1.6127624323999998,-8.8343010392,1350
113509,194975,236456,3.8033915226999997,-1.5469598109,-8.7948194663,1351
113293,194711,236267,3.7770704741,-1.6426727149,-8.7948194663,1352
113018,194593,236213,3.8273197486999995,-1.5625131578,-8.8103728132,1353
112933,194539,236132,3.6921252718,-1.591227029,-8.8797646686,1354
112879,194750,236238,3.7339996673,-1.5684952143000002,-8.8821574912,1355
112873,194974,236296,3.7375889012,-1.6905291669,-8.7230347883,1356
112868,195009,236386,3.6203405937999995,-1.734796385,-8.85344362,1357
112884,195020,236406,3.8464623295,-1.4979069476,-8.761319949899999,1358
112891,194865,236304,3.6023944243,-1.7407784414999998,-8.8630149104,1359
112914,194797,236340,3.7028929734999996,-1.7647066674999998,-8.7828553533,1360
112963,194946,236410,3.8045879339999997,-1.603191142,-8.9001036607,1361
113050,194979,236390,3.7998022888,-1.5816557385999999,-8.7900338211,1362
113099,194937,236387,3.7998022888,-1.8329021116,-8.7720876516,1363
113191,195021,236422,3.8739797894,-1.6091731985,-8.829515394,1364
113263,195061,236462,3.8404802730000003,-1.6139588437,-8.7505522482,1365
113354,195088,236441,3.8488551521,-1.5326028753,-8.8247297488,1366
113463,195034,236478,3.8141592244,-1.6869399330000001,-8.7960158776,1367
113540,195069,236476,3.8548372086000002,-1.7276179172000001,-8.7445701917,1368
113642,195052,236484,3.9672998708,-1.6797614652,-8.8821574912,1369
113730,194994,236522,3.8632120877,-1.6965112234000002,-8.8115692245,1370
113716,194978,236436,3.7866417645,-1.6965112234000002,-8.8247297488,1371
113580,194528,236207,3.6658042232,-1.9070796122,-8.769694829,1372
113345,194125,235921,3.5940195452,-1.4703894876999999,-8.7732840629,1373
113130,193805,235743,3.8117664018,-1.698904046,-9.0149591455,1374
112918,193853,235736,3.7005001509,-1.6199409001999998,-8.8474615635,1375
112691,194151,235898,3.5078779316,-1.5960126741999998,-8.8630149104,1376
112706,194445,235968,3.4815568829999997,-1.6546368279,-8.793623055,1377
112696,194713,236127,3.4420753101,-1.8831513862,-8.8378902731,1378
112628,194763,236122,3.4504501892,-1.8161523534,-8.8797646686,1379
112560,194532,236088,3.4767712378,-1.806581063,-8.8450687409,1380
112573,194298,235972,3.4899317621,-1.6019947307,-8.806783579300001,1381
112571,194299,235944,3.4803604716999996,-1.7371892076000002,-8.8630149104,1382
112639,194429,236007,3.5461630932,-1.6965112234000002,-8.913264185,1383
112766,194794,236162,3.5964123677999997,-1.7994025952000001,-8.930013943199999,1384
112981,195420,236497,3.5605200288,-1.79461695,-8.9156570076,1385
113090,195628,236604,3.6933216830999998,-1.7060825138000002,-8.889335959,1386
113277,196007,236805,3.6299118841999998,-1.5732808595,-8.9288175319,1387
113534,196742,237059,3.5676984966,-1.6606188843999998,-8.8139620471,1388
113789,197475,237459,3.601198013,-1.7072789251,-9.0113699116,1389
114089,198265,237971,3.4301111971,-2.1678972756,-8.8079799906,1390
114265,198639,238264,3.4360932536,-1.8783657409999999,-8.7110706753,1391
114306,197914,237998,3.2757741394,-1.8197415872999998,-8.6715891024,1392
114232,196461,237293,3.7770704741,-1.6642081183,-8.9886380969,1393
114229,195650,236918,3.7016965622000004,-1.782652837,-8.9036928946,1394
114171,195062,236604,3.6251262389999996,-1.7204394494000002,-8.9048893059,1395
114013,194547,236288,3.6287154729,-1.7156538042,-8.8749790234,1396
113855,194145,235935,3.4731820039,-1.782652837,-8.9024964833,1397
113640,193815,235786,3.4193434953999997,-1.6845471104,-8.8211405149,1398
113444,193633,235618,3.6478580537000003,-1.7778671918,-8.9108713624,1399
113289,193540,235564,3.7674991837,-1.6235301341000001,-8.8953180155,1400
113215,193651,235576,3.5521451497000003,-1.8616159827999998,-9.0161555568,1401
113107,193683,235685,3.5772697869999996,-1.8293128776999998,-8.9659062822,1402
113085,193624,235643,3.5114671655,-1.8939190879,-8.8989072494,1403
113057,193318,235399,3.5509487384000002,-1.7682959014000001,-8.8941216042,1404
113049,193198,235427,3.6957145057000003,-1.7359927963,-8.8570328539,1405
113084,193223,235452,3.6335011181000003,-1.818545176,-8.877371846,1406
113110,193172,235455,3.6478580537000003,-1.6761722313,-8.9048893059,1407
113117,192981,235419,3.5844482548,-1.782652837,-8.8223369262,1408
113120,193019,235445,3.7028929734999996,-1.7455640867,-8.7984087002,1409
113269,193009,235369,3.6203405937999995,-1.615155255,-8.9108713624,1410
113337,193034,235453,3.6933216830999998,-1.8580267489000002,-8.9144605963,1411
113257,193196,235474,3.5952159565,-1.8496518698,-9.019744790699999,1412
113446,193474,235709,3.7603207159,-1.7778671918,-9.0053878551,1413
113557,194273,236043,3.7268211995,-1.7431712641,-8.8343010392,1414
113786,195099,236482,3.5904303113,-1.7455640867,-9.006584266399999,1415
113980,195742,236840,3.4301111971,-1.9465611851,-8.8917287816,1416
114176,196146,237076,3.6358939407,-1.5469598109,-8.949156524,1417
114450,196865,237487,3.46959277,-1.6414763036,-8.8438723296,1418
114578,197244,237766,3.3439695835000003,-1.7838492483,-8.7852481759,1419
114581,197332,237757,3.2697920829,-1.7204394494000002,-8.9802632178,1420
114533,197370,237674,3.4193434953999997,-1.9106688461,-8.9024964833,1421
114409,197282,237693,3.3786655112000004,-1.5744772707999999,-8.952745757899999,1422
114301,197359,237724,3.3188449462,-1.782652837,-9.0472622506,1423
114237,197516,237793,3.2374889778,-1.9489540077,-8.872586200799999,1424
114165,197529,237774,3.1322047834,-2.1212372348999997,-8.7852481759,1425
113978,196505,237254,3.3678978095,-1.9669001771999999,-8.9826560404,1426
113747,195068,236528,3.6394831745999996,-1.6187444889,-9.055637129700001,1427
113640,194291,236132,3.4121650276000004,-1.5445669883000002,-8.930013943199999,1428
113647,194003,235897,3.5593236175,-1.9298114269,-8.952745757899999,1429
113627,194022,236016,3.4887353508000003,-1.8640088054,-8.8701933782,1430
113775,194153,236041,3.5306097463,-1.8771693297,-9.0221376133,1431
113820,194139,236121,3.3810583338,-1.9310078382,-8.944370878800001,1432
113854,194138,236148,3.4887353508000003,-1.8412769907000002,-8.930013943199999,1433
113994,194054,236076,3.6107693033999997,-2.021935097,-8.7601235386,1434
114016,194267,236238,3.6957145057000003,-1.9597217094,-8.9467637014,1435
114114,194669,236430,3.4444681327,-1.9525432416,-8.7972122889,1436
114173,195173,236645,3.4169506728,-1.7156538042,-8.975477572600001,1437
114300,195560,236899,3.5641092626999997,-1.8137595308,-8.8965144268,1438
114419,196039,237129,3.326023414,-1.7898313048,-9.0161555568,1439
114600,196516,237388,3.397808092,-1.9022939669999999,-8.8821574912,1440
114740,196855,237561,3.4444681327,-1.6833506991,-9.1393859207,1441
114886,197311,237757,3.3152557123,-1.8352949342,-8.8522472087,1442
114841,197260,237783,3.2123643404999997,-1.9429719511999999,-8.975477572600001,1443
114694,196572,237370,2.8917261120999997,-2.0673987264,-8.566304908,1444
114366,195402,236714,3.6717862797,-1.6654045296,-9.0532443071,1445
114135,194672,236377,3.4983066412,-1.7838492483,-8.975477572600001,1446
113943,194407,236116,3.4839497056,-1.818545176,-8.9539421692,1447
113914,194403,236121,3.4899317621,-1.7623138449,-8.859425676499999,1448
113908,194490,236165,3.4767712378,-1.7922241274,-8.9419780562,1449
113917,194660,236266,3.4313076084,-1.7072789251,-8.8941216042,1450
113929,194832,236390,3.4073793824000003,-1.8209379986,-8.930013943199999,1451
113972,194936,236505,3.3080772444999997,-1.8245272325,-8.8797646686,1452
113973,195070,236541,3.3320054705,-1.7742779578999999,-8.9575314031,1453
113949,195134,236606,3.2434710343,-1.7072789251,-8.901300072,1454
114081,195200,236668,3.4348968423,-1.7036896912000001,-8.9060857172,1455
114115,195256,236695,3.4971102299,-1.7922241274,-8.961120637,1456
114177,195311,236716,3.3667013982,-1.8329021116,-8.9276211206,1457
114251,195429,236756,3.4959138186,-1.8041882404,-8.9156570076,1458
114316,195474,236827,3.3008987767,-1.8041882404,-8.8701933782,1459
114337,195598,236919,3.4971102299,-1.8999011444,-8.8929251929,1460
114543,195736,236902,3.5832518435,-1.8616159827999998,-8.8438723296,1461
114605,195761,237006,3.433700431,-1.7443676754000002,-8.873782612100001,1462
114693,195862,237021,3.457628657,-1.5996019081000001,-8.918049830200001,1463
114701,195850,237035,3.4767712378,-1.8305092889999999,-8.885746725099999,1464
114635,195626,236869,3.5377882141000003,-1.818545176,-8.9108713624,1465
114427,195322,236715,3.3762726886,-1.7503497318999999,-8.8666041443,1466
114179,195090,236580,3.4169506728,-1.8005990065,-9.0221376133,1467
114019,194930,236409,3.5629128513999997,-1.8137595308,-8.9515493466,1468
113829,194779,236342,3.445664544,-1.6809578765,-8.8701933782,1469
113748,194595,236239,3.4552358344000003,-1.9848463467,-8.8917287816,1470
113672,194337,236227,3.505485109,-1.7635102562,-8.9276211206,1471
113622,194264,236272,3.4648071248,-1.9417755399,-8.889335959,1472
113725,194345,236300,3.4959138186,-2.0015961049,-8.8965144268,1473
113719,194523,236389,3.5617164401,-1.8652052167000002,-8.901300072,1474
113679,194413,236343,3.6717862797,-2.03389921,-8.8905323703,1475
113724,194426,236379,3.6203405937999995,-1.9214365478,-8.865407733,1476
113773,194532,236351,3.6035908356,-1.9429719511999999,-8.865407733,1477
113781,194589,236466,3.7100714413,-2.0530417908,-8.7110706753,1478
113788,194703,236516,3.5844482548,-1.9716858223999998,-8.828318982699999,1479
113947,194828,236597,3.6023944243,-2.0662023151,-8.7864445872,1480
113994,194831,236636,3.5593236175,-1.9633109433,-8.8139620471,1481
114050,194850,236611,3.7507494254999996,-1.9345970721,-8.8797646686,1482
114062,194800,236511,3.4480573666,-1.9118652574,-8.8091764019,1483
114119,194852,236506,3.4803604716999996,-1.9058832009,-8.8713897895,1484
114197,194961,236562,3.5916267225999996,-1.8269200550999998,-8.8438723296,1485
114304,195187,236616,3.5916267225999996,-1.7036896912000001,-8.8091764019,1486
114353,195162,236652,3.5294133349999997,-1.8711872732,-8.85344362,1487
114251,194915,236495,3.6430724085,-1.8161523534,-8.865407733,1488
114131,194664,236299,3.4899317621,-1.7096717476999999,-8.8941216042,1489
113862,194296,236144,3.5126635768,-1.7886348934999998,-8.8630149104,1490
113598,194024,235998,3.4815568829999997,-1.8017954178,-8.8905323703,1491
113500,193917,235876,3.4025937372,-1.7072789251,-8.8139620471,1492
113271,193794,235763,3.4923245847,-1.7922241274,-8.846265152199999,1493
113182,193862,235819,3.5102707542,-1.7670994901,-8.9036928946,1494
113132,193916,235846,3.4384860762,-1.7515461432000001,-8.9682991048,1495
113117,193974,235923,3.5377882141000003,-1.7970097726,-8.8498543861,1496
113134,194128,235959,3.6215370051,-1.8089738856,-8.9539421692,1497
113174,194227,236027,3.4648071248,-1.7096717476999999,-8.925228298,1498
113209,194336,236067,3.565305674,-1.7611174336,-8.889335959,1499
113274,194382,236154,3.5509487384000002,-1.7994025952000001,-8.828318982699999,1500
113369,194421,236149,3.5545379723,-1.7694923127,-8.8965144268,1501
113412,194430,236231,3.5341989802,-1.7659030788,-8.9718883387,1502
113442,194531,236218,3.5377882141000003,-1.782652837,-8.8749790234,1503
113626,194574,236292,3.4755748265,-1.710868159,-8.8989072494,1504
113691,194582,236317,3.5760733757,-1.7024932798999999,-8.8929251929,1505
113780,194651,236356,3.5772697869999996,-1.8400805794,-8.913264185,1506
113883,194708,236418,3.5246276898,-1.7814564256999998,-8.817551281,1507
113967,194758,236374,3.4049865597999998,-1.7407784414999998,-8.918049830200001,1508
114087,194711,236395,3.5126635768,-1.7096717476999999,-8.8498543861,1509
114179,194727,236488,3.5222348672,-1.8281164664,-8.8354974505,1510
114216,194735,236400,3.4049865597999998,-1.7383856189,-8.8941216042,1511
114026,194383,236193,3.553341561,-1.7563317884,-8.8989072494,1512
113832,194066,236018,3.4624143022,-1.6833506991,-8.8510507974,1513
113539,193782,235813,3.4815568829999997,-1.6965112234000002,-8.9718883387,1514
113414,193550,235665,3.6454652310999998,-1.7515461432000001,-8.8797646686,1515
113209,193480,235637,3.5102707542,-1.7383856189,-8.7924266437,1516
113158,193531,235687,3.6239298277,-1.7754743692000001,-8.8905323703,1517
113046,193584,235681,3.3930224468000003,-1.8352949342,-8.8426759183,1518
