green,red,IR,acc_x,acc_y,acc_z,sample_index
66801,128064,176379,-6.381657874199999,4.0666020087,-6.2620167442,1
66658,128098,176397,-6.368497349899999,4.0965122912,-6.209374647,2
66713,128104,176423,-6.5156559398,3.9026936606000002,-6.3003019058,3
66869,128139,176368,-6.5240308189,3.8321053939,-6.3098731962,4
66983,128120,176420,-6.3948183985,3.9888352742,-6.324230131799999,5
67066,128142,176458,-6.385247108100001,3.9672998708,-6.339783478699999,6
67178,128217,176431,-6.5156559398,4.0043886211,-6.2548382764,7
67329,128201,176418,-6.4558353748,4.0486558392,-6.1698930741,8
67494,128209,176477,-6.4331035601,4.0007993872,-6.269195212,9
67704,128224,176515,-6.5096738833000005,4.0630127748,-6.245266986000001,10
67904,128260,176509,-6.4211394471,4.0486558392,-6.287141381500001,11
68091,128277,176491,-6.4618174313,3.9625142255999997,-6.2344992843,12
68284,128309,176551,-6.479763600799999,4.0785661217,-6.3086767849,13
68470,128315,176540,-6.5778693274,4.0486558392,-6.376872229,14
68648,128310,176528,-6.484549246,3.9529429352,-6.190232066199999,15
68833,128331,176556,-6.412764568,4.0773697104,-6.273980857200001,16
68970,128354,176571,-6.4689958991,4.0007993872,-6.3613188821,17
69143,128345,176555,-6.364908116,4.0701912426,-6.2548382764,18
69327,128385,176616,-6.412764568,3.996013742,-6.3385870674,19
69470,128401,176628,-6.5407805771,4.0235312019,-6.259623921599999,20
69500,128259,176565,-6.2656059781,4.0354953148999995,-6.1675002515,21
69002,128188,176510,-6.3996040437,4.0989051138,-6.2428741634,22
68210,128044,176415,-6.4498533183,3.9744783386,-6.2428741634,23
67569,128000,176335,-6.3996040437,3.9972101532999997,-6.2500526312,24
67151,127934,176290,-6.368497349899999,4.0486558392,-6.2823557362999995,25
66849,127954,176246,-6.3948183985,4.1647077353,-6.2715880346,26
66660,127897,176206,-6.400800455,3.9984065645999998,-6.2763736798,27
66599,127892,176207,-6.406782511499999,3.9481572899999997,-6.272784445899999,28
66703,127893,176194,-6.4773707782,3.9409788222,-6.3038911397,29
66789,127891,176230,-6.3493547691,4.1838503161,-6.233302873,30
66846,127895,176231,-6.4618174313,3.9756747499,-6.2955162605999995,31
66882,127908,176219,-6.4235322697,3.9553357578,-6.305087551,32
66997,127899,176244,-6.4917277138,3.936193177,-6.1866428323,33
67094,127919,176273,-6.3876399307,3.9457644674,-6.2009997679,34
67310,127988,176258,-6.4271215036000005,4.0737804765,-6.1998033565999995,35
67484,128025,176283,-6.5515482788,4.06779842,-6.2620167442,36
67678,128030,176309,-6.439085616600001,4.0295132584,-6.216553114800001,37
67868,128038,176327,-6.472585133,4.064209186099999,-6.2679988007,38
68055,128014,176298,-6.4905313025,4.091726646,-6.2524454538,39
68215,128010,176354,-6.448656907,3.9768711611999996,-6.269195212,40
68370,128011,176363,-6.5515482788,3.9637106368999997,-6.2225351713,41
68535,128099,176397,-6.4342999714,3.9852460403000003,-6.2297136391,42
68771,128202,176393,-6.4989061816,4.007977855,-6.3517475917,43
68923,128209,176388,-6.425925092299999,4.019941968,-6.384050696799999,44
68912,128175,176447,-6.3936219871999995,3.996013742,-6.228517227799999,45
68463,128089,176382,-6.343372712599999,3.9888352742,-6.369693761200001,46
67696,127990,176265,-6.5012990042,4.0654055974,-6.326622954399999,47
67124,127886,176222,-6.410371745399999,4.0366917262,-6.174678719299999,48
66762,127861,176166,-6.3924255759,4.0055850324,-6.3744794064,49
66522,127840,176177,-6.4893348911999995,4.0223347905999995,-6.232106461699999,50
66366,127789,176157,-6.3996040437,3.9553357578,-6.2536418651,51
66372,127816,176218,-6.4295143262,4.0115670889,-6.2644095668,52
66524,127879,176232,-6.3756758177,4.1024943476999995,-6.2428741634,53
66636,127878,176252,-6.3505511804,4.0378881375,-6.260820332899999,54
66610,127892,176186,-6.4582281974,4.1479579771,-6.2835521476,55
66711,127914,176254,-6.4689958991,4.0390845488,-6.324230131799999,56
66950,127943,176266,-6.4187466245,4.0498522505,-6.1986069453,57
67121,127972,176301,-6.46062102,3.9816568063999997,-6.2763736798,58
67322,127956,176293,-6.5288164641,3.9421752335,-6.3194444866,59
67532,128022,176372,-6.4342999714,3.9816568063999997,-6.2105710583,60
67741,128061,176348,-6.3577296482,4.0474594279,-6.2500526312,61
67937,128076,176395,-6.46062102,3.9373895883000003,-6.281159325,62
68140,128144,176375,-6.422335858399999,4.0881374121,-6.3134624300999995,63
68317,128142,176443,-6.479763600799999,3.9541393465,-6.2835521476,64
68510,128179,176459,-6.5108702946,4.030709669699999,-6.2273208165,65
68670,128200,176505,-6.355336825599999,4.0031922098,-6.287141381500001,66
68857,128232,176431,-6.604190375999999,4.1024943476999995,-6.3098731962,67
69035,128204,176514,-6.484549246,4.0450666053,-6.2512490425,68
68953,128242,176549,-6.339783478699999,3.9613178143,-6.2105710583,69
68545,128171,176435,-6.3960148098,4.115654872,-6.2309100503999995,70
67827,128033,176402,-6.479763600799999,4.0630127748,-6.2368921069,71
67206,127973,176312,-6.4139609793000005,4.0606199522,-6.2787665024,72
66824,127893,176307,-6.4570317861,4.1312082188999995,-6.2715880346,73
66574,127863,176270,-6.452246140900001,3.9996029759000002,-6.2524454538,74
66417,127844,176207,-6.4701923104,3.9014972492999997,-6.329015777,75
66426,127846,176277,-6.4414784392,4.0618163635,-6.2715880346,76
66530,127942,176306,-6.5647088031,4.1216369285,-6.148357670699999,77
66676,127927,176285,-6.4462640844,4.0522450731,-6.2787665024,78
66757,127933,176322,-6.439085616600001,4.0390845488,-6.269195212,79
66859,127914,176307,-6.5060846494,4.1455651545,-6.2656059781,80
67014,127936,176276,-6.5048882380999995,4.0582271296000005,-6.324230131799999,81
67232,128016,176348,-6.4319071488,4.0259240245,-6.2488562199,82
67413,128021,176385,-6.4594246087,4.031906081,-6.1722858967,83
67605,128079,176389,-6.356533236900001,4.0175491454,-6.2344992843,84
67817,128081,176428,-6.4630138426,3.9338003543999998,-6.1890356549,85
68014,128106,176411,-6.4654066652,4.0713876539,-6.281159325,86
68222,128151,176444,-6.4869420686,4.031906081,-6.1962141227,87
68376,128146,176460,-6.5946190856,3.9864424516000003,-6.245266986000001,88
68577,128186,176510,-6.439085616600001,4.0701912426,-6.2249279939,89
68739,128208,176530,-6.4570317861,4.1168512833,-6.174678719299999,90
68922,128239,176509,-6.3589260595,4.0007993872,-6.2524454538,91
69122,128275,176551,-6.3158552527000005,4.0235312019,-6.270391623299999,92
69156,128255,176569,-6.4438712618,4.0881374121,-6.1507504933,93
68682,128160,176521,-6.410371745399999,4.0498522505,-6.2835521476,94
67931,127933,176411,-6.439085616600001,3.9433716447999996,-6.216553114800001,95
67356,127892,176330,-6.4438712618,4.030709669699999,-6.3314085996000005,96
66980,127857,176316,-6.327819365700001,3.9170505962,-6.3637117047,97
66725,127853,176302,-6.5192451737,4.007977855,-6.1579289611,98
66564,127856,176305,-6.4235322697,4.0522450731,-6.2380885182,99
66540,127886,176299,-6.3314085996000005,4.0103706776,-6.3601224708,100
66681,127929,176268,-6.437889205299999,4.0031922098,-6.270391623299999,101
66815,127915,176350,-6.3900327533,4.0139599115,-6.314658841399999,102
66915,127937,176336,-6.4307107375,4.0654055974,-6.356533236900001,103
67005,127927,176372,-6.4630138426,4.0462630166,-6.3074803736,104
67153,127996,176362,-6.452246140900001,3.9230326527000003,-6.3218373092,105
67296,127956,176398,-6.544369811,3.9050864832,-6.2380885182,106
67489,128015,176400,-6.4247286809999995,3.9577285803999995,-6.3505511804,107
67715,128050,176475,-6.4414784392,4.0223347905999995,-6.2883377928,108
67905,128101,176451,-6.5814585613,3.984049629,-6.2536418651,109
68116,128169,176483,-6.6125652551,4.0689948312999995,-6.2787665024,110
68342,128169,176490,-6.3924255759,4.0450666053,-6.285944970199999,111
68494,128150,176537,-6.451049729599999,3.9720855159999995,-6.302694728400001,112
68675,128165,176528,-6.592226263000001,4.0271204358,-6.2632131555,113
68830,128193,176551,-6.4043896889,3.9649070482,-6.2524454538,114
69021,128279,176551,-6.5036918268,3.8991044267,-6.3661045273,115
69224,128261,176564,-6.439085616600001,4.0857445895,-6.356533236900001,116
69241,128255,176569,-6.3960148098,4.1336010414999995,-6.2919270267,117
68736,128093,176551,-6.422335858399999,4.0115670889,-6.259623921599999,118
67987,127949,176420,-6.4582281974,3.9912280968,-6.2488562199,119
67420,127900,176346,-6.4917277138,4.0127635002,-6.2273208165,120
67044,127849,176294,-6.3900327533,3.9589249917,-6.2883377928,121
66779,127783,176268,-6.3326050109,3.9266218866,-6.2775700911,122
66637,127800,176242,-6.559923157899999,4.0965122912,-6.228517227799999,123
66603,127769,176287,-6.3493547691,3.9912280968,-6.2979090831999995,124
66681,127783,176265,-6.3445691239,4.0007993872,-6.343372712599999,125
66762,127823,176281,-6.5156559398,3.9936209194,-6.2679988007,126
66820,127804,176278,-6.4654066652,4.0534414844,-6.2644095668,127
66865,127801,176236,-6.2356956956000005,4.0857445895,-6.3720865838,128
66968,127824,176274,-6.397211221099999,4.0785661217,-6.285944970199999,129
67120,127797,176289,-6.467799487800001,4.0941194686,-6.2153567034999995,130
67276,127874,176337,-6.4295143262,3.9385859996,-6.289534204100001,131
67513,127916,176382,-6.4977097703,3.8931223702,-6.3218373092,132
67664,127934,176350,-6.479763600799999,3.9744783386,-6.2249279939,133
67852,127964,176405,-6.4402820279,4.019941968,-6.2309100503999995,134
68028,127972,176408,-6.3493547691,4.064209186099999,-6.299105494500001,135
68193,127993,176421,-6.5515482788,3.9373895883000003,-6.3756758177,136
68322,127998,176442,-6.480960012100001,4.0833517669,-6.3708901725,137
68496,128108,176464,-6.3744794064,3.9936209194,-6.2668023894,138
68681,128137,176489,-6.3302121883,4.0007993872,-6.3003019058,139
68786,128081,176450,-6.4438712618,4.0618163635,-6.2979090831999995,140
68508,128028,176433,-6.5371913432,3.984049629,-6.2524454538,141
67766,127802,176375,-6.5551375127,4.0474594279,-6.2847485589,142
67081,127747,176302,-6.425925092299999,3.8859439023999998,-6.4139609793000005,143
66615,127732,176247,-6.2751772685,4.0366917262,-6.2907306154,144
66317,127749,176265,-6.4079789228,3.996013742,-6.2548382764,145
66145,127726,176224,-6.4043896889,4.0654055974,-6.2548382764,146
66023,127741,176246,-6.5419769884,4.0247276132000005,-6.2907306154,147
66117,127749,176280,-6.436692794,4.0354953148999995,-6.2524454538,148
66243,127705,176290,-6.464210253899999,3.9756747499,-6.3194444866,149
66317,127774,176304,-6.5036918268,4.019941968,-6.2883377928,150
66447,127842,176328,-6.3792650516,4.0474594279,-6.2979090831999995,151
66516,127858,176340,-6.4450676731,4.0103706776,-6.3302121883,152
66682,127919,176349,-6.5300128754,3.9230326527000003,-6.2273208165,153
66875,127978,176376,-6.562315980499999,4.0342989036,-6.1698930741,154
67046,128008,176444,-6.3984076324000005,4.0905302347,-6.3936219871999995,155
67296,128041,176466,-6.5527446901,3.9529429352,-6.2117674696,156
67470,128017,176489,-6.3481583578,4.0510486617999995,-6.3218373092,157
67698,128125,176523,-6.4043896889,4.0211383793,-6.245266986000001,158
67909,128170,176538,-6.4917277138,3.9696926934,-6.385247108100001,159
68106,128201,176582,-6.3876399307,4.0414773714,-6.3206408979,160
68294,128241,176606,-6.2883377928,4.0474594279,-6.2356956956000005,161
68423,128238,176623,-6.381657874199999,3.9134613623,-6.228517227799999,162
68595,128291,176665,-6.549155456199999,4.1599220901,-6.299105494500001,163
68773,128315,176673,-6.4450676731,4.0366917262,-6.329015777,164
68505,128244,176640,-6.4450676731,4.0103706776,-6.2261244052,165
67743,128079,176555,-6.4713887217,4.019941968,-6.317051664,166
66982,127989,176449,-6.4115681567000005,4.055834307,-6.2201423487000005,167
66445,127945,176403,-6.4594246087,3.9816568063999997,-6.3098731962,168
66021,127883,176349,-6.364908116,3.996013742,-6.2883377928,169
65736,127805,176291,-6.518048762399999,3.9194434188,-6.281159325,170
65577,127800,176339,-6.4055861002,3.936193177,-6.287141381500001,171
65652,127878,176324,-6.317051664,3.8943187815,-6.2668023894,172
65792,127893,176356,-6.4307107375,3.996013742,-6.281159325,173
65881,127895,176378,-6.3864435194,4.0833517669,-6.34097989,174
65954,127876,176398,-6.6364934811000005,4.1012979364,-6.2620167442,175
66075,127860,176402,-6.508477471999999,4.0378881375,-6.3661045273,176
66221,127945,176392,-6.400800455,3.9852460403000003,-6.3074803736,177
66428,127973,176437,-6.436692794,4.0271204358,-6.2835521476,178
66633,128059,176432,-6.5252272302000005,4.0175491454,-6.3194444866,179
66892,128077,176490,-6.3589260595,3.9086757171,-6.2632131555,180
67047,128081,176507,-6.3445691239,4.1551364449,-6.3385870674,181
67250,128129,176493,-6.4773707782,4.0462630166,-6.1962141227,182
67433,128114,176536,-6.3254265431,4.0390845488,-6.326622954399999,183
67591,128116,176543,-6.4438712618,3.9744783386,-6.343372712599999,184
67757,128143,176540,-6.5012990042,4.1479579771,-6.2632131555,185
67935,128081,176555,-6.4462640844,4.0582271296000005,-6.1220366221,186
68115,128138,176590,-6.5228344076,4.007977855,-6.281159325,187
68296,128208,176634,-6.3960148098,4.091726646,-6.2799629137,188
68152,128034,176532,-6.4091753340999995,4.0414773714,-6.212963880899999,189
67471,127937,176478,-6.3493547691,4.1383866867,-6.293123438,190
66623,127844,176341,-6.4462640844,3.9864424516000003,-6.2428741634,191
66025,127750,176311,-6.4881384799,4.0378881375,-6.281159325,192
65629,127662,176265,-6.4319071488,4.0247276132000005,-6.260820332899999,193
65354,127685,176204,-6.412764568,4.0235312019,-6.2584275103,194
65204,127673,176184,-6.4307107375,4.030709669699999,-6.1962141227,195
65212,127650,176178,-6.4247286809999995,4.139583098,-6.2668023894,196
65345,127705,176225,-6.4773707782,4.0630127748,-6.352944002999999,197
65432,127712,176174,-6.4295143262,4.0654055974,-6.1890356549,198
65492,127740,176181,-6.369693761200001,4.0235312019,-6.4091753340999995,199
65498,127709,176208,-6.3493547691,3.9577285803999995,-6.2835521476,200
65716,127728,176236,-6.4438712618,4.030709669699999,-6.260820332899999,201
65853,127713,176237,-6.4307107375,3.9792639838,-6.2536418651,202
66072,127772,176207,-6.6149580777,4.0737804765,-6.2153567034999995,203
66255,127842,176309,-6.3912291645999995,3.9936209194,-6.2404813408,204
66439,127818,176250,-6.591029851699999,4.1455651545,-6.3194444866,205
66637,127809,176271,-6.3804614629,4.0366917262,-6.3314085996000005,206
66831,127840,176311,-6.5204415849999995,4.1001015251,-6.3218373092,207
66940,127848,176321,-6.4654066652,4.0594235409,-6.2309100503999995,208
67113,127859,176337,-6.4235322697,3.9302111204999997,-6.2404813408,209
67278,127896,176336,-6.5742800935,4.0725840652,-6.2428741634,210
67459,127919,176345,-6.3517475917,3.9936209194,-6.3074803736,211
67611,127895,176363,-6.46062102,4.0570307183,-6.2644095668,212
67416,127801,176334,-6.3924255759,3.9625142255999997,-6.245266986000001,213
66633,127674,176243,-6.5132631172,3.9708891047,-6.2524454538,214
65854,127641,176160,-6.368497349899999,3.9756747499,-6.281159325,215
65292,127603,176059,-6.3948183985,4.1371902754,-6.3003019058,216
64976,127475,176050,-6.4163538019,4.0127635002,-6.2668023894,217
64733,127483,176063,-6.6101724325,4.0055850324,-6.1866428323,218
64642,127515,176045,-6.3948183985,4.1359938641000005,-6.3254265431,219
64707,127512,176032,-6.5288164641,4.0486558392,-6.317051664,220
64864,127540,176073,-6.4414784392,4.1431723319,-6.2344992843,221
64959,127578,176079,-6.4175502132,3.960121403,-6.3098731962,222
65053,127597,176106,-6.4857456573,3.9649070482,-6.3003019058,223
65195,127628,176153,-6.4821564234,4.0366917262,-6.3924255759,224
65353,127653,176164,-6.342176301299999,4.0426737827,-6.326622954399999,225
65537,127696,176172,-6.472585133,3.9936209194,-6.22133876,226
65758,127757,176238,-6.5395841658,4.0378881375,-6.2273208165,227
65901,127800,176237,-6.4163538019,3.960121403,-6.281159325,228
66210,127808,176311,-6.467799487800001,4.0295132584,-6.257231098999999,229
66442,127892,176297,-6.3601224708,4.0007993872,-6.2428741634,230
66677,127932,176362,-6.3637117047,4.1168512833,-6.2225351713,231
66881,127956,176408,-6.4881384799,4.0342989036,-6.3314085996000005,232
67129,128016,176446,-6.439085616600001,3.9278182979,-6.384050696799999,233
67266,127942,176418,-6.4139609793000005,4.0737804765,-6.3003019058,234
67402,128063,176513,-6.479763600799999,4.1324046302,-6.2548382764,235
67695,128127,176497,-6.3673009386,4.001995798499999,-6.285944970199999,236
67865,128153,176509,-6.419943035799999,4.0965122912,-6.281159325,237
67721,128007,176512,-6.4582281974,4.0055850324,-6.269195212,238
67011,127922,176455,-6.4079789228,4.0773697104,-6.2404813408,239
66195,127922,176364,-6.534798520600001,3.9732819273,-6.2428741634,240
65542,127809,176285,-6.3481583578,3.9338003543999998,-6.2045890018000005,241
65097,127801,176322,-6.436692794,4.030709669699999,-6.2644095668,242
64785,127706,176202,-6.4761743669,3.9924245080999996,-6.385247108100001,243
64590,127688,176195,-6.532405698,4.097708702499999,-6.272784445899999,244
64600,127726,176213,-6.3996040437,4.0103706776,-6.2763736798,245
64729,127760,176272,-6.3732829951,3.9984065645999998,-6.177071541899999,246
64844,127795,176243,-6.4271215036000005,3.9565321691,-6.244070574699999,247
64853,127806,176279,-6.5108702946,4.0342989036,-6.197410534,248
65023,127817,176292,-6.480960012100001,4.1048871703,-6.3577296482,249
65167,127747,176303,-6.4414784392,3.984049629,-6.2955162605999995,250
65338,127799,176329,-6.3900327533,3.9254254753,-6.2979090831999995,251
65551,127867,176382,-6.4271215036000005,3.8464623295,-6.2715880346,252
65804,127959,176355,-6.4175502132,4.0450666053,-6.326622954399999,253
65986,127975,176372,-6.5288164641,3.9625142255999997,-6.197410534,254
66197,128025,176421,-6.3613188821,4.0725840652,-6.281159325,255
66410,128052,176460,-6.4247286809999995,4.007977855,-6.2644095668,256
66642,128101,176476,-6.436692794,3.9625142255999997,-6.218945937399999,257
66822,128138,176532,-6.4474604957,4.1862431387,-6.2979090831999995,258
67028,128188,176490,-6.4713887217,4.1431723319,-6.2907306154,259
67154,128124,176546,-6.410371745399999,3.9720855159999995,-6.209374647,260
67352,128173,176544,-6.4773707782,3.9912280968,-6.3122660188,261
67554,128254,176592,-6.5012990042,4.0749768878,-6.3218373092,262
67558,128219,176555,-6.4654066652,4.0007993872,-6.2344992843,263
66975,128129,176504,-6.412764568,4.0989051138,-6.3218373092,264
66050,128003,176441,-6.467799487800001,4.0175491454,-6.3314085996000005,265
65330,127955,176361,-6.4295143262,3.9720855159999995,-6.2476598086,266
64848,127881,176287,-6.384050696799999,4.0342989036,-6.2344992843,267
64531,127839,176239,-6.4438712618,3.8847474911,-6.190232066199999,268
64314,127807,176244,-6.4462640844,3.9888352742,-6.326622954399999,269
64264,127811,176197,-6.502495415499999,3.9338003543999998,-6.3517475917,270
64363,127823,176233,-6.472585133,3.9672998708,-6.3361942448,271
64497,127762,176237,-6.5838513839,4.0785661217,-6.2368921069,272
64598,127775,176211,-6.484549246,4.0474594279,-6.314658841399999,273
64674,127789,176259,-6.4761743669,3.9649070482,-6.3218373092,274
64792,127812,176303,-6.3948183985,4.0737804765,-6.244070574699999,275
64959,127885,176273,-6.4534425522,4.0342989036,-6.343372712599999,276
65129,127914,176298,-6.4247286809999995,4.0402809601,-6.2955162605999995,277
65353,127852,176315,-6.531209286699999,4.1431723319,-6.2368921069,278
65565,127993,176341,-6.4594246087,4.0618163635,-6.2668023894,279
65762,127988,176358,-6.5252272302000005,4.0366917262,-6.2476598086,280
65985,128013,176335,-6.419943035799999,4.0845481781999995,-6.2548382764,281
66169,128017,176385,-6.3720865838,4.06779842,-6.2476598086,282
66377,128090,176364,-6.327819365700001,3.960121403,-6.2763736798,283
66590,128107,176351,-6.419943035799999,3.9864424516000003,-6.273980857200001,284
66728,128127,176402,-6.324230131799999,4.0414773714,-6.3708901725,285
66934,128178,176425,-6.406782511499999,3.9290147091999996,-6.2464633973,286
67124,128184,176446,-6.3589260595,3.9541393465,-6.2344992843,287
67119,128155,176418,-6.5048882380999995,3.9505501125999998,-6.1818571871,288
66549,128127,176378,-6.5455662223,3.9098721283999995,-6.2177495260999995,289
65684,127929,176263,-6.4773707782,4.007977855,-6.177071541899999,290
65050,127780,176180,-6.3948183985,4.0127635002,-6.3984076324000005,291
64634,127784,176140,-6.4426748505,4.0271204358,-6.3708901725,292
64363,127672,176075,-6.4319071488,3.8823546685,-6.3003019058,293
64190,127638,176074,-6.5647088031,4.0785661217,-6.218945937399999,294
64197,127633,176071,-6.4821564234,4.0534414844,-6.2356956956000005,295
64324,127653,176111,-6.5300128754,4.0139599115,-6.2404813408,296
64432,127652,176093,-6.4869420686,3.9649070482,-6.3361942448,297
64497,127750,176108,-6.3936219871999995,3.9936209194,-6.2117674696,298
64578,127748,176069,-6.4917277138,4.140779509300001,-6.329015777,299
64714,127775,176142,-6.5551375127,4.001995798499999,-6.2344992843,300
64887,127793,176173,-6.422335858399999,4.115654872,-6.241677752099999,301
65070,127829,176168,-6.467799487800001,4.0881374121,-6.3756758177,302
65260,127860,176183,-6.4869420686,4.0450666053,-6.3194444866,303
65514,127901,176212,-6.5742800935,3.8847474911,-6.2979090831999995,304
65728,127964,176222,-6.5718872709,4.0414773714,-6.2273208165,305
65904,127985,176273,-6.5204415849999995,4.0378881375,-6.2500526312,306
66138,128079,176250,-6.3302121883,3.9218362414,-6.3338014222,307
66312,128051,176275,-6.5060846494,3.9672998708,-6.305087551,308
66456,128058,176292,-6.2512490425,3.9744783386,-6.2835521476,309
66670,128092,176314,-6.3900327533,4.1060835816,-6.216553114800001,310
66844,128168,176346,-6.4139609793000005,4.0151563228,-6.302694728400001,311
66998,128045,176389,-6.4043896889,3.9553357578,-6.3218373092,312
66799,128143,176362,-6.5228344076,3.9672998708,-6.3613188821,313
66058,128039,176262,-6.368497349899999,4.0474594279,-6.314658841399999,314
65287,127960,176215,-6.3182480753000005,4.1168512833,-6.2835521476,315
64736,127905,176158,-6.4438712618,4.0630127748,-6.212963880899999,316
64376,127855,176131,-6.4187466245,3.8955151927999996,-6.257231098999999,317
64130,127826,176108,-6.3373906561,4.064209186099999,-6.2297136391,318
63976,127839,176093,-6.467799487800001,4.079762533,-6.1818571871,319
64081,127861,176130,-6.3445691239,3.9816568063999997,-6.269195212,320
64220,127841,176112,-6.3984076324000005,4.0546378957,-6.285944970199999,321
64322,127873,176122,-6.4618174313,4.0223347905999995,-6.2177495260999995,322
64415,127927,176162,-6.2967126719,4.0630127748,-6.3218373092,323
64525,127901,176140,-6.3493547691,4.1706897918,-6.305087551,324
64694,127834,176151,-6.4534425522,4.0007993872,-6.273980857200001,325
64907,128004,176213,-6.4175502132,3.9409788222,-6.3625152933999995,326
65144,128057,176241,-6.4115681567000005,4.113262049399999,-6.3218373092,327
65307,128047,176274,-6.3984076324000005,3.9529429352,-6.2392849295,328
65508,128089,176234,-6.4235322697,4.0486558392,-6.3960148098,329
65748,128106,176307,-6.4187466245,4.0223347905999995,-6.1603217837,330
65859,128135,176319,-6.4869420686,3.9385859996,-6.2979090831999995,331
66171,128178,176314,-6.451049729599999,3.9792639838,-6.2799629137,332
66358,128222,176356,-6.419943035799999,4.0414773714,-6.289534204100001,333
66537,128233,176353,-6.5204415849999995,4.0283168471,-6.2883377928,334
66710,128259,176380,-6.5300128754,4.0534414844,-6.2835521476,335
66911,128316,176413,-6.5479590449,4.031906081,-6.3505511804,336
67090,128359,176461,-6.3158552527000005,3.9266218866,-6.2524454538,337
67023,128346,176405,-6.3349978335,3.9481572899999997,-6.2380885182,338
66353,128258,176341,-6.5407805771,3.9565321691,-6.2488562199,339
65510,128157,176241,-6.4869420686,3.9888352742,-6.301498317099999,340
64921,128098,176193,-6.3134624300999995,3.9637106368999997,-6.3744794064,341
64531,128017,176191,-6.3062839623,3.9684962821,-6.257231098999999,342
64257,128004,176145,-6.4175502132,4.0582271296000005,-6.34097989,343
64097,127969,176103,-6.2955162605999995,4.0474594279,-6.257231098999999,344
64108,127980,176116,-6.4917277138,3.9984065645999998,-6.343372712599999,345
64252,128001,176170,-6.5862442065,4.0809589443,-6.1842500096999995,346
64355,128009,176178,-6.352944002999999,4.0594235409,-6.2512490425,347
64448,128034,176141,-6.4426748505,4.0342989036,-6.2787665024,348
64568,128071,176135,-6.4342999714,3.9589249917,-6.2237315826,349
64691,128092,176203,-6.5060846494,4.0606199522,-6.3003019058,350
64888,128117,176231,-6.4654066652,3.9756747499,-6.2799629137,351
65092,128144,176192,-6.3912291645999995,4.0761732991,-6.212963880899999,352
65303,128122,176258,-6.329015777,4.0007993872,-6.1938213001,353
65502,128195,176275,-6.576672916100001,3.9828532177,-6.3098731962,354
65730,128215,176314,-6.385247108100001,4.0953158799,-6.1411792029,355
65951,128149,176337,-6.5647088031,3.8668013215999997,-6.285944970199999,356
66158,128195,176317,-6.5060846494,4.0151563228,-6.259623921599999,357
66340,128255,176328,-6.5012990042,3.9924245080999996,-6.257231098999999,358
66510,128289,176384,-6.5036918268,4.0546378957,-6.260820332899999,359
66684,128361,176356,-6.3326050109,4.1240297511,-6.2380885182,360
66961,128387,176361,-6.4582281974,4.06779842,-6.2847485589,361
67100,128405,176411,-6.4582281974,4.043870194,-6.327819365700001,362
67074,128376,176435,-6.4151573906,3.9409788222,-6.269195212,363
66360,128273,176308,-6.4881384799,3.8919259589,-6.3804614629,364
65634,128172,176227,-6.4139609793000005,4.0989051138,-6.2021961791999995,365
64946,128095,176157,-6.412764568,3.984049629,-6.2273208165,366
64635,128069,176134,-6.439085616600001,4.0007993872,-6.2668023894,367
64381,128010,176078,-6.479763600799999,4.0139599115,-6.364908116,368
64195,128059,176077,-6.531209286699999,4.0043886211,-6.2668023894,369
64205,128057,176057,-6.532405698,4.001995798499999,-6.2668023894,370
64350,128071,176114,-6.451049729599999,4.0486558392,-6.2620167442,371
64483,128038,176092,-6.4773707782,4.0821553556,-6.3003019058,372
64552,128059,176059,-6.5874406178,4.0869410008000004,-6.2261244052,373
64632,128066,176097,-6.4307107375,3.8895331363000003,-6.2823557362999995,374
64769,128031,176128,-6.4773707782,3.960121403,-6.324230131799999,375
64939,128069,176146,-6.467799487800001,3.9816568063999997,-6.2081782357,376
65139,128113,176147,-6.3756758177,3.9804603951,-6.287141381500001,377
65351,128178,176157,-6.317051664,4.097708702499999,-6.2081782357,378
65575,128214,176192,-6.4019968663,4.019941968,-6.301498317099999,379
65779,128223,176224,-6.591029851699999,4.0390845488,-6.1962141227,380
66018,128179,176239,-6.3445691239,3.9254254753,-6.302694728400001,381
66196,128213,176197,-6.3960148098,4.0486558392,-6.2668023894,382
66370,128234,176226,-6.4773707782,4.0390845488,-6.228517227799999,383
66536,128249,176238,-6.3481583578,3.9625142255999997,-6.2512490425,384
66717,128305,176269,-6.406782511499999,3.9720855159999995,-6.2835521476,385
66930,128343,176295,-6.5778693274,4.043870194,-6.4079789228,386
67044,128315,176228,-6.518048762399999,3.9864424516000003,-6.244070574699999,387
66755,128317,176228,-6.4558353748,3.9314075318,-6.2105710583,388
65982,128174,176129,-6.5240308189,3.936193177,-6.2979090831999995,389
65265,128073,176016,-6.4019968663,4.030709669699999,-6.314658841399999,390
64800,128013,175966,-6.4737815442999995,3.9649070482,-6.314658841399999,391
64534,127958,175946,-6.4869420686,4.1048871703,-6.1986069453,392
64318,127937,175881,-6.4031932776,3.9649070482,-6.228517227799999,393
64246,127945,175902,-6.3158552527000005,4.0869410008000004,-6.2883377928,394
64340,127960,175937,-6.451049729599999,4.0666020087,-6.324230131799999,395
64444,127944,175907,-6.400800455,4.1001015251,-6.206981824400001,396
64490,127896,175863,-6.5132631172,4.0833517669,-6.22133876,397
64570,127847,175934,-6.4450676731,4.1012979364,-6.2500526312,398
64684,127891,175882,-6.5694944482999995,4.092923057299999,-6.257231098999999,399
64870,128017,175964,-6.533602109299999,4.0366917262,-6.2907306154,400
65049,128022,175997,-6.3732829951,3.9517465239000003,-6.2081782357,401
65256,128049,176000,-6.3349978335,4.0187455567,-6.281159325,402
65450,128068,176005,-6.299105494500001,4.0426737827,-6.2548382764,403
65658,128100,176050,-6.484549246,4.0486558392,-6.2548382764,404
65894,128137,176058,-6.410371745399999,4.0342989036,-6.2057854131,405
66101,128188,176077,-6.4319071488,4.0570307183,-6.2644095668,406
66259,128209,176124,-6.4737815442999995,4.0007993872,-6.2548382764,407
66455,128239,176153,-6.368497349899999,4.0067814437,-6.2763736798,408
66631,128308,176168,-6.496513359000001,4.0426737827,-6.2356956956000005,409
66815,128277,176177,-6.4331035601,3.9565321691,-6.293123438,410
67012,128335,176211,-6.5204415849999995,3.8727833781,-6.2225351713,411
67216,128347,176224,-6.5012990042,3.996013742,-6.3074803736,412
67222,128329,176222,-6.439085616600001,3.9744783386,-6.281159325,413
66687,128205,176154,-6.4019968663,4.0689948312999995,-6.2464633973,414
65872,128106,176076,-6.484549246,4.0414773714,-6.1938213001,415
65216,128017,176026,-6.4833528347,4.0127635002,-6.3577296482,416
64782,128033,175970,-6.436692794,3.9314075318,-6.2847485589,417
64477,128034,175926,-6.4019968663,4.0271204358,-6.3110696074999995,418
64239,127990,175947,-6.3338014222,4.0689948312999995,-6.2153567034999995,419
64164,127988,175922,-6.422335858399999,4.0953158799,-6.3218373092,420
64253,127896,175959,-6.342176301299999,3.9625142255999997,-6.3230337205,421
64384,127963,175995,-6.352944002999999,3.9996029759000002,-6.1890356549,422
64459,128040,175961,-6.5168523511,3.9649070482,-6.287141381500001,423
64552,128082,175965,-6.496513359000001,3.9984065645999998,-6.2883377928,424
64675,128091,175975,-6.5455662223,4.0701912426,-6.3601224708,425
64856,128076,176031,-6.425925092299999,3.9768711611999996,-6.3457655352,426
65052,128118,176060,-6.419943035799999,4.0283168471,-6.2955162605999995,427
65277,128219,176065,-6.550351867499999,4.0271204358,-6.2644095668,428
65494,128207,176066,-6.4319071488,4.0426737827,-6.233302873,429
65706,128233,176114,-6.4151573906,4.0893338234,-6.343372712599999,430
65928,128145,176135,-6.5359949319,4.007977855,-6.352944002999999,431
66118,128270,176191,-6.5455662223,4.0175491454,-6.2668023894,432
66336,128281,176195,-6.467799487800001,4.0462630166,-6.233302873,433
66513,128321,176204,-6.3936219871999995,4.0689948312999995,-6.244070574699999,434
66681,128387,176207,-6.492924125099999,3.9672998708,-6.342176301299999,435
66865,128374,176243,-6.467799487800001,4.0534414844,-6.1890356549,436
67041,128420,176295,-6.5838513839,3.9792639838,-6.3003019058,437
67230,128385,176235,-6.479763600799999,3.9469608787,-6.2464633973,438
67448,128485,176302,-6.4139609793000005,4.0689948312999995,-6.2153567034999995,439
67325,128417,176223,-6.355336825599999,4.1910287839,-6.1639110176,440
66585,128341,176222,-6.5300128754,4.0378881375,-6.3194444866,441
65867,128156,176085,-6.4342999714,4.0725840652,-6.22133876,442
65320,128101,176045,-6.4474604957,4.0534414844,-6.2656059781,443
64918,128061,176057,-6.4043896889,3.8488551521,-6.2787665024,444
64648,128118,176012,-6.4701923104,4.001995798499999,-6.3708901725,445
64453,128096,175999,-6.376872229,4.0618163635,-6.314658841399999,446
64451,128109,175994,-6.4989061816,3.9529429352,-6.2751772685,447
64568,128109,175983,-6.410371745399999,4.0235312019,-6.302694728400001,448
64686,128097,176011,-6.4115681567000005,3.9637106368999997,-6.2847485589,449
64770,128111,175971,-6.5228344076,4.0055850324,-6.3314085996000005,450
64849,128135,175972,-6.5204415849999995,4.1252261624,-6.3122660188,451
64993,128155,176044,-6.4582281974,4.0941194686,-6.3732829951,452
65172,128163,176056,-6.4115681567000005,3.9732819273,-6.2464633973,453
65401,128197,176052,-6.4701923104,4.1096728155,-6.1986069453,454
65607,128216,176060,-6.3912291645999995,3.9768711611999996,-6.2536418651,455
65826,128289,176105,-6.546762633599999,4.0510486617999995,-6.269195212,456
66026,128320,176127,-6.448656907,4.0354953148999995,-6.233302873,457
66164,128297,176141,-6.5060846494,4.1120656381,-6.2297136391,458
66437,128237,176173,-6.5012990042,4.1730826144,-6.2344992843,459
66634,128322,176162,-6.3996040437,4.0103706776,-6.2883377928,460
66816,128381,176174,-6.448656907,4.0295132584,-6.2943198493,461
67030,128408,176246,-6.3613188821,3.9816568063999997,-6.305087551,462
67193,128450,176208,-6.46062102,4.0342989036,-6.3948183985,463
67400,128409,176223,-6.4749779556,4.1240297511,-6.22133876,464
67583,128485,176251,-6.3732829951,3.9349967657,-6.2081782357,465
67452,128439,176232,-6.4402820279,4.0283168471,-6.1866428323,466
66815,128373,176179,-6.5706908596,4.0067814437,-6.287141381500001,467
66126,128292,176057,-6.384050696799999,4.1012979364,-6.364908116,468
65665,128195,176055,-6.467799487800001,3.9529429352,-6.203392590499999,469
65408,128155,175982,-6.4175502132,3.9385859996,-6.2751772685,470
65134,128149,175955,-6.4893348911999995,4.0785661217,-6.299105494500001,471
65112,128064,175953,-6.4582281974,4.0283168471,-6.329015777,472
65148,128160,175967,-6.5060846494,3.8919259589,-6.285944970199999,473
65241,128120,175947,-6.436692794,3.9852460403000003,-6.2404813408,474
65292,128137,175978,-6.422335858399999,4.0378881375,-6.190232066199999,475
65356,128122,175939,-6.4414784392,4.1216369285,-6.2679988007,476
65433,128119,175899,-6.5132631172,3.9014972492999997,-6.2919270267,477
65525,128127,175933,-6.381657874199999,4.031906081,-6.327819365700001,478
65683,128142,175947,-6.4558353748,4.0295132584,-6.269195212,479
65853,128180,175955,-6.3661045273,4.0390845488,-6.1531433159,480
66043,128221,175988,-6.3900327533,4.0809589443,-6.174678719299999,481
66238,128194,175994,-6.5300128754,4.1168512833,-6.293123438,482
66429,128214,175969,-6.4079789228,4.0055850324,-6.257231098999999,483
66598,128284,176011,-6.5001025929,3.8727833781,-6.218945937399999,484
66808,128272,175988,-6.425925092299999,4.0666020087,-6.2787665024,485
66954,128282,175990,-6.5072810607,3.9888352742,-6.281159325,486
67109,128303,176029,-6.4235322697,4.031906081,-6.190232066199999,487
67270,128311,176045,-6.5012990042,4.0331024923,-6.3912291645999995,488
67461,128237,176085,-6.467799487800001,3.9625142255999997,-6.388836342,489
67605,128374,176058,-6.412764568,3.936193177,-6.3218373092,490
67429,128313,176070,-6.4151573906,4.0701912426,-6.2249279939,491
66773,128286,176012,-6.3804614629,4.0546378957,-6.285944970199999,492
66062,128195,175926,-6.4869420686,3.9912280968,-6.2009997679,493
65595,128117,175893,-6.397211221099999,4.0498522505,-6.437889205299999,494
65287,128085,175850,-6.364908116,4.0067814437,-6.2273208165,495
65049,128041,175804,-6.532405698,3.9876388629,-6.270391623299999,496
64944,128043,175817,-6.4163538019,3.9672998708,-6.3481583578,497
65010,128039,175831,-6.4019968663,4.0618163635,-6.364908116,498
65124,128062,175844,-6.3445691239,4.007977855,-6.2105710583,499
65226,128068,175872,-6.5671016257,4.0331024923,-6.259623921599999,500
65337,128143,175842,-6.3445691239,4.0845481781999995,-6.2679988007,501
65409,128101,175850,-6.4247286809999995,4.0007993872,-6.2751772685,502
65482,128132,175900,-6.492924125099999,3.9876388629,-6.3122660188,503
65766,128144,175923,-6.4175502132,4.0366917262,-6.2907306154,504
65963,128130,175915,-6.435496382699999,4.0450666053,-6.3314085996000005,505
66172,128170,175957,-6.436692794,3.996013742,-6.2081782357,506
66371,128251,175992,-6.508477471999999,4.0905302347,-6.3577296482,507
66589,128291,176063,-6.388836342,4.0809589443,-6.3732829951,508
66795,128327,176008,-6.3780686402999995,3.9505501125999998,-6.343372712599999,509
66987,128266,176013,-6.484549246,4.1910287839,-6.2249279939,510
67196,128312,176060,-6.4701923104,3.9912280968,-6.245266986000001,511
67370,128382,176070,-6.4283179149,3.9481572899999997,-6.3254265431,512
67553,128412,176121,-6.531209286699999,4.030709669699999,-6.2883377928,513
67718,128428,176120,-6.5838513839,3.960121403,-6.2883377928,514
67931,128456,176167,-6.46062102,3.984049629,-6.376872229,515
68081,128497,176158,-6.4342999714,4.0007993872,-6.281159325,516
67995,128372,176109,-6.5671016257,3.9768711611999996,-6.2763736798,517
67340,128382,176044,-6.2560346877,4.0151563228,-6.3541404143,518
66667,128265,176022,-6.422335858399999,4.030709669699999,-6.2967126719,519
66127,128230,175910,-6.4893348911999995,3.9912280968,-6.273980857200001,520
65789,128198,175886,-6.381657874199999,3.9888352742,-6.2979090831999995,521
65533,128076,175860,-6.559923157899999,3.9984065645999998,-6.2057854131,522
65368,128117,175880,-6.464210253899999,4.0618163635,-6.3254265431,523
65365,128142,175811,-6.5515482788,4.0378881375,-6.3481583578,524
65478,128140,175907,-6.472585133,4.0426737827,-6.2009997679,525
65588,128140,175933,-6.549155456199999,4.0953158799,-6.2237315826,526
65668,128147,175902,-6.492924125099999,3.9816568063999997,-6.293123438,527
65784,128182,175887,-6.4833528347,4.0522450731,-6.2763736798,528
65927,128197,175908,-6.2943198493,3.9984065645999998,-6.3098731962,529
66107,128214,175938,-6.550351867499999,3.996013742,-6.305087551,530
66333,128241,175972,-6.3900327533,4.0271204358,-6.285944970199999,531
66497,128272,175969,-6.4893348911999995,4.007977855,-6.2751772685,532
66708,128308,175984,-6.3924255759,4.055834307,-6.2632131555,533
66880,128338,176071,-6.3230337205,3.9134613623,-6.317051664,534
67118,128308,176021,-6.385247108100001,4.0378881375,-6.2105710583,535
67327,128240,176070,-6.4749779556,4.0390845488,-6.241677752099999,536
67532,128403,176059,-6.4031932776,3.9170505962,-6.324230131799999,537
67699,128441,176090,-6.3373906561,4.019941968,-6.2261244052,538
67861,128419,176090,-6.4031932776,3.9948173307,-6.2632131555,539
68065,128444,176077,-6.4869420686,3.9290147091999996,-6.2883377928,540
68238,128486,176167,-6.4701923104,4.0761732991,-6.289534204100001,541
68358,128526,176130,-6.464210253899999,3.9409788222,-6.2560346877,542
68357,128498,176140,-6.4462640844,4.1072799929,-6.245266986000001,543
67736,128406,176082,-6.5132631172,3.9816568063999997,-6.406782511499999,544
67037,128307,175963,-6.4546389635,3.960121403,-6.259623921599999,545
66544,128235,175941,-6.3960148098,4.1192441059,-6.197410534,546
66229,128197,175929,-6.5156559398,3.984049629,-6.2548382764,547
65999,128174,175872,-6.422335858399999,3.9720855159999995,-6.3086767849,548
65907,128170,175873,-6.436692794,3.9888352742,-6.2105710583,549
65805,128181,175886,-6.4821564234,4.0761732991,-6.22133876,550
65922,128177,175851,-6.5012990042,4.0354953148999995,-6.355336825599999,551
66087,128159,175871,-6.5156559398,4.079762533,-6.270391623299999,552
66134,128097,175899,-6.5300128754,4.0809589443,-6.3086767849,553
66219,128178,175880,-6.4295143262,4.0235312019,-6.260820332899999,554
66324,128233,175917,-6.4558353748,3.9517465239000003,-6.2356956956000005,555
66482,128228,175880,-6.546762633599999,3.9218362414,-6.2368921069,556
66660,128281,175921,-6.5072810607,3.9816568063999997,-6.3361942448,557
66829,128254,175919,-6.4749779556,3.9385859996,-6.3254265431,558
67009,128271,175941,-6.4713887217,4.0259240245,-6.2919270267,559
67168,128174,175936,-6.4701923104,3.9481572899999997,-6.2584275103,560
67385,128333,175976,-6.3900327533,4.0055850324,-6.3338014222,561
67505,128310,175975,-6.4821564234,3.9732819273,-6.2476598086,562
67660,128348,175978,-6.3541404143,3.9529429352,-6.352944002999999,563
67816,128329,175957,-6.3493547691,4.0809589443,-6.3385870674,564
67992,128380,175999,-6.4558353748,4.007977855,-6.2560346877,565
68145,128429,176044,-6.4905313025,4.0103706776,-6.2009997679,566
68283,128356,175974,-6.4654066652,4.151547211,-6.2979090831999995,567
68161,128394,176016,-6.3924255759,4.0103706776,-6.3744794064,568
67573,128279,175940,-6.464210253899999,3.9684962821,-6.2847485589,569
66829,128212,175855,-6.3708901725,3.9696926934,-6.317051664,570
66253,128144,175800,-6.5539411014,3.9170505962,-6.329015777,571
65866,128104,175753,-6.4462640844,3.9924245080999996,-6.2488562199,572
65712,127989,175773,-6.4115681567000005,4.0223347905999995,-6.245266986000001,573
65503,128075,175724,-6.388836342,4.0414773714,-6.2512490425,574
65591,128083,175745,-6.4295143262,3.9744783386,-6.244070574699999,575
65723,128077,175772,-6.364908116,3.9792639838,-6.2835521476,576
65751,128123,175787,-6.451049729599999,4.0845481781999995,-6.2787665024,577
65808,128099,175771,-6.508477471999999,4.140779509300001,-6.2763736798,578
65873,128104,175771,-6.4450676731,4.0163527341,-6.3361942448,579
66011,128124,175794,-6.3828542855,4.0785661217,-6.212963880899999,580
66164,128186,175831,-6.5395841658,3.9230326527000003,-6.2560346877,581
66332,128225,175854,-6.3338014222,3.9984065645999998,-6.2775700911,582
66542,128235,175860,-6.419943035799999,4.0713876539,-6.2560346877,583
66754,128214,175889,-6.368497349899999,4.1001015251,-6.2763736798,584
66951,128290,175891,-6.5371913432,4.06779842,-6.3098731962,585
67149,128341,175977,-6.4713887217,4.0187455567,-6.3086767849,586
67337,128371,175943,-6.5694944482999995,3.9864424516000003,-6.259623921599999,587
67500,128350,175974,-6.4869420686,4.1072799929,-6.2428741634,588
67685,128385,175993,-6.4115681567000005,4.0091742663,-6.3003019058,589
67848,128455,176028,-6.4438712618,4.1048871703,-6.244070574699999,590
68035,128464,176012,-6.534798520600001,4.0139599115,-6.2847485589,591
68199,128472,176032,-6.4175502132,4.0965122912,-6.2751772685,592
68225,128489,176024,-6.4582281974,3.960121403,-6.364908116,593
67744,128418,176025,-6.5132631172,3.9493537012999997,-6.3134624300999995,594
66965,128225,175915,-6.4534425522,4.0510486617999995,-6.285944970199999,595
66350,128156,175831,-6.412764568,4.007977855,-6.2644095668,596
65908,128165,175802,-6.508477471999999,4.0151563228,-6.2979090831999995,597
65617,128101,175805,-6.4079789228,4.019941968,-6.285944970199999,598
65400,128098,175752,-6.397211221099999,4.0354953148999995,-6.2404813408,599
65334,128077,175738,-6.3912291645999995,3.960121403,-6.3864435194,600
65423,128125,175748,-6.4079789228,4.007977855,-6.272784445899999,601
65523,128151,175788,-6.5132631172,3.9912280968,-6.257231098999999,602
65602,128152,175734,-6.4271215036000005,4.097708702499999,-6.2668023894,603
65689,128133,175821,-6.5359949319,4.1647077353,-6.206981824400001,604
65802,128180,175821,-6.562315980499999,4.0450666053,-6.148357670699999,605
65960,128198,175831,-6.4055861002,3.924229064,-6.2548382764,606
66148,128110,175837,-6.3744794064,3.8297125713,-6.2344992843,607
66355,128206,175853,-6.5252272302000005,4.0295132584,-6.343372712599999,608
66542,128231,175903,-6.472585133,4.0103706776,-6.3003019058,609
66749,128205,175906,-6.6317078358999995,4.0486558392,-6.244070574699999,610
66957,128237,175917,-6.406782511499999,4.0127635002,-6.2536418651,611
67155,128377,175901,-6.4773707782,4.0941194686,-6.2261244052,612
67339,128402,175956,-6.410371745399999,4.1336010414999995,-6.2775700911,613
67503,128444,175932,-6.5252272302000005,4.007977855,-6.2644095668,614
67702,128427,175988,-6.3182480753000005,3.9816568063999997,-6.1411792029,615
67904,128477,176048,-6.492924125099999,3.9996029759000002,-6.355336825599999,616
68110,128514,176007,-6.5012990042,3.8512479747,-6.3613188821,617
67953,128472,176056,-6.397211221099999,4.0055850324,-6.203392590499999,618
67344,128379,175968,-6.3086767849,4.0630127748,-6.355336825599999,619
66638,128248,175905,-6.5958154969,3.9170505962,-6.2644095668,620
66165,128200,175861,-6.368497349899999,4.0618163635,-6.314658841399999,621
65886,128223,175806,-6.559923157899999,4.139583098,-6.293123438,622
65683,128161,175797,-6.5156559398,4.064209186099999,-6.2907306154,623
65558,128132,175772,-6.3708901725,4.0689948312999995,-6.293123438,624
65581,128149,175774,-6.4319071488,4.0354953148999995,-6.2548382764,625
65714,128163,175787,-6.3445691239,3.9984065645999998,-6.317051664,626
65798,128197,175814,-6.4570317861,4.0103706776,-6.259623921599999,627
65867,128183,175789,-6.397211221099999,4.0737804765,-6.2524454538,628
65982,128210,175829,-6.3996040437,3.8955151927999996,-6.355336825599999,629
66105,128211,175798,-6.3960148098,3.9936209194,-6.2787665024,630
66260,128235,175843,-6.5156559398,3.9828532177,-6.314658841399999,631
66448,128329,175821,-6.4247286809999995,4.0689948312999995,-6.2835521476,632
66644,128318,175877,-6.3948183985,3.9744783386,-6.326622954399999,633
66877,128375,175902,-6.3158552527000005,3.9996029759000002,-6.232106461699999,634
67073,128383,175907,-6.397211221099999,3.9888352742,-6.4295143262,635
67260,128407,175914,-6.3613188821,3.8464623295,-6.3218373092,636
67447,128278,175944,-6.412764568,4.0785661217,-6.2536418651,637
67610,128327,175931,-6.4163538019,3.960121403,-6.2237315826,638
67790,128411,175971,-6.352944002999999,3.9577285803999995,-6.2584275103,639
67931,128445,175996,-6.5060846494,4.0331024923,-6.257231098999999,640
68120,128452,175984,-6.3984076324000005,4.0689948312999995,-6.2883377928,641
67914,128302,175954,-6.419943035799999,4.1288153963,-6.2225351713,642
67261,128226,175845,-6.5156559398,3.8943187815,-6.2763736798,643
66590,128181,175783,-6.436692794,4.0235312019,-6.317051664,644
66163,128132,175740,-6.4043896889,4.1096728155,-6.3361942448,645
65877,128089,175717,-6.4701923104,4.0618163635,-6.2967126719,646
65713,128037,175689,-6.3708901725,3.9302111204999997,-6.343372712599999,647
65640,128039,175669,-6.406782511499999,4.0857445895,-6.270391623299999,648
65711,128059,175672,-6.410371745399999,3.9888352742,-6.3314085996000005,649
65804,127981,175679,-6.472585133,3.9936209194,-6.317051664,650
65812,128097,175655,-6.502495415499999,3.8859439023999998,-6.2261244052,651
65924,127952,175673,-6.4821564234,4.0271204358,-6.2823557362999995,652
66007,128077,175685,-6.4462640844,4.1419759206,-6.2835521476,653
66137,127998,175661,-6.4534425522,3.9625142255999997,-6.2883377928,654
66323,128077,175755,-6.4558353748,4.0031922098,-6.3385870674,655
66508,128136,175734,-6.5288164641,4.0965122912,-6.285944970199999,656
66707,128212,175791,-6.4055861002,4.0606199522,-6.2979090831999995,657
66864,128246,175794,-6.4438712618,4.1144584607,-6.1938213001,658
67125,128282,175809,-6.549155456199999,3.9696926934,-6.2536418651,659
67346,128312,175829,-6.4235322697,4.0594235409,-6.2488562199,660
67470,128316,175860,-6.3744794064,3.9505501125999998,-6.3481583578,661
67641,128350,175816,-6.3254265431,3.9744783386,-6.305087551,662
67820,128386,175883,-6.4211394471,3.9720855159999995,-6.305087551,663
68007,128405,175926,-6.4773707782,4.0426737827,-6.326622954399999,664
68128,128403,175937,-6.3948183985,4.092923057299999,-6.3003019058,665
67825,128375,175908,-6.412764568,3.9553357578,-6.245266986000001,666
67129,128273,175777,-6.451049729599999,4.0737804765,-6.3062839623,667
66465,128155,175768,-6.4438712618,4.0570307183,-6.1842500096999995,668
66027,128097,175708,-6.425925092299999,3.9493537012999997,-6.326622954399999,669
65736,128115,175700,-6.5431733997,3.960121403,-6.2656059781,670
65524,128011,175679,-6.34097989,3.9768711611999996,-6.2153567034999995,671
65434,128045,175637,-6.410371745399999,4.0594235409,-6.2644095668,672
65513,128046,175670,-6.3349978335,4.0115670889,-6.3984076324000005,673
65621,128096,175680,-6.384050696799999,4.0426737827,-6.2560346877,674
65757,128106,175668,-6.400800455,3.8871403137,-6.3003019058,675
65825,128048,175670,-6.3780686402999995,4.0055850324,-6.2464633973,676
65946,128083,175740,-6.467799487800001,4.0055850324,-6.2775700911,677
66083,128101,175746,-6.3864435194,4.1168512833,-6.2883377928,678
66272,128125,175746,-6.508477471999999,4.0402809601,-6.2907306154,679
66451,128169,175739,-6.4534425522,4.0247276132000005,-6.3194444866,680
66690,128201,175807,-6.4893348911999995,4.0630127748,-6.3469619465000005,681
66891,128295,175790,-6.419943035799999,4.1216369285,-6.3864435194,682
67106,128358,175840,-6.369693761200001,4.0522450731,-6.228517227799999,683
67344,128349,175810,-6.419943035799999,4.1359938641000005,-6.2620167442,684
67524,128344,175893,-6.467799487800001,4.0426737827,-6.2823557362999995,685
67685,128398,175921,-6.479763600799999,4.0713876539,-6.2273208165,686
67853,128424,175919,-6.3194444866,3.9852460403000003,-6.3074803736,687
68060,128442,175946,-6.550351867499999,3.9744783386,-6.2979090831999995,688
68042,128438,175959,-6.4941205364000005,3.9768711611999996,-6.2560346877,689
67711,128347,175895,-6.5001025929,4.0271204358,-6.2644095668,690
66962,128131,175834,-6.4163538019,4.0127635002,-6.2488562199,691
66363,128090,175735,-6.3756758177,3.9062828945,-6.326622954399999,692
65964,128055,175737,-6.4893348911999995,4.0295132584,-6.2476598086,693
65710,128078,175699,-6.3780686402999995,4.030709669699999,-6.2763736798,694
65548,128079,175719,-6.3373906561,4.0402809601,-6.3302121883,695
65486,128112,175715,-6.422335858399999,4.030709669699999,-6.355336825599999,696
65591,128149,175717,-6.5036918268,4.0295132584,-6.3098731962,697
65709,128146,175752,-6.4462640844,3.9170505962,-6.2979090831999995,698
65791,128143,175722,-6.451049729599999,4.0295132584,-6.317051664,699
65890,128141,175740,-6.327819365700001,3.9302111204999997,-6.289534204100001,700
66016,128225,175784,-6.4917277138,4.0474594279,-6.2105710583,701
66163,128200,175761,-6.4701923104,4.0486558392,-6.1986069453,702
66346,128256,175836,-6.5001025929,4.0295132584,-6.3361942448,703
66578,128283,175828,-6.4247286809999995,4.0115670889,-6.4055861002,704
66796,128308,175845,-6.5108702946,4.0223347905999995,-6.270391623299999,705
67020,128326,175892,-6.385247108100001,3.9912280968,-6.3385870674,706
67217,128319,175897,-6.4821564234,3.9170505962,-6.302694728400001,707
67394,128412,175915,-6.4271215036000005,3.9158541848999997,-6.3577296482,708
67580,128406,175934,-6.4917277138,3.9768711611999996,-6.269195212,709
67765,128452,175987,-6.406782511499999,4.0031922098,-6.2668023894,710
67961,128481,175975,-6.4043896889,4.064209186099999,-6.355336825599999,711
68142,128511,176030,-6.2967126719,3.8572300312,-6.203392590499999,712
68144,128448,176025,-6.5120667059,3.9828532177,-6.314658841399999,713
67630,128374,175965,-6.406782511499999,3.9577285803999995,-6.3960148098,714
66890,128322,175864,-6.439085616600001,4.0139599115,-6.342176301299999,715
66358,128123,175814,-6.412764568,3.9948173307,-6.3158552527000005,716
66016,128208,175805,-6.4247286809999995,3.9996029759000002,-6.352944002999999,717
65803,128177,175796,-6.451049729599999,3.9744783386,-6.2763736798,718
65680,128059,175763,-6.534798520600001,4.0211383793,-6.2524454538,719
65681,128049,175772,-6.518048762399999,3.924229064,-6.3828542855,720
65793,128194,175791,-6.5994047308,3.912264951,-6.273980857200001,721
65853,128181,175738,-6.5072810607,4.0570307183,-6.2907306154,722
65881,128197,175725,-6.410371745399999,3.912264951,-6.1698930741,723
65923,128177,175777,-6.4749779556,4.0031922098,-6.2787665024,724
66027,128210,175753,-6.6101724325,4.019941968,-6.2380885182,725
66149,128194,175773,-6.480960012100001,4.0630127748,-6.2141602922,726
66290,128203,175746,-6.4187466245,4.0845481781999995,-6.3481583578,727
66491,128236,175758,-6.368497349899999,3.8668013215999997,-6.281159325,728
66674,128136,175764,-6.422335858399999,4.019941968,-6.3720865838,729
66834,128177,175789,-6.5527446901,3.9888352742,-6.2823557362999995,730
66996,128192,175803,-6.3720865838,4.0414773714,-6.2632131555,731
67153,128233,175797,-6.368497349899999,4.0534414844,-6.285944970199999,732
67355,128328,175844,-6.4247286809999995,4.0378881375,-6.305087551,733
67459,128341,175857,-6.5001025929,3.9912280968,-6.317051664,734
67650,128397,175855,-6.436692794,3.9780675724999996,-6.2823557362999995,735
67743,128386,175837,-6.480960012100001,3.9888352742,-6.302694728400001,736
67323,128272,175830,-6.5012990042,4.0402809601,-6.2560346877,737
66512,128185,175715,-6.533602109299999,4.031906081,-6.3314085996000005,738
65887,128099,175665,-6.4031932776,4.0354953148999995,-6.2249279939,739
65417,128059,175640,-6.4689958991,4.1072799929,-6.270391623299999,740
65204,127917,175610,-6.4342999714,4.030709669699999,-6.257231098999999,741
65018,127937,175621,-6.4342999714,4.0402809601,-6.305087551,742
64971,127925,175609,-6.5958154969,3.9744783386,-6.3218373092,743
65060,127975,175605,-6.4534425522,4.0223347905999995,-6.233302873,744
65175,128027,175633,-6.6149580777,4.0151563228,-6.2763736798,745
65267,128047,175635,-6.439085616600001,4.0414773714,-6.3361942448,746
65390,128079,175618,-6.4546389635,4.1862431387,-6.259623921599999,747
65507,128079,175683,-6.3314085996000005,4.0618163635,-6.329015777,748
65644,128096,175646,-6.4558353748,4.0031922098,-6.3194444866,749
65845,128131,175697,-6.3900327533,4.0462630166,-6.305087551,750
66036,128191,175711,-6.4319071488,3.9409788222,-6.364908116,751
66251,128206,175720,-6.4115681567000005,4.0175491454,-6.2344992843,752
66459,128199,175736,-6.4139609793000005,3.9541393465,-6.3218373092,753
66679,128226,175795,-6.3158552527000005,3.9708891047,-6.2907306154,754
66881,128262,175816,-6.3732829951,4.0761732991,-6.324230131799999,755
67063,128292,175840,-6.437889205299999,4.0259240245,-6.1866428323,756
67237,128316,175841,-6.5228344076,4.001995798499999,-6.326622954399999,757
67413,128394,175901,-6.5001025929,4.0821553556,-6.2967126719,758
67557,128405,175884,-6.58026215,4.1120656381,-6.232106461699999,759
67746,128425,175910,-6.3254265431,4.0486558392,-6.270391623299999,760
67584,128268,175879,-6.422335858399999,4.0414773714,-6.3086767849,761
66867,128234,175815,-6.34097989,4.0091742663,-6.329015777,762
66130,128141,175735,-6.364908116,4.0271204358,-6.2309100503999995,763
65603,128122,175751,-6.368497349899999,4.0103706776,-6.3505511804,764
65302,128084,175652,-6.436692794,4.0103706776,-6.2919270267,765
65061,128066,175648,-6.484549246,4.0103706776,-6.1866428323,766
64913,128036,175608,-6.496513359000001,3.9290147091999996,-6.293123438,767
64921,128079,175637,-6.4869420686,3.9038900719000003,-6.2715880346,768
65045,127977,175677,-6.5264236415,4.0283168471,-6.3003019058,769
65132,128084,175640,-6.3996040437,4.1096728155,-6.2536418651,770
65212,128083,175670,-6.4785671895,4.0151563228,-6.1866428323,771
65325,128072,175682,-6.439085616600001,3.996013742,-6.2476598086,772
65455,128080,175686,-6.5371913432,3.9936209194,-6.2644095668,773
65647,128110,175700,-6.5539411014,3.9672998708,-6.216553114800001,774
65848,128163,175729,-6.3876399307,4.0331024923,-6.317051664,775
66072,128197,175813,-6.4402820279,3.936193177,-6.352944002999999,776
66281,128236,175795,-6.472585133,4.0594235409,-6.3098731962,777
66529,128373,175784,-6.5012990042,4.0510486617999995,-6.326622954399999,778
66752,128330,175849,-6.472585133,4.1503507997,-6.3385870674,779
66938,128360,175840,-6.4414784392,3.9577285803999995,-6.2488562199,780
67121,128395,175871,-6.3996040437,4.0594235409,-6.397211221099999,781
67291,128407,175877,-6.4893348911999995,3.9649070482,-6.2512490425,782
67482,128433,175911,-6.4247286809999995,4.0570307183,-6.2787665024,783
67690,128511,175941,-6.384050696799999,4.0474594279,-6.34097989,784
67899,128499,175932,-6.4151573906,4.06779842,-6.3158552527000005,785
67859,128482,175983,-6.5240308189,3.9290147091999996,-6.2560346877,786
67247,128422,175897,-6.289534204100001,4.0247276132000005,-6.384050696799999,787
66597,128327,175858,-6.410371745399999,3.9672998708,-6.314658841399999,788
66013,128273,175742,-6.397211221099999,4.1503507997,-6.2344992843,789
65620,128247,175729,-6.3469619465000005,3.9792639838,-6.2883377928,790
65410,128221,175724,-6.4462640844,3.9266218866,-6.2620167442,791
65255,128203,175718,-6.4271215036000005,4.001995798499999,-6.2512490425,792
65311,128183,175720,-6.575476504799999,4.019941968,-6.281159325,793
65435,128216,175732,-6.339783478699999,3.9493537012999997,-6.2488562199,794
65476,128243,175756,-6.419943035799999,3.936193177,-6.2105710583,795
65581,128220,175791,-6.4917277138,4.0402809601,-6.3385870674,796
65656,128198,175721,-6.3326050109,4.0007993872,-6.2751772685,797
65784,128226,175801,-6.419943035799999,3.936193177,-6.2153567034999995,798
65949,128284,175767,-6.5096738833000005,4.0462630166,-6.2512490425,799
66135,128306,175847,-6.4163538019,3.9481572899999997,-6.285944970199999,800
66350,128355,175841,-6.4749779556,3.9529429352,-6.3373906561,801
66558,128379,175817,-6.534798520600001,4.0737804765,-6.2536418651,802
66776,128423,175874,-6.4821564234,4.0175491454,-6.3338014222,803
66973,128448,175895,-6.3158552527000005,4.0402809601,-6.2632131555,804
67173,128503,175903,-6.4582281974,3.996013742,-6.2620167442,805
67355,128508,175916,-6.368497349899999,3.9625142255999997,-6.2273208165,806
67519,128501,175913,-6.4534425522,3.9625142255999997,-6.2919270267,807
67729,128603,175950,-6.4426748505,4.001995798499999,-6.2488562199,808
67920,128610,175976,-6.4295143262,4.0582271296000005,-6.2775700911,809
68086,128581,175984,-6.4558353748,4.0546378957,-6.3744794064,810
67893,128514,175923,-6.410371745399999,4.1718862031,-6.364908116,811
67203,128405,175869,-6.3864435194,3.9888352742,-6.2464633973,812
66501,128196,175710,-6.5048882380999995,4.0450666053,-6.1950177114,813
66038,128157,175690,-6.4701923104,3.924229064,-6.3314085996000005,814
65716,128182,175647,-6.479763600799999,4.0725840652,-6.2344992843,815
65566,128114,175644,-6.397211221099999,3.9529429352,-6.3457655352,816
65490,128175,175622,-6.4821564234,4.1312082188999995,-6.285944970199999,817
65560,128195,175624,-6.451049729599999,4.0378881375,-6.329015777,818
65632,128170,175619,-6.5515482788,3.9912280968,-6.2261244052,819
65678,128180,175589,-6.532405698,3.8835510798,-6.2943198493,820
65722,128146,175583,-6.4773707782,3.8955151927999996,-6.270391623299999,821
65803,128201,175568,-6.425925092299999,3.9290147091999996,-6.3457655352,822
65924,128176,175628,-6.4342999714,4.0151563228,-6.2668023894,823
66129,128258,175616,-6.508477471999999,4.199403663,-6.3361942448,824
66276,128266,175692,-6.5072810607,4.0522450731,-6.2237315826,825
66432,128263,175672,-6.437889205299999,4.0474594279,-6.343372712599999,826
66625,128312,175673,-6.3744794064,3.9433716447999996,-6.305087551,827
66817,128362,175720,-6.472585133,3.9744783386,-6.3625152933999995,828
66996,128349,175712,-6.4701923104,3.9457644674,-6.355336825599999,829
67165,128377,175751,-6.568298037,3.8787654346,-6.191428477500001,830
67350,128406,175811,-6.4893348911999995,4.0498522505,-6.326622954399999,831
67536,128456,175752,-6.4630138426,4.0570307183,-6.4474604957,832
67688,128496,175803,-6.4211394471,3.9230326527000003,-6.3457655352,833
67927,128494,175829,-6.5132631172,4.0390845488,-6.3792650516,834
67828,128476,175796,-6.3876399307,3.960121403,-6.317051664,835
67167,128386,175730,-6.3062839623,4.019941968,-6.2775700911,836
66507,128266,175653,-6.4917277138,4.007977855,-6.2751772685,837
65938,128213,175582,-6.4654066652,4.1024943476999995,-6.2392849295,838
65556,128177,175575,-6.4319071488,3.9302111204999997,-6.2679988007,839
65266,128103,175551,-6.4079789228,3.9110685397,-6.3673009386,840
65081,128102,175524,-6.400800455,4.0498522505,-6.3098731962,841
65030,128104,175529,-6.5371913432,4.0462630166,-6.317051664,842
65140,128122,175519,-6.4247286809999995,4.0091742663,-6.269195212,843
65242,128139,175552,-6.3804614629,4.0295132584,-6.352944002999999,844
65323,128110,175556,-6.4869420686,4.0366917262,-6.3517475917,845
65412,128131,175532,-6.4079789228,4.0223347905999995,-6.302694728400001,846
65522,128150,175591,-6.425925092299999,4.0103706776,-6.2404813408,847
65709,128207,175610,-6.532405698,4.1024943476999995,-6.3194444866,848
65906,128273,175622,-6.5288164641,4.0821553556,-6.2943198493,849
66122,128245,175655,-6.4271215036000005,3.9649070482,-6.301498317099999,850
66331,128295,175664,-6.4115681567000005,4.0390845488,-6.2404813408,851
66535,128300,175711,-6.4450676731,4.0833517669,-6.2835521476,852
66744,128331,175687,-6.607779609900001,3.8919259589,-6.3457655352,853
66874,128329,175729,-6.4115681567000005,3.9637106368999997,-6.2907306154,854
67134,128417,175734,-6.467799487800001,3.9948173307,-6.270391623299999,855
67305,128459,175752,-6.479763600799999,3.9302111204999997,-6.2751772685,856
67497,128491,175749,-6.4115681567000005,4.0498522505,-6.355336825599999,857
67693,128503,175813,-6.46062102,4.0785661217,-6.329015777,858
67837,128463,175816,-6.3984076324000005,4.0235312019,-6.2117674696,859
67589,128341,175810,-6.496513359000001,4.0689948312999995,-6.3326050109,860
66893,128352,175716,-6.4582281974,3.9529429352,-6.3254265431,861
66234,128252,175611,-6.472585133,3.9481572899999997,-6.272784445899999,862
65747,128199,175582,-6.4175502132,4.1706897918,-6.3338014222,863
65471,128136,175547,-6.385247108100001,4.0402809601,-6.2763736798,864
65278,128141,175511,-6.4534425522,4.0151563228,-6.232106461699999,865
65174,128138,175534,-6.410371745399999,3.9684962821,-6.3720865838,866
65256,128191,175563,-6.3756758177,3.8512479747,-6.3373906561,867
65378,128161,175542,-6.343372712599999,4.0187455567,-6.3338014222,868
65523,128170,175563,-6.4821564234,3.9984065645999998,-6.2715880346,869
65561,128154,175569,-6.3637117047,4.0809589443,-6.3338014222,870
65668,128180,175566,-6.436692794,3.9397824109,-6.3720865838,871
65821,128185,175595,-6.3924255759,3.9266218866,-6.2847485589,872
66007,128202,175580,-6.3613188821,4.0247276132000005,-6.2835521476,873
66217,128254,175622,-6.4941205364000005,3.9792639838,-6.3577296482,874
66447,128280,175649,-6.4235322697,3.9828532177,-6.314658841399999,875
66652,128322,175691,-6.4582281974,4.0378881375,-6.3122660188,876
66880,128349,175711,-6.3230337205,3.984049629,-6.2751772685,877
67089,128375,175698,-6.406782511499999,4.126422573699999,-6.228517227799999,878
67279,128353,175739,-6.3924255759,3.9720855159999995,-6.203392590499999,879
67462,128311,175813,-6.4139609793000005,4.019941968,-6.2787665024,880
67653,128357,175738,-6.3900327533,4.0031922098,-6.3122660188,881
67858,128437,175789,-6.4247286809999995,3.984049629,-6.3625152933999995,882
68081,128452,175846,-6.4654066652,3.8859439023999998,-6.2644095668,883
68144,128459,175858,-6.299105494500001,3.9936209194,-6.3637117047,884
67738,128404,175758,-6.3864435194,4.019941968,-6.3708901725,885
67040,128311,175742,-6.4163538019,3.9649070482,-6.3673009386,886
66496,128235,175685,-6.4019968663,3.9038900719000003,-6.3756758177,887
66155,128146,175603,-6.3828542855,4.0175491454,-6.406782511499999,888
65952,128218,175601,-6.5036918268,3.9828532177,-6.2117674696,889
65828,128076,175622,-6.4558353748,4.0187455567,-6.3074803736,890
65825,128067,175574,-6.3673009386,4.0737804765,-6.3338014222,891
65893,128182,175596,-6.4570317861,4.0211383793,-6.3110696074999995,892
66037,128261,175638,-6.4701923104,3.9505501125999998,-6.3996040437,893
66102,128261,175621,-6.4342999714,3.9924245080999996,-6.3541404143,894
66165,128260,175613,-6.3948183985,3.9170505962,-6.3003019058,895
66255,128245,175622,-6.4630138426,4.0689948312999995,-6.2057854131,896
66389,128249,175630,-6.4654066652,3.8967116041,-6.2249279939,897
66551,128252,175662,-6.4462640844,3.9146577735999997,-6.3864435194,898
66728,128262,175626,-6.3254265431,4.0630127748,-6.2620167442,899
66917,128242,175634,-6.4091753340999995,4.0151563228,-6.259623921599999,900
67070,128196,175638,-6.385247108100001,3.888336725,-6.2835521476,901
67228,128188,175630,-6.4558353748,3.9744783386,-6.3314085996000005,902
67364,128265,175659,-6.4689958991,4.0953158799,-6.209374647,903
67506,128267,175688,-6.3996040437,4.0402809601,-6.2979090831999995,904
67673,128292,175647,-6.3912291645999995,3.9314075318,-6.3481583578,905
67826,128296,175681,-6.3828542855,4.0546378957,-6.343372712599999,906
68022,128341,175672,-6.5539411014,4.0175491454,-6.1686966628,907
67957,128287,175671,-6.4426748505,4.0187455567,-6.228517227799999,908
67397,128205,175599,-6.532405698,3.960121403,-6.3194444866,909
66665,128147,175510,-6.472585133,3.9433716447999996,-6.2907306154,910
66128,128054,175477,-6.5144595285,4.043870194,-6.272784445899999,911
65833,127983,175436,-6.562315980499999,3.9433716447999996,-6.2955162605999995,912
65615,127947,175412,-6.3673009386,3.8368910391,-6.3601224708,913
65508,127925,175403,-6.5156559398,3.9672998708,-6.4079789228,914
65535,127947,175438,-6.5419769884,3.9625142255999997,-6.317051664,915
65648,127964,175389,-6.484549246,4.092923057299999,-6.34097989,916
65742,128017,175463,-6.576672916100001,3.9529429352,-6.2955162605999995,917
65819,127970,175466,-6.3912291645999995,4.043870194,-6.324230131799999,918
65917,127981,175468,-6.480960012100001,3.9433716447999996,-6.2273208165,919
66061,128036,175465,-6.5108702946,4.1479579771,-6.2380885182,920
66242,128058,175513,-6.4031932776,4.0725840652,-6.2105710583,921
66457,128116,175526,-6.4175502132,4.126422573699999,-6.244070574699999,922
66651,128158,175576,-6.4414784392,3.9684962821,-6.2261244052,923
66846,128161,175593,-6.3756758177,3.9338003543999998,-6.376872229,924
67072,128205,175609,-6.368497349899999,4.0055850324,-6.3481583578,925
67277,128241,175600,-6.342176301299999,3.9816568063999997,-6.302694728400001,926
67472,128234,175661,-6.5048882380999995,4.0055850324,-6.3314085996000005,927
67651,128289,175621,-6.568298037,4.0773697104,-6.244070574699999,928
67805,128292,175685,-6.3505511804,4.0773697104,-6.4043896889,929
67993,128325,175696,-6.4175502132,3.9589249917,-6.326622954399999,930
68202,128365,175752,-6.451049729599999,4.0414773714,-6.281159325,931
68343,128397,175750,-6.5012990042,3.9912280968,-6.2309100503999995,932
68374,128292,175747,-6.4079789228,4.0881374121,-6.342176301299999,933
67887,128189,175703,-6.466603076499999,4.0331024923,-6.3194444866,934
67178,128152,175621,-6.3302121883,3.9792639838,-6.3589260595,935
66595,128059,175553,-6.4821564234,4.097708702499999,-6.34097989,936
66192,128035,175538,-6.4211394471,3.9972101532999997,-6.1986069453,937
65919,127995,175455,-6.4271215036000005,4.0522450731,-6.2955162605999995,938
65747,127958,175451,-6.4749779556,3.9433716447999996,-6.232106461699999,939
65703,127988,175450,-6.437889205299999,3.9792639838,-6.3038911397,940
65812,127974,175498,-6.412764568,3.960121403,-6.203392590499999,941
65945,128012,175511,-6.4307107375,4.0606199522,-6.2656059781,942
66014,128043,175470,-6.4689958991,4.0414773714,-6.2201423487000005,943
66119,128032,175506,-6.422335858399999,3.9828532177,-6.314658841399999,944
66259,128063,175569,-6.5874406178,3.9098721283999995,-6.2476598086,945
66432,128085,175539,-6.3541404143,3.9457644674,-6.4019968663,946
66619,128067,175620,-6.356533236900001,4.1503507997,-6.388836342,947
66814,128159,175610,-6.466603076499999,4.0893338234,-6.2775700911,948
67027,128211,175606,-6.546762633599999,3.9708891047,-6.281159325,949
67211,128218,175648,-6.484549246,3.9278182979,-6.281159325,950
67487,128300,175679,-6.4570317861,4.1383866867,-6.324230131799999,951
67643,128281,175693,-6.3373906561,4.0989051138,-6.302694728400001,952
67793,128319,175707,-6.4247286809999995,4.097708702499999,-6.185446421,953
68001,128324,175747,-6.46062102,4.0103706776,-6.259623921599999,954
68214,128383,175765,-6.5479590449,3.9984065645999998,-6.2883377928,955
68434,128433,175771,-6.4534425522,4.0342989036,-6.3302121883,956
68580,128432,175825,-6.4019968663,4.0713876539,-6.285944970199999,957
68620,128428,175845,-6.4295143262,4.0618163635,-6.2907306154,958
68172,128324,175752,-6.4917277138,4.0881374121,-6.3673009386,959
67434,128215,175695,-6.435496382699999,4.1096728155,-6.2309100503999995,960
66833,128031,175606,-6.4570317861,3.9649070482,-6.2500526312,961
66416,127986,175630,-6.521637996299999,3.9984065645999998,-6.241677752099999,962
66146,128019,175545,-6.4151573906,3.9194434188,-6.2560346877,963
65952,128084,175580,-6.4618174313,4.092923057299999,-6.244070574699999,964
65912,128115,175571,-6.4701923104,3.9385859996,-6.3098731962,965
66012,128051,175583,-6.3158552527000005,4.0534414844,-6.326622954399999,966
66096,128095,175584,-6.3828542855,4.031906081,-6.2428741634,967
66165,128061,175615,-6.5192451737,3.9984065645999998,-6.2153567034999995,968
66145,128111,175660,-6.368497349899999,3.9720855159999995,-6.3338014222,969
66322,128112,175605,-6.508477471999999,3.9194434188,-6.364908116,970
66510,128184,175636,-6.4821564234,4.0139599115,-6.287141381500001,971
66657,128191,175652,-6.4785671895,3.9338003543999998,-6.3457655352,972
66827,128203,175689,-6.342176301299999,4.0366917262,-6.4271215036000005,973
66999,128295,175764,-6.4450676731,4.0666020087,-6.2799629137,974
67219,128314,175721,-6.5395841658,4.0522450731,-6.3517475917,975
67393,128338,175758,-6.518048762399999,4.0007993872,-6.2249279939,976
67581,128344,175777,-6.4713887217,4.0606199522,-6.2835521476,977
67722,128364,175819,-6.451049729599999,4.0366917262,-6.2536418651,978
67902,128376,175799,-6.4546389635,4.0163527341,-6.3314085996000005,979
68073,128400,175858,-6.4414784392,3.8919259589,-6.2799629137,980
68259,128441,175868,-6.6317078358999995,3.9972101532999997,-6.2045890018000005,981
68417,128465,175925,-6.5371913432,4.1144584607,-6.2620167442,982
68209,128412,175841,-6.6149580777,4.091726646,-6.381657874199999,983
67521,128309,175783,-6.4737815442999995,3.9924245080999996,-6.3003019058,984
66849,128219,175722,-6.6101724325,4.0175491454,-6.305087551,985
66432,128145,175621,-6.4917277138,4.0151563228,-6.3912291645999995,986
66140,128113,175676,-6.4582281974,3.9864424516000003,-6.2775700911,987
65977,128078,175625,-6.5144595285,3.9984065645999998,-6.259623921599999,988
65934,128061,175579,-6.4893348911999995,4.0701912426,-6.3361942448,989
65982,128015,175631,-6.3589260595,4.1001015251,-6.3074803736,990
66026,128051,175612,-6.3625152933999995,3.9984065645999998,-6.3900327533,991
66053,128043,175561,-6.451049729599999,4.0115670889,-6.329015777,992
66059,128055,175522,-6.34097989,4.0833517669,-6.281159325,993
66107,128052,175531,-6.4307107375,3.9170505962,-6.435496382699999,994
66174,128053,175542,-6.451049729599999,4.019941968,-6.3780686402999995,995
66285,128068,175554,-6.6197437229,4.0007993872,-6.1818571871,996
66427,128043,175528,-6.496513359000001,3.9984065645999998,-6.2715880346,997
66594,128056,175584,-6.3661045273,4.0295132584,-6.257231098999999,998
66739,128049,175563,-6.369693761200001,4.1096728155,-6.257231098999999,999
66866,128076,175583,-6.4414784392,4.0175491454,-6.3601224708,1000
67005,128085,175566,-6.3912291645999995,4.0941194686,-6.4091753340999995,1001
67169,128175,175625,-6.3493547691,3.9649070482,-6.244070574699999,1002
67303,128171,175582,-6.472585133,3.9385859996,-6.2751772685,1003
67459,128203,175676,-6.5575303353,4.007977855,-6.3326050109,1004
67617,128242,175728,-6.4187466245,4.007977855,-6.2967126719,1005
67551,128212,175657,-6.3780686402999995,4.1300118076,-6.305087551,1006
66969,128122,175612,-6.4869420686,3.9720855159999995,-6.2512490425,1007
66175,128016,175551,-6.388836342,4.030709669699999,-6.34097989,1008
65576,127914,175462,-6.3804614629,4.0761732991,-6.2799629137,1009
65210,127869,175399,-6.568298037,4.0247276132000005,-6.2979090831999995,1010
64946,127856,175372,-6.5395841658,4.0953158799,-6.2548382764,1011
64794,127832,175397,-6.5934226743,4.0331024923,-6.293123438,1012
64714,127838,175397,-6.400800455,4.0618163635,-6.2835521476,1013
64846,127869,175393,-6.4701923104,4.0043886211,-6.3338014222,1014
64960,127885,175411,-6.4869420686,3.9720855159999995,-6.3194444866,1015
65036,127902,175410,-6.3924255759,3.9577285803999995,-6.4211394471,1016
65140,127940,175398,-6.451049729599999,4.1096728155,-6.3338014222,1017
65263,127958,175454,-6.4079789228,4.0151563228,-6.2847485589,1018
65417,127970,175521,-6.4821564234,3.9936209194,-6.2237315826,1019
65653,128026,175506,-6.4031932776,4.0091742663,-6.2476598086,1020
65801,128047,175509,-6.4618174313,3.9984065645999998,-6.293123438,1021
66058,128111,175560,-6.5060846494,3.9038900719000003,-6.289534204100001,1022
66271,128158,175587,-6.3673009386,4.0139599115,-6.287141381500001,1023
66409,128160,175606,-6.4319071488,4.1240297511,-6.2392849295,1024
66597,128182,175676,-6.5551375127,4.0965122912,-6.2428741634,1025
66759,128182,175664,-6.2919270267,4.0067814437,-6.287141381500001,1026
66929,128204,175677,-6.448656907,3.9481572899999997,-6.293123438,1027
67138,128289,175724,-6.6376898924,3.9481572899999997,-6.3098731962,1028
67329,128292,175736,-6.4785671895,3.9972101532999997,-6.2524454538,1029
67281,128277,175721,-6.496513359000001,4.127618985,-6.2883377928,1030
66668,128158,175659,-6.4211394471,4.031906081,-6.327819365700001,1031
65887,128071,175573,-6.364908116,3.9433716447999996,-6.3996040437,1032
65294,128026,175473,-6.4713887217,4.0618163635,-6.203392590499999,1033
64853,127963,175494,-6.4893348911999995,4.0618163635,-6.2955162605999995,1034
64616,127935,175456,-6.368497349899999,4.030709669699999,-6.3038911397,1035
64466,127992,175404,-6.531209286699999,4.0522450731,-6.355336825599999,1036
64452,127952,175433,-6.4414784392,4.0594235409,-6.273980857200001,1037
64557,127965,175441,-6.5527446901,3.960121403,-6.3182480753000005,1038
64691,127970,175432,-6.508477471999999,3.9433716447999996,-6.412764568,1039
64788,128048,175440,-6.4175502132,4.0989051138,-6.314658841399999,1040
64891,128018,175495,-6.3984076324000005,4.0127635002,-6.4043896889,1041
65030,127999,175472,-6.5096738833000005,3.9050864832,-6.3361942448,1042
65220,128101,175556,-6.406782511499999,3.9565321691,-6.326622954399999,1043
65429,128123,175566,-6.467799487800001,4.097708702499999,-6.3385870674,1044
65579,128162,175610,-6.439085616600001,3.8979080154,-6.241677752099999,1045
65859,128223,175594,-6.4151573906,4.0139599115,-6.2620167442,1046
66084,128245,175657,-6.4749779556,3.9134613623,-6.3098731962,1047
66319,128262,175686,-6.4630138426,4.1240297511,-6.369693761200001,1048
66532,128292,175721,-6.4342999714,3.9481572899999997,-6.3361942448,1049
66649,128320,175733,-6.4175502132,4.0378881375,-6.3900327533,1050
66922,128366,175717,-6.4342999714,4.0366917262,-6.2500526312,1051
67143,128406,175793,-6.4977097703,3.9649070482,-6.3361942448,1052
67280,128440,175791,-6.4534425522,3.960121403,-6.2548382764,1053
67495,128469,175844,-6.5479590449,4.019941968,-6.241677752099999,1054
67180,128402,175773,-6.3457655352,4.1096728155,-6.4031932776,1055
66504,128349,175674,-6.3206408979,3.912264951,-6.281159325,1056
65820,128256,175642,-6.3732829951,3.9457644674,-6.3254265431,1057
65415,128225,175613,-6.4630138426,3.9553357578,-6.259623921599999,1058
65191,128210,175608,-6.4091753340999995,4.0271204358,-6.302694728400001,1059
65036,128177,175607,-6.3732829951,3.9266218866,-6.2620167442,1060
64999,128208,175556,-6.355336825599999,3.8679977328999997,-6.281159325,1061
65116,128291,175595,-6.4989061816,3.9816568063999997,-6.2668023894,1062
65255,128231,175627,-6.3314085996000005,4.0342989036,-6.2799629137,1063
65342,128258,175584,-6.5240308189,4.0582271296000005,-6.3517475917,1064
65431,128279,175614,-6.3541404143,3.8979080154,-6.281159325,1065
65575,128298,175669,-6.4414784392,4.0390845488,-6.2847485589,1066
65747,128358,175693,-6.4019968663,4.0773697104,-6.3302121883,1067
65949,128388,175719,-6.4271215036000005,4.0546378957,-6.2883377928,1068
66187,128404,175721,-6.4749779556,4.1288153963,-6.212963880899999,1069
66410,128422,175730,-6.5240308189,3.9553357578,-6.244070574699999,1070
66634,128468,175777,-6.4989061816,3.9744783386,-6.3541404143,1071
66848,128497,175737,-6.412764568,3.8895331363000003,-6.289534204100001,1072
66974,128494,175771,-6.439085616600001,4.0510486617999995,-6.1986069453,1073
67222,128517,175760,-6.3589260595,3.9230326527000003,-6.2715880346,1074
67375,128547,175789,-6.4426748505,3.9098721283999995,-6.273980857200001,1075
67521,128542,175802,-6.3661045273,3.9565321691,-6.3984076324000005,1076
67790,128576,175820,-6.5060846494,3.984049629,-6.3577296482,1077
67867,128562,175796,-6.484549246,3.9553357578,-6.232106461699999,1078
67560,128513,175734,-6.2943198493,4.0139599115,-6.3003019058,1079
66890,128391,175685,-6.531209286699999,4.0043886211,-6.2297136391,1080
66304,128325,175585,-6.4917277138,4.0163527341,-6.2273208165,1081
65900,128254,175517,-6.5108702946,4.019941968,-6.302694728400001,1082
65719,128227,175516,-6.3708901725,4.0139599115,-6.3673009386,1083
65638,128234,175474,-6.4247286809999995,4.097708702499999,-6.2907306154,1084
65588,128207,175475,-6.4414784392,4.0498522505,-6.2620167442,1085
65707,128216,175454,-6.425925092299999,4.0450666053,-6.2799629137,1086
65800,128211,175495,-6.4941205364000005,4.0522450731,-6.2428741634,1087
65849,128241,175509,-6.412764568,4.1001015251,-6.2057854131,1088
65925,128255,175487,-6.4630138426,4.0247276132000005,-6.2225351713,1089
66018,128225,175495,-6.58026215,3.9290147091999996,-6.2847485589,1090
66169,128197,175501,-6.369693761200001,3.9194434188,-6.3936219871999995,1091
66334,128372,175571,-6.448656907,3.8931223702,-6.1842500096999995,1092
66541,128402,175568,-6.46062102,4.1048871703,-6.2775700911,1093
66728,128405,175568,-6.4438712618,4.0187455567,-6.314658841399999,1094
66945,128434,175574,-6.4295143262,4.0271204358,-6.2380885182,1095
67130,128466,175629,-6.4031932776,3.9672998708,-6.355336825599999,1096
67311,128409,175622,-6.4534425522,4.0378881375,-6.293123438,1097
67510,128466,175613,-6.4079789228,3.9625142255999997,-6.3122660188,1098
67685,128474,175629,-6.4031932776,3.9912280968,-6.3661045273,1099
67860,128509,175670,-6.4917277138,4.0259240245,-6.2380885182,1100
68030,128555,175677,-6.472585133,4.0007993872,-6.3158552527000005,1101
68220,128592,175703,-6.4941205364000005,3.9672998708,-6.2273208165,1102
68035,128516,175636,-6.508477471999999,4.0737804765,-6.2955162605999995,1103
67418,128435,175635,-6.4438712618,3.9708891047,-6.3577296482,1104
66777,128389,175578,-6.496513359000001,4.0151563228,-6.355336825599999,1105
66316,128354,175509,-6.5132631172,4.0833517669,-6.388836342,1106
66003,128209,175485,-6.4761743669,3.9338003543999998,-6.244070574699999,1107
65766,128225,175461,-6.4893348911999995,3.9266218866,-6.3338014222,1108
65630,128173,175464,-6.4115681567000005,3.9888352742,-6.3003019058,1109
65643,128309,175463,-6.339783478699999,3.9553357578,-6.3936219871999995,1110
65776,128309,175481,-6.324230131799999,4.043870194,-6.355336825599999,1111
65874,128321,175531,-6.3804614629,4.0522450731,-6.352944002999999,1112
65954,128346,175494,-6.5300128754,3.9816568063999997,-6.244070574699999,1113
66061,128334,175474,-6.4414784392,4.092923057299999,-6.343372712599999,1114
66218,128392,175496,-6.464210253899999,3.9864424516000003,-6.2428741634,1115
66397,128374,175517,-6.5108702946,3.9625142255999997,-6.2679988007,1116
66555,128404,175529,-6.4307107375,3.9936209194,-6.302694728400001,1117
66791,128353,175578,-6.419943035799999,4.0618163635,-6.2560346877,1118
67003,128407,175576,-6.3110696074999995,4.0271204358,-6.3960148098,1119
67208,128435,175579,-6.3900327533,4.0295132584,-6.2524454538,1120
67402,128457,175618,-6.3876399307,3.960121403,-6.368497349899999,1121
67597,128514,175622,-6.58026215,3.9888352742,-6.1842500096999995,1122
67671,128564,175636,-6.4869420686,4.0295132584,-6.3864435194,1123
67960,128582,175681,-6.5228344076,4.0725840652,-6.317051664,1124
68149,128591,175677,-6.3517475917,4.0055850324,-6.302694728400001,1125
68328,128633,175742,-6.5001025929,3.9996029759000002,-6.3792650516,1126
68431,128549,175707,-6.4534425522,3.9385859996,-6.2955162605999995,1127
68161,128525,175690,-6.46062102,4.0857445895,-6.3876399307,1128
67524,128457,175607,-6.5730836822,4.007977855,-6.244070574699999,1129
66917,128441,175568,-6.4498533183,4.0737804765,-6.2584275103,1130
66500,128299,175517,-6.4534425522,4.0378881375,-6.2344992843,1131
66221,128301,175502,-6.4163538019,4.0175491454,-6.324230131799999,1132
66003,128293,175491,-6.3110696074999995,3.9792639838,-6.257231098999999,1133
65894,128359,175449,-6.436692794,3.9768711611999996,-6.388836342,1134
65986,128382,175475,-6.451049729599999,4.1240297511,-6.2644095668,1135
66102,128390,175476,-6.4582281974,4.0235312019,-6.228517227799999,1136
66144,128356,175503,-6.435496382699999,3.9696926934,-6.3481583578,1137
66233,128376,175514,-6.467799487800001,4.1479579771,-6.3158552527000005,1138
66326,128396,175481,-6.3780686402999995,4.0462630166,-6.3098731962,1139
66479,128416,175530,-6.4091753340999995,3.9517465239000003,-6.326622954399999,1140
66639,128464,175553,-6.4701923104,4.126422573699999,-6.34097989,1141
66832,128500,175547,-6.4654066652,3.936193177,-6.2548382764,1142
67041,128423,175608,-6.5168523511,4.0247276132000005,-6.2524454538,1143
67257,128442,175574,-6.3948183985,4.0187455567,-6.3098731962,1144
67375,128552,175625,-6.549155456199999,3.9816568063999997,-6.436692794,1145
67636,128584,175621,-6.4773707782,3.9553357578,-6.3924255759,1146
67820,128497,175653,-6.5288164641,3.9625142255999997,-6.3601224708,1147
67994,128571,175703,-6.3864435194,4.0031922098,-6.3960148098,1148
68180,128714,175707,-6.4941205364000005,4.0701912426,-6.2344992843,1149
68382,128732,175718,-6.3206408979,4.007977855,-6.3074803736,1150
68555,128732,175717,-6.4295143262,4.0055850324,-6.2715880346,1151
68525,128695,175707,-6.4450676731,4.0247276132000005,-6.2141602922,1152
68020,128642,175682,-6.5060846494,4.0055850324,-6.269195212,1153
67387,128567,175598,-6.368497349899999,3.9996029759000002,-6.3122660188,1154
66933,128538,175586,-6.3924255759,4.1455651545,-6.3230337205,1155
66638,128506,175536,-6.3637117047,4.0223347905999995,-6.257231098999999,1156
66437,128411,175558,-6.4917277138,3.9553357578,-6.3158552527000005,1157
66346,128396,175503,-6.4833528347,3.9720855159999995,-6.364908116,1158
66368,128424,175550,-6.4773707782,4.0582271296000005,-6.3122660188,1159
66454,128406,175520,-6.4235322697,4.0354953148999995,-6.3673009386,1160
66517,128483,175479,-6.4271215036000005,4.0127635002,-6.2273208165,1161
66549,128480,175524,-6.5108702946,3.9194434188,-6.206981824400001,1162
66562,128451,175501,-6.4235322697,3.9457644674,-6.381657874199999,1163
66700,128484,175460,-6.3804614629,3.9720855159999995,-6.3086767849,1164
66756,128522,175494,-6.2656059781,4.0390845488,-6.2500526312,1165
66882,128463,175489,-6.576672916100001,3.9744783386,-6.281159325,1166
67031,128464,175471,-6.3218373092,4.1168512833,-6.3505511804,1167
67212,128448,175483,-6.472585133,4.0031922098,-6.2105710583,1168
67301,128327,175416,-6.5192451737,3.9613178143,-6.301498317099999,1169
67455,128423,175468,-6.4582281974,4.0618163635,-6.364908116,1170
67599,128465,175433,-6.3302121883,3.9433716447999996,-6.343372712599999,1171
67718,128505,175466,-6.5036918268,3.9816568063999997,-6.2907306154,1172
67897,128496,175488,-6.4271215036000005,3.9349967657,-6.2835521476,1173
68001,128487,175474,-6.5419769884,3.9744783386,-6.2057854131,1174
68113,128505,175498,-6.3780686402999995,3.912264951,-6.2943198493,1175
67892,128448,175503,-6.5001025929,4.0091742663,-6.352944002999999,1176
67240,128388,175401,-6.508477471999999,3.8931223702,-6.299105494500001,1177
66546,128347,175383,-6.532405698,3.9768711611999996,-6.412764568,1178
66238,128305,175357,-6.435496382699999,3.9577285803999995,-6.2524454538,1179
65910,128254,175309,-6.3924255759,3.9457644674,-6.352944002999999,1180
65825,128235,175281,-6.3960148098,4.1682969692,-6.2536418651,1181
65750,128278,175265,-6.5419769884,4.0570307183,-6.4187466245,1182
65815,128292,175303,-6.4773707782,4.0103706776,-6.3194444866,1183
65931,128300,175331,-6.385247108100001,3.9349967657,-6.329015777,1184
65995,128375,175347,-6.4498533183,3.9744783386,-6.2500526312,1185
66081,128349,175354,-6.4175502132,4.0247276132000005,-6.3505511804,1186
66191,128375,175335,-6.4821564234,3.9661034595,-6.273980857200001,1187
66227,128388,175366,-6.46062102,3.9529429352,-6.400800455,1188
66413,128421,175422,-6.4139609793000005,4.0414773714,-6.3062839623,1189
66647,128426,175417,-6.4701923104,4.0163527341,-6.233302873,1190
66849,128469,175393,-6.4941205364000005,4.0833517669,-6.2548382764,1191
66949,128485,175454,-6.419943035799999,3.9672998708,-6.293123438,1192
67231,128513,175505,-6.479763600799999,3.8656049103,-6.3792650516,1193
67426,128539,175467,-6.4438712618,3.9744783386,-6.3457655352,1194
67602,128530,175472,-6.4342999714,4.0761732991,-6.302694728400001,1195
67760,128619,175503,-6.4319071488,4.019941968,-6.376872229,1196
67950,128621,175571,-6.3589260595,4.001995798499999,-6.329015777,1197
68124,128630,175575,-6.5072810607,4.0247276132000005,-6.3074803736,1198
68228,128629,175561,-6.2967126719,3.8979080154,-6.3194444866,1199
67929,128600,175523,-6.3756758177,4.0342989036,-6.3936219871999995,1200
67309,128529,175490,-6.467799487800001,4.0474594279,-6.2344992843,1201
66735,128488,175424,-6.5072810607,4.0342989036,-6.3792650516,1202
66354,128429,175393,-6.4055861002,4.0366917262,-6.285944970199999,1203
66034,128429,175375,-6.4689958991,3.9984065645999998,-6.339783478699999,1204
65921,128389,175373,-6.305087551,4.0510486617999995,-6.2644095668,1205
65879,128396,175332,-6.4331035601,3.9409788222,-6.270391623299999,1206
65889,128389,175346,-6.5551375127,3.9912280968,-6.259623921599999,1207
66004,128431,175295,-6.34097989,4.0606199522,-6.305087551,1208
66059,128414,175404,-6.342176301299999,3.9792639838,-6.3505511804,1209
66163,128429,175367,-6.4558353748,4.0091742663,-6.317051664,1210
66267,128463,175398,-6.467799487800001,3.9134613623,-6.34097989,1211
66402,128507,175442,-6.436692794,3.9290147091999996,-6.2823557362999995,1212
66575,128528,175378,-6.4211394471,3.9529429352,-6.2368921069,1213
66750,128501,175408,-6.5659052144,3.8895331363000003,-6.2823557362999995,1214
66966,128562,175463,-6.3134624300999995,4.1001015251,-6.1986069453,1215
67159,128572,175489,-6.4941205364000005,4.064209186099999,-6.305087551,1216
67374,128589,175470,-6.3589260595,3.996013742,-6.260820332899999,1217
67545,128582,175472,-6.3505511804,3.924229064,-6.3074803736,1218
67728,128622,175481,-6.4295143262,4.0175491454,-6.3314085996000005,1219
67869,128621,175511,-6.479763600799999,4.064209186099999,-6.3074803736,1220
68065,128643,175528,-6.3577296482,4.0594235409,-6.3625152933999995,1221
68264,128698,175547,-6.5096738833000005,4.019941968,-6.3110696074999995,1222
68438,128705,175550,-6.412764568,3.9349967657,-6.2751772685,1223
68287,128650,175543,-6.3984076324000005,4.0498522505,-6.2847485589,1224
67744,128585,175500,-6.4414784392,3.9314075318,-6.3673009386,1225
67190,128498,175461,-6.3541404143,3.9038900719000003,-6.4426748505,1226
66819,128496,175397,-6.3996040437,4.0462630166,-6.317051664,1227
66523,128449,175346,-6.4654066652,4.019941968,-6.3074803736,1228
66328,128404,175337,-6.4342999714,4.0031922098,-6.2644095668,1229
66202,128422,175330,-6.406782511499999,4.0007993872,-6.3338014222,1230
66223,128422,175352,-6.5228344076,3.9349967657,-6.356533236900001,1231
66329,128436,175380,-6.301498317099999,4.0187455567,-6.2668023894,1232
66439,128465,175321,-6.46062102,3.9720855159999995,-6.4115681567000005,1233
66492,128406,175357,-6.425925092299999,4.0905302347,-6.3577296482,1234
66562,128423,175320,-6.4414784392,4.0953158799,-6.352944002999999,1235
66711,128434,175372,-6.484549246,4.0582271296000005,-6.3206408979,1236
66858,128446,175316,-6.508477471999999,4.0151563228,-6.3314085996000005,1237
67035,128490,175353,-6.479763600799999,4.0618163635,-6.1710894854,1238
67185,128451,175331,-6.4271215036000005,3.9014972492999997,-6.2668023894,1239
67374,128451,175332,-6.5060846494,3.8751762007000004,-6.3720865838,1240
67566,128470,175354,-6.466603076499999,4.0809589443,-6.3338014222,1241
67717,128484,175373,-6.4570317861,3.9720855159999995,-6.352944002999999,1242
67883,128471,175346,-6.4319071488,3.9792639838,-6.2967126719,1243
68012,128486,175387,-6.356533236900001,4.007977855,-6.324230131799999,1244
68182,128514,175389,-6.521637996299999,3.9038900719000003,-6.3792650516,1245
68304,128503,175394,-6.4977097703,3.9912280968,-6.324230131799999,1246
68486,128512,175356,-6.439085616600001,4.0414773714,-6.2177495260999995,1247
68328,128465,175347,-6.4498533183,4.0546378957,-6.3074803736,1248
67809,128405,175309,-6.355336825599999,3.9816568063999997,-6.3673009386,1249
67320,128354,175274,-6.4630138426,4.0666020087,-6.3326050109,1250
66982,128280,175190,-6.410371745399999,3.8679977328999997,-6.3361942448,1251
66712,128254,175166,-6.3326050109,3.9756747499,-6.3098731962,1252
66624,128252,175141,-6.4630138426,3.9720855159999995,-6.2787665024,1253
66590,128207,175156,-6.3637117047,3.9720855159999995,-6.3457655352,1254
66630,128242,175169,-6.422335858399999,3.984049629,-6.257231098999999,1255
66746,128275,175153,-6.3948183985,3.9720855159999995,-6.269195212,1256
66790,128259,175165,-6.4881384799,4.0151563228,-6.2548382764,1257
66833,128196,175120,-6.356533236900001,3.9433716447999996,-6.317051664,1258
66915,128166,175159,-6.4594246087,3.9553357578,-6.3493547691,1259
67044,128211,175143,-6.4630138426,3.9984065645999998,-6.2297136391,1260
67205,128231,175161,-6.5838513839,4.0666020087,-6.2955162605999995,1261
67352,128261,175193,-6.4055861002,4.0737804765,-6.2512490425,1262
67523,128275,175196,-6.4462640844,4.031906081,-6.3074803736,1263
67693,128277,175234,-6.3589260595,3.9864424516000003,-6.3361942448,1264
67863,128375,175239,-6.3445691239,3.924229064,-6.352944002999999,1265
68001,128380,175255,-6.4319071488,3.9888352742,-6.2835521476,1266
68158,128407,175296,-6.3373906561,3.8955151927999996,-6.2967126719,1267
68331,128463,175293,-6.5611195692,4.0414773714,-6.289534204100001,1268
68507,128525,175319,-6.5096738833000005,4.0354953148999995,-6.2548382764,1269
68551,128487,175319,-6.3254265431,4.0127635002,-6.2883377928,1270
68228,128411,175272,-6.384050696799999,3.9553357578,-6.2955162605999995,1271
67699,128391,175263,-6.6161544889999995,4.055834307,-6.3338014222,1272
67291,128399,175208,-6.329015777,3.9433716447999996,-6.2488562199,1273
67031,128360,175222,-6.4091753340999995,3.9529429352,-6.2955162605999995,1274
66873,128335,175156,-6.5706908596,3.9912280968,-6.3601224708,1275
66755,128361,175180,-6.6436719489,3.9302111204999997,-6.2679988007,1276
66753,128392,175148,-6.436692794,3.9936209194,-6.3637117047,1277
66850,128387,175234,-6.4414784392,3.9481572899999997,-6.3457655352,1278
66954,128415,175262,-6.324230131799999,3.9744783386,-6.2380885182,1279
67046,128441,175217,-6.3601224708,4.0055850324,-6.3314085996000005,1280
67164,128421,175235,-6.3804614629,4.06779842,-6.3589260595,1281
67271,128464,175242,-6.3708901725,3.9649070482,-6.2237315826,1282
67429,128464,175253,-6.3744794064,4.0761732991,-6.212963880899999,1283
67576,128508,175268,-6.4534425522,4.0295132584,-6.3314085996000005,1284
67769,128552,175321,-6.4450676731,3.9194434188,-6.2392849295,1285
67935,128522,175323,-6.644868360199999,3.9026936606000002,-6.3505511804,1286
68102,128543,175382,-6.3074803736,4.0905302347,-6.2919270267,1287
68284,128561,175373,-6.3948183985,3.9134613623,-6.2751772685,1288
68448,128453,175379,-6.4187466245,4.0713876539,-6.2883377928,1289
68609,128590,175405,-6.3744794064,3.9517465239000003,-6.2668023894,1290
68797,128561,175474,-6.3314085996000005,3.9302111204999997,-6.314658841399999,1291
68977,128698,175461,-6.472585133,3.9972101532999997,-6.3338014222,1292
69089,128737,175434,-6.4462640844,3.8811582571999996,-6.3481583578,1293
68899,128651,175439,-6.4893348911999995,4.0055850324,-6.2715880346,1294
68468,128625,175390,-6.448656907,4.0067814437,-6.2763736798,1295
68010,128588,175339,-6.6053867873000005,4.1252261624,-6.2644095668,1296
67602,128517,175348,-6.400800455,3.9062828945,-6.3098731962,1297
67365,128523,175274,-6.2536418651,4.0103706776,-6.2620167442,1298
67162,128497,175299,-6.3756758177,4.0235312019,-6.3361942448,1299
67056,128483,175268,-6.4319071488,3.9421752335,-6.376872229,1300
67089,128505,175322,-6.412764568,4.0749768878,-6.329015777,1301
67209,128532,175287,-6.4630138426,3.9792639838,-6.352944002999999,1302
67246,128536,175296,-6.422335858399999,3.9613178143,-6.2799629137,1303
67322,128543,175283,-6.4594246087,3.9457644674,-6.3218373092,1304
67408,128556,175325,-6.4630138426,4.0654055974,-6.326622954399999,1305
67534,128565,175333,-6.385247108100001,3.9816568063999997,-6.3661045273,1306
67666,128621,175310,-6.439085616600001,3.9696926934,-6.3732829951,1307
67816,128623,175368,-6.3960148098,3.9385859996,-6.376872229,1308
67980,128636,175361,-6.4905313025,3.8967116041,-6.3625152933999995,1309
68152,128603,175360,-6.3864435194,4.0713876539,-6.2057854131,1310
68316,128616,175416,-6.4989061816,4.0211383793,-6.2512490425,1311
68462,128658,175408,-6.4055861002,3.9625142255999997,-6.2907306154,1312
68602,128698,175412,-6.4821564234,4.0163527341,-6.3003019058,1313
68783,128690,175473,-6.4271215036000005,3.9876388629,-6.2907306154,1314
68951,128727,175419,-6.4630138426,3.9720855159999995,-6.3230337205,1315
69103,128739,175468,-6.2883377928,4.0498522505,-6.301498317099999,1316
69205,128735,175486,-6.3924255759,3.9864424516000003,-6.269195212,1317
69006,128696,175449,-6.422335858399999,4.0175491454,-6.289534204100001,1318
68491,128640,175374,-6.5048882380999995,4.0007993872,-6.293123438,1319
67981,128572,175322,-6.2368921069,4.1108692268,-6.364908116,1320
67643,128551,175331,-6.5718872709,4.1300118076,-6.3912291645999995,1321
67291,128542,175293,-6.4091753340999995,3.9864424516000003,-6.4055861002,1322
67176,128494,175296,-6.4833528347,4.019941968,-6.352944002999999,1323
67057,128536,175252,-6.3828542855,4.0235312019,-6.3326050109,1324
67056,128488,175258,-6.451049729599999,3.9493537012999997,-6.2668023894,1325
67176,128521,175270,-6.4881384799,3.8691941442,-6.2632131555,1326
67194,128552,175251,-6.4426748505,4.0594235409,-6.2500526312,1327
67212,128469,175263,-6.4043896889,4.0295132584,-6.2237315826,1328
67315,128534,175268,-6.5419769884,3.8835510798,-6.34097989,1329
67425,128531,175296,-6.4091753340999995,3.9720855159999995,-6.2787665024,1330
67538,128467,175254,-6.3708901725,4.0175491454,-6.3445691239,1331
67586,128545,175286,-6.293123438,3.8488551521,-6.212963880899999,1332
67877,128590,175308,-6.4271215036000005,4.0390845488,-6.2787665024,1333
67970,128585,175319,-6.5551375127,4.092923057299999,-6.2919270267,1334
68149,128598,175355,-6.4821564234,4.0127635002,-6.3098731962,1335
68277,128620,175322,-6.5001025929,3.9625142255999997,-6.3385870674,1336
68425,128615,175333,-6.5395841658,4.0115670889,-6.2751772685,1337
68531,128594,175362,-6.5527446901,3.9385859996,-6.260820332899999,1338
68696,128628,175337,-6.546762633599999,4.1503507997,-6.356533236900001,1339
68847,128650,175338,-6.4546389635,3.8859439023999998,-6.3385870674,1340
68998,128608,175387,-6.4558353748,3.9984065645999998,-6.342176301299999,1341
68821,128615,175351,-6.3457655352,3.9493537012999997,-6.4426748505,1342
68338,128568,175297,-6.4247286809999995,4.0713876539,-6.269195212,1343
67850,128502,175260,-6.4055861002,3.9984065645999998,-6.369693761200001,1344
67488,128461,175158,-6.451049729599999,4.001995798499999,-6.3122660188,1345
67233,128424,175225,-6.4091753340999995,4.0498522505,-6.293123438,1346
67066,128387,175133,-6.385247108100001,3.9433716447999996,-6.343372712599999,1347
66876,128406,175127,-6.5300128754,3.9613178143,-6.4139609793000005,1348
67012,128411,175129,-6.496513359000001,4.0354953148999995,-6.2656059781,1349
67055,128408,175144,-6.439085616600001,4.0546378957,-6.3098731962,1350
67055,128372,175155,-6.521637996299999,3.9649070482,-6.2835521476,1351
67056,128338,175071,-6.6245293681,3.9816568063999997,-6.299105494500001,1352
67100,128349,175069,-6.5144595285,4.0474594279,-6.2464633973,1353
67161,128352,175061,-6.4917277138,3.9409788222,-6.2835521476,1354
67255,128357,175087,-6.4917277138,3.9912280968,-6.3349978335,1355
67380,128388,175083,-6.4689958991,3.9972101532999997,-6.355336825599999,1356
67519,128387,175136,-6.5395841658,4.1383866867,-6.272784445899999,1357
67642,128390,175104,-6.4630138426,3.8679977328999997,-6.3744794064,1358
67812,128411,175111,-6.3720865838,4.0414773714,-6.317051664,1359
67939,128443,175146,-6.5132631172,3.8751762007000004,-6.2524454538,1360
67947,128414,175138,-6.4331035601,4.0354953148999995,-6.342176301299999,1361
68166,128464,175168,-6.425925092299999,4.1431723319,-6.3673009386,1362
68315,128506,175174,-6.4905313025,4.0701912426,-6.2883377928,1363
68438,128520,175196,-6.4031932776,3.9290147091999996,-6.269195212,1364
68359,128493,175247,-6.466603076499999,4.007977855,-6.3457655352,1365
67929,128438,175137,-6.4187466245,3.984049629,-6.314658841399999,1366
67357,128377,175119,-6.4534425522,4.043870194,-6.3792650516,1367
66956,128343,175103,-6.4331035601,3.9517465239000003,-6.269195212,1368
66672,128323,175058,-6.4247286809999995,3.9720855159999995,-6.3074803736,1369
66456,128310,175044,-6.4055861002,4.0378881375,-6.259623921599999,1370
66322,128291,175039,-6.439085616600001,3.8488551521,-6.3182480753000005,1371
66325,128314,175056,-6.241677752099999,3.9170505962,-6.384050696799999,1372
66429,128337,175092,-6.381657874199999,3.8979080154,-6.376872229,1373
66528,128396,175037,-6.3206408979,3.9014972492999997,-6.412764568,1374
66579,128421,175122,-6.3349978335,4.0223347905999995,-6.2464633973,1375
66614,128430,175083,-6.5072810607,3.9170505962,-6.2201423487000005,1376
66739,128450,175118,-6.5108702946,3.8572300312,-6.3206408979,1377
66868,128464,175154,-6.5300128754,3.936193177,-6.3960148098,1378
67023,128505,175155,-6.3349978335,3.9314075318,-6.3661045273,1379
67179,128528,175186,-6.3625152933999995,3.8321053939,-6.257231098999999,1380
67366,128518,175191,-6.3661045273,3.9577285803999995,-6.2835521476,1381
67539,128594,175202,-6.3960148098,4.0414773714,-6.3086767849,1382
67680,128577,175221,-6.4402820279,4.1001015251,-6.3361942448,1383
67851,128591,175211,-6.4498533183,4.0594235409,-6.22133876,1384
68011,128617,175253,-6.3673009386,4.007977855,-6.281159325,1385
68189,128596,175281,-6.480960012100001,4.0594235409,-6.2715880346,1386
68332,128683,175279,-6.3792650516,3.9696926934,-6.2548382764,1387
68284,128651,175305,-6.508477471999999,4.0785661217,-6.2428741634,1388
67884,128608,175256,-6.3744794064,3.960121403,-6.3505511804,1389
67335,128549,175199,-6.451049729599999,3.9517465239000003,-6.437889205299999,1390
66898,128463,175142,-6.4462640844,4.0259240245,-6.2045890018000005,1391
66612,128481,175119,-6.5072810607,4.0055850324,-6.2117674696,1392
66373,128427,175092,-6.4319071488,4.079762533,-6.385247108100001,1393
66217,128439,175093,-6.3732829951,3.9852460403000003,-6.400800455,1394
66263,128476,175110,-6.425925092299999,4.0223347905999995,-6.2225351713,1395
66330,128454,175097,-6.376872229,3.9888352742,-6.3182480753000005,1396
66406,128456,175144,-6.3062839623,4.0067814437,-6.326622954399999,1397
66441,128432,175112,-6.4462640844,4.0055850324,-6.2488562199,1398
66521,128483,175127,-6.4139609793000005,3.9146577735999997,-6.2907306154,1399
66628,128501,175127,-6.3828542855,4.0666020087,-6.2644095668,1400
66815,128519,175153,-6.4630138426,4.0414773714,-6.3314085996000005,1401
66950,128527,175163,-6.339783478699999,3.9696926934,-6.364908116,1402
67122,128554,175174,-6.6053867873000005,4.1072799929,-6.260820332899999,1403
67295,128530,175187,-6.46062102,3.984049629,-6.162714606300001,1404
67426,128548,175119,-6.4043896889,3.9804603951,-6.2979090831999995,1405
67549,128491,175168,-6.4582281974,4.0773697104,-6.301498317099999,1406
67677,128515,175145,-6.4402820279,4.0498522505,-6.281159325,1407
67808,128513,175139,-6.4319071488,3.9589249917,-6.3589260595,1408
67967,128491,175169,-6.3936219871999995,3.9816568063999997,-6.3601224708,1409
68113,128537,175168,-6.3732829951,4.0283168471,-6.293123438,1410
68205,128525,175209,-6.3481583578,3.9720855159999995,-6.368497349899999,1411
67992,128496,175192,-6.4474604957,3.9026936606000002,-6.314658841399999,1412
67407,128425,175082,-6.2823557362999995,3.9481572899999997,-6.3756758177,1413
66879,128327,175024,-6.4426748505,3.9625142255999997,-6.314658841399999,1414
66619,128302,174948,-6.3828542855,4.0570307183,-6.326622954399999,1415
66338,128313,174962,-6.5539411014,3.996013742,-6.397211221099999,1416
66115,128230,174931,-6.4498533183,4.1455651545,-6.2368921069,1417
66068,128187,174936,-6.4546389635,4.0187455567,-6.3792650516,1418
66106,128208,174910,-6.356533236900001,3.8416766843000003,-6.3792650516,1419
66154,128202,174897,-6.3302121883,4.0462630166,-6.369693761200001,1420
66202,128212,174886,-6.549155456199999,4.0414773714,-6.2512490425,1421
66252,128225,174863,-6.4654066652,3.9900316855,-6.364908116,1422
66313,128165,174858,-6.508477471999999,3.9433716447999996,-6.302694728400001,1423
66435,128204,174870,-6.4941205364000005,3.9720855159999995,-6.3361942448,1424
66598,128217,174906,-6.4211394471,3.9792639838,-6.355336825599999,1425
66742,128210,174924,-6.3864435194,4.0402809601,-6.233302873,1426
66916,128231,174905,-6.5886370291,4.0689948312999995,-6.317051664,1427
67061,128242,174910,-6.4091753340999995,3.9649070482,-6.343372712599999,1428
67232,128253,174903,-6.448656907,3.9744783386,-6.299105494500001,1429
67345,128235,174913,-6.5144595285,4.1216369285,-6.281159325,1430
67535,128271,174943,-6.206981824400001,4.0474594279,-6.3900327533,1431
67674,128279,174958,-6.4342999714,4.0259240245,-6.2835521476,1432
67859,128296,174950,-6.406782511499999,3.9469608787,-6.299105494500001,1433
68027,128342,174953,-6.4869420686,3.8931223702,-6.3314085996000005,1434
67985,128332,174946,-6.34097989,3.9409788222,-6.3254265431,1435
67562,128229,174936,-6.352944002999999,4.0103706776,-6.2787665024,1436
67078,128209,174907,-6.4019968663,3.9577285803999995,-6.244070574699999,1437
66748,128143,174830,-6.4247286809999995,4.1096728155,-6.3445691239,1438
66508,128130,174788,-6.4773707782,3.9050864832,-6.3601224708,1439
66351,128114,174803,-6.46062102,4.0486558392,-6.2632131555,1440
66251,128098,174768,-6.452246140900001,4.0223347905999995,-6.3637117047,1441
66289,128110,174777,-6.5407805771,3.936193177,-6.3182480753000005,1442
66389,128139,174787,-6.4893348911999995,4.0474594279,-6.2656059781,1443
66430,128058,174827,-6.385247108100001,3.9050864832,-6.364908116,1444
66491,128032,174801,-6.376872229,3.9912280968,-6.3792650516,1445
66570,128082,174822,-6.4247286809999995,3.9290147091999996,-6.3673009386,1446
66681,128091,174833,-6.4546389635,4.1024943476999995,-6.342176301299999,1447
66844,128211,174871,-6.3182480753000005,3.9816568063999997,-6.355336825599999,1448
67024,128240,174856,-6.448656907,3.9481572899999997,-6.343372712599999,1449
67097,128247,174876,-6.4893348911999995,4.0402809601,-6.3505511804,1450
67359,128274,174912,-6.4438712618,3.9098721283999995,-6.3074803736,1451
67498,128303,174920,-6.3780686402999995,4.091726646,-6.3577296482,1452
67633,128312,174931,-6.4151573906,3.9206398301,-6.2835521476,1453
67801,128314,174965,-6.5060846494,3.9517465239000003,-6.272784445899999,1454
67966,128284,174985,-6.4079789228,4.1539400336,-6.3385870674,1455
68142,128387,174958,-6.410371745399999,3.9936209194,-6.3720865838,1456
68302,128307,175019,-6.4773707782,3.960121403,-6.3792650516,1457
68415,128413,175034,-6.5048882380999995,4.1288153963,-6.293123438,1458
68174,128431,175012,-6.412764568,3.9074793058,-6.2404813408,1459
67618,128340,174973,-6.5575303353,3.9338003543999998,-6.3254265431,1460
67350,128343,174962,-6.4534425522,4.0259240245,-6.2620167442,1461
67083,128266,174899,-6.5108702946,4.055834307,-6.3194444866,1462
66890,128252,174922,-6.484549246,3.9804603951,-6.352944002999999,1463
66723,128151,174890,-6.3732829951,3.9996029759000002,-6.324230131799999,1464
66682,128154,174923,-6.4438712618,3.9026936606000002,-6.4594246087,1465
66790,128315,174896,-6.4893348911999995,3.9637106368999997,-6.314658841399999,1466
66893,128341,174930,-6.368497349899999,3.9720855159999995,-6.206981824400001,1467
66971,128349,174954,-6.3780686402999995,4.0151563228,-6.3481583578,1468
67050,128366,174950,-6.2751772685,4.0354953148999995,-6.3361942448,1469
67184,128378,174974,-6.4534425522,4.0127635002,-6.273980857200001,1470
67315,128403,175018,-6.437889205299999,3.9326039431,-6.2823557362999995,1471
67489,128443,175032,-6.339783478699999,4.1479579771,-6.2512490425,1472
67678,128449,175040,-6.4570317861,4.0522450731,-6.355336825599999,1473
67868,128500,175102,-6.46062102,4.0055850324,-6.3493547691,1474
68034,128502,175086,-6.5048882380999995,3.9230326527000003,-6.2751772685,1475
68221,128540,175095,-6.410371745399999,4.031906081,-6.3098731962,1476
68375,128537,175128,-6.3206408979,4.031906081,-6.324230131799999,1477
68577,128607,175162,-6.3110696074999995,3.888336725,-6.2823557362999995,1478
68739,128609,175140,-6.4211394471,4.0007993872,-6.317051664,1479
68909,128651,175183,-6.6257257794,3.9816568063999997,-6.2225351713,1480
69080,128660,175226,-6.3613188821,3.9888352742,-6.327819365700001,1481
69139,128669,175209,-6.3469619465000005,3.9433716447999996,-6.412764568,1482
69231,128666,175209,-6.436692794,3.9625142255999997,-6.343372712599999,1483
68965,128647,175169,-6.518048762399999,4.0366917262,-6.2787665024,1484
68530,128584,175130,-6.5156559398,3.8967116041,-6.3326050109,1485
68163,128521,175155,-6.397211221099999,3.8991044267,-6.2464633973,1486
67902,128508,175119,-6.436692794,3.9625142255999997,-6.2907306154,1487
67703,128469,175055,-6.4474604957,3.9433716447999996,-6.2799629137,1488
67546,128476,175070,-6.419943035799999,3.9194434188,-6.232106461699999,1489
67500,128491,175002,-6.3637117047,4.0271204358,-6.301498317099999,1490
67619,128497,175028,-6.5060846494,4.0043886211,-6.3098731962,1491
67692,128497,175077,-6.4857456573,3.9661034595,-6.324230131799999,1492
67745,128539,175076,-6.5431733997,4.0127635002,-6.2751772685,1493
67838,128539,175058,-6.5144595285,3.9505501125999998,-6.2919270267,1494
67880,128534,175073,-6.4175502132,3.9876388629,-6.2105710583,1495
68032,128555,175124,-6.4414784392,3.9577285803999995,-6.3864435194,1496
68164,128578,175128,-6.3996040437,4.0701912426,-6.241677752099999,1497
68352,128605,175095,-6.400800455,3.9553357578,-6.329015777,1498
68558,128630,175160,-6.4043896889,4.0785661217,-6.302694728400001,1499
68720,128618,175155,-6.5407805771,3.9744783386,-6.259623921599999,1500
68831,128667,175144,-6.4342999714,4.0390845488,-6.2201423487000005,1501
69046,128679,175159,-6.5048882380999995,3.8225341035,-6.3122660188,1502
69189,128675,175187,-6.419943035799999,3.8919259589,-6.2847485589,1503
69271,128729,175176,-6.435496382699999,3.8895331363000003,-6.2644095668,1504
69435,128660,175214,-6.4151573906,3.9014972492999997,-6.305087551,1505
69574,128687,175195,-6.3517475917,4.1252261624,-6.228517227799999,1506
69745,128714,175264,-6.6233329568,3.996013742,-6.3661045273,1507
69883,128719,175223,-6.342176301299999,4.0163527341,-6.3673009386,1508
69813,128667,175215,-6.4749779556,3.9936209194,-6.2656059781,1509
69474,128595,175153,-6.5036918268,3.9625142255999997,-6.3361942448,1510
69053,128565,175131,-6.352944002999999,3.8823546685,-6.244070574699999,1511
68711,128534,175039,-6.3948183985,3.888336725,-6.3218373092,1512
68424,128516,175003,-6.448656907,3.9146577735999997,-6.376872229,1513
68193,128421,175007,-6.5132631172,3.8703905555,-6.3218373092,1514
68067,128440,174935,-6.3996040437,3.9936209194,-6.3457655352,1515
67950,128464,174918,-6.3936219871999995,3.9505501125999998,-6.2775700911,1516
67947,128380,174917,-6.385247108100001,3.960121403,-6.369693761200001,1517
67937,128395,174921,-6.532405698,3.9433716447999996,-6.2668023894,1518
