green,red,IR,acc_x,acc_y,acc_z,sample_index
97932,186292,248040,4.9016970961,8.3401831723,0.35413774480000004,1
97968,186261,248055,5.071587500700001,8.1547394208,0.4450650036,2
98045,186273,248102,4.9962135888,8.160721477300001,0.3840480273,3
98130,186293,248062,4.929214556,8.4155570842,0.33140593009999997,4
98238,186261,248111,4.9914279436,8.2444702683,0.3684946804,5
98322,186284,248061,5.0344987504,8.2169528084,0.3158525832,6
98419,186307,248085,4.9579284272,8.293523131599999,0.4630111731,7
98501,186291,248083,5.010570524399999,8.2181492197,0.287138712,8
98511,186319,248123,4.9866422984,8.1930245824,0.382851616,9
98691,186302,248071,5.0524449199,8.170292767700001,0.3302095188,10
98773,186347,248152,5.0404808069,8.1978102276,0.4534398827,11
98858,186355,248114,4.9399822577,8.4071822051,0.3684946804,12
98942,186381,248119,4.844269353700001,8.4023965599,0.3493520996,13
99004,186371,248101,4.995017177499999,8.173882001600001,0.311066938,14
99056,186393,248143,4.9435714916,8.1894353485,0.4402793584,15
98855,186307,248073,4.9148576204,8.2169528084,0.33499516399999996,16
98545,186288,248025,5.0201418148,8.279166196,0.3684946804,17
98374,186256,248088,5.0237310487,8.1882389372,0.39720855159999996,18
98375,186280,248074,5.0380879843,8.316254946299999,0.3302095188,19
98440,186332,248149,4.9256253221,8.3258262367,0.33499516399999996,20
98550,186266,248117,4.9627140724,8.2504523248,0.4103690759,21
98661,186285,248190,4.9256253221,8.2504523248,0.3493520996,22
98813,186298,248214,5.194817864599999,8.2121671632,0.2823530668,23
98918,186335,248171,4.9483571368,8.3497544627,0.38763726119999997,24
98989,186352,248220,4.9962135888,8.2600236152,0.39720855159999996,25
99068,186373,248214,4.9818566531999995,8.3353975271,0.4677968183,26
99174,186353,248212,4.9818566531999995,8.207381518,0.40558343069999997,27
99234,186386,248288,4.8490549989,8.3461652288,0.311066938,28
99334,186341,248252,4.8777688701,8.4023965599,0.3924229064,29
99415,186313,248258,4.9627140724,8.3401831723,0.311066938,30
99510,186368,248303,4.8873401605,8.3114693011,0.44386859230000003,31
99588,186401,248244,4.9962135888,8.306683655899999,0.382851616,32
99704,186406,248294,4.9256253221,8.316254946299999,0.32901310749999996,33
99773,186389,248307,5.0333023391000005,8.350950873999999,0.49651068949999994,34
99850,186451,248336,4.8394837085,8.2779697847,0.4247260115,35
99953,186442,248327,5.000999234,8.3126657124,0.263210486,36
100031,186455,248334,5.096712138,8.4119678503,0.34337004309999997,37
100031,186447,248285,5.044070040799999,8.2133635745,0.382851616,38
99819,186309,248236,5.026123871299999,8.3593257531,0.4486542375,39
99528,186319,248308,5.0763731459,8.350950873999999,0.2787638329,40
99381,186335,248278,4.8957150396,8.2707913169,0.382851616,41
99379,186365,248288,5.0488556860000005,8.2420774457,0.3732803256,42
99452,186295,248307,4.9722853628,8.3928252695,0.38763726119999997,43
99543,186316,248315,4.9244289108,8.1643107112,0.4211367776,44
99685,186380,248375,4.9435714916,8.2743805508,0.3792623821,45
99786,186364,248347,4.9160540317,8.2133635745,0.3302095188,46
99872,186399,248378,4.9962135888,8.3796647452,0.35413774480000004,47
99924,186348,248412,5.0344987504,8.417949906799999,0.430708068,48
99968,186428,248365,5.0536413312,8.3688970435,0.47856452,49
100051,186397,248416,5.0679982668,8.293523131599999,0.43429730190000004,50
100110,186352,248428,5.0153561695999995,8.236095389199999,0.3206382284,51
100202,186384,248418,4.929214556,8.3353975271,0.3732803256,52
100269,186437,248384,4.9064827413000005,8.2169528084,0.3768695595,53
100334,186416,248416,4.953142782,8.2875410751,0.36011980130000004,54
100403,186478,248442,5.0500520973,8.2695949056,0.4677968183,55
100479,186484,248478,4.9866422984,8.364111398299999,0.44985064880000003,56
100551,186479,248431,4.9435714916,8.1786676468,0.4630111731,57
100616,186510,248482,5.0763731459,8.3784683339,0.35772697870000003,58
100669,186478,248456,4.9639104837,8.3078800672,0.4689932296,59
100597,186443,248470,5.010570524399999,8.2971123655,0.34456645439999994,60
100312,186390,248380,5.036891573,8.1188470818,0.4295116567,61
100038,186385,248416,5.0811587911,8.25523797,0.35413774480000004,62
99907,186345,248450,5.1110690735999995,8.25523797,0.40319060809999996,63
99880,186337,248440,5.099104960599999,8.316254946299999,0.4390829471,64
99932,186358,248430,4.9627140724,8.1403824852,0.49292145559999995,65
99999,186385,248428,5.0620162103,8.3210405915,0.34456645439999994,66
100119,186399,248457,5.0536413312,8.1176506705,0.40677984199999995,67
100177,186416,248495,4.9483571368,8.459824302300001,0.42592242280000003,68
100212,186401,248480,4.8921258057,8.279166196,0.4390829471,69
100250,186428,248493,4.9866422984,8.2683984943,0.3493520996,70
100239,186397,248518,4.8155554825,8.3748791,0.35892339,71
100315,186411,248534,4.9866422984,8.2827554299,0.4642075844,72
100364,186406,248505,4.9806602419,8.4023965599,0.2823530668,73
100396,186417,248547,4.8717868136,8.2600236152,0.38763726119999997,74
100484,186437,248534,5.0428736295,8.3126657124,0.32901310749999996,75
100527,186462,248555,5.0811587911,8.2695949056,0.42592242280000003,76
100581,186471,248546,5.0201418148,8.364111398299999,0.382851616,77
100660,186459,248635,4.9734817741,8.231309744,0.2775674216,78
100699,186504,248620,4.9722853628,8.1918281711,0.3625126239,79
100767,186511,248594,5.228317381,8.327022648,0.24885355039999998,80
100753,186514,248574,5.0057848792,8.3593257531,0.3397808092,81
100497,186401,248527,4.9914279436,8.3318082932,0.20578274359999998,82
100125,186352,248483,5.1900322194,8.2600236152,0.3158525832,83
99867,186292,248531,5.0428736295,8.2851482525,0.36370903520000003,84
99822,186313,248499,4.9256253221,8.2229348649,0.3780659708,85
99813,186362,248553,5.1050870171,8.3126657124,0.33858439789999994,86
99836,186354,248529,5.0201418148,8.3461652288,0.32542387359999997,87
99962,186378,248589,5.0428736295,8.364111398299999,0.33858439789999994,88
100025,186368,248573,4.844269353700001,8.350950873999999,0.4354937132,89
100115,186401,248586,5.02492746,8.3844503904,0.36370903520000003,90
100141,186441,248659,5.0404808069,8.2636128491,0.3062812928,91
100172,186403,248599,4.953142782,8.25523797,0.4677968183,92
100169,186411,248603,5.000999234,8.25523797,0.3720839143,93
100259,186447,248621,5.000999234,8.3485580514,0.2727817764,94
100296,186435,248701,5.0285166938999994,8.450253011900001,0.36370903520000003,95
100367,186448,248691,5.000999234,8.2037922841,0.35413774480000004,96
100447,186487,248659,4.9244289108,8.2504523248,0.33499516399999996,97
100501,186467,248720,5.029713105200001,8.3174513576,0.3684946804,98
100562,186468,248691,4.9483571368,8.2648092604,0.4295116567,99
100610,186489,248699,4.9435714916,8.4119678503,0.44985064880000003,100
100663,186483,248663,4.9854458871,8.236095389199999,0.32542387359999997,101
100721,186515,248734,4.9627140724,8.3018980107,0.35413774480000004,102
100675,186486,248711,4.9627140724,8.2516487361,0.4630111731,103
100391,186418,248637,5.0775695572,8.2695949056,0.2727817764,104
99955,186337,248545,5.044070040799999,8.2636128491,0.3158525832,105
99760,186302,248595,4.953142782,8.2923267203,0.43429730190000004,106
99715,186291,248570,5.041677218199999,8.3844503904,0.4725824635,107
99773,186307,248670,5.02492746,8.2600236152,0.3493520996,108
99859,186357,248651,5.02492746,8.236095389199999,0.38763726119999997,109
99955,186289,248607,4.9483571368,8.1463645417,0.4486542375,110
100068,186365,248725,4.9579284272,8.2600236152,0.4163511324,111
100161,186410,248749,5.071587500700001,8.239684623099999,0.3720839143,112
100183,186378,248731,4.9674997176,8.4167534955,0.3206382284,113
100212,186431,248718,4.9627140724,8.327022648,0.311066938,114
100238,186417,248744,4.9758745967,8.240881034400001,0.3864408499,115
100315,186430,248743,4.9866422984,8.3078800672,0.3529413335,116
100362,186462,248728,4.9340002012,8.482556117,0.33499516399999996,117
100426,186433,248742,5.010570524399999,8.3653078096,0.35413774480000004,118
100494,186469,248746,4.953142782,8.3353975271,0.3242274623,119
100515,186486,248827,4.961517661099999,8.2827554299,0.2691925425,120
100617,186483,248755,5.0237310487,8.1942209937,0.24047867129999997,121
100666,186485,248784,4.929214556,8.2504523248,0.35413774480000004,122
100743,186478,248789,5.1708896386,8.373682688699999,0.4725824635,123
100785,186485,248799,4.9722853628,8.4071822051,0.382851616,124
100603,186422,248773,5.1098726623,8.2875410751,0.32542387359999997,125
100217,186365,248737,5.1003013719000005,8.3832539791,0.311066938,126
99899,186316,248674,4.953142782,8.279166196,0.34456645439999994,127
99824,186283,248741,5.060819799,8.2456666796,0.3816552047,128
99787,186325,248718,5.1003013719000005,8.2372918005,0.41515472109999996,129
99942,186314,248747,5.02492746,8.2181492197,0.4247260115,130
100048,186341,248793,4.9914279436,8.3258262367,0.3732803256,131
100174,186380,248844,4.857429878,8.2025958728,0.3625126239,132
100252,186390,248754,5.057230565099999,8.183453292,0.2967100024,133
100323,186390,248811,4.990231532299999,8.3545401079,0.4199403663,134
100375,186386,248794,4.929214556,8.2743805508,0.3924229064,135
100397,186429,248795,5.0045884679,8.1367932513,0.3397808092,136
100451,186418,248847,4.9722853628,8.25523797,0.382851616,137
100513,186439,248824,4.953142782,8.3306118819,0.3720839143,138
100576,186415,248815,4.9196432655999995,8.293523131599999,0.41276189849999995,139
100655,186475,248801,5.071587500700001,8.3210405915,0.4582255279,140
100728,186453,248828,5.1673004047,8.2839518412,0.23569302609999998,141
100795,186498,248806,4.8921258057,8.226524098799999,0.4295116567,142
100863,186473,248830,5.156532702999999,8.2504523248,0.4642075844,143
100921,186547,248903,5.0189454035,8.4167534955,0.43429730190000004,144
100913,186495,248906,4.857429878,8.2971123655,0.4295116567,145
100659,186375,248840,5.0476592747,8.2025958728,0.49770710079999997,146
100259,186316,248787,4.9519463707,8.2648092604,0.35413774480000004,147
100072,186323,248827,5.0775695572,8.2983087768,0.35413774480000004,148
100055,186322,248776,5.0392843956,8.207381518,0.382851616,149
100117,186338,248818,5.0021956453,8.2600236152,0.382851616,150
100220,186356,248793,4.9591248385,8.170292767700001,0.2775674216,151
100350,186385,248822,4.9722853628,8.1128650253,0.38763726119999997,152
100464,186403,248829,5.010570524399999,8.4071822051,0.48693939909999995,153
100525,186384,248843,4.8981078622,8.3413795836,0.4390829471,154
100561,186388,248875,4.9674997176,8.3497544627,0.4247260115,155
100593,186424,248867,5.085944436299999,8.293523131599999,0.32542387359999997,156
100620,186424,248814,5.029713105200001,8.1930245824,0.3062812928,157
100661,186434,248872,4.8598227006,8.3222370028,0.49172504429999997,158
100772,186438,248895,5.0668018555,8.3832539791,0.430708068,159
100786,186436,248856,5.0668018555,8.2456666796,0.4594219392,160
100856,186419,248913,5.114658307499999,8.1882389372,0.47736810869999996,161
100926,186447,248862,5.0524449199,8.173882001600001,0.33499516399999996,162
100961,186450,248885,5.0141597583,8.2923267203,0.4019941968,163
101013,186472,248897,5.114658307499999,8.116454259200001,0.3924229064,164
100997,186461,248935,4.9674997176,8.2325061553,0.44985064880000003,165
100706,186435,248861,4.9483571368,8.3210405915,0.4163511324,166
100290,186253,248816,5.0763731459,8.226524098799999,0.3493520996,167
100087,186308,248851,5.2151568567,8.293523131599999,0.38763726119999997,168
100030,186297,248819,4.8873401605,8.3353975271,0.311066938,169
100051,186279,248812,4.9818566531999995,8.1463645417,0.5048855686,170
100104,186297,248867,5.02492746,8.2085779293,0.35892339,171
100183,186326,248868,5.1302116544,8.3306118819,0.4630111731,172
100258,186359,248884,5.1290152431000005,8.2839518412,0.4163511324,173
100300,186321,248854,4.9878387097,8.4550386571,0.3206382284,174
100342,186362,248897,5.0955157266999995,8.3078800672,0.36370903520000003,175
100280,186366,248863,5.1050870171,8.2695949056,0.3206382284,176
100302,186356,248895,5.0057848792,8.364111398299999,0.3493520996,177
100320,186356,248868,4.9627140724,8.3688970435,0.3625126239,178
100368,186349,248902,5.058426976400001,8.2085779293,0.3768695595,179
100380,186393,248924,4.9591248385,8.4215391407,0.39720855159999996,180
100448,186398,248948,4.9639104837,8.2983087768,0.3302095188,181
100489,186419,248918,5.0344987504,8.2648092604,0.3684946804,182
100568,186397,248963,5.029713105200001,8.3653078096,0.35892339,183
100548,186447,248907,4.9722853628,8.2504523248,0.5252245607,184
100369,186390,248896,5.000999234,8.3832539791,0.4390829471,185
99890,186294,248852,5.000999234,8.293523131599999,0.3062812928,186
99501,186247,248837,4.8622155232,8.3306118819,0.31944181709999997,187
99307,186190,248801,4.9722853628,8.279166196,0.382851616,188
99253,186192,248786,4.9435714916,8.3126657124,0.3493520996,189
99291,186205,248769,4.9639104837,8.4023965599,0.2679961312,190
99295,186241,248850,5.000999234,8.3306118819,0.36370903520000003,191
99385,186279,248835,4.977071008,8.2827554299,0.34456645439999994,192
99413,186297,248829,4.881358104,8.2648092604,0.36370903520000003,193
99429,186280,248851,5.1625147595,8.2983087768,0.24885355039999998,194
99412,186306,248809,5.0679982668,8.2983087768,0.3732803256,195
99435,186283,248836,5.0153561695999995,8.3365939384,0.3206382284,196
99410,186307,248811,4.9483571368,8.3018980107,0.2835494781,197
99440,186318,248848,5.1230331866,8.3126657124,0.31704899449999996,198
99469,186332,248883,5.0189454035,8.2600236152,0.311066938,199
99534,186331,248859,4.8634119345,8.4167534955,0.4211367776,200
99557,186342,248864,4.9483571368,8.3401831723,0.311066938,201
99594,186381,248930,5.0955157266999995,8.2648092604,0.287138712,202
99630,186361,248881,5.1062834284,8.417949906799999,0.3816552047,203
99675,186383,248874,5.0775695572,8.279166196,0.4390829471,204
99458,186317,248893,5.120640364,8.3545401079,0.32542387359999997,205
98989,186195,248786,4.9435714916,8.3114693011,0.2727817764,206
98624,186173,248716,5.071587500700001,8.1870425259,0.30747770409999997,207
98475,186168,248767,5.0153561695999995,8.2456666796,0.36370903520000003,208
98462,186149,248752,4.90528633,8.3234334141,0.32542387359999997,209
98483,186067,248761,4.9543391933,8.3401831723,0.4019941968,210
98548,186210,248759,5.071587500700001,8.2217384536,0.3864408499,211
98658,186189,248800,4.9196432655999995,8.207381518,0.3780659708,212
98716,186254,248796,4.9579284272,8.316254946299999,0.311066938,213
98759,186247,248806,4.9663033062999995,8.3318082932,0.382851616,214
98737,186245,248827,4.9112683865,8.2839518412,0.33499516399999996,215
98779,186246,248850,4.929214556,8.2983087768,0.34456645439999994,216
98801,186281,248828,5.084748025,8.3114693011,0.3684946804,217
98836,186246,248829,5.0763731459,8.3784683339,0.382851616,218
98904,186284,248874,5.1098726623,8.2827554299,0.34456645439999994,219
99014,186302,248874,5.1098726623,8.4035929712,0.33499516399999996,220
99061,186311,248837,4.8765724588,8.3557365192,0.3014956476,221
99131,186335,248880,4.9758745967,8.226524098799999,0.32542387359999997,222
99192,186329,248868,5.1960142759,8.2648092604,0.3397808092,223
99261,186327,248902,4.8909293944,8.2743805508,0.34456645439999994,224
99153,186324,248819,5.0620162103,8.3318082932,0.38763726119999997,225
98730,186221,248762,4.995017177499999,8.303094422,0.40677984199999995,226
98366,186143,248776,4.9818566531999995,8.2504523248,0.3493520996,227
98246,186157,248771,5.0141597583,8.3078800672,0.44985064880000003,228
98264,186160,248805,5.000999234,8.207381518,0.2787638329,229
98342,186166,248754,4.9435714916,8.3174513576,0.3062812928,230
98441,186143,248763,4.8586262893,8.3353975271,0.35413774480000004,231
98590,186177,248789,4.9758745967,8.3258262367,0.3864408499,232
98692,186238,248798,5.0775695572,8.293523131599999,0.4821537539,233
98754,186143,248838,4.8957150396,8.3593257531,0.382851616,234
98766,186242,248839,5.0045884679,8.3976109147,0.3864408499,235
98833,186196,248840,5.02492746,8.2779697847,0.4677968183,236
98892,186306,248885,4.857429878,8.3401831723,0.36370903520000003,237
98985,186254,248859,5.1158547188000005,8.1894353485,0.4103690759,238
99077,186281,248874,5.0668018555,8.2588272039,0.3816552047,239
99155,186311,248852,5.0201418148,8.3018980107,0.40677984199999995,240
99245,186303,248923,4.977071008,8.25523797,0.3768695595,241
99312,186307,248914,4.965106895,8.3593257531,0.36370903520000003,242
99399,186305,248891,5.0141597583,8.3222370028,0.4390829471,243
99475,186314,248913,5.0189454035,8.1463645417,0.42592242280000003,244
99523,186328,248927,5.0165525809,8.3784683339,0.4677968183,245
99325,186294,248846,5.000999234,8.160721477300001,0.3684946804,246
98924,186187,248797,4.929214556,8.303094422,0.3625126239,247
98679,186103,248830,4.9519463707,8.2839518412,0.382851616,248
98646,186149,248860,4.929214556,8.2695949056,0.4103690759,249
98673,186145,248769,5.1481578239,8.2648092604,0.4103690759,250
98812,186160,248873,5.071587500700001,8.364111398299999,0.4821537539,251
98942,186183,248849,5.0285166938999994,8.306683655899999,0.3158525832,252
99101,186191,248843,5.0045884679,8.293523131599999,0.3960121403,253
99180,186238,248858,5.0536413312,8.3258262367,0.3924229064,254
99219,186239,248884,4.9112683865,8.4203427294,0.42592242280000003,255
99257,186264,248881,5.0333023391000005,8.2444702683,0.3361915753,256
99322,186234,248840,5.0057848792,8.1882389372,0.3924229064,257
99383,186282,248899,4.9722853628,8.2588272039,0.3302095188,258
99453,186297,248912,5.1338008883,8.240881034400001,0.526420972,259
99559,186279,248909,5.072783911999999,8.3461652288,0.3684946804,260
99642,186274,248898,5.1720860499,8.2420774457,0.3493520996,261
99702,186317,248922,5.0057848792,8.2348989779,0.34576286570000003,262
99781,186313,248946,4.9196432655999995,8.3545401079,0.4881358104,263
99853,186326,249007,5.0153561695999995,8.0889367993,0.3780659708,264
99916,186373,248967,5.0117669357,8.2217384536,0.36370903520000003,265
99808,186315,248950,4.9591248385,8.2743805508,0.5120640364,266
99405,186220,248848,5.058426976400001,8.4035929712,0.35892339,267
99082,186139,248841,5.0907300815,8.2636128491,0.4211367776,268
98978,186138,248786,4.9351966125,8.2229348649,0.4821537539,269
99002,186132,248815,5.0524449199,8.2995051881,0.5288137946,270
99082,186163,248850,5.0344987504,8.2695949056,0.5443671415,271
99192,186191,248873,5.2007999211,8.306683655899999,0.47377887479999997,272
99340,186211,248930,4.9148576204,8.3306118819,0.3493520996,273
99444,186216,248908,5.0201418148,8.3880396243,0.4402793584,274
99470,186271,248938,5.0392843956,8.364111398299999,0.4582255279,275
99494,186220,248888,5.1625147595,8.2109707519,0.3672982691,276
99500,186258,248900,5.029713105200001,8.3688970435,0.2452643165,277
99541,186263,248927,4.9100719752,8.293523131599999,0.38763726119999997,278
99597,186262,248899,5.0057848792,8.4729848266,0.35413774480000004,279
99673,186257,248925,5.1003013719000005,8.2516487361,0.4163511324,280
99721,186262,248947,5.071587500700001,8.3114693011,0.3720839143,281
99785,186302,248932,4.9914279436,8.422735552,0.43429730190000004,282
99842,186318,248985,5.058426976400001,8.2169528084,0.2919243572,283
99882,186317,248944,5.0237310487,8.2600236152,0.3720839143,284
99967,186323,248982,5.0428736295,8.0889367993,0.5156532703,285
99859,186310,248946,4.9196432655999995,8.2468630909,0.4019941968,286
99427,186115,248854,5.0153561695999995,8.3593257531,0.382851616,287
99052,186111,248831,5.029713105200001,8.249255913499999,0.39122649509999996,288
98889,186111,248896,4.9914279436,8.3688970435,0.4402793584,289
98851,186119,248784,4.9244289108,8.2971123655,0.4534398827,290
98858,186154,248856,4.9435714916,8.3365939384,0.4295116567,291
98940,186126,248809,4.9722853628,8.2504523248,0.43429730190000004,292
99050,186168,248864,5.0153561695999995,8.279166196,0.3206382284,293
99161,186198,248858,5.0476592747,8.3222370028,0.3397808092,294
99197,186218,248886,4.844269353700001,8.2743805508,0.2452643165,295
99202,186194,248863,5.026123871299999,8.306683655899999,0.33499516399999996,296
99248,186209,248930,4.9567320159,8.2648092604,0.35413774480000004,297
99287,186231,248937,4.9256253221,8.4837525283,0.3122633493,298
99354,186222,248875,5.0201418148,8.226524098799999,0.42592242280000003,299
99393,186273,248913,5.0333023391000005,8.2253276875,0.38763726119999997,300
99462,186256,248919,4.9686961289000005,8.3126657124,0.42592242280000003,301
99529,186261,248902,4.9543391933,8.3401831723,0.4163511324,302
99603,186271,248955,4.9543391933,8.3880396243,0.32542387359999997,303
99677,186316,248972,4.9866422984,8.2648092604,0.38763726119999997,304
99782,186322,249014,5.0668018555,8.2743805508,0.4450650036,305
99795,186341,248950,4.9304109673,8.279166196,0.3720839143,306
99860,186321,249006,4.9387858464,8.3413795836,0.32542387359999997,307
99651,186274,248930,4.9806602419,8.3365939384,0.3780659708,308
99122,186189,248831,5.1038906058,8.1990066389,0.2775674216,309
98836,186126,248817,5.0153561695999995,8.2983087768,0.3924229064,310
98743,186105,248839,5.000999234,8.2983087768,0.35892339,311
98772,186119,248801,4.9627140724,8.4167534955,0.4007977855,312
98829,186182,248844,5.1050870171,8.364111398299999,0.2835494781,313
98934,186179,248874,5.0237310487,8.2971123655,0.3768695595,314
99040,186196,248854,4.9483571368,8.3545401079,0.36370903520000003,315
99152,186233,248906,5.02492746,8.2325061553,0.40677984199999995,316
99170,186221,248880,5.0333023391000005,8.3449688175,0.4390829471,317
99198,186211,248836,5.0428736295,8.306683655899999,0.4007977855,318
99234,186218,248902,4.881358104,8.458627890999999,0.3732803256,319
99270,186265,248883,5.0907300815,8.2420774457,0.38763726119999997,320
99356,186250,248889,4.9639104837,8.2169528084,0.4295116567,321
99450,186285,248907,4.977071008,8.2372918005,0.2835494781,322
99515,186317,248947,4.9722853628,8.3186477689,0.44386859230000003,323
99591,186310,248916,4.9866422984,8.327022648,0.34337004309999997,324
99685,186315,248923,4.8861437492,8.2600236152,0.3864408499,325
99741,186322,248911,5.0189454035,8.169096356399999,0.3026920589,326
99863,186365,248963,4.9064827413000005,8.316254946299999,0.3158525832,327
99913,186317,248907,4.9543391933,8.2468630909,0.35892339,328
99956,186362,248971,5.044070040799999,8.2755769621,0.3302095188,329
99733,186227,248918,5.1290152431000005,8.3258262367,0.40677984199999995,330
99283,186192,248834,5.0392843956,8.2612200265,0.2967100024,331
99022,186131,248816,4.9758745967,8.3928252695,0.33499516399999996,332
98964,186151,248784,5.0392843956,8.2025958728,0.39122649509999996,333
99045,186125,248796,4.8729832249000005,8.306683655899999,0.35413774480000004,334
99142,186178,248867,5.071587500700001,8.2133635745,0.4103690759,335
99259,186230,248843,5.0344987504,8.2600236152,0.4295116567,336
99411,186276,248841,5.0907300815,8.293523131599999,0.32542387359999997,337
99540,186263,248872,5.1003013719000005,8.293523131599999,0.3732803256,338
99553,186277,248911,4.953142782,8.2839518412,0.42592242280000003,339
99596,186259,248897,5.0392843956,8.3832539791,0.49651068949999994,340
99633,186197,248867,5.057230565099999,8.1547394208,0.34337004309999997,341
99708,186271,248912,5.02492746,8.4311104311,0.311066938,342
99785,186298,248885,4.9627140724,8.2037922841,0.2775674216,343
99869,186320,248947,5.2295137923,8.226524098799999,0.2309073809,344
99945,186321,248925,5.057230565099999,8.3784683339,0.3780659708,345
100044,186337,248967,5.0093741131,8.2205420423,0.382851616,346
100120,186320,248954,5.072783911999999,8.386843213,0.4630111731,347
100201,186394,248883,4.9627140724,8.2648092604,0.3026920589,348
100271,186325,248919,5.0153561695999995,8.1798640581,0.3493520996,349
100368,186360,248963,5.1098726623,8.3222370028,0.2787638329,350
100356,186369,248950,4.9112683865,8.2372918005,0.40677984199999995,351
100056,186307,248844,5.0153561695999995,8.3497544627,0.382851616,352
99666,186197,248798,5.0955157266999995,8.2229348649,0.38763726119999997,353
99479,186217,248797,4.9148576204,8.293523131599999,0.3924229064,354
99498,186165,248831,5.1003013719000005,8.2121671632,0.39720855159999996,355
99575,186209,248806,4.9818566531999995,8.2743805508,0.35892339,356
99694,186210,248853,5.0057848792,8.2695949056,0.5479563754,357
99852,186277,248892,5.085944436299999,8.159525066,0.41156548719999997,358
99993,186301,248898,5.071587500700001,8.2648092604,0.36011980130000004,359
100071,186287,248821,5.1589255256,8.3413795836,0.4163511324,360
100095,186299,248909,5.02492746,8.3210405915,0.34815568830000004,361
100134,186210,248914,4.953142782,8.3976109147,0.3397808092,362
100179,186329,248935,5.096712138,8.2504523248,0.4677968183,363
100234,186301,248866,5.0620162103,8.3126657124,0.34097722049999996,364
100307,186333,248887,5.0620162103,8.3126657124,0.34097722049999996,365
100406,186308,248907,5.0620162103,8.3126657124,0.34097722049999996,366
100477,186365,248899,5.0333023391000005,8.1750784129,0.4354937132,367
100542,186373,248923,5.02492746,8.2887374864,0.4247260115,368
100614,186383,248907,4.8921258057,8.2648092604,0.42592242280000003,369
100689,186372,248935,4.9722853628,8.3688970435,0.4594219392,370
100807,186390,248963,5.0536413312,8.327022648,0.4450650036,371
100676,186394,248908,4.9627140724,8.2695949056,0.44985064880000003,372
100330,186293,248855,5.085944436299999,8.316254946299999,0.38763726119999997,373
99984,186227,248818,5.0536413312,8.2504523248,0.30747770409999997,374
99859,186202,248796,5.0524449199,8.306683655899999,0.4103690759,375
99901,186194,248835,5.0524449199,8.306683655899999,0.4103690759,376
99983,186214,248844,5.0524449199,8.306683655899999,0.4103690759,377
100083,186277,248864,5.0524449199,8.306683655899999,0.4103690759,378
100251,186245,248895,5.0524449199,8.306683655899999,0.4103690759,379
100344,186278,248899,5.02492746,8.3222370028,0.3493520996,380
100421,186287,248917,4.9100719752,8.279166196,0.33499516399999996,381
100436,186324,248866,4.9962135888,8.2887374864,0.3493520996,382
100463,186363,248910,5.1290152431000005,8.3258262367,0.41515472109999996,383
100509,186374,248872,4.9722853628,8.303094422,0.38763726119999997,384
100553,186309,248863,5.120640364,8.1978102276,0.4486542375,385
100593,186332,248871,4.9627140724,8.3126657124,0.40558343069999997,386
100655,186348,248857,5.0392843956,8.352147285300001,0.38763726119999997,387
100719,186337,248878,5.0823552024,8.3545401079,0.4163511324,388
100761,186403,248963,5.0476592747,8.2504523248,0.4354937132,389
100813,186379,248938,4.881358104,8.3330047045,0.39720855159999996,390
100862,186384,248951,5.1912286306999995,8.2827554299,0.49172504429999997,391
100801,186361,248917,5.0344987504,8.4071822051,0.40319060809999996,392
100416,186277,248880,5.0524449199,8.3126657124,0.2500499617,393
100000,186191,248747,5.072783911999999,8.3784683339,0.4402793584,394
99810,186170,248797,4.9064827413000005,8.4071822051,0.36370903520000003,395
99751,186164,248778,5.071587500700001,8.2037922841,0.39720855159999996,396
99765,186164,248770,4.9866422984,8.3940216808,0.35772697870000003,397
99794,186195,248805,4.8765724588,8.2983087768,0.3960121403,398
99903,186215,248819,4.977071008,8.2468630909,0.4486542375,399
99991,186285,248829,4.9674997176,8.3748791,0.3206382284,400
100031,186242,248840,4.9112683865,8.2695949056,0.4247260115,401
100017,186241,248860,4.9100719752,8.3174513576,0.3780659708,402
100039,186273,248827,4.9340002012,8.3593257531,0.35413774480000004,403
100063,186318,248836,4.9734817741,8.373682688699999,0.38763726119999997,404
100067,186265,248809,5.060819799,8.3449688175,0.2679961312,405
100114,186304,248813,5.1290152431000005,8.2887374864,0.2823530668,406
100191,186329,248903,5.0237310487,8.2743805508,0.4390829471,407
100221,186334,248857,4.9866422984,8.3365939384,0.2823530668,408
100294,186348,248850,4.8765724588,8.2743805508,0.39122649509999996,409
100357,186359,248888,4.9782674193,8.5005022865,0.40558343069999997,410
100378,186365,248905,5.1014977832,8.3401831723,0.3266202849,411
100409,186286,248856,4.9866422984,8.1990066389,0.3062812928,412
100190,186315,248829,4.8059841921,8.2695949056,0.2727817764,413
99690,186183,248720,4.9818566531999995,8.2121671632,0.2835494781,414
99314,186151,248735,4.977071008,8.2456666796,0.2967100024,415
99192,186115,248724,4.9579284272,8.226524098799999,0.44985064880000003,416
99175,186128,248701,5.044070040799999,8.3126657124,0.41156548719999997,417
99200,186127,248748,5.1385865335,8.2887374864,0.2727817764,418
99291,186171,248731,4.9926243549,8.3114693011,0.4103690759,419
99366,186190,248750,5.0536413312,8.364111398299999,0.3780659708,420
99435,186233,248770,5.0488556860000005,8.3593257531,0.24885355039999998,421
99455,186183,248765,4.9483571368,8.3018980107,0.38763726119999997,422
99449,186248,248743,4.9674997176,8.4071822051,0.2644068973,423
99472,186265,248748,5.1003013719000005,8.3078800672,0.35892339,424
99489,186151,248732,5.0476592747,8.364111398299999,0.42592242280000003,425
99530,186273,248837,4.9447679029,8.240881034400001,0.35413774480000004,426
99568,186295,248798,5.0380879843,8.2695949056,0.35772697870000003,427
99642,186306,248805,5.057230565099999,8.3078800672,0.3493520996,428
99691,186326,248805,5.010570524399999,8.207381518,0.47377887479999997,429
99753,186328,248788,4.961517661099999,8.2648092604,0.31704899449999996,430
99801,186337,248784,5.0679982668,8.4394853102,0.4450650036,431
99864,186323,248801,5.010570524399999,8.25523797,0.32542387359999997,432
99772,186332,248775,4.929214556,8.4012001486,0.4103690759,433
99336,186202,248697,5.0057848792,8.3677006322,0.32542387359999997,434
98933,186152,248625,4.9914279436,8.25523797,0.2572284295,435
98747,186045,248665,4.9340002012,8.254041558700001,0.36370903520000003,436
98787,186095,248605,4.9627140724,8.3653078096,0.4295116567,437
98806,186082,248674,5.071587500700001,8.3461652288,0.41515472109999996,438
98894,186132,248611,5.0632126216,8.1451681304,0.382851616,439
99031,186142,248702,5.0907300815,8.3832539791,0.35892339,440
99134,186182,248731,4.9579284272,8.236095389199999,0.2727817764,441
99188,186216,248694,5.114658307499999,8.170292767700001,0.2883351233,442
99199,186210,248689,4.9064827413000005,8.303094422,0.4199403663,443
99208,186206,248745,5.085944436299999,8.417949906799999,0.32542387359999997,444
99284,186224,248710,4.9854458871,8.445467366699999,0.3302095188,445
99334,186239,248686,5.058426976400001,8.3557365192,0.2309073809,446
99401,186259,248703,5.0153561695999995,8.3545401079,0.4163511324,447
99480,186240,248806,5.0428736295,8.293523131599999,0.4247260115,448
99562,186284,248801,4.9495535481,8.2217384536,0.2775674216,449
99650,186255,248750,4.953142782,8.2827554299,0.3397808092,450
99719,186274,248790,4.9866422984,8.2983087768,0.3924229064,451
99791,186291,248779,5.058426976400001,8.2085779293,0.33140593009999997,452
99814,186304,248764,5.057230565099999,8.3928252695,0.36370903520000003,453
99538,186200,248691,4.9579284272,8.1978102276,0.4570291166,454
99093,186130,248626,5.0919264928,8.2588272039,0.311066938,455
98860,186078,248612,4.9854458871,8.1786676468,0.3493520996,456
98829,186057,248634,5.1003013719000005,8.293523131599999,0.3397808092,457
98933,186066,248656,5.044070040799999,8.3114693011,0.4019941968,458
99023,186111,248688,5.124229597899999,8.2648092604,0.3505485109,459
99194,186127,248689,4.9866422984,8.2695949056,0.36011980130000004,460
99300,186148,248694,5.0153561695999995,8.3784683339,0.38763726119999997,461
99364,186188,248738,5.1194439527,8.3138621237,0.34815568830000004,462
99413,186081,248746,4.9914279436,8.2253276875,0.3684946804,463
99452,186158,248705,5.0380879843,8.1415788965,0.5288137946,464
99515,186189,248736,4.8717868136,8.4167534955,0.41515472109999996,465
99574,186243,248745,4.9351966125,8.327022648,0.3768695595,466
99651,186217,248796,5.010570524399999,8.3318082932,0.41515472109999996,467
99728,186243,248754,5.072783911999999,8.227720510100001,0.3684946804,468
99824,186290,248784,5.0775695572,8.445467366699999,0.5012963347,469
99893,186254,248725,4.8011985469,8.2648092604,0.3493520996,470
99980,186256,248783,5.0333023391000005,8.2121671632,0.34456645439999994,471
100026,186264,248802,5.0069812905,8.3688970435,0.43429730190000004,472
99855,186191,248746,5.1050870171,8.327022648,0.3649054465,473
99439,186123,248686,5.029713105200001,8.2731841395,0.3242274623,474
99187,186082,248659,4.953142782,8.1894353485,0.4594219392,475
99155,186037,248667,5.0045884679,8.405985793800001,0.4689932296,476
99195,186043,248671,5.026123871299999,8.3964145034,0.4007977855,477
99315,186122,248691,5.000999234,8.226524098799999,0.41156548719999997,478
99440,186144,248706,5.0344987504,8.3784683339,0.4630111731,479
99587,186150,248692,4.9256253221,8.227720510100001,0.4163511324,480
99663,186131,248742,4.9495535481,8.4071822051,0.4689932296,481
99692,186191,248722,5.029713105200001,8.240881034400001,0.4534398827,482
99721,186171,248715,5.1493542352,8.231309744,0.4630111731,483
99737,186174,248727,5.0392843956,8.3700934548,0.24885355039999998,484
99787,186184,248779,4.9854458871,8.254041558700001,0.2452643165,485
99861,186192,248805,4.9854458871,8.254041558700001,0.2452643165,486
99907,186214,248780,4.9854458871,8.254041558700001,0.2452643165,487
99970,186207,248808,4.9854458871,8.254041558700001,0.2452643165,488
100016,186250,248765,4.9854458871,8.254041558700001,0.2452643165,489
100071,186229,248815,4.9854458871,8.254041558700001,0.2452643165,490
100059,186227,248818,4.9854458871,8.254041558700001,0.2452643165,491
99737,186107,248755,4.9854458871,8.254041558700001,0.2452643165,492
99336,186041,248694,4.9854458871,8.254041558700001,0.2452643165,493
99109,186016,248604,4.9854458871,8.254041558700001,0.2452643165,494
99074,186021,248681,4.9854458871,8.254041558700001,0.2452643165,495
99067,185986,248609,4.9854458871,8.254041558700001,0.2452643165,496
99129,186050,248661,4.9854458871,8.254041558700001,0.2452643165,497
99241,186075,248674,4.9854458871,8.254041558700001,0.2452643165,498
99322,186055,248698,4.9854458871,8.254041558700001,0.2452643165,499
99395,186088,248711,4.9854458871,8.254041558700001,0.2452643165,500
99387,186091,248707,4.9854458871,8.254041558700001,0.2452643165,501
99415,186099,248692,4.9854458871,8.254041558700001,0.2452643165,502
99421,186035,248669,4.9854458871,8.254041558700001,0.2452643165,503
99453,186109,248755,4.9854458871,8.254041558700001,0.2452643165,504
99526,186133,248732,4.9854458871,8.254041558700001,0.2452643165,505
99589,186143,248739,4.9854458871,8.254041558700001,0.2452643165,506
99650,186153,248737,4.9854458871,8.254041558700001,0.2452643165,507
99711,186190,248731,4.9854458871,8.254041558700001,0.2452643165,508
99766,186178,248780,4.9854458871,8.254041558700001,0.2452643165,509
99689,186146,248775,4.9854458871,8.254041558700001,0.2452643165,510
99291,186034,248650,4.9854458871,8.254041558700001,0.2452643165,511
98870,185968,248584,4.9854458871,8.254041558700001,0.2452643165,512
98637,185903,248561,4.9854458871,8.254041558700001,0.2452643165,513
98555,185896,248589,4.9854458871,8.254041558700001,0.2452643165,514
98541,185909,248591,4.9854458871,8.254041558700001,0.2452643165,515
98572,185920,248593,4.9854458871,8.254041558700001,0.2452643165,516
98640,185976,248597,4.9854458871,8.254041558700001,0.2452643165,517
98718,185984,248615,4.9854458871,8.254041558700001,0.2452643165,518
98717,185961,248624,4.9854458871,8.254041558700001,0.2452643165,519
98711,185975,248615,4.9854458871,8.254041558700001,0.2452643165,520
98710,185977,248646,4.9854458871,8.254041558700001,0.2452643165,521
98724,185976,248617,4.9854458871,8.254041558700001,0.2452643165,522
98759,185975,248608,4.9854458871,8.254041558700001,0.2452643165,523
98792,186003,248623,4.9854458871,8.254041558700001,0.2452643165,524
98869,186023,248655,4.9854458871,8.254041558700001,0.2452643165,525
98927,186058,248685,4.9854458871,8.254041558700001,0.2452643165,526
98392,185899,248576,5.0428736295,8.2169528084,0.3158525832,527
98455,185916,248603,5.0428736295,8.2169528084,0.3158525832,528
98526,185934,248616,5.0428736295,8.2169528084,0.3158525832,529
98591,185968,248595,5.0428736295,8.2169528084,0.3158525832,530
98668,185975,248590,5.0428736295,8.2169528084,0.3158525832,531
98521,185927,248659,5.0428736295,8.2169528084,0.3158525832,532
98105,185805,248517,5.0428736295,8.2169528084,0.3158525832,533
97776,185729,248453,5.0428736295,8.2169528084,0.3158525832,534
97663,185705,248439,5.0428736295,8.2169528084,0.3158525832,535
97658,185718,248431,5.0428736295,8.2169528084,0.3158525832,536
97733,185723,248426,5.0428736295,8.2169528084,0.3158525832,537
97829,185733,248426,5.0428736295,8.2169528084,0.3158525832,538
97986,185765,248512,5.0428736295,8.2169528084,0.3158525832,539
98077,185747,248521,5.0428736295,8.2169528084,0.3158525832,540
98112,185785,248501,5.0428736295,8.2169528084,0.3158525832,541
98148,185779,248486,5.0428736295,8.2169528084,0.3158525832,542
98189,185783,248525,5.0428736295,8.2169528084,0.3158525832,543
98246,185809,248559,5.0428736295,8.2169528084,0.3158525832,544
98320,185817,248546,5.0428736295,8.2169528084,0.3158525832,545
98402,185788,248554,5.0428736295,8.2169528084,0.3158525832,546
98510,185790,248485,5.0428736295,8.2169528084,0.3158525832,547
98593,185844,248538,5.0428736295,8.2169528084,0.3158525832,548
98675,185869,248552,5.0428736295,8.2169528084,0.3158525832,549
98774,185840,248541,5.0428736295,8.2169528084,0.3158525832,550
98847,185863,248557,5.0428736295,8.2169528084,0.3158525832,551
98720,185848,248562,5.0428736295,8.2169528084,0.3158525832,552
98321,185714,248456,5.0428736295,8.2169528084,0.3158525832,553
98087,185650,248359,5.0428736295,8.2169528084,0.3158525832,554
98018,185641,248398,5.0428736295,8.2169528084,0.3158525832,555
98058,185662,248408,5.0428736295,8.2169528084,0.3158525832,556
98153,185657,248437,5.0428736295,8.2169528084,0.3158525832,557
98297,185663,248420,5.0428736295,8.2169528084,0.3158525832,558
98444,185709,248498,5.0428736295,8.2169528084,0.3158525832,559
98555,185731,248480,5.0428736295,8.2169528084,0.3158525832,560
98581,185726,248493,5.0428736295,8.2169528084,0.3158525832,561
98617,185727,248530,5.0428736295,8.2169528084,0.3158525832,562
98682,185724,248548,5.0428736295,8.2169528084,0.3158525832,563
98739,185763,248524,5.0428736295,8.2169528084,0.3158525832,564
98820,185753,248463,5.0428736295,8.2169528084,0.3158525832,565
98911,185759,248525,5.0428736295,8.2169528084,0.3158525832,566
99023,185782,248484,5.0428736295,8.2169528084,0.3158525832,567
99104,185754,248539,5.0428736295,8.2169528084,0.3158525832,568
99126,185712,248461,5.1517470578,8.2648092604,0.4163511324,569
98732,185658,248409,5.1517470578,8.2648092604,0.4163511324,570
98598,185600,248410,5.1517470578,8.2648092604,0.4163511324,571
98563,185573,248378,5.1517470578,8.2648092604,0.4163511324,572
98646,185591,248359,5.1517470578,8.2648092604,0.4163511324,573
98699,185604,248458,5.1517470578,8.2648092604,0.4163511324,574
98824,185629,248421,5.1517470578,8.2648092604,0.4163511324,575
98985,185659,248476,5.1517470578,8.2648092604,0.4163511324,576
99068,185680,248468,5.1517470578,8.2648092604,0.4163511324,577
99131,185717,248456,5.1517470578,8.2648092604,0.4163511324,578
99169,185718,248508,5.1517470578,8.2648092604,0.4163511324,579
99222,185687,248499,5.1517470578,8.2648092604,0.4163511324,580
99291,185722,248484,5.1517470578,8.2648092604,0.4163511324,581
99375,185752,248511,5.0344987504,8.2564343813,0.4163511324,582
99470,185746,248545,5.0344987504,8.2564343813,0.4163511324,583
99561,185760,248521,5.0344987504,8.2564343813,0.4163511324,584
99659,185783,248504,5.0344987504,8.2564343813,0.4163511324,585
99768,185773,248498,5.0344987504,8.2564343813,0.4163511324,586
99826,185773,248582,5.0344987504,8.2564343813,0.4163511324,587
99914,185790,248599,5.0344987504,8.2564343813,0.4163511324,588
99984,185784,248517,5.0344987504,8.2564343813,0.4163511324,589
100085,185826,248538,5.0344987504,8.2564343813,0.4163511324,590
100163,185810,248569,5.0344987504,8.2564343813,0.4163511324,591
100168,185818,248585,5.0344987504,8.2564343813,0.4163511324,592
99908,185769,248540,5.0344987504,8.2564343813,0.4163511324,593
99460,185659,248423,5.0344987504,8.2564343813,0.4163511324,594
99244,185596,248380,5.0344987504,8.2564343813,0.4163511324,595
99195,185593,248425,5.0344987504,8.2564343813,0.4163511324,596
99238,185601,248453,5.0344987504,8.2564343813,0.4163511324,597
99310,185611,248443,5.0344987504,8.2564343813,0.4163511324,598
99404,185656,248495,5.0344987504,8.2564343813,0.4163511324,599
99544,185696,248443,5.0344987504,8.2564343813,0.4163511324,600
99633,185726,248450,5.0344987504,8.2564343813,0.4163511324,601
99655,185735,248510,4.9543391933,8.4777704718,0.3840480273,602
99671,185735,248434,4.9543391933,8.4777704718,0.3840480273,603
99691,185715,248478,4.9543391933,8.4777704718,0.3840480273,604
99740,185729,248468,4.9543391933,8.4777704718,0.3840480273,605
99831,185748,248507,4.9543391933,8.4777704718,0.3840480273,606
99911,185752,248533,4.9543391933,8.4777704718,0.3840480273,607
99964,185791,248474,4.9543391933,8.4777704718,0.3840480273,608
100042,185807,248502,4.8861437492,8.316254946299999,0.3302095188,609
100115,185787,248556,5.085944436299999,8.316254946299999,0.430708068,610
100204,185846,248551,4.929214556,8.350950873999999,0.3780659708,611
100280,185829,248595,5.0237310487,8.373682688699999,0.41515472109999996,612
100351,185855,248584,4.9340002012,8.2648092604,0.3337987527,613
100404,185870,248528,4.929214556,8.3174513576,0.33858439789999994,614
100467,185894,248591,5.071587500700001,8.417949906799999,0.4594219392,615
100539,185896,248563,5.0153561695999995,8.280362607299999,0.3014956476,616
100421,185828,248548,5.0380879843,8.3365939384,0.4642075844,617
100018,185770,248472,4.929214556,8.1882389372,0.3206382284,618
99622,185695,248382,4.977071008,8.2325061553,0.3026920589,619
99481,185592,248388,5.010570524399999,8.3461652288,0.33499516399999996,620
99441,185610,248418,5.0392843956,8.2301133327,0.42592242280000003,621
99466,185621,248441,4.9914279436,8.3844503904,0.35892339,622
99539,185655,248448,4.9112683865,8.1882389372,0.3780659708,623
99639,185697,248433,4.9483571368,8.1750784129,0.5491527867,624
99784,185735,248456,5.1613183482,8.3353975271,0.5300102059,625
99779,185723,248497,5.0344987504,8.3449688175,0.4211367776,626
99786,185739,248463,5.137390122199999,8.3497544627,0.4163511324,627
99825,185736,248485,4.9351966125,8.2683984943,0.38763726119999997,628
99833,185713,248483,5.114658307499999,8.25523797,0.3397808092,629
99899,185756,248492,5.0931229041,8.2564343813,0.4211367776,630
99950,185756,248501,4.953142782,8.1990066389,0.49172504429999997,631
100017,185790,248533,4.8215375389999995,8.303094422,0.3026920589,632
100056,185813,248554,5.0057848792,8.2600236152,0.34456645439999994,633
100151,185803,248487,5.029713105200001,8.327022648,0.4247260115,634
100209,185829,248531,4.9579284272,8.2588272039,0.4725824635,635
100284,185828,248527,4.9722853628,8.373682688699999,0.4402793584,636
100388,185840,248530,4.9818566531999995,8.4119678503,0.3924229064,637
100399,185846,248552,4.9962135888,8.2348989779,0.35413774480000004,638
100455,185851,248544,5.0380879843,8.2229348649,0.33499516399999996,639
100358,185820,248519,4.995017177499999,8.2695949056,0.514456859,640
99949,185717,248441,5.029713105200001,8.2648092604,0.4390829471,641
99585,185667,248393,5.087140847600001,8.1894353485,0.4354937132,642
99452,185621,248397,4.9722853628,8.279166196,0.36370903520000003,643
99460,185647,248451,4.9866422984,8.459824302300001,0.41156548719999997,644
99505,185634,248441,4.9674997176,8.183453292,0.42592242280000003,645
99572,185708,248418,4.9914279436,8.207381518,0.49292145559999995,646
99721,185726,248432,5.0392843956,8.2504523248,0.3397808092,647
99792,185750,248502,4.977071008,8.231309744,0.47856452,648
99791,185753,248443,4.8622155232,8.2468630909,0.4534398827,649
99804,185728,248452,5.0201418148,8.338986761000001,0.4295116567,650
99824,185753,248497,5.2331030262,8.3365939384,0.48335016519999996,651
99858,185762,248479,5.1050870171,8.2468630909,0.48335016519999996,652
99913,185737,248460,5.0392843956,8.2875410751,0.3397808092,653
99967,185806,248496,5.1433721787,8.2169528084,0.42592242280000003,654
100033,185818,248492,5.1098726623,8.303094422,0.44985064880000003,655
100108,185786,248490,4.961517661099999,8.2887374864,0.2931207685,656
100136,185829,248476,5.1338008883,8.2660056717,0.382851616,657
100176,185834,248461,5.044070040799999,8.173882001600001,0.4582255279,658
100266,185828,248507,4.9244289108,8.2743805508,0.5910271822000001,659
100297,185874,248514,5.0668018555,8.2779697847,0.4941178669,660
100332,185868,248516,5.0943193154,8.3353975271,0.3960121403,661
100134,185790,248454,5.1338008883,8.2983087768,0.3553341561,662
99658,185710,248411,5.114658307499999,8.3545401079,0.4247260115,663
99304,185664,248329,5.2331030262,8.1942209937,0.430708068,664
99187,185613,248360,5.0536413312,8.239684623099999,0.48693939909999995,665
99161,185607,248359,5.0536413312,8.2875410751,0.38763726119999997,666
99171,185678,248358,5.0775695572,8.2516487361,0.4163511324,667
99250,185656,248339,5.0057848792,8.2743805508,0.4725824635,668
99331,185690,248442,5.0057848792,8.3114693011,0.3158525832,669
99382,185737,248366,4.9196432655999995,8.3653078096,0.3302095188,670
99412,185700,248434,4.9627140724,8.2648092604,0.49172504429999997,671
99392,185755,248445,5.0057848792,8.4023965599,0.34815568830000004,672
99416,185726,248392,4.8203411277,8.445467366699999,0.35892339,673
99436,185772,248428,4.9100719752,8.3365939384,0.39122649509999996,674
99482,185738,248409,4.9854458871,8.2887374864,0.35413774480000004,675
99571,185743,248409,4.990231532299999,8.173882001600001,0.4103690759,676
99606,185777,248437,4.9196432655999995,8.3593257531,0.4390829471,677
99657,185828,248449,4.9543391933,8.3365939384,0.3732803256,678
99734,185818,248424,4.9160540317,8.2504523248,0.33499516399999996,679
99778,185824,248473,5.0165525809,8.240881034400001,0.4354937132,680
99856,185876,248481,4.9627140724,8.239684623099999,0.3397808092,681
99907,185856,248507,5.1290152431000005,8.3557365192,0.2979064137,682
99924,185864,248452,5.139782944799999,8.3748791,0.3732803256,683
99669,185795,248414,4.977071008,8.236095389199999,0.2584248408,684
99167,185645,248275,4.8909293944,8.1655071225,0.3732803256,685
98823,185612,248333,4.8969114509,8.3401831723,0.430708068,686
98694,185591,248296,4.8909293944,8.173882001600001,0.2691925425,687
98676,185644,248261,5.0955157266999995,8.2863446638,0.40558343069999997,688
98715,185658,248307,5.1433721787,8.2971123655,0.32542387359999997,689
98778,185677,248366,4.9495535481,8.123632727,0.42592242280000003,690
98920,185688,248351,4.953142782,8.3365939384,0.33140593009999997,691
98968,185726,248365,5.0668018555,8.231309744,0.33499516399999996,692
99024,185683,248364,4.9914279436,8.3401831723,0.4199403663,693
99029,185761,248397,5.0632126216,8.3353975271,0.4677968183,694
99030,185747,248422,4.9208396769,8.3784683339,0.44985064880000003,695
99077,185746,248317,4.9471607255,8.2169528084,0.47736810869999996,696
99137,185771,248381,4.961517661099999,8.4885381735,0.39720855159999996,697
99197,185773,248428,4.9387858464,8.2695949056,0.33499516399999996,698
99270,185818,248358,5.0536413312,8.25523797,0.38763726119999997,699
99312,185817,248389,5.0620162103,8.204988695399999,0.3062812928,700
99397,185843,248403,4.9627140724,8.3353975271,0.41156548719999997,701
99485,185871,248415,4.9244289108,8.2157563971,0.38763726119999997,702
99491,185866,248451,4.9627140724,8.3222370028,0.5108676251000001,703
99624,185868,248387,5.0907300815,8.3497544627,0.4211367776,704
99590,185862,248453,5.0333023391000005,8.2983087768,0.3960121403,705
99240,185769,248412,5.0392843956,8.3688970435,0.3493520996,706
98756,185670,248333,5.0237310487,8.2887374864,0.4103690759,707
98517,185609,248289,5.044070040799999,8.3545401079,0.5730810127,708
98438,185592,248277,4.9674997176,8.2743805508,0.3302095188,709
98476,185665,248284,4.9579284272,8.360522164399999,0.40558343069999997,710
98560,185648,248269,4.953142782,8.2325061553,0.3780659708,711
98649,185691,248307,5.1003013719000005,8.1882389372,0.35892339,712
98775,185715,248347,4.9818566531999995,8.3114693011,0.41515472109999996,713
98832,185732,248293,4.8586262893,8.303094422,0.32542387359999997,714
98872,185751,248357,4.9734817741,8.3784683339,0.35892339,715
98906,185665,248324,5.072783911999999,8.293523131599999,0.4211367776,716
98933,185769,248351,5.114658307499999,8.3700934548,0.38763726119999997,717
98974,185744,248332,4.850251410199999,8.1511501869,0.3780659708,718
99044,185756,248349,5.1338008883,8.3748791,0.3397808092,719
99127,185794,248373,5.0524449199,8.3018980107,0.311066938,720
99174,185825,248363,5.000999234,8.3174513576,0.41515472109999996,721
99256,185869,248426,4.8586262893,8.3545401079,0.3206382284,722
99325,185849,248382,4.9244289108,8.1786676468,0.34456645439999994,723
99398,185823,248404,5.0045884679,8.386843213,0.4390829471,724
99472,185860,248414,5.000999234,8.279166196,0.5240281494,725
99481,185841,248383,5.0380879843,8.240881034400001,0.5156532703,726
99193,185797,248351,4.9483571368,8.306683655899999,0.4007977855,727
98747,185692,248318,5.0057848792,8.2504523248,0.36370903520000003,728
98438,185697,248247,4.9806602419,8.1786676468,0.3792623821,729
98375,185627,248239,4.9208396769,8.2025958728,0.2931207685,730
98411,185621,248259,4.995017177499999,8.2600236152,0.2883351233,731
98505,185708,248319,5.0919264928,8.2695949056,0.2835494781,732
98591,185683,248311,5.1385865335,8.3114693011,0.3493520996,733
98728,185752,248351,5.02492746,8.2983087768,0.4295116567,734
98819,185752,248330,4.9722853628,8.364111398299999,0.4390829471,735
98877,185737,248327,5.114658307499999,8.3078800672,0.263210486,736
98885,185758,248311,4.9962135888,8.2839518412,0.3397808092,737
98936,185744,248370,4.9244289108,8.4406817215,0.36370903520000003,738
98999,185764,248372,4.9244289108,8.4406817215,0.36370903520000003,739
99059,185769,248346,4.9244289108,8.4406817215,0.36370903520000003,740
99126,185760,248353,4.9244289108,8.4406817215,0.36370903520000003,741
99200,185804,248392,4.9244289108,8.4406817215,0.36370903520000003,742
99275,185854,248422,4.9244289108,8.4406817215,0.36370903520000003,743
99351,185850,248356,4.9244289108,8.4406817215,0.36370903520000003,744
99418,185843,248447,4.9244289108,8.4406817215,0.36370903520000003,745
99496,185872,248432,4.9244289108,8.4406817215,0.36370903520000003,746
99428,185800,248409,5.029713105200001,8.207381518,0.39720855159999996,747
99059,185753,248320,5.029713105200001,8.207381518,0.39720855159999996,748
98667,185662,248294,4.953142782,8.1655071225,0.41156548719999997,749
98476,185626,248225,4.953142782,8.1655071225,0.41156548719999997,750
98474,185672,248296,4.953142782,8.1655071225,0.41156548719999997,751
98530,185653,248297,4.953142782,8.1655071225,0.41156548719999997,752
98615,185653,248314,4.953142782,8.1655071225,0.41156548719999997,753
98755,185722,248301,4.953142782,8.1655071225,0.41156548719999997,754
98864,185744,248401,4.953142782,8.1655071225,0.41156548719999997,755
98912,185737,248341,4.953142782,8.1655071225,0.41156548719999997,756
98927,185743,248358,4.953142782,8.1655071225,0.41156548719999997,757
98967,185781,248349,4.953142782,8.1655071225,0.41156548719999997,758
99003,185762,248343,4.953142782,8.1655071225,0.41156548719999997,759
99072,185800,248359,4.953142782,8.1655071225,0.41156548719999997,760
99130,185788,248358,4.953142782,8.1655071225,0.41156548719999997,761
99198,185837,248439,4.953142782,8.1655071225,0.41156548719999997,762
99270,185835,248402,4.953142782,8.1655071225,0.41156548719999997,763
99331,185832,248435,4.953142782,8.1655071225,0.41156548719999997,764
99393,185870,248415,4.953142782,8.1655071225,0.41156548719999997,765
99443,185835,248412,4.953142782,8.1655071225,0.41156548719999997,766
99259,185782,248394,5.072783911999999,8.316254946299999,0.454636294,767
98838,185710,248299,5.072783911999999,8.316254946299999,0.454636294,768
98505,185640,248276,5.072783911999999,8.316254946299999,0.454636294,769
98422,185629,248240,5.0141597583,8.4119678503,0.40677984199999995,770
98417,185619,248252,4.9016970961,8.4071822051,0.4019941968,771
98461,185640,248271,4.9016970961,8.4071822051,0.4019941968,772
98563,185664,248275,4.9016970961,8.4071822051,0.4019941968,773
98687,185693,248331,4.9016970961,8.4071822051,0.4019941968,774
98771,185738,248303,4.9016970961,8.4071822051,0.4019941968,775
98785,185752,248331,4.9016970961,8.4071822051,0.4019941968,776
98809,185717,248284,4.9016970961,8.4071822051,0.4019941968,777
98820,185734,248372,4.9016970961,8.4071822051,0.4019941968,778
98846,185748,248333,4.9016970961,8.4071822051,0.4019941968,779
98894,185781,248341,4.9016970961,8.4071822051,0.4019941968,780
98962,185782,248355,4.9016970961,8.4071822051,0.4019941968,781
99015,185786,248391,4.9016970961,8.4071822051,0.4019941968,782
99071,185868,248346,4.9016970961,8.4071822051,0.4019941968,783
99152,185807,248413,4.9016970961,8.4071822051,0.4019941968,784
99218,185841,248414,4.9016970961,8.4071822051,0.4019941968,785
99155,185801,248391,4.9016970961,8.4071822051,0.4019941968,786
98763,185712,248318,4.9016970961,8.4071822051,0.4019941968,787
98314,185651,248270,4.9016970961,8.4071822051,0.4019941968,788
98120,185607,248271,4.9016970961,8.4071822051,0.4019941968,789
98053,185600,248248,4.9016970961,8.4071822051,0.4019941968,790
98084,185587,248192,4.9016970961,8.4071822051,0.4019941968,791
98143,185634,248268,4.9016970961,8.4071822051,0.4019941968,792
98248,185668,248225,4.9016970961,8.4071822051,0.4019941968,793
98353,185674,248306,4.9016970961,8.4071822051,0.4019941968,794
98434,185719,248341,4.9016970961,8.4071822051,0.4019941968,795
98443,185733,248321,4.9016970961,8.4071822051,0.4019941968,796
98462,185730,248313,4.9016970961,8.4071822051,0.4019941968,797
98508,185713,248354,4.9016970961,8.4071822051,0.4019941968,798
98569,185765,248341,4.9016970961,8.4071822051,0.4019941968,799
98644,185765,248360,4.9016970961,8.4071822051,0.4019941968,800
98731,185770,248342,4.9016970961,8.4071822051,0.4019941968,801
98785,185809,248403,4.9016970961,8.4071822051,0.4019941968,802
98863,185821,248388,4.9016970961,8.4071822051,0.4019941968,803
98940,185818,248421,4.9016970961,8.4071822051,0.4019941968,804
98999,185802,248346,4.9016970961,8.4071822051,0.4019941968,805
98989,185844,248362,4.9016970961,8.4071822051,0.4019941968,806
98610,185754,248260,4.9016970961,8.4071822051,0.4019941968,807
98148,185638,248264,4.9016970961,8.4071822051,0.4019941968,808
97921,185585,248261,4.9016970961,8.4071822051,0.4019941968,809
97871,185578,248290,4.9016970961,8.4071822051,0.4019941968,810
97896,185623,248251,4.9016970961,8.4071822051,0.4019941968,811
97960,185615,248263,4.9016970961,8.4071822051,0.4019941968,812
98054,185636,248280,5.0153561695999995,8.2648092604,0.3397808092,813
98174,185681,248264,5.0153561695999995,8.2648092604,0.3397808092,814
98260,185673,248281,5.0153561695999995,8.2648092604,0.3397808092,815
98293,185682,248293,5.0153561695999995,8.2648092604,0.3397808092,816
98321,185732,248343,5.0153561695999995,8.2648092604,0.3397808092,817
98348,185713,248293,5.0153561695999995,8.2648092604,0.3397808092,818
98413,185734,248378,5.0153561695999995,8.2648092604,0.3397808092,819
98485,185752,248299,5.0153561695999995,8.2648092604,0.3397808092,820
98561,185748,248364,5.0153561695999995,8.2648092604,0.3397808092,821
98640,185803,248393,5.0153561695999995,8.2648092604,0.3397808092,822
98720,185770,248367,5.0153561695999995,8.2648092604,0.3397808092,823
98788,185798,248366,5.0153561695999995,8.2648092604,0.3397808092,824
98878,185821,248366,5.0153561695999995,8.2648092604,0.3397808092,825
98943,185818,248425,5.0153561695999995,8.2648092604,0.3397808092,826
98839,185819,248321,5.0153561695999995,8.2648092604,0.3397808092,827
98398,185693,248266,5.0153561695999995,8.2648092604,0.3397808092,828
98033,185616,248272,5.0153561695999995,8.2648092604,0.3397808092,829
97883,185571,248247,5.0153561695999995,8.2648092604,0.3397808092,830
97909,185591,248224,5.0153561695999995,8.2648092604,0.3397808092,831
97959,185606,248275,5.0153561695999995,8.2648092604,0.3397808092,832
98071,185656,248270,4.9806602419,8.2612200265,0.4689932296,833
98215,185660,248278,4.9806602419,8.2612200265,0.4689932296,834
98331,185691,248396,4.9806602419,8.2612200265,0.4689932296,835
98391,185731,248334,4.9806602419,8.2612200265,0.4689932296,836
98425,185713,248331,4.9806602419,8.2612200265,0.4689932296,837
98471,185736,248398,4.9806602419,8.2612200265,0.4689932296,838
98535,185752,248328,4.9806602419,8.2612200265,0.4689932296,839
98591,185758,248401,4.9806602419,8.2612200265,0.4689932296,840
98676,185750,248392,4.9806602419,8.2612200265,0.4689932296,841
98795,185808,248403,4.9806602419,8.2612200265,0.4689932296,842
98878,185814,248398,4.9806602419,8.2612200265,0.4689932296,843
98979,185821,248409,4.9806602419,8.2612200265,0.4689932296,844
99058,185816,248421,4.9806602419,8.2612200265,0.4689932296,845
99146,185880,248431,4.9806602419,8.2612200265,0.4689932296,846
99148,185818,248398,4.9806602419,8.2612200265,0.4689932296,847
98808,185758,248382,4.9806602419,8.2612200265,0.4689932296,848
98418,185682,248335,4.9806602419,8.2612200265,0.4689932296,849
98276,185637,248315,4.9806602419,8.2612200265,0.4689932296,850
98282,185633,248310,4.9806602419,8.2612200265,0.4689932296,851
98363,185662,248307,4.9806602419,8.2612200265,0.4689932296,852
98483,185668,248342,4.9806602419,8.2612200265,0.4689932296,853
98633,185748,248409,4.9806602419,8.2612200265,0.4689932296,854
98765,185717,248391,4.9806602419,8.2612200265,0.4689932296,855
98865,185747,248393,4.9806602419,8.2612200265,0.4689932296,856
98900,185748,248397,4.9806602419,8.2612200265,0.4689932296,857
98934,185764,248375,4.9806602419,8.2612200265,0.4689932296,858
98996,185775,248423,4.9806602419,8.2612200265,0.4689932296,859
99080,185794,248425,4.9806602419,8.2612200265,0.4689932296,860
99147,185802,248411,4.9806602419,8.2612200265,0.4689932296,861
99240,185815,248474,4.9806602419,8.2612200265,0.4689932296,862
99319,185813,248469,4.9806602419,8.2612200265,0.4689932296,863
99391,185801,248481,4.9806602419,8.2612200265,0.4689932296,864
99490,185824,248464,4.9806602419,8.2612200265,0.4689932296,865
99562,185843,248486,4.8765724588,8.1846497033,0.41156548719999997,866
99485,185836,248446,4.8765724588,8.1846497033,0.41156548719999997,867
99065,185737,248405,4.8765724588,8.1846497033,0.41156548719999997,868
98768,185687,248396,4.8765724588,8.1846497033,0.41156548719999997,869
98663,185638,248311,4.8765724588,8.1846497033,0.41156548719999997,870
98686,185657,248372,4.8765724588,8.1846497033,0.41156548719999997,871
98759,185660,248361,4.8765724588,8.1846497033,0.41156548719999997,872
98880,185720,248342,4.8765724588,8.1846497033,0.41156548719999997,873
99024,185742,248440,4.8765724588,8.1846497033,0.41156548719999997,874
99129,185761,248434,4.8765724588,8.1846497033,0.41156548719999997,875
99193,185749,248433,4.8765724588,8.1846497033,0.41156548719999997,876
99178,185751,248465,4.8765724588,8.1846497033,0.41156548719999997,877
99212,185724,248477,4.8765724588,8.1846497033,0.41156548719999997,878
99244,185793,248497,4.8765724588,8.1846497033,0.41156548719999997,879
99320,185757,248403,4.8765724588,8.1846497033,0.41156548719999997,880
99379,185804,248466,4.8765724588,8.1846497033,0.41156548719999997,881
99455,185818,248493,4.8765724588,8.1846497033,0.41156548719999997,882
99495,185819,248483,4.8765724588,8.1846497033,0.41156548719999997,883
99573,185824,248517,4.8765724588,8.1846497033,0.41156548719999997,884
99638,185869,248497,4.8765724588,8.1846497033,0.41156548719999997,885
99672,185840,248484,4.8765724588,8.1846497033,0.41156548719999997,886
99402,185774,248443,4.8765724588,8.1846497033,0.41156548719999997,887
98952,185699,248423,4.8765724588,8.1846497033,0.41156548719999997,888
98689,185658,248430,4.8765724588,8.1846497033,0.41156548719999997,889
98595,185637,248370,4.8765724588,8.1846497033,0.41156548719999997,890
98591,185641,248296,4.8765724588,8.1846497033,0.41156548719999997,891
98637,185676,248323,4.9148576204,8.3688970435,0.3206382284,892
98702,185673,248355,4.9148576204,8.3688970435,0.3206382284,893
98808,185712,248397,4.9148576204,8.3688970435,0.3206382284,894
98882,185747,248373,4.9148576204,8.3688970435,0.3206382284,895
98902,185773,248429,4.9148576204,8.3688970435,0.3206382284,896
98893,185751,248406,4.9148576204,8.3688970435,0.3206382284,897
98897,185737,248406,4.9148576204,8.3688970435,0.3206382284,898
98945,185788,248389,4.9148576204,8.3688970435,0.3206382284,899
98993,185814,248419,4.9148576204,8.3688970435,0.3206382284,900
99046,185792,248473,4.9148576204,8.3688970435,0.3206382284,901
99121,185798,248433,4.9148576204,8.3688970435,0.3206382284,902
99195,185859,248451,4.9148576204,8.3688970435,0.3206382284,903
99247,185859,248450,4.9148576204,8.3688970435,0.3206382284,904
99309,185870,248460,4.9148576204,8.3688970435,0.3206382284,905
99365,185897,248406,4.9148576204,8.3688970435,0.3206382284,906
99236,185838,248415,4.9148576204,8.3688970435,0.3206382284,907
98789,185808,248371,4.9148576204,8.3688970435,0.3206382284,908
98359,185710,248254,4.9148576204,8.3688970435,0.3206382284,909
98146,185705,248337,4.9148576204,8.3688970435,0.3206382284,910
98061,185680,248245,4.9148576204,8.3688970435,0.3206382284,911
98022,185719,248344,4.9244289108,8.316254946299999,0.41515472109999996,912
98043,185736,248323,4.9244289108,8.316254946299999,0.41515472109999996,913
98127,185747,248340,4.9244289108,8.316254946299999,0.41515472109999996,914
98205,185775,248334,4.9244289108,8.316254946299999,0.41515472109999996,915
98219,185781,248322,5.0201418148,8.3365939384,0.3684946804,916
98227,185801,248274,4.9722853628,8.3653078096,0.39720855159999996,917
98210,185827,248322,4.9818566531999995,8.3461652288,0.4486542375,918
98227,185815,248334,4.7629133853,8.303094422,0.47736810869999996,919
98261,185831,248312,5.072783911999999,8.2456666796,0.33499516399999996,920
98307,185912,248317,4.9280181447,8.236095389199999,0.4019941968,921
98368,185850,248280,5.0380879843,8.226524098799999,0.35413774480000004,922
98442,185870,248354,4.9543391933,8.3210405915,0.287138712,923
98511,185910,248367,4.9483571368,8.306683655899999,0.42592242280000003,924
98581,185924,248371,4.881358104,8.293523131599999,0.5682953675,925
98638,185915,248393,5.1385865335,8.3282190593,0.4295116567,926
98685,185903,248309,5.0057848792,8.3928252695,0.3732803256,927
98554,185898,248266,4.9100719752,8.226524098799999,0.430708068,928
98141,185823,248248,4.9686961289000005,8.111668614,0.34456645439999994,929
97824,185773,248214,4.9926243549,8.3461652288,0.3780659708,930
97690,185795,248179,4.9579284272,8.3700934548,0.4689932296,931
97606,185774,248189,5.1302116544,8.1966138163,0.3744767369,932
97614,185797,248229,5.02492746,8.2456666796,0.34456645439999994,933
97668,185797,248244,5.0380879843,8.2169528084,0.4211367776,934
97744,185812,248221,5.0141597583,8.3940216808,0.3397808092,935
97825,185824,248274,5.0656054442,8.25523797,0.42592242280000003,936
97840,185863,248241,5.0656054442,8.25523797,0.42592242280000003,937
97868,185872,248214,5.0656054442,8.25523797,0.42592242280000003,938
97870,185851,248247,5.0656054442,8.25523797,0.42592242280000003,939
97915,185856,248246,5.0656054442,8.25523797,0.42592242280000003,940
97968,185891,248245,5.0656054442,8.25523797,0.42592242280000003,941
98022,185837,248274,5.0656054442,8.25523797,0.42592242280000003,942
98069,185846,248250,5.0656054442,8.25523797,0.42592242280000003,943
98126,185893,248210,5.0656054442,8.25523797,0.42592242280000003,944
98198,185904,248282,5.0656054442,8.25523797,0.42592242280000003,945
98250,185884,248218,5.0656054442,8.25523797,0.42592242280000003,946
98305,185911,248255,5.0656054442,8.25523797,0.42592242280000003,947
98297,185903,248237,5.0656054442,8.25523797,0.42592242280000003,948
98045,185819,248116,5.0656054442,8.25523797,0.42592242280000003,949
97702,185761,248165,5.0656054442,8.25523797,0.42592242280000003,950
97523,185773,248102,5.0656054442,8.25523797,0.42592242280000003,951
97460,185749,248071,5.0656054442,8.25523797,0.42592242280000003,952
97429,185763,248126,5.0656054442,8.25523797,0.42592242280000003,953
97481,185749,248122,5.0656054442,8.25523797,0.42592242280000003,954
97554,185802,248134,5.0656054442,8.25523797,0.42592242280000003,955
97619,185837,248116,5.0656054442,8.25523797,0.42592242280000003,956
97633,185817,248137,5.0656054442,8.25523797,0.42592242280000003,957
97627,185835,248154,5.0656054442,8.25523797,0.42592242280000003,958
97632,185818,248123,5.0656054442,8.25523797,0.42592242280000003,959
97643,185789,248079,5.0656054442,8.25523797,0.42592242280000003,960
97675,185820,248119,5.0656054442,8.25523797,0.42592242280000003,961
97718,185808,248058,5.0656054442,8.25523797,0.42592242280000003,962
97744,185796,248120,5.0656054442,8.25523797,0.42592242280000003,963
97779,185817,248128,5.0656054442,8.25523797,0.42592242280000003,964
97823,185826,248060,5.0656054442,8.25523797,0.42592242280000003,965
97852,185806,248094,5.0656054442,8.25523797,0.42592242280000003,966
97921,185832,248063,5.0656054442,8.25523797,0.42592242280000003,967
97880,185836,248060,5.0656054442,8.25523797,0.42592242280000003,968
97599,185754,248011,5.0656054442,8.25523797,0.42592242280000003,969
97243,185715,247961,5.0656054442,8.25523797,0.42592242280000003,970
97007,185649,247927,5.0656054442,8.25523797,0.42592242280000003,971
96893,185672,247916,5.0656054442,8.25523797,0.42592242280000003,972
96846,185675,247969,5.0656054442,8.25523797,0.42592242280000003,973
96847,185683,247958,5.0656054442,8.25523797,0.42592242280000003,974
96906,185673,247937,5.0656054442,8.25523797,0.42592242280000003,975
96967,185729,247991,5.0656054442,8.25523797,0.42592242280000003,976
97002,185706,247928,5.0656054442,8.25523797,0.42592242280000003,977
98679,185747,247917,4.9710889515,8.316254946299999,0.4211367776,978
98485,185691,247836,4.9710889515,8.316254946299999,0.4211367776,979
98255,185633,247888,4.9710889515,8.316254946299999,0.4211367776,980
98167,185621,247869,4.9710889515,8.316254946299999,0.4211367776,981
98219,185616,247917,4.9710889515,8.316254946299999,0.4211367776,982
98359,185664,247892,4.9710889515,8.316254946299999,0.4211367776,983
98529,185638,247974,4.9710889515,8.316254946299999,0.4211367776,984
98692,185709,248000,4.9710889515,8.316254946299999,0.4211367776,985
98880,185708,247993,4.9710889515,8.316254946299999,0.4211367776,986
98998,185734,247963,4.9710889515,8.316254946299999,0.4211367776,987
99114,185715,247994,4.9710889515,8.316254946299999,0.4211367776,988
99210,185743,248016,4.9710889515,8.316254946299999,0.4211367776,989
99320,185766,248007,4.9710889515,8.316254946299999,0.4211367776,990
99421,185752,248081,4.9710889515,8.316254946299999,0.4211367776,991
99559,185765,248045,4.9710889515,8.316254946299999,0.4211367776,992
99674,185778,248077,4.9710889515,8.316254946299999,0.4211367776,993
99774,185786,248093,4.9710889515,8.316254946299999,0.4211367776,994
99887,185836,247995,4.9710889515,8.316254946299999,0.4211367776,995
99979,185804,248066,4.9710889515,8.316254946299999,0.4211367776,996
100083,185833,248086,4.9710889515,8.316254946299999,0.4211367776,997
100145,185830,248099,4.9710889515,8.316254946299999,0.4211367776,998
99992,185754,248078,4.9710889515,8.316254946299999,0.4211367776,999
99709,185717,247947,4.9710889515,8.316254946299999,0.4211367776,1000
99545,185688,248045,4.9710889515,8.316254946299999,0.4211367776,1001
99520,185691,248078,4.9710889515,8.316254946299999,0.4211367776,1002
99582,185717,248077,4.9710889515,8.316254946299999,0.4211367776,1003
99677,185754,248081,4.9710889515,8.316254946299999,0.4211367776,1004
99812,185764,248126,4.9710889515,8.316254946299999,0.4211367776,1005
99947,185760,248162,4.9710889515,8.316254946299999,0.4211367776,1006
100029,185828,248123,4.9710889515,8.316254946299999,0.4211367776,1007
100099,185837,248140,4.9710889515,8.316254946299999,0.4211367776,1008
100155,185813,248157,4.9710889515,8.316254946299999,0.4211367776,1009
100221,185816,248101,4.9710889515,8.316254946299999,0.4211367776,1010
100301,185847,248138,4.9710889515,8.316254946299999,0.4211367776,1011
100365,185849,248181,4.9710889515,8.316254946299999,0.4211367776,1012
100471,185843,248193,4.9710889515,8.316254946299999,0.4211367776,1013
100553,185870,248213,4.9710889515,8.316254946299999,0.4211367776,1014
100614,185893,248220,4.9710889515,8.316254946299999,0.4211367776,1015
100703,185891,248201,4.9710889515,8.316254946299999,0.4211367776,1016
100792,185923,248201,4.9710889515,8.316254946299999,0.4211367776,1017
100765,185884,248208,4.9710889515,8.316254946299999,0.4211367776,1018
100461,185839,248136,4.9710889515,8.316254946299999,0.4211367776,1019
100144,185778,248155,4.995017177499999,8.3820575678,0.40677984199999995,1020
100264,185827,248149,4.995017177499999,8.3820575678,0.40677984199999995,1021
100405,185845,248206,4.995017177499999,8.3820575678,0.40677984199999995,1022
100518,185833,248204,4.995017177499999,8.3820575678,0.40677984199999995,1023
100557,185870,248204,4.995017177499999,8.3820575678,0.40677984199999995,1024
100626,185870,248213,4.995017177499999,8.3820575678,0.40677984199999995,1025
100674,185874,248272,4.995017177499999,8.3820575678,0.40677984199999995,1026
100764,185874,248286,4.995017177499999,8.3820575678,0.40677984199999995,1027
100822,185893,248300,4.995017177499999,8.3820575678,0.40677984199999995,1028
100908,185906,248312,4.995017177499999,8.3820575678,0.40677984199999995,1029
100988,185951,248345,4.995017177499999,8.3820575678,0.40677984199999995,1030
101066,185923,248255,4.995017177499999,8.3820575678,0.40677984199999995,1031
101147,185938,248336,4.995017177499999,8.3820575678,0.40677984199999995,1032
101196,185962,248360,4.995017177499999,8.3820575678,0.40677984199999995,1033
101110,185963,248307,4.995017177499999,8.3820575678,0.40677984199999995,1034
100755,185821,248261,4.995017177499999,8.3820575678,0.40677984199999995,1035
100456,185764,248233,4.995017177499999,8.3820575678,0.40677984199999995,1036
100354,185776,248186,4.995017177499999,8.3820575678,0.40677984199999995,1037
100349,185774,248183,4.995017177499999,8.3820575678,0.40677984199999995,1038
100422,185790,248243,4.995017177499999,8.3820575678,0.40677984199999995,1039
100524,185815,248276,4.995017177499999,8.3820575678,0.40677984199999995,1040
100664,185846,248300,4.995017177499999,8.3820575678,0.40677984199999995,1041
100782,185885,248313,4.995017177499999,8.3820575678,0.40677984199999995,1042
100837,185890,248314,4.995017177499999,8.3820575678,0.40677984199999995,1043
100863,185852,248326,4.995017177499999,8.3820575678,0.40677984199999995,1044
100899,185919,248308,4.995017177499999,8.3820575678,0.40677984199999995,1045
100959,185947,248337,4.995017177499999,8.3820575678,0.40677984199999995,1046
101029,185916,248336,4.995017177499999,8.3820575678,0.40677984199999995,1047
101088,185928,248361,4.995017177499999,8.3820575678,0.40677984199999995,1048
101150,185951,248330,4.995017177499999,8.3820575678,0.40677984199999995,1049
101226,185976,248395,4.995017177499999,8.3820575678,0.40677984199999995,1050
101283,185992,248342,4.995017177499999,8.3820575678,0.40677984199999995,1051
101341,185986,248372,4.995017177499999,8.3820575678,0.40677984199999995,1052
101374,185967,248427,4.995017177499999,8.3820575678,0.40677984199999995,1053
101183,185928,248326,4.995017177499999,8.3820575678,0.40677984199999995,1054
100795,185823,248324,4.995017177499999,8.3820575678,0.40677984199999995,1055
100535,185828,248229,4.995017177499999,8.3820575678,0.40677984199999995,1056
100458,185809,248253,4.995017177499999,8.3820575678,0.40677984199999995,1057
100486,185785,248285,4.995017177499999,8.3820575678,0.40677984199999995,1058
100566,185828,248319,4.995017177499999,8.3820575678,0.40677984199999995,1059
100684,185849,248321,4.9674997176,8.3126657124,0.49292145559999995,1060
100810,185919,248333,4.9674997176,8.3126657124,0.49292145559999995,1061
100862,185890,248383,4.9674997176,8.3126657124,0.49292145559999995,1062
100923,185891,248361,4.9674997176,8.3126657124,0.49292145559999995,1063
100973,185902,248346,4.9674997176,8.3126657124,0.49292145559999995,1064
100988,185944,248366,4.9674997176,8.3126657124,0.49292145559999995,1065
101047,185956,248381,4.9674997176,8.3126657124,0.49292145559999995,1066
101110,185956,248386,4.9674997176,8.3126657124,0.49292145559999995,1067
101170,185967,248414,4.9674997176,8.3126657124,0.49292145559999995,1068
101235,185967,248378,4.9674997176,8.3126657124,0.49292145559999995,1069
101286,186004,248407,4.9674997176,8.3126657124,0.49292145559999995,1070
101343,185954,248416,4.9674997176,8.3126657124,0.49292145559999995,1071
101402,185999,248403,4.9674997176,8.3126657124,0.49292145559999995,1072
101328,186001,248418,4.9674997176,8.3126657124,0.49292145559999995,1073
100971,185874,248395,4.9674997176,8.3126657124,0.49292145559999995,1074
100644,185820,248339,4.9674997176,8.3126657124,0.49292145559999995,1075
100539,185814,248324,4.9674997176,8.3126657124,0.49292145559999995,1076
100526,185816,248343,4.9674997176,8.3126657124,0.49292145559999995,1077
100609,185841,248288,4.9674997176,8.3126657124,0.49292145559999995,1078
100705,185872,248380,4.9112683865,8.3018980107,0.382851616,1079
100834,185873,248386,4.9112683865,8.3018980107,0.382851616,1080
100927,185925,248439,4.9112683865,8.3018980107,0.382851616,1081
100953,185896,248410,4.9112683865,8.3018980107,0.382851616,1082
100965,185925,248413,4.9112683865,8.3018980107,0.382851616,1083
100986,185938,248382,4.9112683865,8.3018980107,0.382851616,1084
101041,185920,248412,4.9112683865,8.3018980107,0.382851616,1085
101091,185948,248410,4.9112683865,8.3018980107,0.382851616,1086
101163,185948,248426,4.9112683865,8.3018980107,0.382851616,1087
101194,185961,248428,4.9112683865,8.3018980107,0.382851616,1088
101265,185996,248426,4.9112683865,8.3018980107,0.382851616,1089
101318,185995,248421,4.9112683865,8.3018980107,0.382851616,1090
101382,185996,248456,4.9112683865,8.3018980107,0.382851616,1091
101283,185975,248436,4.9112683865,8.3018980107,0.382851616,1092
100892,185891,248383,4.9112683865,8.3018980107,0.382851616,1093
100531,185787,248313,4.9112683865,8.3018980107,0.382851616,1094
100371,185758,248341,4.9112683865,8.3018980107,0.382851616,1095
100348,185774,248275,4.9112683865,8.3018980107,0.382851616,1096
100374,185838,248328,4.9112683865,8.3018980107,0.382851616,1097
100465,185831,248334,4.9112683865,8.3018980107,0.382851616,1098
100589,185865,248307,4.9112683865,8.3018980107,0.382851616,1099
100657,185879,248361,4.9112683865,8.3018980107,0.382851616,1100
100677,185877,248367,4.9112683865,8.3018980107,0.382851616,1101
100676,185855,248409,4.9112683865,8.3018980107,0.382851616,1102
100685,185898,248387,4.9112683865,8.3018980107,0.382851616,1103
100724,185914,248435,4.9112683865,8.3018980107,0.382851616,1104
100750,185904,248407,4.9112683865,8.3018980107,0.382851616,1105
100790,185915,248419,4.9112683865,8.3018980107,0.382851616,1106
100874,185964,248452,4.9112683865,8.3018980107,0.382851616,1107
100904,185938,248466,4.9112683865,8.3018980107,0.382851616,1108
100965,185962,248436,4.9112683865,8.3018980107,0.382851616,1109
100969,185974,248489,4.9112683865,8.3018980107,0.382851616,1110
100784,185922,248424,4.9112683865,8.3018980107,0.382851616,1111
100350,185813,248316,4.9112683865,8.3018980107,0.382851616,1112
99989,185754,248299,4.9112683865,8.3018980107,0.382851616,1113
99842,185758,248325,4.9112683865,8.3018980107,0.382851616,1114
99814,185775,248355,4.9112683865,8.3018980107,0.382851616,1115
99813,185758,248306,4.9112683865,8.3018980107,0.382851616,1116
99889,185763,248341,4.9112683865,8.3018980107,0.382851616,1117
99972,185772,248336,4.9112683865,8.3018980107,0.382851616,1118
100020,185839,248356,4.9112683865,8.3018980107,0.382851616,1119
100035,185858,248376,4.9112683865,8.3018980107,0.382851616,1120
99375,185744,248290,5.0285166938999994,8.3976109147,0.3158525832,1121
99177,185713,248231,5.0285166938999994,8.3976109147,0.3158525832,1122
99141,185713,248263,5.0285166938999994,8.3976109147,0.3158525832,1123
99174,185707,248261,5.0285166938999994,8.3976109147,0.3158525832,1124
99229,185748,248298,5.0285166938999994,8.3976109147,0.3158525832,1125
99310,185789,248278,5.0285166938999994,8.3976109147,0.3158525832,1126
99379,185828,248379,5.0285166938999994,8.3976109147,0.3158525832,1127
99412,185815,248294,5.0285166938999994,8.3976109147,0.3158525832,1128
99400,185835,248362,5.0285166938999994,8.3976109147,0.3158525832,1129
99415,185833,248362,5.0285166938999994,8.3976109147,0.3158525832,1130
99456,185829,248357,5.0285166938999994,8.3976109147,0.3158525832,1131
99479,185882,248340,5.0285166938999994,8.3976109147,0.3158525832,1132
99550,185848,248363,5.0285166938999994,8.3976109147,0.3158525832,1133
99610,185886,248390,5.0285166938999994,8.3976109147,0.3158525832,1134
99661,185894,248398,5.0285166938999994,8.3976109147,0.3158525832,1135
99718,185907,248372,5.0285166938999994,8.3976109147,0.3158525832,1136
99777,185909,248381,5.0285166938999994,8.3976109147,0.3158525832,1137
99820,185900,248353,5.0285166938999994,8.3976109147,0.3158525832,1138
99636,185866,248268,5.0285166938999994,8.3976109147,0.3158525832,1139
99184,185769,248266,5.0285166938999994,8.3976109147,0.3158525832,1140
98848,185687,248241,5.0285166938999994,8.3976109147,0.3158525832,1141
98745,185672,248219,5.0285166938999994,8.3976109147,0.3158525832,1142
98778,185684,248216,5.0285166938999994,8.3976109147,0.3158525832,1143
98830,185700,248213,5.0285166938999994,8.3976109147,0.3158525832,1144
98943,185759,248229,5.0285166938999994,8.3976109147,0.3158525832,1145
99050,185779,248273,5.0285166938999994,8.3976109147,0.3158525832,1146
99127,185770,248243,5.0285166938999994,8.3976109147,0.3158525832,1147
99148,185778,248337,5.0285166938999994,8.3976109147,0.3158525832,1148
99173,185829,248298,5.0285166938999994,8.3976109147,0.3158525832,1149
99197,185824,248310,5.0285166938999994,8.3976109147,0.3158525832,1150
99257,185795,248312,5.0285166938999994,8.3976109147,0.3158525832,1151
99325,185860,248275,5.0285166938999994,8.3976109147,0.3158525832,1152
99386,185880,248336,5.0285166938999994,8.3976109147,0.3158525832,1153
99448,185885,248347,5.0285166938999994,8.3976109147,0.3158525832,1154
99526,185896,248389,5.0285166938999994,8.3976109147,0.3158525832,1155
99596,185902,248327,5.0285166938999994,8.3976109147,0.3158525832,1156
99659,185891,248354,5.0285166938999994,8.3976109147,0.3158525832,1157
99661,185898,248378,5.0285166938999994,8.3976109147,0.3158525832,1158
99360,185780,248300,5.0285166938999994,8.3976109147,0.3158525832,1159
98921,185700,248198,5.0285166938999994,8.3976109147,0.3158525832,1160
98733,185686,248233,5.0285166938999994,8.3976109147,0.3158525832,1161
98695,185692,248195,5.0285166938999994,8.3976109147,0.3158525832,1162
99034,185652,248324,4.9710889515,8.226524098799999,0.3302095188,1163
99145,185659,248290,4.9710889515,8.226524098799999,0.3302095188,1164
99227,185722,248293,4.9710889515,8.226524098799999,0.3302095188,1165
99304,185741,248289,4.9710889515,8.226524098799999,0.3302095188,1166
99378,185745,248379,4.9710889515,8.226524098799999,0.3302095188,1167
99454,185772,248394,4.9710889515,8.226524098799999,0.3302095188,1168
99410,185758,248373,4.9710889515,8.226524098799999,0.3302095188,1169
99027,185641,248227,4.9710889515,8.226524098799999,0.3302095188,1170
98581,185534,248214,4.9710889515,8.226524098799999,0.3302095188,1171
98409,185516,248162,4.9710889515,8.226524098799999,0.3302095188,1172
98387,185514,248208,4.9710889515,8.226524098799999,0.3302095188,1173
98430,185503,248216,4.9710889515,8.226524098799999,0.3302095188,1174
98528,185532,248217,4.9710889515,8.226524098799999,0.3302095188,1175
98649,185591,248252,4.9710889515,8.226524098799999,0.3302095188,1176
98769,185575,248319,4.9710889515,8.226524098799999,0.3302095188,1177
98813,185614,248242,4.9710889515,8.226524098799999,0.3302095188,1178
98838,185604,248268,4.9710889515,8.226524098799999,0.3302095188,1179
98883,185644,248302,4.9710889515,8.226524098799999,0.3302095188,1180
98924,185651,248268,4.9710889515,8.226524098799999,0.3302095188,1181
98999,185633,248270,4.9710889515,8.226524098799999,0.3302095188,1182
99052,185661,248290,4.9710889515,8.226524098799999,0.3302095188,1183
99140,185679,248339,4.9710889515,8.226524098799999,0.3302095188,1184
99205,185702,248280,4.9710889515,8.226524098799999,0.3302095188,1185
99277,185686,248341,4.9710889515,8.226524098799999,0.3302095188,1186
99333,185735,248343,4.9710889515,8.226524098799999,0.3302095188,1187
99279,185685,248288,4.9710889515,8.226524098799999,0.3302095188,1188
98903,185583,248246,5.1014977832,8.2731841395,0.5252245607,1189
98486,185529,248195,5.1014977832,8.2731841395,0.5252245607,1190
98333,185452,248186,5.1014977832,8.2731841395,0.5252245607,1191
98363,185462,248166,5.1014977832,8.2731841395,0.5252245607,1192
98434,185509,248175,5.1014977832,8.2731841395,0.5252245607,1193
98548,185500,248169,5.1014977832,8.2731841395,0.5252245607,1194
98713,185575,248206,5.1014977832,8.2731841395,0.5252245607,1195
98807,185533,248245,5.114658307499999,8.2564343813,0.382851616,1196
98835,185636,248208,4.9160540317,8.3976109147,0.5108676251000001,1197
98872,185603,248252,4.9148576204,8.2923267203,0.43190447930000003,1198
98899,185614,248229,4.990231532299999,8.155935832099999,0.44386859230000003,1199
98951,185527,248280,5.0344987504,8.3832539791,0.3792623821,1200
99030,185607,248261,5.152943469099999,8.249255913499999,0.538385085,1201
99080,185652,248278,5.0045884679,8.1463645417,0.4486542375,1202
99173,185643,248290,4.7306102802,8.316254946299999,0.382851616,1203
99256,185641,248304,4.9196432655999995,8.2648092604,0.4019941968,1204
99329,185666,248326,4.977071008,8.306683655899999,0.430708068,1205
99384,185682,248303,5.029713105200001,8.3449688175,0.47736810869999996,1206
99266,185686,248287,5.058426976400001,8.3306118819,0.430708068,1207
98861,185530,248207,5.057230565099999,8.3222370028,0.38763726119999997,1208
98546,185476,248199,5.1338008883,8.373682688699999,0.40677984199999995,1209
98439,185469,248182,5.1673004047,8.2037922841,0.36011980130000004,1210
98521,185452,248181,5.0237310487,8.3078800672,0.3158525832,1211
98596,185497,248179,5.0237310487,8.3078800672,0.3158525832,1212
98760,185518,248239,5.0237310487,8.3078800672,0.3158525832,1213
98911,185532,248227,5.0237310487,8.3078800672,0.3158525832,1214
99000,185528,248250,5.0237310487,8.3078800672,0.3158525832,1215
99046,185589,248296,5.0237310487,8.3078800672,0.3158525832,1216
99066,185561,248277,5.0237310487,8.3078800672,0.3158525832,1217
99131,185563,248262,5.0237310487,8.3078800672,0.3158525832,1218
99196,185595,248294,5.0237310487,8.3078800672,0.3158525832,1219
99257,185616,248292,5.0237310487,8.3078800672,0.3158525832,1220
99333,185642,248343,5.0237310487,8.3078800672,0.3158525832,1221
99403,185646,248341,5.0237310487,8.3078800672,0.3158525832,1222
99487,185683,248281,5.0237310487,8.3078800672,0.3158525832,1223
99556,185688,248355,5.0237310487,8.3078800672,0.3158525832,1224
99502,185644,248301,5.0237310487,8.3078800672,0.3158525832,1225
99151,185554,248262,5.0237310487,8.3078800672,0.3158525832,1226
98743,185412,248176,5.0237310487,8.3078800672,0.3158525832,1227
98607,185414,248172,5.0237310487,8.3078800672,0.3158525832,1228
98588,185395,248183,5.0237310487,8.3078800672,0.3158525832,1229
98658,185427,248173,5.0237310487,8.3078800672,0.3158525832,1230
98782,185437,248201,5.0237310487,8.3078800672,0.3158525832,1231
98922,185482,248257,5.0237310487,8.3078800672,0.3158525832,1232
99050,185465,248224,5.0237310487,8.3078800672,0.3158525832,1233
99102,185516,248283,5.0237310487,8.3078800672,0.3158525832,1234
99129,185514,248261,5.0237310487,8.3078800672,0.3158525832,1235
99165,185535,248285,5.0237310487,8.3078800672,0.3158525832,1236
99224,185492,248312,5.0237310487,8.3078800672,0.3158525832,1237
99286,185554,248265,5.0237310487,8.3078800672,0.3158525832,1238
99373,185530,248286,5.0237310487,8.3078800672,0.3158525832,1239
99463,185549,248338,5.0237310487,8.3078800672,0.3158525832,1240
99513,185582,248358,5.0237310487,8.3078800672,0.3158525832,1241
99610,185616,248315,5.0237310487,8.3078800672,0.3158525832,1242
99643,185620,248328,5.0237310487,8.3078800672,0.3158525832,1243
99370,185508,248278,5.0237310487,8.3078800672,0.3158525832,1244
98917,185379,248214,5.0237310487,8.3078800672,0.3158525832,1245
98668,185312,248177,5.0237310487,8.3078800672,0.3158525832,1246
98596,185309,248136,5.0237310487,8.3078800672,0.3158525832,1247
98633,185337,248134,5.0237310487,8.3078800672,0.3158525832,1248
98696,185383,248141,4.9782674193,8.3832539791,0.47736810869999996,1249
98805,185403,248192,4.9782674193,8.3832539791,0.47736810869999996,1250
98960,185418,248206,4.9782674193,8.3832539791,0.47736810869999996,1251
99012,185448,248235,4.9782674193,8.3832539791,0.47736810869999996,1252
99033,185459,248236,4.9782674193,8.3832539791,0.47736810869999996,1253
99068,185404,248219,4.9782674193,8.3832539791,0.47736810869999996,1254
99092,185420,248231,4.9782674193,8.3832539791,0.47736810869999996,1255
99153,185446,248289,4.9782674193,8.3832539791,0.47736810869999996,1256
99203,185462,248267,4.9782674193,8.3832539791,0.47736810869999996,1257
99283,185480,248293,4.9782674193,8.3832539791,0.47736810869999996,1258
99365,185493,248323,4.9782674193,8.3832539791,0.47736810869999996,1259
99430,185490,248349,4.9782674193,8.3832539791,0.47736810869999996,1260
99498,185527,248344,4.9782674193,8.3832539791,0.47736810869999996,1261
99503,185528,248269,4.9782674193,8.3832539791,0.47736810869999996,1262
99122,185424,248204,4.9782674193,8.3832539791,0.47736810869999996,1263
98664,185307,248165,4.9782674193,8.3832539791,0.47736810869999996,1264
98439,185214,248112,4.9782674193,8.3832539791,0.47736810869999996,1265
98403,185250,248156,4.9782674193,8.3832539791,0.47736810869999996,1266
98441,185282,248160,4.9782674193,8.3832539791,0.47736810869999996,1267
98539,185305,248121,4.9782674193,8.3832539791,0.47736810869999996,1268
98652,185311,248160,4.9782674193,8.3832539791,0.47736810869999996,1269
98753,185344,248177,4.9782674193,8.3832539791,0.47736810869999996,1270
98773,185352,248189,4.9782674193,8.3832539791,0.47736810869999996,1271
98804,185359,248175,4.9782674193,8.3832539791,0.47736810869999996,1272
98825,185340,248201,4.9782674193,8.3832539791,0.47736810869999996,1273
98844,185386,248224,4.9782674193,8.3832539791,0.47736810869999996,1274
98915,185406,248266,4.9782674193,8.3832539791,0.47736810869999996,1275
98974,185407,248224,4.9782674193,8.3832539791,0.47736810869999996,1276
99030,185414,248249,4.9782674193,8.3832539791,0.47736810869999996,1277
99118,185455,248249,4.9782674193,8.3832539791,0.47736810869999996,1278
99196,185460,248295,4.9782674193,8.3832539791,0.47736810869999996,1279
99258,185485,248277,4.9782674193,8.3832539791,0.47736810869999996,1280
99210,185441,248236,4.9782674193,8.3832539791,0.47736810869999996,1281
98824,185343,248156,4.9782674193,8.3832539791,0.47736810869999996,1282
98375,185249,248105,4.9782674193,8.3832539791,0.47736810869999996,1283
98207,185191,248076,4.9782674193,8.3832539791,0.47736810869999996,1284
98201,185232,248087,4.9782674193,8.3832539791,0.47736810869999996,1285
98245,185211,248062,4.9782674193,8.3832539791,0.47736810869999996,1286
98367,185251,248136,4.9782674193,8.3832539791,0.47736810869999996,1287
98502,185331,248173,4.9782674193,8.3832539791,0.47736810869999996,1288
98580,185321,248170,4.9782674193,8.3832539791,0.47736810869999996,1289
98631,185347,248202,4.9782674193,8.3832539791,0.47736810869999996,1290
98465,185251,248148,5.057230565099999,8.1882389372,0.34456645439999994,1291
98488,185234,248177,5.057230565099999,8.1882389372,0.34456645439999994,1292
98553,185214,248107,5.057230565099999,8.1882389372,0.34456645439999994,1293
98612,185283,248171,5.057230565099999,8.1882389372,0.34456645439999994,1294
98692,185295,248148,5.057230565099999,8.1882389372,0.34456645439999994,1295
98781,185285,248234,5.057230565099999,8.1882389372,0.34456645439999994,1296
98865,185295,248173,5.057230565099999,8.1882389372,0.34456645439999994,1297
98969,185341,248204,5.057230565099999,8.1882389372,0.34456645439999994,1298
99054,185373,248206,5.057230565099999,8.1882389372,0.34456645439999994,1299
99131,185383,248255,5.057230565099999,8.1882389372,0.34456645439999994,1300
99197,185364,248216,5.057230565099999,8.1882389372,0.34456645439999994,1301
99028,185294,248226,5.057230565099999,8.1882389372,0.34456645439999994,1302
98541,185198,248098,5.057230565099999,8.1882389372,0.34456645439999994,1303
98197,185125,248052,5.057230565099999,8.1882389372,0.34456645439999994,1304
98119,185077,248065,5.057230565099999,8.1882389372,0.34456645439999994,1305
98136,185124,248070,5.057230565099999,8.1882389372,0.34456645439999994,1306
98242,185118,248073,5.057230565099999,8.1882389372,0.34456645439999994,1307
98393,185170,248050,5.057230565099999,8.1882389372,0.34456645439999994,1308
98533,185198,248164,5.057230565099999,8.1882389372,0.34456645439999994,1309
98648,185249,248123,5.057230565099999,8.1882389372,0.34456645439999994,1310
98698,185221,248155,5.057230565099999,8.1882389372,0.34456645439999994,1311
98741,185257,248189,5.057230565099999,8.1882389372,0.34456645439999994,1312
98788,185235,248172,5.057230565099999,8.1882389372,0.34456645439999994,1313
98844,185239,248161,5.057230565099999,8.1882389372,0.34456645439999994,1314
98917,185280,248195,5.057230565099999,8.1882389372,0.34456645439999994,1315
99000,185290,248204,5.057230565099999,8.1882389372,0.34456645439999994,1316
99091,185306,248233,5.057230565099999,8.1882389372,0.34456645439999994,1317
99165,185349,248211,5.057230565099999,8.1882389372,0.34456645439999994,1318
99248,185356,248262,5.057230565099999,8.1882389372,0.34456645439999994,1319
99333,185356,248243,5.057230565099999,8.1882389372,0.34456645439999994,1320
99394,185391,248279,5.057230565099999,8.1882389372,0.34456645439999994,1321
99145,185262,248141,5.057230565099999,8.1882389372,0.34456645439999994,1322
98658,185170,248078,5.057230565099999,8.1882389372,0.34456645439999994,1323
98349,185123,248033,5.057230565099999,8.1882389372,0.34456645439999994,1324
98299,185088,248089,5.057230565099999,8.1882389372,0.34456645439999994,1325
98361,185128,248087,5.057230565099999,8.1882389372,0.34456645439999994,1326
98478,185141,248137,5.057230565099999,8.1882389372,0.34456645439999994,1327
98622,185197,248101,5.057230565099999,8.1882389372,0.34456645439999994,1328
98755,185224,248135,5.057230565099999,8.1882389372,0.34456645439999994,1329
98825,185243,248170,5.0093741131,8.417949906799999,0.39720855159999996,1330
98878,185250,248190,5.0093741131,8.417949906799999,0.39720855159999996,1331
98901,185254,248175,5.0093741131,8.417949906799999,0.39720855159999996,1332
98963,185273,248182,5.0093741131,8.417949906799999,0.39720855159999996,1333
99034,185260,248164,5.0093741131,8.417949906799999,0.39720855159999996,1334
99132,185276,248240,5.0093741131,8.417949906799999,0.39720855159999996,1335
99202,185290,248218,5.0093741131,8.417949906799999,0.39720855159999996,1336
99299,185311,248188,4.9758745967,8.316254946299999,0.2979064137,1337
99392,185356,248221,4.9758745967,8.316254946299999,0.2979064137,1338
99488,185344,248227,4.9758745967,8.316254946299999,0.2979064137,1339
99559,185341,248259,4.9758745967,8.316254946299999,0.2979064137,1340
99462,185323,248212,4.9758745967,8.316254946299999,0.2979064137,1341
99049,185199,248097,4.9758745967,8.316254946299999,0.2979064137,1342
98675,185134,248089,4.9758745967,8.316254946299999,0.2979064137,1343
98568,185106,248061,4.9758745967,8.316254946299999,0.2979064137,1344
98565,185128,248036,4.9758745967,8.316254946299999,0.2979064137,1345
98680,185160,248091,4.9758745967,8.316254946299999,0.2979064137,1346
98838,185187,248104,4.9758745967,8.316254946299999,0.2979064137,1347
98996,185210,248149,4.9758745967,8.316254946299999,0.2979064137,1348
99112,185242,248171,4.9758745967,8.316254946299999,0.2979064137,1349
99156,185260,248223,4.9758745967,8.316254946299999,0.2979064137,1350
99203,185263,248148,4.9758745967,8.316254946299999,0.2979064137,1351
99233,185282,248148,4.9758745967,8.316254946299999,0.2979064137,1352
99289,185282,248238,4.9758745967,8.316254946299999,0.2979064137,1353
99374,185274,248199,4.9758745967,8.316254946299999,0.2979064137,1354
99433,185302,248237,4.9758745967,8.316254946299999,0.2979064137,1355
99519,185333,248230,4.9758745967,8.316254946299999,0.2979064137,1356
99591,185336,248230,4.9758745967,8.316254946299999,0.2979064137,1357
99673,185351,248225,4.9758745967,8.316254946299999,0.2979064137,1358
99722,185341,248229,4.9758745967,8.316254946299999,0.2979064137,1359
99515,185267,248149,4.9758745967,8.316254946299999,0.2979064137,1360
99047,185154,248084,4.9758745967,8.316254946299999,0.2979064137,1361
98754,185098,248069,4.9758745967,8.316254946299999,0.2979064137,1362
98688,185090,248037,4.9758745967,8.316254946299999,0.2979064137,1363
98734,185128,248064,4.9758745967,8.316254946299999,0.2979064137,1364
98825,185112,248073,4.9758745967,8.316254946299999,0.2979064137,1365
98974,185196,248154,4.9758745967,8.316254946299999,0.2979064137,1366
99081,185216,248132,4.9758745967,8.316254946299999,0.2979064137,1367
99172,185208,248183,4.9758745967,8.316254946299999,0.2979064137,1368
99211,185229,248151,4.9758745967,8.316254946299999,0.2979064137,1369
99217,185225,248190,4.816751893799999,8.3593257531,0.3732803256,1370
99249,185224,248185,4.816751893799999,8.3593257531,0.3732803256,1371
99313,185230,248175,4.816751893799999,8.3593257531,0.3732803256,1372
99347,185262,248193,4.816751893799999,8.3593257531,0.3732803256,1373
99399,185241,248194,4.816751893799999,8.3593257531,0.3732803256,1374
99464,185297,248205,4.816751893799999,8.3593257531,0.3732803256,1375
99522,185283,248225,4.816751893799999,8.3593257531,0.3732803256,1376
99589,185283,248231,4.816751893799999,8.3593257531,0.3732803256,1377
99498,185294,248196,4.816751893799999,8.3593257531,0.3732803256,1378
99069,185165,248118,4.816751893799999,8.3593257531,0.3732803256,1379
98621,185046,248062,4.816751893799999,8.3593257531,0.3732803256,1380
98430,185035,247994,4.816751893799999,8.3593257531,0.3732803256,1381
98401,185072,248009,4.816751893799999,8.3593257531,0.3732803256,1382
98426,185040,248040,4.816751893799999,8.3593257531,0.3732803256,1383
98524,185094,248042,4.816751893799999,8.3593257531,0.3732803256,1384
98625,185096,248068,4.816751893799999,8.3593257531,0.3732803256,1385
98743,185157,248082,4.816751893799999,8.3593257531,0.3732803256,1386
98795,185151,248122,4.816751893799999,8.3593257531,0.3732803256,1387
98814,185139,248174,4.816751893799999,8.3593257531,0.3732803256,1388
98832,185167,248094,4.816751893799999,8.3593257531,0.3732803256,1389
98865,185161,248138,4.816751893799999,8.3593257531,0.3732803256,1390
98921,185187,248139,4.816751893799999,8.3593257531,0.3732803256,1391
98986,185212,248102,4.816751893799999,8.3593257531,0.3732803256,1392
99063,185190,248200,4.816751893799999,8.3593257531,0.3732803256,1393
99106,185247,248162,4.816751893799999,8.3593257531,0.3732803256,1394
99193,185255,248198,4.816751893799999,8.3593257531,0.3732803256,1395
99268,185248,248203,4.816751893799999,8.3593257531,0.3732803256,1396
99177,185235,248141,4.816751893799999,8.3593257531,0.3732803256,1397
98711,185130,248076,4.816751893799999,8.3593257531,0.3732803256,1398
98280,185031,247975,4.816751893799999,8.3593257531,0.3732803256,1399
98044,184974,248017,4.816751893799999,8.3593257531,0.3732803256,1400
98009,184997,247941,4.816751893799999,8.3593257531,0.3732803256,1401
98069,185005,247987,4.816751893799999,8.3593257531,0.3732803256,1402
98164,185055,248054,5.0596233877,8.3353975271,0.4402793584,1403
98281,185080,248025,5.0596233877,8.3353975271,0.4402793584,1404
98380,185101,248095,5.0596233877,8.3353975271,0.4402793584,1405
98419,185109,248094,5.0596233877,8.3353975271,0.4402793584,1406
98448,185160,248020,5.0596233877,8.3353975271,0.4402793584,1407
98461,185117,248134,5.0596233877,8.3353975271,0.4402793584,1408
98503,185140,248107,5.0596233877,8.3353975271,0.4402793584,1409
98576,185164,248121,5.0596233877,8.3353975271,0.4402793584,1410
98635,185184,248136,5.0596233877,8.3353975271,0.4402793584,1411
98704,185177,248170,5.0596233877,8.3353975271,0.4402793584,1412
98806,185216,248109,5.0596233877,8.3353975271,0.4402793584,1413
98875,185231,248157,5.0596233877,8.3353975271,0.4402793584,1414
98952,185243,248177,5.0596233877,8.3353975271,0.4402793584,1415
98949,185236,248129,5.0596233877,8.3353975271,0.4402793584,1416
98568,185074,248063,5.0596233877,8.3353975271,0.4402793584,1417
98073,184983,247980,5.0596233877,8.3353975271,0.4402793584,1418
97883,184980,247940,5.0596233877,8.3353975271,0.4402793584,1419
97856,184965,247943,5.0596233877,8.3353975271,0.4402793584,1420
97932,185041,247980,5.0596233877,8.3353975271,0.4402793584,1421
98064,184987,248027,5.0596233877,8.3353975271,0.4402793584,1422
98204,185057,248072,5.0596233877,8.3353975271,0.4402793584,1423
98340,185118,248077,5.0596233877,8.3353975271,0.4402793584,1424
98412,185109,248065,5.0596233877,8.3353975271,0.4402793584,1425
98447,185108,248160,5.0596233877,8.3353975271,0.4402793584,1426
98491,185114,248112,5.0596233877,8.3353975271,0.4402793584,1427
98548,185138,248084,5.0596233877,8.3353975271,0.4402793584,1428
98633,185162,248161,5.0596233877,8.3353975271,0.4402793584,1429
98721,185178,248154,5.0596233877,8.3353975271,0.4402793584,1430
98797,185200,248153,5.0596233877,8.3353975271,0.4402793584,1431
98874,185176,248177,5.0596233877,8.3353975271,0.4402793584,1432
98978,185214,248178,5.0596233877,8.3353975271,0.4402793584,1433
99055,185225,248180,5.0596233877,8.3353975271,0.4402793584,1434
99033,185177,248138,5.0596233877,8.3353975271,0.4402793584,1435
98646,185125,248040,5.0596233877,8.3353975271,0.4402793584,1436
98250,184999,248009,5.0596233877,8.3353975271,0.4402793584,1437
98101,184937,248032,5.0596233877,8.3353975271,0.4402793584,1438
98165,184946,248006,5.0596233877,8.3353975271,0.4402793584,1439
98255,184991,248044,5.0596233877,8.3353975271,0.4402793584,1440
98383,185040,247999,5.0596233877,8.3353975271,0.4402793584,1441
98551,185088,248063,5.0596233877,8.3353975271,0.4402793584,1442
98684,185100,248138,5.0596233877,8.3353975271,0.4402793584,1443
98763,185126,248071,5.0596233877,8.3353975271,0.4402793584,1444
97864,184949,247972,4.9340002012,8.4071822051,0.4354937132,1445
97947,184965,248004,4.9340002012,8.4071822051,0.4354937132,1446
97985,184974,247993,4.9340002012,8.4071822051,0.4354937132,1447
98009,184970,247982,4.9340002012,8.4071822051,0.4354937132,1448
98092,185005,248000,4.9340002012,8.4071822051,0.4354937132,1449
98150,185008,247995,4.9340002012,8.4071822051,0.4354937132,1450
98224,185044,248005,4.9340002012,8.4071822051,0.4354937132,1451
98338,185072,248050,4.9340002012,8.4071822051,0.4354937132,1452
98423,185041,248055,4.9340002012,8.4071822051,0.4354937132,1453
98489,185091,248058,4.9340002012,8.4071822051,0.4354937132,1454
98601,185087,248047,4.9340002012,8.4071822051,0.4354937132,1455
98682,185096,248057,4.9340002012,8.4071822051,0.4354937132,1456
98623,185069,248064,4.9340002012,8.4071822051,0.4354937132,1457
98167,184935,247934,4.9340002012,8.4071822051,0.4354937132,1458
97725,184884,247910,4.9340002012,8.4071822051,0.4354937132,1459
97553,184828,247882,4.9340002012,8.4071822051,0.4354937132,1460
97581,184831,247838,4.9340002012,8.4071822051,0.4354937132,1461
97654,184873,247886,4.9340002012,8.4071822051,0.4354937132,1462
97787,184841,247937,4.9340002012,8.4071822051,0.4354937132,1463
97924,184922,247939,4.9340002012,8.4071822051,0.4354937132,1464
98055,184957,247961,4.9340002012,8.4071822051,0.4354937132,1465
98146,184963,247980,4.9340002012,8.4071822051,0.4354937132,1466
98166,185003,247983,4.9340002012,8.4071822051,0.4354937132,1467
98205,185012,247990,4.9340002012,8.4071822051,0.4354937132,1468
98267,185004,248005,4.9340002012,8.4071822051,0.4354937132,1469
98335,185023,247965,4.9340002012,8.4071822051,0.4354937132,1470
98409,185023,248026,4.9340002012,8.4071822051,0.4354937132,1471
98497,185060,248071,4.9340002012,8.4071822051,0.4354937132,1472
98615,185051,248033,4.9340002012,8.4071822051,0.4354937132,1473
98676,185086,248048,4.9340002012,8.4071822051,0.4354937132,1474
98786,185096,248028,4.9340002012,8.4071822051,0.4354937132,1475
98844,185097,248077,4.9340002012,8.4071822051,0.4354937132,1476
98810,185127,248062,4.9340002012,8.4071822051,0.4354937132,1477
98371,184986,247976,4.9340002012,8.4071822051,0.4354937132,1478
97933,184853,247910,4.9340002012,8.4071822051,0.4354937132,1479
97768,184857,247869,4.9340002012,8.4071822051,0.4354937132,1480
97767,184869,247886,4.9340002012,8.4071822051,0.4354937132,1481
97842,184886,247886,4.9340002012,8.4071822051,0.4354937132,1482
97968,184899,247930,4.9340002012,8.4071822051,0.4354937132,1483
98129,184962,247999,4.9340002012,8.4071822051,0.4354937132,1484
98255,184992,247998,4.929214556,8.207381518,0.4689932296,1485
98342,185010,247965,4.929214556,8.207381518,0.4689932296,1486
98376,184997,247969,4.929214556,8.207381518,0.4689932296,1487
98423,184990,247985,4.929214556,8.207381518,0.4689932296,1488
98492,184995,248003,4.929214556,8.207381518,0.4689932296,1489
98570,185047,247983,4.929214556,8.207381518,0.4689932296,1490
98644,185042,248036,4.929214556,8.207381518,0.4689932296,1491
98729,185057,248069,4.929214556,8.207381518,0.4689932296,1492
98826,185103,248053,4.929214556,8.207381518,0.4689932296,1493
98904,185124,248055,4.929214556,8.207381518,0.4689932296,1494
99006,185092,248084,4.929214556,8.207381518,0.4689932296,1495
99065,185116,248053,4.929214556,8.207381518,0.4689932296,1496
99084,185100,248071,4.929214556,8.207381518,0.4689932296,1497
98784,185016,248007,5.010570524399999,8.1367932513,0.4677968183,1498
98311,184912,247899,5.010570524399999,8.1367932513,0.4677968183,1499
98098,184877,247918,5.010570524399999,8.1367932513,0.4677968183,1500
98092,184869,247933,5.010570524399999,8.1367932513,0.4677968183,1501
98176,184922,247910,5.010570524399999,8.1367932513,0.4677968183,1502
98302,184932,247926,5.010570524399999,8.1367932513,0.4677968183,1503
98462,184963,247982,5.010570524399999,8.1367932513,0.4677968183,1504
98597,185018,247994,5.010570524399999,8.1367932513,0.4677968183,1505
98685,184996,248002,5.010570524399999,8.1367932513,0.4677968183,1506
98700,185009,247988,5.010570524399999,8.1367932513,0.4677968183,1507
98734,185013,248047,5.010570524399999,8.1367932513,0.4677968183,1508
98804,185039,247989,5.010570524399999,8.1367932513,0.4677968183,1509
98868,185050,248057,5.010570524399999,8.1367932513,0.4677968183,1510
98956,185036,248074,4.9112683865,8.2600236152,0.3732803256,1511
99035,185080,248126,4.9112683865,8.2600236152,0.3732803256,1512
99120,185107,248106,4.9112683865,8.2600236152,0.3732803256,1513
99184,185151,248113,4.9232324995,8.2695949056,0.4689932296,1514
99263,185123,248084,5.0823552024,8.236095389199999,0.42592242280000003,1515
99244,185113,248119,5.029713105200001,8.1882389372,0.4689932296,1516
98878,184988,248020,5.010570524399999,8.3461652288,0.4402793584,1517
98428,184904,247964,4.9016970961,8.3449688175,0.39122649509999996,1518
