green,red,IR,acc_x,acc_y,acc_z,sample_index
93821,140012,204287,-0.526420972,-9.3631148338,2.4263221164,1
93899,140007,204324,-0.454636294,-9.207581364800001,2.3976082452,2
93975,140022,204305,-0.5168496816,-9.2374916473,2.3318056236999998,3
94005,139992,204327,-0.526420972,-9.0616191862,2.5160529638999996,4
94160,140028,204296,-0.4594219392,-9.178867493599999,2.3497517932000003,5
94242,140042,204320,-0.5491527867,-9.3511507208,2.4311077616,6
94328,140023,204298,-0.5407779076,-9.2027957196,2.4598216327999998,7
94298,140024,204329,-0.3984049629,-9.2937229784,2.368894374,8
94465,140013,204296,-0.47377887479999997,-9.2374916473,2.488535504,9
94544,140015,204310,-0.5120640364,-9.1513500337,2.4311077616,10
94602,140050,204288,-0.5012963347,-9.1453679772,2.4454646972,11
94672,140030,204271,-0.47856452,-9.3032942688,2.368894374,12
94742,140015,204266,-0.5180460929,-9.2027957196,2.3545374384,13
94811,140024,204287,-0.502492746,-9.21236701,2.4825534475,14
94894,140064,204264,-0.4510470601,-9.2937229784,2.464607278,15
94820,140042,204283,-0.5491527867,-9.1980100744,2.4311077616,16
94485,140021,204277,-0.35413774480000004,-9.2697947524,2.4598216327999998,17
94134,139976,204266,-0.5503491979999999,-9.2219383004,2.368894374,18
93882,140027,204274,-0.3661018578,-9.3116691479,2.4263221164,19
93669,139959,204345,-0.430708068,-9.1944208405,2.3114666316,20
93524,139949,204375,-0.3038884702,-9.1932244292,2.3497517932000003,21
93418,139922,204442,-0.4881358104,-9.2709911637,2.4729821571,22
93417,139929,204403,-0.4402793584,-9.0759761218,2.3868405435,23
93542,139925,204440,-0.47976093129999997,-9.274580397600001,2.440679052,24
93724,139934,204468,-0.5407779076,-9.2937229784,2.5208386090999997,25
93762,139969,204442,-0.44985064880000003,-9.2829552767,2.3700907853,26
93832,139985,204420,-0.4079762533,-9.1992064857,2.4969103831,27
93882,139991,204417,-0.2500499617,-9.1322074529,2.3401805028,28
94030,139991,204411,-0.4402793584,-9.3355973739,2.4251257050999997,29
94072,140017,204451,-0.5359922624,-9.2135634213,2.3976082452,30
94156,140017,204493,-0.23688943739999999,-9.308079914,2.3892333661,31
94256,140048,204458,-0.4402793584,-9.2183490665,2.3557338497,32
94287,140025,204429,-0.4749752861,-9.131011041599999,2.4346969955,33
94402,140016,204489,-0.47856452,-9.2554378168,2.4933211492,34
94529,140044,204446,-0.5168496816,-9.2506521716,2.4550359876,35
94494,140018,204458,-0.4474578262,-9.1322074529,2.4311077616,36
94612,140042,204457,-0.3266202849,-9.3116691479,2.3401805028,37
94690,140013,204444,-0.43190447930000003,-9.2087777761,2.4263221164,38
94821,140001,204446,-0.42233318890000004,-9.2793660428,2.3545374384,39
94814,140056,204433,-0.5359922624,-9.2087777761,2.5172493752,40
94626,140034,204431,-0.41754754369999997,-9.1932244292,2.4215364712,41
94208,139999,204384,-0.44985064880000003,-9.2554378168,2.464607278,42
93904,139977,204409,-0.4594219392,-9.2554378168,2.4119651808,43
93628,139975,204422,-0.5635097223,-9.3224368496,2.4921247379,44
93527,139954,204507,-0.5551348432,-9.340383019099999,2.5268206656,45
93292,139915,204553,-0.4354937132,-9.2219383004,2.3880369548,46
93383,139912,204545,-0.5407779076,-9.175278259699999,2.4251257050999997,47
93391,139926,204530,-0.3744767369,-9.1944208405,2.3318056236999998,48
93539,139947,204610,-0.6161518195,-9.104689993,2.4263221164,49
93648,139964,204596,-0.3493520996,-9.2757768089,2.4598216327999998,50
93731,139974,204597,-0.47856452,-9.165706969299999,2.464607278,51
93810,140005,204620,-0.5551348432,-9.3164547931,2.5160529638999996,52
93884,139983,204580,-0.31704899449999996,-9.260223461999999,2.4634108667000003,53
93985,140003,204615,-0.4594219392,-9.2793660428,2.3736800192,54
94061,140003,204561,-0.5682953675,-9.2566342281,2.3700907853,55
94175,140003,204587,-0.4594219392,-9.2279203569,2.3545374384,56
94262,140047,204592,-0.39361931769999997,-9.2566342281,2.3605194949,57
94377,140039,204590,-0.5491527867,-9.2985086236,2.4394826406999996,58
94471,140021,204560,-0.39720855159999996,-9.2458665264,2.4729821571,59
94498,140032,204570,-0.34097722049999996,-9.3415794304,2.3318056236999998,60
94563,140035,204584,-0.3984049629,-9.274580397600001,2.3497517932000003,61
94635,140024,204602,-0.4881358104,-9.188438784,2.4454646972,62
94715,140006,204579,-0.5216353268,-9.2973122123,2.3401805028,63
94725,140032,204572,-0.48335016519999996,-9.1932244292,2.344966148,64
94714,140028,204608,-0.6017948839,-9.236295236,2.4311077616,65
94369,140029,204558,-0.4271188341,-9.1513500337,2.5220350203999997,66
94004,139984,204560,-0.42233318890000004,-9.1226361625,2.5399811898999998,67
93695,139978,204581,-0.4019941968,-9.1417787433,2.464607278,68
93540,139952,204581,-0.4558327053,-9.2662055185,2.4825534475,69
93397,139917,204643,-0.35413774480000004,-9.2183490665,2.5256242543,70
93274,139931,204639,-0.4642075844,-9.308079914,2.4634108667000003,71
93208,139915,204728,-0.5826523031,-9.2889373332,2.4263221164,72
93389,139937,204749,-0.5084748025,-9.1740818484,2.4023938904,73
93531,139956,204727,-0.42592242280000003,-9.299705034899999,2.5304098995,74
93634,139998,204722,-0.41754754369999997,-9.3032942688,2.4215364712,75
93704,139987,204726,-0.36969109170000003,-9.3260260835,2.3641087288000002,76
93798,140017,204726,-0.5312066172,-9.2697947524,2.3545374384,77
93879,140025,204712,-0.6065805291,-9.1609213241,2.3557338497,78
93967,140018,204713,-0.3840480273,-9.108279226899999,2.4071795356,79
93965,140040,204722,-0.5491527867,-9.2781696315,2.4454646972,80
94070,140026,204732,-0.5156532703,-9.3834538259,2.4538395763,81
94218,140025,204710,-0.430708068,-9.2219383004,2.3545374384,82
94359,140055,204730,-0.5970092387,-9.2171526552,2.3593230836,83
94436,140038,204717,-0.4019941968,-9.232706002099999,2.4311077616,84
94443,140064,204705,-0.47856452,-9.207581364800001,2.4837498588,85
94515,140067,204710,-0.4199403663,-9.2171526552,2.344966148,86
94564,140053,204718,-0.5874379483000001,-9.2937229784,2.3497517932000003,87
94586,140052,204692,-0.47377887479999997,-9.2685983411,2.4119651808,88
94734,140054,204696,-0.6113661743,-9.2554378168,2.5507488916,89
94728,140038,204695,-0.43190447930000003,-9.21236701,2.4933211492,90
94574,140081,204688,-0.4558327053,-9.2709911637,2.3832513096,91
94083,140057,204679,-0.40319060809999996,-9.1513500337,2.4825534475,92
93833,139991,204660,-0.34097722049999996,-9.260223461999999,2.4251257050999997,93
93575,139977,204688,-0.4354937132,-9.232706002099999,2.4586252215,94
93361,139951,204717,-0.49770710079999997,-9.152546445,2.5028924396,95
93188,139913,204770,-0.3924229064,-9.2985086236,2.4693929232,96
93108,139919,204801,-0.454636294,-9.2087777761,2.440679052,97
93136,139924,204747,-0.4354937132,-9.3260260835,2.488535504,98
93270,139948,204737,-0.4689932296,-9.109475638200001,2.3126630429,99
93411,139967,204732,-0.4163511324,-9.2279203569,2.4729821571,100
93498,140003,204733,-0.36011980130000004,-9.3164547931,2.3976082452,101
93610,140008,204711,-0.4845465765,-9.236295236,2.4155544147,102
93652,140003,204771,-0.4079762533,-9.080761767,2.4538395763,103
93728,139984,204714,-0.47976093129999997,-9.1513500337,2.4789642136,104
93786,140005,204723,-0.40917266459999996,-9.327222494799999,2.3928226,105
93869,140024,204738,-0.3924229064,-9.3224368496,2.3832513096,106
93997,140029,204729,-0.4019941968,-9.165706969299999,2.4538395763,107
94066,140052,204719,-0.6017948839,-9.2027957196,2.4538395763,108
94206,140037,204723,-0.5551348432,-9.236295236,2.4490539311,109
94221,140031,204740,-0.502492746,-9.2697947524,2.4933211492,110
94298,140016,204731,-0.4402793584,-9.0699940653,2.4969103831,111
94416,140039,204715,-0.5635097223,-9.2374916473,2.4299113503,112
94434,140025,204673,-0.3649054465,-9.121439751199999,2.3832513096,113
94515,140013,204706,-0.5491527867,-9.2374916473,2.3114666316,114
94572,140084,204741,-0.47377887479999997,-9.2697947524,2.4981067944,115
94305,140059,204696,-0.3984049629,-9.3463650756,2.4071795356,116
94002,140014,204669,-0.3613162126,-9.3834538259,2.3736800192,117
93656,139966,204674,-0.3792623821,-9.3702933016,2.3832513096,118
93449,139958,204694,-0.4630111731,-9.1992064857,2.3461625592999997,119
93208,139937,204725,-0.3266202849,-9.1609213241,2.3928226,120
93057,139894,204730,-0.48693939909999995,-9.1932244292,2.3736800192,121
92967,139897,204813,-0.4019941968,-9.1561356789,2.3880369548,122
92989,139943,204822,-0.48933222169999996,-9.3595255999,2.4550359876,123
93163,139940,204840,-0.4642075844,-9.175278259699999,2.4311077616,124
93284,139979,204819,-0.3493520996,-9.1992064857,2.3832513096,125
93351,139965,204794,-0.5491527867,-9.1549392676,2.5256242543,126
93431,140002,204820,-0.502492746,-9.3834538259,2.4681965119,127
93497,139973,204836,-0.5168496816,-9.109475638200001,2.416750826,128
93541,140011,204799,-0.5491527867,-9.308079914,2.4634108667000003,129
93686,139982,204819,-0.44985064880000003,-9.1848495501,2.3653051401,130
93766,140004,204816,-0.4462614149,-9.220741889100001,2.3497517932000003,131
93859,140019,204805,-0.46540399569999996,-9.2039921309,2.3593230836,132
93878,140021,204838,-0.4019941968,-9.2697947524,2.464607278,133
94048,139999,204833,-0.4354937132,-9.2087777761,2.3353948576,134
94112,140049,204842,-0.42592242280000003,-9.2697947524,2.4454646972,135
94168,139973,204787,-0.44985064880000003,-9.403792818,2.321037922,136
94245,140030,204780,-0.47856452,-9.2937229784,2.3461625592999997,137
94352,139994,204790,-0.48335016519999996,-9.042476605400001,2.440679052,138
94398,140031,204815,-0.3792623821,-9.165706969299999,2.4729821571,139
94476,140024,204799,-0.49651068949999994,-9.1704926145,2.3928226,140
94380,140009,204784,-0.42592242280000003,-9.260223461999999,2.4023938904,141
94030,139989,204745,-0.5359922624,-9.332008140000001,2.3497517932000003,142
93685,139947,204747,-0.4354937132,-9.274580397600001,2.4514467537,143
93442,139982,204730,-0.5347958510999999,-9.2697947524,2.4454646972,144
93248,139924,204768,-0.3744767369,-9.3738825355,2.4490539311,145
93089,139915,204833,-0.4139583098,-9.308079914,2.4538395763,146
93024,139902,204837,-0.59820565,-9.327222494799999,2.4550359876,147
93038,139936,204894,-0.5694917788,-9.1501536224,2.5208386090999997,148
93217,139946,204895,-0.3505485109,-9.2135634213,2.3545374384,149
93343,139960,204861,-0.40677984199999995,-9.1992064857,2.4119651808,150
93443,139971,204901,-0.382851616,-9.2937229784,2.4693929232,151
93518,140009,204893,-0.5252245607,-9.1322074529,2.3736800192,152
93599,139978,204875,-0.49651068949999994,-9.247062937699999,2.5160529638999996,153
93686,139996,204879,-0.5359922624,-9.3367937852,2.5112673187,154
93768,140020,204831,-0.5694917788,-9.1573320902,2.5160529638999996,155
93870,140017,204871,-0.5682953675,-9.164510558,2.4729821571,156
94011,140002,204875,-0.4079762533,-9.4085784632,2.321037922,157
94073,140017,204876,-0.4450650036,-9.2171526552,2.4729821571,158
94147,140040,204845,-0.4821537539,-9.2554378168,2.4263221164,159
94230,140012,204878,-0.4414757697,-9.2410808812,2.4741785684,160
94311,140022,204843,-0.49770710079999997,-9.2410808812,2.4071795356,161
94364,140009,204868,-0.430708068,-9.2638126959,2.4502503424,162
94456,139991,204878,-0.454636294,-9.2315095908,2.5016960283,163
94502,140000,204871,-0.34576286570000003,-9.2267239456,2.4550359876,164
94576,140013,204838,-0.42592242280000003,-9.1944208405,2.4825534475,165
94505,139989,204877,-0.574277424,-9.3224368496,2.4119651808,166
94125,140012,204845,-0.42592242280000003,-9.3032942688,2.4729821571,167
93725,139971,204840,-0.4366901245,-9.242277292499999,2.4346969955,168
93536,139950,204818,-0.5491527867,-9.236295236,2.5686950610999997,169
93351,139915,204899,-0.4582255279,-9.340383019099999,2.4598216327999998,170
93228,139954,204904,-0.34456645439999994,-9.2662055185,2.368894374,171
93130,139910,204942,-0.6436692794,-9.340383019099999,2.4119651808,172
93212,139935,204949,-0.48335016519999996,-9.260223461999999,2.4598216327999998,173
93299,139928,204952,-0.5347958510999999,-9.308079914,2.4155544147,174
93475,139959,204946,-0.4354937132,-9.2554378168,2.3641087288000002,175
93553,139980,204985,-0.49770710079999997,-9.2267239456,2.4311077616,176
93622,140002,204981,-0.39960137419999997,-9.2985086236,2.4215364712,177
93720,140005,204938,-0.454636294,-9.21236701,2.4538395763,178
93804,140028,204934,-0.4881358104,-9.2410808812,2.3461625592999997,179
93895,140006,204950,-0.5551348432,-9.2793660428,2.3964118339,180
93982,140025,204982,-0.4211367776,-9.2757768089,2.5112673187,181
94030,140053,204992,-0.6544369810999999,-9.3511507208,2.4155544147,182
94171,140022,204969,-0.41276189849999995,-9.330811728699999,2.4311077616,183
94291,140029,204961,-0.4821537539,-9.2039921309,2.4311077616,184
94322,140029,204963,-0.4402793584,-9.232706002099999,2.4215364712,185
94413,140033,204966,-0.47976093129999997,-9.1800639049,2.3976082452,186
94479,140048,204949,-0.3744767369,-9.2231347117,2.4777678023000003,187
94542,140044,204978,-0.4558327053,-9.3415794304,2.3545374384,188
94634,140044,204989,-0.3732803256,-9.3128655592,2.4969103831,189
94702,140033,204949,-0.4163511324,-9.2303131795,2.3832513096,190
94729,140037,204950,-0.6544369810999999,-9.1800639049,2.4311077616,191
94486,140049,204931,-0.5168496816,-9.3595255999,2.5256242543,192
94117,140005,204920,-0.5395814963,-9.1465643885,2.4490539311,193
93837,139983,204923,-0.4247260115,-9.2506521716,2.464607278,194
93626,139960,204920,-0.31704899449999996,-9.3128655592,2.4023938904,195
93462,139974,204986,-0.3888336725,-9.308079914,2.4741785684,196
93339,139980,204986,-0.430708068,-9.1513500337,2.4921247379,197
93329,139946,204990,-0.39720855159999996,-9.2614198733,2.4023938904,198
93372,139985,205014,-0.39720855159999996,-9.4169533423,2.4358934068,199
93574,139994,205031,-0.5539384319,-9.2039921309,2.5256242543,200
93667,139991,205035,-0.5312066172,-9.3212404383,2.4263221164,201
93806,139998,205013,-0.4402793584,-9.2757768089,2.4693929232,202
93888,140008,205035,-0.4558327053,-9.207581364800001,2.4071795356,203
93934,140018,205008,-0.5539384319,-9.1944208405,2.4538395763,204
94021,140026,205007,-0.4450650036,-9.274580397600001,2.3413769141,205
94109,139946,204987,-0.39720855159999996,-9.2781696315,2.5495524802999996,206
94218,140059,205037,-0.42592242280000003,-9.2039921309,2.4598216327999998,207
94301,140056,205012,-0.6053841178,-9.1429751546,2.5076780847999998,208
94365,140054,205034,-0.430708068,-9.2518485829,2.3593230836,209
94453,140044,205032,-0.586241537,-9.3020978575,2.4311077616,210
94536,140048,205009,-0.49651068949999994,-9.274580397600001,2.4071795356,211
94596,140051,205019,-0.3493520996,-9.3655076564,2.3832513096,212
94661,140052,204991,-0.41754754369999997,-9.273383986299999,2.3928226,213
94733,140080,204972,-0.3888336725,-9.2087777761,2.3976082452,214
94827,140072,205044,-0.4582255279,-9.1704926145,2.4825534475,215
94941,140041,205008,-0.394815729,-9.3499543095,2.3545374384,216
94761,140070,205009,-0.47736810869999996,-9.3415794304,2.3736800192,217
94311,140034,205011,-0.47377887479999997,-9.2937229784,2.4442682859,218
94111,140020,204986,-0.4689932296,-9.176474671,2.4215364712,219
93854,139990,204933,-0.3984049629,-9.284151688,2.3258235672,220
93664,139978,204999,-0.3361915753,-9.2087777761,2.4634108667000003,221
93536,139954,205035,-0.4594219392,-9.265009107200001,2.4969103831,222
93448,139969,205019,-0.6017948839,-9.1848495501,2.3976082452,223
93472,139954,205089,-0.47856452,-9.2410808812,2.3928226,224
93595,139964,205056,-0.2560320182,-9.242277292499999,2.4598216327999998,225
93656,139988,205044,-0.5539384319,-9.3044906801,2.3880369548,226
93833,140020,205067,-0.42592242280000003,-9.3415794304,2.4215364712,227
93900,140038,205071,-0.574277424,-9.1932244292,2.3461625592999997,228
93993,140056,205064,-0.526420972,-9.1561356789,2.4394826406999996,229
94065,140048,205053,-0.41156548719999997,-9.3894358824,2.4023938904,230
94161,140062,205063,-0.36370903520000003,-9.1453679772,2.3844477209,231
94260,140072,205051,-0.5180460929,-9.2709911637,2.464607278,232
94339,140050,205049,-0.48335016519999996,-9.2554378168,2.5220350203999997,233
94478,140062,205069,-0.49292145559999995,-9.3499543095,2.3976082452,234
94422,140072,205099,-0.42592242280000003,-9.1513500337,2.5160529638999996,235
94578,140041,205076,-0.47856452,-9.2697947524,2.3018953412000003,236
94658,140073,205058,-0.41156548719999997,-9.1573320902,2.5160529638999996,237
94726,140046,205082,-0.42233318890000004,-9.260223461999999,2.3306092124,238
94795,140059,205049,-0.3613162126,-9.1848495501,2.3497517932000003,239
94853,140055,205037,-0.4271188341,-9.2662055185,2.4634108667000003,240
94952,140041,205041,-0.5455635528,-9.2781696315,2.4681965119,241
94864,140059,205048,-0.5132604477,-9.1992064857,2.3641087288000002,242
94514,140043,205007,-0.40319060809999996,-9.2267239456,2.4825534475,243
94229,140026,205015,-0.4450650036,-9.2566342281,2.4358934068,244
93977,140015,204980,-0.5120640364,-9.2027957196,2.3593230836,245
93771,140000,205038,-0.3888336725,-9.0939222913,2.5160529638999996,246
93617,139955,205045,-0.4606183505,-9.2410808812,2.5268206656,247
93545,139989,205067,-0.5958128274,-9.2410808812,2.440679052,248
93576,139971,205107,-0.4510470601,-9.3511507208,2.4598216327999998,249
93664,139998,205117,-0.34097722049999996,-9.260223461999999,2.4311077616,250
93817,140000,205131,-0.6496513358999999,-9.2937229784,2.3365912689,251
93903,140022,205094,-0.5120640364,-9.3260260835,2.4729821571,252
93983,140064,205073,-0.6149554081999999,-9.355936366,2.4215364712,253
94070,140054,205120,-0.5682953675,-9.2542414055,2.4454646972,254
94146,140028,205093,-0.6305087550999999,-9.4372923344,2.4825534475,255
94263,140055,205115,-0.36969109170000003,-9.2458665264,2.4263221164,256
94321,140052,205067,-0.4642075844,-9.265009107200001,2.4023938904,257
94390,140088,205103,-0.4522434714,-9.2458665264,2.3916261887,258
94499,140065,205116,-0.32303105099999996,-9.2554378168,2.4251257050999997,259
94570,140078,205083,-0.3792623821,-9.308079914,2.3605194949,260
94645,140083,205107,-0.49292145559999995,-9.1561356789,2.3545374384,261
94725,140073,205083,-0.5120640364,-9.2183490665,2.4263221164,262
94758,140037,205097,-0.2979064137,-9.3020978575,2.3736800192,263
94776,140064,205079,-0.4689932296,-9.2458665264,2.3605194949,264
94953,140081,205077,-0.3649054465,-9.1896351953,2.4454646972,265
95017,140041,205042,-0.4594219392,-9.2697947524,2.4311077616,266
94982,140080,205103,-0.48335016519999996,-9.2793660428,2.2600209457,267
94691,140052,205076,-0.5443671415,-9.308079914,2.4071795356,268
94341,140019,205038,-0.34097722049999996,-9.1848495501,2.4071795356,269
94078,140026,205024,-0.35413774480000004,-9.3164547931,2.5160529638999996,270
93879,139986,205074,-0.526420972,-9.188438784,2.4251257050999997,271
93744,139964,205098,-0.5312066172,-9.2279203569,2.4358934068,272
93669,139967,205091,-0.47856452,-9.247062937699999,2.3497517932000003,273
93619,139970,205144,-0.34576286570000003,-9.2231347117,2.3258235672,274
93632,139977,205099,-0.5682953675,-9.3116691479,2.4311077616,275
93879,139992,205116,-0.41276189849999995,-9.2231347117,2.4454646972,276
93973,139998,205141,-0.41276189849999995,-9.2985086236,2.4299113503,277
94050,140033,205139,-0.5407779076,-9.2183490665,2.4071795356,278
94132,140038,205106,-0.3505485109,-9.1980100744,2.3844477209,279
94268,140056,205110,-0.4594219392,-9.345168664300001,2.2504496553,280
94289,140049,205128,-0.4606183505,-9.340383019099999,2.3653051401,281
94383,140038,205118,-0.3744767369,-9.1728854371,2.3832513096,282
94495,140057,205097,-0.49292145559999995,-9.247062937699999,2.4634108667000003,283
94575,140066,205116,-0.2739781877,-9.2410808812,2.4071795356,284
94672,140075,205126,-0.44985064880000003,-9.2949193897,2.4693929232,285
94708,140071,205087,-0.6544369810999999,-9.3128655592,2.4921247379,286
94801,140066,205143,-0.49770710079999997,-9.3224368496,2.4119651808,287
94871,140073,205095,-0.5647061336,-9.1609213241,2.4454646972,288
94929,140056,205134,-0.41276189849999995,-9.2219383004,2.5064816735,289
94993,140057,205102,-0.4163511324,-9.3750789468,2.4550359876,290
95094,140060,205106,-0.40677984199999995,-9.236295236,2.4023938904,291
95066,140094,205104,-0.47856452,-9.188438784,2.4777678023000003,292
94776,140084,205101,-0.4486542375,-9.1369930981,2.4981067944,293
94360,140026,205057,-0.4677968183,-9.1896351953,2.5208386090999997,294
94195,140006,205037,-0.4450650036,-9.2554378168,2.3976082452,295
93965,139986,205069,-0.47976093129999997,-9.1561356789,2.4119651808,296
93830,139985,205095,-0.3649054465,-9.2506521716,2.4083759468999997,297
93726,139976,205136,-0.43190447930000003,-9.1262253964,2.3018953412000003,298
93719,139978,205131,-0.4701896409,-9.2793660428,2.4311077616,299
93851,139975,205144,-0.39361931769999997,-9.2410808812,2.4454646972,300
93961,140007,205182,-0.3744767369,-9.1453679772,2.4741785684,301
94054,140035,205173,-0.5455635528,-9.0628155975,2.4538395763,302
94154,140032,205135,-0.3553341561,-9.1980100744,2.4071795356,303
94208,140038,205135,-0.6628118601999999,-9.2267239456,2.4263221164,304
94295,140039,205171,-0.44985064880000003,-9.3128655592,2.4777678023000003,305
94362,140051,205165,-0.4642075844,-9.1932244292,2.4454646972,306
94462,140088,205145,-0.454636294,-9.2697947524,2.4670001006,307
94557,140074,205107,-0.4594219392,-9.1932244292,2.4598216327999998,308
94611,140056,205158,-0.6077769404,-9.2697947524,2.440679052,309
94709,140085,205144,-0.4079762533,-9.4408815683,2.4693929232,310
94816,140082,205177,-0.4450650036,-9.188438784,2.3114666316,311
94881,140111,205155,-0.3266202849,-9.2877409219,2.4873390927,312
94911,140084,205143,-0.5168496816,-9.2039921309,2.4933211492,313
94976,140080,205137,-0.49770710079999997,-9.284151688,2.4454646972,314
95048,140071,205120,-0.5216353268,-9.1932244292,2.4251257050999997,315
95141,140071,205155,-0.30747770409999997,-9.3882394711,2.3784656644,316
94935,140076,205162,-0.5599204884,-9.273383986299999,2.4729821571,317
94573,140036,205069,-0.5300102059,-9.1740818484,2.4693929232,318
94213,140010,205129,-0.3218346397,-9.1465643885,2.4263221164,319
93989,140004,205064,-0.3553341561,-9.2171526552,2.4358934068,320
93795,139964,205105,-0.5455635528,-9.2027957196,2.4358934068,321
93677,139981,205139,-0.49770710079999997,-9.3930251163,2.4011974791,322
93597,139958,205164,-0.35413774480000004,-9.327222494799999,2.4777678023000003,323
93613,139946,205176,-0.3984049629,-9.2877409219,2.3258235672,324
93771,139988,205179,-0.47856452,-9.273383986299999,2.5208386090999997,325
93903,140012,205181,-0.4163511324,-9.3068835027,2.3832513096,326
93992,140043,205174,-0.3493520996,-9.206384953499999,2.4789642136,327
94100,140045,205175,-0.4366901245,-9.3248296722,2.4969103831,328
94170,140063,205188,-0.502492746,-9.3116691479,2.4358934068,329
94249,140060,205153,-0.4079762533,-9.2267239456,2.4598216327999998,330
94328,140074,205187,-0.5670989562,-9.3224368496,2.3413769141,331
94424,140096,205183,-0.4594219392,-9.2039921309,2.3964118339,332
94510,140092,205197,-0.5216353268,-9.3415794304,2.5878376418999998,333
94589,140098,205194,-0.3649054465,-9.3511507208,2.440679052,334
94668,140075,205163,-0.49770710079999997,-9.2183490665,2.4358934068,335
94755,140089,205175,-0.38763726119999997,-9.1896351953,2.4251257050999997,336
94810,140106,205216,-0.4558327053,-9.3415794304,2.3700907853,337
94918,140066,205166,-0.4630111731,-9.2614198733,2.4550359876,338
94937,140066,205170,-0.4462614149,-9.2087777761,2.4681965119,339
95020,140115,205133,-0.4354937132,-9.284151688,2.5543381254999997,340
95085,140076,205124,-0.3984049629,-9.080761767,2.4311077616,341
95127,140058,205149,-0.4354937132,-9.3176512044,2.4873390927,342
94981,140079,205155,-0.39361931769999997,-9.3355973739,2.3509482045,343
94620,140050,205122,-0.4941178669,-9.2566342281,2.488535504,344
94256,139995,205093,-0.5072783912000001,-9.3032942688,2.3736800192,345
94034,140000,205107,-0.49292145559999995,-9.2697947524,2.3736800192,346
93873,139985,205117,-0.4642075844,-9.290133744499999,2.3461625592999997,347
93682,139971,205172,-0.49770710079999997,-9.2937229784,2.3401805028,348
93590,139968,205167,-0.48335016519999996,-9.407382051899999,2.4502503424,349
93605,139987,205167,-0.5060819799,-9.3607220112,2.4873390927,350
93741,139983,205183,-0.4462614149,-9.1980100744,2.4825534475,351
93860,140029,205187,-0.5682953675,-9.3786681807,2.3928226,352
93949,140040,205203,-0.47377887479999997,-9.2231347117,2.3557338497,353
94048,140030,205192,-0.4271188341,-9.2853480993,2.297109696,354
94086,140047,205196,-0.3924229064,-9.2219383004,2.4071795356,355
94178,140062,205197,-0.4450650036,-9.2973122123,2.3868405435,356
94263,140096,205209,-0.4271188341,-9.290133744499999,2.4119651808,357
94348,140024,205174,-0.4414757697,-9.2566342281,2.3222343333,358
94437,140087,205160,-0.4558327053,-9.2793660428,2.4550359876,359
94574,140077,205155,-0.5443671415,-9.290133744499999,2.3844477209,360
94585,140103,205185,-0.5359922624,-9.2039921309,2.2791635265,361
94667,140081,205150,-0.5312066172,-9.2267239456,2.4119651808,362
94729,140080,205167,-0.454636294,-9.2159562439,2.3832513096,363
94798,140090,205167,-0.4642075844,-9.2315095908,2.4358934068,364
94853,140078,205186,-0.502492746,-9.2135634213,2.4358934068,365
94919,140067,205110,-0.36011980130000004,-9.327222494799999,2.3784656644,366
95013,140090,205137,-0.49770710079999997,-9.1692962032,2.4251257050999997,367
95054,140060,205138,-0.49770710079999997,-9.2219383004,2.4681965119,368
94999,140099,205128,-0.5216353268,-9.265009107200001,2.3880369548,369
94683,140064,205139,-0.4354937132,-9.3128655592,2.5208386090999997,370
94326,140049,205114,-0.5395814963,-9.2614198733,2.4442682859,371
94029,140010,205058,-0.47856452,-9.2889373332,2.4263221164,372
93787,139986,205108,-0.5060819799,-9.265009107200001,2.416750826,373
93613,139953,205122,-0.31704899449999996,-9.1704926145,2.4777678023000003,374
93478,139961,205156,-0.49292145559999995,-9.3702933016,2.4502503424,375
93467,139973,205196,-0.49292145559999995,-9.1609213241,2.4119651808,376
93523,139984,205174,-0.41276189849999995,-9.2937229784,2.416750826,377
93713,139974,205192,-0.4402793584,-9.2554378168,2.4311077616,378
93812,140011,205227,-0.40319060809999996,-9.2087777761,2.4119651808,379
93866,140032,205150,-0.4414757697,-9.236295236,2.5160529638999996,380
93943,140050,205190,-0.3397808092,-9.232706002099999,2.3928226,381
94017,140054,205181,-0.4462614149,-9.2315095908,2.4311077616,382
94113,140054,205146,-0.2787638329,-9.3164547931,2.3928226,383
94207,140066,205193,-0.43190447930000003,-9.260223461999999,2.416750826,384
94287,140071,205183,-0.5970092387,-9.3463650756,2.4598216327999998,385
94340,140070,205178,-0.4354937132,-9.2973122123,2.4634108667000003,386
94422,140047,205162,-0.4881358104,-9.330811728699999,2.3832513096,387
94507,140076,205170,-0.40319060809999996,-9.1932244292,2.3784656644,388
94572,140086,205186,-0.46540399569999996,-9.1609213241,2.368894374,389
94678,140052,205201,-0.5682953675,-9.3415794304,2.4586252215,390
94685,140058,205137,-0.4450650036,-9.2315095908,2.440679052,391
94708,140089,205194,-0.4558327053,-9.2267239456,2.4263221164,392
94820,140083,205169,-0.4450650036,-9.3583291886,2.3653051401,393
94867,140069,205156,-0.4079762533,-9.1465643885,2.4251257050999997,394
94688,140061,205140,-0.4390829471,-9.2518485829,2.3832513096,395
94321,140066,205119,-0.4606183505,-9.3128655592,2.4155544147,396
93977,140030,205082,-0.47377887479999997,-9.2662055185,2.3736800192,397
93725,140005,205086,-0.5395814963,-9.345168664300001,2.416750826,398
93544,139998,205156,-0.4079762533,-9.2757768089,2.3030917525,399
93330,139973,205162,-0.33140593009999997,-9.3571327773,2.3880369548,400
93239,139959,205204,-0.44985064880000003,-9.2410808812,2.4275185276999998,401
93389,139973,205197,-0.39720855159999996,-9.3355973739,2.3509482045,402
93524,140009,205228,-0.5168496816,-9.3750789468,2.4741785684,403
93634,140048,205189,-0.41754754369999997,-9.2315095908,2.4263221164,404
93715,140027,205196,-0.2644068973,-9.260223461999999,2.3270199785,405
93807,140036,205205,-0.5790630692000001,-9.327222494799999,2.5495524802999996,406
93846,140070,205197,-0.4689932296,-9.2889373332,2.4681965119,407
93922,140090,205153,-0.6017948839,-9.2087777761,2.3641087288000002,408
93999,140075,205179,-0.5407779076,-9.21236701,2.4023938904,409
94092,140061,205191,-0.4642075844,-9.21236701,2.3784656644,410
94229,140073,205181,-0.5347958510999999,-9.3655076564,2.440679052,411
94242,140100,205149,-0.4642075844,-9.1322074529,2.3401805028,412
94338,140091,205189,-0.5060819799,-9.274580397600001,2.5160529638999996,413
94384,140081,205187,-0.49770710079999997,-9.2662055185,2.3641087288000002,414
94435,140076,205205,-0.41754754369999997,-9.188438784,2.4179472373,415
94527,140088,205165,-0.3840480273,-9.21236701,2.4023938904,416
94550,140095,205137,-0.5694917788,-9.2183490665,2.4418754632999997,417
94604,140083,205168,-0.47377887479999997,-9.284151688,2.488535504,418
94653,140091,205169,-0.47377887479999997,-9.4265246327,2.4634108667000003,419
94446,140080,205167,-0.30747770409999997,-9.2709911637,2.3832513096,420
94051,140066,205150,-0.46540399569999996,-9.274580397600001,2.464607278,421
93719,140022,205090,-0.5156532703,-9.175278259699999,2.4011974791,422
93382,140001,205107,-0.5312066172,-9.2183490665,2.3844477209,423
93168,139991,205156,-0.3684946804,-9.2889373332,2.3736800192,424
93129,139960,205160,-0.4019941968,-9.1369930981,2.4777678023000003,425
93047,139969,205199,-0.4689932296,-9.2446701151,2.4311077616,426
93093,139973,205195,-0.454636294,-9.2985086236,2.3976082452,427
93271,140002,205200,-0.47377887479999997,-9.2410808812,2.368894374,428
93297,140019,205238,-0.5216353268,-9.175278259699999,2.3916261887,429
93506,140057,205228,-0.4558327053,-9.2303131795,2.3593230836,430
93474,140065,205223,-0.3361915753,-9.2171526552,2.4813570362,431
93625,140068,205213,-0.2979064137,-9.1453679772,2.3784656644,432
93694,140076,205207,-0.38763726119999997,-9.3032942688,2.4263221164,433
93736,140067,205191,-0.40319060809999996,-9.232706002099999,2.4586252215,434
93799,140094,205218,-0.3218346397,-9.5018985446,2.4741785684,435
93901,140079,205202,-0.4163511324,-9.2518485829,2.4071795356,436
93958,140079,205170,-0.4354937132,-9.3367937852,2.4023938904,437
94110,140113,205194,-0.6017948839,-9.1836531388,2.4346969955,438
94089,140098,205183,-0.4079762533,-9.3930251163,2.3078773977,439
94208,140129,205204,-0.3924229064,-9.1932244292,2.4251257050999997,440
94301,140082,205224,-0.49651068949999994,-9.232706002099999,2.4358934068,441
94378,140105,205169,-0.4450650036,-9.1369930981,2.5495524802999996,442
94439,140097,205201,-0.4594219392,-9.1609213241,2.3593230836,443
94520,140122,205184,-0.38763726119999997,-9.308079914,2.4741785684,444
94579,140088,205176,-0.36370903520000003,-9.236295236,2.4789642136,445
94460,140096,205190,-0.48335016519999996,-9.2410808812,2.5399811898999998,446
94062,140056,205126,-0.42592242280000003,-9.2039921309,2.3736800192,447
93740,140043,205150,-0.6400800455,-9.2458665264,2.4155544147,448
93486,140023,205150,-0.46540399569999996,-9.2949193897,2.3497517932000003,449
93233,139996,205153,-0.3984049629,-9.056833541,2.3832513096,450
93082,139982,205177,-0.4354937132,-9.2793660428,2.4071795356,451
92999,139975,205205,-0.5060819799,-9.2183490665,2.4263221164,452
93010,139998,205233,-0.4366901245,-9.1704926145,2.4071795356,453
93174,140010,205220,-0.47856452,-9.332008140000001,2.3916261887,454
93309,140025,205193,-0.4354937132,-9.2614198733,2.4598216327999998,455
93440,140042,205240,-0.4402793584,-9.242277292499999,2.5112673187,456
93478,140073,205233,-0.382851616,-9.327222494799999,2.5351955446999996,457
93563,140062,205216,-0.3613162126,-9.3116691479,2.3844477209,458
93651,140088,205243,-0.44386859230000003,-9.2937229784,2.4538395763,459
93750,140065,205228,-0.2656033086,-9.3511507208,2.3976082452,460
93839,140082,205211,-0.4677968183,-9.0795653557,2.3928226,461
93920,140099,205209,-0.4211367776,-9.2709911637,2.4729821571,462
94005,140116,205233,-0.4354937132,-9.4313102779,2.321037922,463
94083,140109,205207,-0.3218346397,-9.1597249128,2.3976082452,464
94170,140119,205216,-0.41276189849999995,-9.1465643885,2.4071795356,465
94293,140091,205218,-0.5491527867,-9.1465643885,2.4502503424,466
94288,140123,205203,-0.5874379483000001,-9.050851484499999,2.4346969955,467
94401,140099,205227,-0.5874379483000001,-9.140582332,2.4251257050999997,468
94472,140107,205220,-0.49292145559999995,-9.3702933016,2.4358934068,469
94524,140081,205201,-0.3924229064,-9.2937229784,2.4071795356,470
94602,140115,205187,-0.4163511324,-9.327222494799999,2.344966148,471
94501,140082,205198,-0.48335016519999996,-9.1704926145,2.368894374,472
94086,140089,205184,-0.4163511324,-9.175278259699999,2.3832513096,473
93729,140036,205131,-0.4354937132,-9.1908316066,2.4023938904,474
93473,140010,205123,-0.49292145559999995,-9.2877409219,2.3916261887,475
93277,139971,205163,-0.41276189849999995,-9.1429751546,2.4346969955,476
93123,139979,205202,-0.3780659708,-9.2709911637,2.3832513096,477
93090,139979,205216,-0.4462614149,-9.265009107200001,2.5064816735,478
93143,139987,205228,-0.3026920589,-9.2937229784,2.3880369548,479
93260,140019,205237,-0.49292145559999995,-9.2027957196,2.464607278,480
93432,140049,205236,-0.40677984199999995,-9.3224368496,2.464607278,481
93498,140073,205253,-0.622133876,-9.1142612834,2.3784656644,482
93576,140084,205216,-0.5168496816,-9.2506521716,2.4346969955,483
93663,140072,205249,-0.42233318890000004,-9.1369930981,2.4981067944,484
93775,140103,205254,-0.31704899449999996,-9.1956172518,2.4837498588,485
93861,140103,205236,-0.3565305674,-9.2458665264,2.4634108667000003,486
93937,140094,205207,-0.5599204884,-9.3702933016,2.3557338497,487
94061,140103,205220,-0.4462614149,-9.2554378168,2.4299113503,488
94130,140110,205212,-0.4211367776,-9.2315095908,2.368894374,489
94198,140127,205275,-0.21296121140000002,-9.4456672135,2.4741785684,490
94299,140124,205236,-0.5036891573,-9.1932244292,2.4119651808,491
94358,140000,205245,-0.5682953675,-9.2506521716,2.4215364712,492
94424,140121,205226,-0.502492746,-9.3032942688,2.4251257050999997,493
94532,140119,205213,-0.5503491979999999,-9.2135634213,2.4873390927,494
94580,140081,205222,-0.4402793584,-9.1513500337,2.4023938904,495
94675,140134,205208,-0.4677968183,-9.236295236,2.4981067944,496
94717,140113,205205,-0.48335016519999996,-9.273383986299999,2.4394826406999996,497
94565,140125,205194,-0.4043870194,-9.1465643885,2.4681965119,498
94184,140067,205210,-0.5647061336,-9.1692962032,2.3976082452,499
93885,140072,205130,-0.33499516399999996,-9.1549392676,2.4311077616,500
93611,140031,205159,-0.5778666579,-9.236295236,2.5148565526000004,501
93461,140028,205189,-0.4558327053,-9.1944208405,2.3557338497,502
93342,140047,205211,-0.39361931769999997,-9.1896351953,2.4131615921,503
93300,140044,205196,-0.41754754369999997,-9.3607220112,2.4215364712,504
93287,140015,205237,-0.5216353268,-9.2662055185,2.4777678023000003,505
93515,140051,205219,-0.46540399569999996,-9.2877409219,2.4311077616,506
93646,140051,205242,-0.5252245607,-9.3224368496,2.4311077616,507
93705,140107,205253,-0.2608176634,-9.2793660428,2.3832513096,508
93788,140102,205250,-0.3122633493,-9.2219383004,2.4454646972,509
93865,140107,205257,-0.49292145559999995,-9.2662055185,2.4311077616,510
93947,140114,205259,-0.42233318890000004,-9.1262253964,2.4311077616,511
94035,140101,205247,-0.3792623821,-9.1501536224,2.4023938904,512
94096,140135,205247,-0.4163511324,-9.2219383004,2.368894374,513
94197,140146,205213,-0.47377887479999997,-9.2410808812,2.3593230836,514
94309,140122,205234,-0.3649054465,-9.284151688,2.3880369548,515
94380,140115,205294,-0.3984049629,-9.2506521716,2.5208386090999997,516
94428,140137,205240,-0.47736810869999996,-9.2697947524,2.3928226,517
94490,140137,205241,-0.5108676251000001,-9.1369930981,2.3976082452,518
94526,140118,205229,-0.41156548719999997,-9.2231347117,2.4502503424,519
94600,140135,205241,-0.4689932296,-9.1609213241,2.3832513096,520
94674,140125,205213,-0.5012963347,-9.2925265671,2.4586252215,521
94719,140125,205217,-0.5120640364,-9.2231347117,2.3880369548,522
94538,140130,205229,-0.5168496816,-9.265009107200001,2.5351955446999996,523
94168,140127,205181,-0.3553341561,-9.260223461999999,2.3461625592999997,524
93858,140066,205193,-0.34456645439999994,-9.274580397600001,2.4538395763,525
93574,140038,205165,-0.2931207685,-9.2805624541,2.3401805028,526
93390,140059,205189,-0.3684946804,-9.2410808812,2.3258235672,527
93284,140006,205228,-0.5455635528,-9.2039921309,2.4358934068,528
93214,140018,205223,-0.42592242280000003,-9.2135634213,2.4502503424,529
93272,140056,205242,-0.4630111731,-9.2889373332,2.4071795356,530
93424,140055,205264,-0.4594219392,-9.3224368496,2.3174486881,531
93571,140076,205227,-0.49292145559999995,-9.2027957196,2.4693929232,532
93619,140106,205277,-0.43429730190000004,-9.2410808812,2.4263221164,533
93701,140099,205279,-0.4211367776,-9.1992064857,2.440679052,534
93779,140103,205261,-0.4402793584,-9.1944208405,2.4155544147,535
93937,140129,205289,-0.3780659708,-9.345168664300001,2.4263221164,536
93996,140131,205286,-0.5455635528,-9.2171526552,2.5172493752,537
94086,140115,205274,-0.42592242280000003,-9.265009107200001,2.3928226,538
94146,140067,205298,-0.4414757697,-9.2518485829,2.4598216327999998,539
94225,140147,205305,-0.3684946804,-9.2410808812,2.5447668351,540
94313,140161,205300,-0.47856452,-9.207581364800001,2.3545374384,541
94402,140144,205276,-0.4271188341,-9.178867493599999,2.4454646972,542
94478,140152,205281,-0.49770710079999997,-9.232706002099999,2.3976082452,543
94541,140137,205295,-0.36011980130000004,-9.140582332,2.4358934068,544
94617,140122,205270,-0.5156532703,-9.332008140000001,2.3928226,545
94694,140159,205270,-0.42592242280000003,-9.3607220112,2.3976082452,546
94762,140143,205253,-0.4211367776,-9.2793660428,2.3497517932000003,547
94792,140164,205276,-0.40677984199999995,-9.3164547931,2.4083759468999997,548
94593,140150,205267,-0.3840480273,-9.3176512044,2.4777678023000003,549
94195,140126,205216,-0.31704899449999996,-9.265009107200001,2.3880369548,550
93844,140081,205172,-0.4354937132,-9.1992064857,2.4825534475,551
93639,140058,205192,-0.43190447930000003,-9.236295236,2.344966148,552
93384,140060,205226,-0.33738798659999997,-9.2171526552,2.3724836079,553
93258,140014,205249,-0.40319060809999996,-9.188438784,2.3832513096,554
93203,140041,205282,-0.502492746,-9.274580397600001,2.4502503424,555
93242,140044,205272,-0.5072783912000001,-9.260223461999999,2.4789642136,556
93379,140046,205292,-0.5132604477,-9.4133641084,2.4251257050999997,557
93489,140091,205280,-0.36969109170000003,-9.1549392676,2.4442682859,558
93582,140120,205288,-0.47856452,-9.21236701,2.3976082452,559
93654,140107,205277,-0.5120640364,-9.1573320902,2.4311077616,560
93751,140132,205284,-0.5443671415,-9.2051885422,2.4490539311,561
93819,140134,205290,-0.4211367776,-9.273383986299999,2.5112673187,562
93881,140142,205298,-0.4163511324,-9.3894358824,2.3784656644,563
93982,140155,205261,-0.42592242280000003,-9.236295236,2.3988046565,564
94126,140151,205275,-0.3493520996,-9.2554378168,2.4263221164,565
94153,140172,205258,-0.42592242280000003,-9.1944208405,2.3365912689,566
94236,140136,205283,-0.4630111731,-9.330811728699999,2.4921247379,567
94298,140176,205290,-0.6209374647,-9.2638126959,2.416750826,568
94313,140159,205285,-0.43429730190000004,-9.273383986299999,2.3497517932000003,569
94452,140144,205266,-0.454636294,-9.2937229784,2.440679052,570
94507,140128,205281,-0.4677968183,-9.2279203569,2.4059831243,571
94574,140156,205243,-0.5108676251000001,-9.1776710823,2.3976082452,572
94661,140154,205261,-0.3840480273,-9.1980100744,2.51246373,573
94700,140151,205262,-0.4821537539,-9.2542414055,2.4693929232,574
94530,140136,205243,-0.4642075844,-9.1896351953,2.4825534475,575
94045,140128,205243,-0.2883351233,-9.232706002099999,2.5160529638999996,576
93827,140074,205177,-0.48335016519999996,-9.247062937699999,2.5016960283,577
93566,140070,205224,-0.3026920589,-9.2638126959,2.3353948576,578
93383,140026,205216,-0.454636294,-9.165706969299999,2.4490539311,579
93297,140025,205252,-0.4881358104,-9.1357966868,2.4921247379,580
93250,140035,205253,-0.5120640364,-9.260223461999999,2.4921247379,581
93298,140035,205284,-0.39361931769999997,-9.2985086236,2.3174486881,582
93438,140106,205280,-0.3888336725,-9.207581364800001,2.4777678023000003,583
93475,140076,205268,-0.4881358104,-9.0987079365,2.5447668351,584
93638,140117,205249,-0.3744767369,-9.3882394711,2.3784656644,585
93710,140125,205267,-0.526420972,-9.165706969299999,2.5256242543,586
93776,140122,205319,-0.3924229064,-9.1848495501,2.416750826,587
93874,140134,205284,-0.4079762533,-9.1274218077,2.4071795356,588
93945,140146,205307,-0.4402793584,-9.3128655592,2.5112673187,589
94044,140141,205313,-0.4701896409,-9.2697947524,2.3641087288000002,590
94141,140169,205303,-0.39361931769999997,-9.2518485829,2.3976082452,591
94219,140158,205280,-0.454636294,-9.1836531388,2.51246373,592
94286,140177,205346,-0.44985064880000003,-9.21236701,2.4071795356,593
94411,140172,205299,-0.47377887479999997,-9.274580397600001,2.3030917525,594
94446,140219,205296,-0.3984049629,-9.236295236,2.4215364712,595
94501,140161,205268,-0.49651068949999994,-9.165706969299999,2.5076780847999998,596
94559,140173,205266,-0.41156548719999997,-9.3475614869,2.440679052,597
94625,140150,205278,-0.4558327053,-9.21236701,2.4825534475,598
94693,140157,205284,-0.3553341561,-9.3128655592,2.4023938904,599
94646,140155,205272,-0.4606183505,-9.3176512044,2.3736800192,600
94337,140155,205273,-0.3924229064,-9.108279226899999,2.4071795356,601
93990,140105,205229,-0.4402793584,-9.108279226899999,2.4873390927,602
93725,140129,205195,-0.5359922624,-9.1501536224,2.4598216327999998,603
93569,140047,205240,-0.2500499617,-9.3224368496,2.3509482045,604
93397,140033,205274,-0.5587240770999999,-9.3547399547,2.4550359876,605
93340,140080,205257,-0.4677968183,-9.0843510009,2.344966148,606
93367,140069,205282,-0.5922235935,-9.2949193897,2.4454646972,607
93480,140099,205306,-0.48335016519999996,-9.1597249128,2.4311077616,608
93655,140084,205281,-0.6161518195,-9.3415794304,2.5495524802999996,609
93718,140134,205276,-0.430708068,-9.2554378168,2.5016960283,610
93786,140132,205278,-0.36011980130000004,-9.265009107200001,2.4107687694999997,611
93844,140013,205247,-0.41156548719999997,-9.117850517299999,2.4311077616,612
93924,140170,205295,-0.49651068949999994,-9.3367937852,2.5028924396,613
94006,140158,205292,-0.3792623821,-9.265009107200001,2.4729821571,614
94034,140153,205333,-0.5216353268,-9.165706969299999,2.3545374384,615
94196,140157,205319,-0.36011980130000004,-9.247062937699999,2.5160529638999996,616
94271,140180,205313,-0.5012963347,-9.2219383004,2.4311077616,617
94320,140176,205324,-0.42233318890000004,-9.3643112451,2.416750826,618
94381,140189,205313,-0.4414757697,-9.415756931,2.3641087288000002,619
94434,140180,205326,-0.41276189849999995,-9.175278259699999,2.4550359876,620
94492,140153,205333,-0.4462614149,-9.3834538259,2.440679052,621
94554,140190,205267,-0.3864408499,-9.265009107200001,2.4071795356,622
94578,140169,205282,-0.4881358104,-9.3032942688,2.5160529638999996,623
94633,140175,205287,-0.3792623821,-9.2458665264,2.3796620756999998,624
94576,140168,205293,-0.5168496816,-9.128618219,2.3832513096,625
94204,140131,205263,-0.49651068949999994,-9.1429751546,2.5304098995,626
93869,140131,205220,-0.6400800455,-9.274580397600001,2.4107687694999997,627
93584,140082,205234,-0.44985064880000003,-9.2925265671,2.3940190112999997,628
93382,140084,205255,-0.5359922624,-9.2853480993,2.368894374,629
93243,140061,205282,-0.4163511324,-9.3164547931,2.4550359876,630
93162,140059,205322,-0.5036891573,-9.3128655592,2.3736800192,631
93181,140061,205305,-0.3744767369,-9.284151688,2.464607278,632
93308,140095,205336,-0.35174492220000003,-9.2374916473,2.4586252215,633
93372,140100,205330,-0.38763726119999997,-9.345168664300001,2.4346969955,634
93602,140108,205324,-0.38763726119999997,-9.2374916473,2.4825534475,635
93625,140119,205298,-0.4402793584,-9.2506521716,2.4119651808,636
93697,140152,205329,-0.34576286570000003,-9.265009107200001,2.4502503424,637
93781,140150,205298,-0.5599204884,-9.165706969299999,2.4681965119,638
93865,140170,205353,-0.5838487144,-9.2793660428,2.4921247379,639
93967,140153,205312,-0.4881358104,-9.1896351953,2.4741785684,640
93944,140158,205338,-0.47856452,-9.1896351953,2.3832513096,641
94131,140160,205292,-0.3744767369,-9.2219383004,2.4969103831,642
94189,140180,205322,-0.382851616,-9.2889373332,2.3222343333,643
94251,140202,205311,-0.30747770409999997,-9.3511507208,2.4693929232,644
94332,140168,205323,-0.39361931769999997,-9.2877409219,2.3928226,645
94389,140180,205333,-0.5120640364,-9.1992064857,2.3641087288000002,646
94452,140173,205329,-0.5204389155,-9.2446701151,2.5304098995,647
94522,140170,205289,-0.454636294,-9.2889373332,2.5399811898999998,648
94610,140168,205297,-0.454636294,-9.3774717694,2.3928226,649
94665,140169,205325,-0.4163511324,-9.232706002099999,2.3401805028,650
94515,140197,205312,-0.44985064880000003,-9.3176512044,2.3593230836,651
94137,140136,205279,-0.4354937132,-9.4169533423,2.3736800192,652
93753,140099,205212,-0.4079762533,-9.2662055185,2.4131615921,653
93515,140086,205266,-0.4354937132,-9.2685983411,2.4550359876,654
93296,140062,205252,-0.39720855159999996,-9.3690968903,2.4921247379,655
93166,140063,205281,-0.34576286570000003,-9.1704926145,2.3641087288000002,656
93140,140080,205291,-0.2656033086,-9.4456672135,2.5028924396,657
93134,140087,205309,-0.4402793584,-9.1980100744,2.5016960283,658
93303,140064,205313,-0.4689932296,-9.1501536224,2.416750826,659
93410,140120,205331,-0.3122633493,-9.2781696315,2.3736800192,660
93403,140150,205338,-0.5120640364,-9.1692962032,2.4203400599,661
93562,140136,205314,-0.47856452,-9.2087777761,2.4681965119,662
93575,140157,205340,-0.5072783912000001,-9.3930251163,2.3784656644,663
93731,140152,205359,-0.5467599640999999,-9.3415794304,2.4454646972,664
93790,140170,205355,-0.39960137419999997,-9.2793660428,2.3916261887,665
93882,140163,205363,-0.44985064880000003,-9.1274218077,2.4777678023000003,666
93929,140191,205355,-0.47377887479999997,-9.152546445,2.4538395763,667
94057,140193,205387,-0.4414757697,-9.284151688,2.4729821571,668
94127,140182,205387,-0.4019941968,-9.207581364800001,2.3928226,669
94201,140193,205364,-0.5072783912000001,-9.3176512044,2.4969103831,670
94277,140203,205313,-0.43190447930000003,-9.0843510009,2.440679052,671
94327,140183,205353,-0.5156532703,-9.1800639049,2.4598216327999998,672
94433,140210,205346,-0.5647061336,-9.284151688,2.416750826,673
94488,140192,205350,-0.43190447930000003,-9.2985086236,2.4825534475,674
94544,140180,205336,-0.538385085,-9.2697947524,2.4311077616,675
94583,140208,205348,-0.3649054465,-9.4313102779,2.4023938904,676
94384,140205,205317,-0.5252245607,-9.2374916473,2.4538395763,677
94001,140168,205324,-0.49770710079999997,-9.284151688,2.4873390927,678
93640,140093,205266,-0.39361931769999997,-9.2829552767,2.3976082452,679
93409,140074,205266,-0.5455635528,-9.2410808812,2.3461625592999997,680
93224,140053,205307,-0.454636294,-9.2171526552,2.440679052,681
93081,140077,205321,-0.4881358104,-9.299705034899999,2.3545374384,682
93026,140038,205349,-0.44985064880000003,-9.330811728699999,2.4155544147,683
93076,140085,205350,-0.430708068,-9.2638126959,2.416750826,684
93265,140092,205369,-0.32303105099999996,-9.1226361625,2.3676979627,685
93369,140114,205341,-0.6077769404,-9.3068835027,2.3653051401,686
93470,140132,205344,-0.382851616,-9.2099741874,2.4729821571,687
93521,140145,205386,-0.4989035121,-9.188438784,2.3306092124,688
93571,140185,205361,-0.4689932296,-9.2662055185,2.3832513096,689
93650,140152,205308,-0.5503491979999999,-9.2267239456,2.4825534475,690
93750,140164,205384,-0.4354937132,-9.2506521716,2.4119651808,691
93821,140188,205384,-0.5970092387,-9.21236701,2.189432679,692
93820,140181,205371,-0.382851616,-9.3128655592,2.4454646972,693
93984,140193,205384,-0.5359922624,-9.2315095908,2.416750826,694
94086,140185,205366,-0.3684946804,-9.3224368496,2.3832513096,695
94176,140185,205346,-0.3780659708,-9.379864592,2.3114666316,696
94186,140173,205360,-0.34097722049999996,-9.2805624541,2.4634108667000003,697
94311,140175,205369,-0.4642075844,-9.1932244292,2.3365912689,698
94362,140197,205375,-0.4079762533,-9.3690968903,2.4131615921,699
94425,140188,205359,-0.5407779076,-9.2697947524,2.4011974791,700
94520,140174,205346,-0.3361915753,-9.3116691479,2.3976082452,701
94485,140188,205393,-0.34576286570000003,-9.3786681807,2.4023938904,702
94457,140199,205339,-0.3888336725,-9.3607220112,2.4598216327999998,703
94045,140171,205358,-0.3266202849,-9.232706002099999,2.4311077616,704
93704,140117,205295,-0.39720855159999996,-9.2793660428,2.4203400599,705
93461,140110,205254,-0.4211367776,-9.274580397600001,2.4969103831,706
93280,140090,205338,-0.4558327053,-9.3690968903,2.3928226,707
93149,140066,205318,-0.40677984199999995,-9.3355973739,2.4502503424,708
93171,140088,205340,-0.48693939909999995,-9.2315095908,2.3748764305,709
93162,140048,205384,-0.5359922624,-9.3032942688,2.4825534475,710
93316,140122,205364,-0.3792623821,-9.2937229784,2.3653051401,711
93451,140116,205370,-0.4594219392,-9.1561356789,2.4634108667000003,712
93525,140168,205360,-0.382851616,-9.2458665264,2.4693929232,713
93594,140152,205353,-0.5395814963,-9.327222494799999,2.5112673187,714
93657,140166,205344,-0.5934200048,-9.2231347117,2.3509482045,715
93758,140187,205372,-0.47377887479999997,-9.1704926145,2.5160529638999996,716
93841,140171,205359,-0.3553341561,-9.21236701,2.3976082452,717
93945,140164,205367,-0.47856452,-9.2171526552,2.3928226,718
94008,140194,205413,-0.6879364975,-9.2949193897,2.4263221164,719
94107,140165,205361,-0.382851616,-9.2039921309,2.440679052,720
94182,140212,205387,-0.31704899449999996,-9.3140619705,2.4023938904,721
94245,140215,205395,-0.3182454058,-9.1800639049,2.4693929232,722
94314,140194,205386,-0.3553341561,-9.2506521716,2.51246373,723
94390,140209,205362,-0.3684946804,-9.274580397600001,2.4155544147,724
94387,140202,205370,-0.3361915753,-9.260223461999999,2.3784656644,725
94549,140202,205358,-0.4642075844,-9.0855474122,2.4693929232,726
94588,140198,205363,-0.5599204884,-9.236295236,2.4873390927,727
94444,140210,205366,-0.2799602442,-9.3176512044,2.4023938904,728
94084,140149,205373,-0.430708068,-9.2458665264,2.4634108667000003,729
93721,140105,205295,-0.430708068,-9.4360959231,2.4969103831,730
93467,140070,205284,-0.3505485109,-9.2135634213,2.4155544147,731
93312,140041,205341,-0.34576286570000003,-9.206384953499999,2.4023938904,732
93137,140084,205373,-0.4689932296,-9.3738825355,2.3880369548,733
93066,140070,205349,-0.3888336725,-9.3128655592,2.4777678023000003,734
93098,140070,205341,-0.49292145559999995,-9.4169533423,2.4071795356,735
93240,140101,205362,-0.4402793584,-9.1980100744,2.4023938904,736
93355,140118,205410,-0.4211367776,-9.242277292499999,2.5028924396,737
93463,140140,205375,-0.4414757697,-9.2267239456,2.4358934068,738
93503,140130,205371,-0.430708068,-9.2315095908,2.3880369548,739
93547,140158,205353,-0.5407779076,-9.2925265671,2.4550359876,740
93599,140167,205372,-0.5060819799,-9.3164547931,2.3700907853,741
93710,140145,205427,-0.5012963347,-9.2458665264,2.4251257050999997,742
93792,140173,205428,-0.47377887479999997,-9.284151688,2.4921247379,743
93864,140207,205420,-0.6436692794,-9.3415794304,2.4155544147,744
93948,140182,205373,-0.4079762533,-9.2697947524,2.3497517932000003,745
94029,140095,205430,-0.3924229064,-9.284151688,2.4023938904,746
94101,140186,205403,-0.4749752861,-9.2171526552,2.4023938904,747
94173,140179,205371,-0.502492746,-9.2183490665,2.5830519966999996,748
94255,140174,205423,-0.35413774480000004,-9.2231347117,2.4083759468999997,749
94328,140178,205387,-0.4881358104,-9.1992064857,2.4490539311,750
94394,140184,205379,-0.4019941968,-9.1417787433,2.4107687694999997,751
94428,140161,205354,-0.3744767369,-9.2518485829,2.4921247379,752
94345,140181,205372,-0.47377887479999997,-9.274580397600001,2.3306092124,753
93991,140146,205353,-0.3361915753,-9.2159562439,2.4454646972,754
93626,140116,205344,-0.49292145559999995,-9.327222494799999,2.4921247379,755
93359,140053,205326,-0.4019941968,-9.175278259699999,2.5256242543,756
93151,140052,205329,-0.4510470601,-9.2889373332,2.3928226,757
92996,140039,205358,-0.5491527867,-9.308079914,2.416750826,758
92903,140032,205376,-0.4642075844,-9.265009107200001,2.4023938904,759
92922,140048,205361,-0.526420972,-9.2889373332,2.4634108667000003,760
93031,140093,205370,-0.4211367776,-9.2374916473,2.416750826,761
93179,140103,205342,-0.5300102059,-9.3738825355,2.428714939,762
93297,140135,205367,-0.40677984199999995,-9.1274218077,2.344966148,763
93403,140120,205394,-0.34576286570000003,-9.3523471321,2.416750826,764
93497,140131,205408,-0.4354937132,-9.2757768089,2.4299113503,765
93500,140106,205357,-0.4402793584,-9.164510558,2.4035903017,766
93541,140147,205406,-0.5072783912000001,-9.1417787433,2.4634108667000003,767
93588,140143,205419,-0.4701896409,-9.247062937699999,2.3736800192,768
93755,140140,205401,-0.6388836341999999,-9.121439751199999,2.3736800192,769
93861,140126,205437,-0.430708068,-9.2458665264,2.344966148,770
93988,140111,205422,-0.36969109170000003,-9.3032942688,2.4346969955,771
94105,140137,205412,-0.3122633493,-9.2781696315,2.4921247379,772
94253,140131,205419,-0.4354937132,-9.1800639049,2.4346969955,773
94304,140129,205410,-0.5647061336,-9.3116691479,2.2983061073,774
94397,140121,205393,-0.6017948839,-9.3176512044,2.4263221164,775
94462,140122,205413,-0.33140593009999997,-9.4360959231,2.416750826,776
94558,140126,205407,-0.4689932296,-9.260223461999999,2.4251257050999997,777
94628,140103,205388,-0.5156532703,-9.260223461999999,2.3401805028,778
94586,140136,205403,-0.6305087550999999,-9.2614198733,2.3964118339,779
94172,140125,205406,-0.4450650036,-9.3690968903,2.3365912689,780
93847,140061,205318,-0.4019941968,-9.207581364800001,2.4394826406999996,781
93605,140020,205315,-0.4642075844,-9.1513500337,2.2887348169,782
93344,139983,205363,-0.4642075844,-9.345168664300001,2.4299113503,783
93204,140004,205352,-0.40677984199999995,-9.2937229784,2.4358934068,784
93103,139968,205394,-0.526420972,-9.2937229784,2.3401805028,785
93162,139994,205389,-0.49770710079999997,-9.2709911637,2.4873390927,786
93281,139999,205360,-0.34456645439999994,-9.3176512044,2.4119651808,787
93442,140035,205400,-0.5156532703,-9.178867493599999,2.4263221164,788
93540,140065,205384,-0.5168496816,-9.188438784,2.4119651808,789
93627,140086,205376,-0.39361931769999997,-9.232706002099999,2.3258235672,790
93698,140105,205400,-0.2608176634,-9.2458665264,2.4741785684,791
93702,140098,205429,-0.5240281494,-9.2147598326,2.3820548983,792
93855,140112,205372,-0.34097722049999996,-9.274580397600001,2.3306092124,793
93935,140120,205390,-0.5778666579,-9.1322074529,2.4454646972,794
94019,140120,205416,-0.5156532703,-9.3020978575,2.4119651808,795
94107,140138,205445,-0.430708068,-9.384650237199999,2.3736800192,796
94188,140103,205427,-0.47377887479999997,-9.2183490665,2.3832513096,797
94274,140098,205431,-0.4462614149,-9.2147598326,2.4215364712,798
94367,140138,205442,-0.42233318890000004,-9.2793660428,2.3509482045,799
94415,140128,205389,-0.4019941968,-9.290133744499999,2.2983061073,800
94512,140126,205441,-0.5491527867,-9.2458665264,2.3270199785,801
94557,140124,205386,-0.2081755662,-9.2554378168,2.3270199785,802
94633,140108,205418,-0.4163511324,-9.284151688,2.4454646972,803
94720,140100,205430,-0.4689932296,-9.260223461999999,2.4263221164,804
94739,140108,205427,-0.40319060809999996,-9.290133744499999,2.4729821571,805
94483,140100,205404,-0.5204389155,-9.2985086236,2.5064816735,806
94069,140076,205356,-0.33499516399999996,-9.3128655592,2.4442682859,807
93772,140033,205323,-0.4414757697,-9.397810761499999,2.3461625592999997,808
93558,140006,205344,-0.346959277,-9.260223461999999,2.5160529638999996,809
93419,140025,205367,-0.4079762533,-9.2506521716,2.5531417142,810
93348,139991,205381,-0.40319060809999996,-9.2087777761,2.4538395763,811
93331,140022,205408,-0.4689932296,-9.3834538259,2.4311077616,812
93451,140028,205412,-0.4642075844,-9.1848495501,2.4741785684,813
93583,140050,205434,-0.39720855159999996,-9.2446701151,2.4346969955,814
93702,140045,205403,-0.41754754369999997,-9.2889373332,2.3126630429,815
93813,140091,205366,-0.4558327053,-9.2506521716,2.4490539311,816
93866,140085,205415,-0.454636294,-9.2135634213,2.3545374384,817
93848,140090,205421,-0.47377887479999997,-9.236295236,2.4131615921,818
94013,140110,205428,-0.47856452,-9.3702933016,2.5160529638999996,819
94088,140119,205445,-0.39720855159999996,-9.308079914,2.440679052,820
94169,140139,205406,-0.502492746,-9.265009107200001,2.4311077616,821
94235,140047,205458,-0.4486542375,-9.2171526552,2.4263221164,822
94348,140127,205442,-0.49770710079999997,-9.178867493599999,2.5208386090999997,823
94376,140122,205400,-0.4558327053,-9.2267239456,2.5495524802999996,824
94446,140140,205413,-0.4642075844,-9.2410808812,2.4059831243,825
94523,140160,205436,-0.4689932296,-9.247062937699999,2.3940190112999997,826
94572,140122,205438,-0.5395814963,-9.1334038642,2.3880369548,827
94640,140124,205414,-0.4163511324,-9.3547399547,2.2839491717,828
94753,140109,205389,-0.3888336725,-9.236295236,2.4119651808,829
94764,140109,205376,-0.43190447930000003,-9.3607220112,2.4969103831,830
94653,140117,205414,-0.41156548719999997,-9.345168664300001,2.3784656644,831
94296,140117,205347,-0.4689932296,-9.2709911637,2.5387847786,832
93969,140062,205321,-0.5347958510999999,-9.274580397600001,2.344966148,833
93636,140036,205336,-0.47377887479999997,-9.2709911637,2.4741785684,834
93457,140014,205325,-0.5599204884,-9.229116768199999,2.4059831243,835
93305,140003,205352,-0.6484549246,-9.3738825355,2.4502503424,836
93246,140001,205350,-0.4582255279,-9.3032942688,2.440679052,837
93323,140031,205380,-0.5060819799,-9.4360959231,2.4011974791,838
93448,140050,205387,-0.2883351233,-9.2973122123,2.4454646972,839
93592,140068,205431,-0.34576286570000003,-9.2315095908,2.4442682859,840
93700,140071,205388,-0.3780659708,-9.2614198733,2.4215364712,841
93799,140114,205425,-0.39720855159999996,-9.2793660428,2.4729821571,842
93874,140093,205391,-0.4366901245,-9.2171526552,2.3318056236999998,843
93951,140129,205388,-0.4677968183,-9.3547399547,2.4215364712,844
94079,140123,205442,-0.36969109170000003,-9.3224368496,2.3736800192,845
94148,140139,205420,-0.3792623821,-9.2135634213,2.4311077616,846
94235,140114,205423,-0.41156548719999997,-9.242277292499999,2.3976082452,847
94335,140142,205432,-0.4402793584,-9.2039921309,2.4969103831,848
94437,140132,205414,-0.3840480273,-9.3224368496,2.4586252215,849
94517,140132,205427,-0.49292145559999995,-9.242277292499999,2.4358934068,850
94585,140171,205409,-0.3361915753,-9.260223461999999,2.4263221164,851
94675,140142,205378,-0.5647061336,-9.2793660428,2.3030917525,852
94737,140136,205388,-0.33499516399999996,-9.2446701151,2.3306092124,853
94828,140138,205404,-0.3218346397,-9.340383019099999,2.3497517932000003,854
94909,140151,205393,-0.41156548719999997,-9.2135634213,2.3880369548,855
94990,140156,205443,-0.36011980130000004,-9.2973122123,2.368894374,856
94892,140174,205374,-0.39361931769999997,-9.2697947524,2.3784656644,857
94582,140146,205378,-0.36969109170000003,-9.2614198733,2.416750826,858
94209,140095,205300,-0.4450650036,-9.1980100744,2.4442682859,859
93946,140062,205315,-0.3840480273,-9.2793660428,2.3832513096,860
93766,140059,205348,-0.4211367776,-9.2135634213,2.4263221164,861
93661,140059,205403,-0.4414757697,-9.2554378168,2.3784656644,862
93685,140041,205407,-0.49770710079999997,-9.220741889100001,2.4119651808,863
93692,140044,205438,-0.5347958510999999,-9.1896351953,2.368894374,864
93865,140093,205447,-0.36011980130000004,-9.2410808812,2.416750826,865
94035,140091,205448,-0.39720855159999996,-9.2398844699,2.4011974791,866
94150,140159,205409,-0.47736810869999996,-9.4025964067,2.3365912689,867
94221,140110,205431,-0.4689932296,-9.2087777761,2.3736800192,868
94303,140151,205399,-0.48693939909999995,-9.2410808812,2.4023938904,869
94379,140147,205440,-0.36969109170000003,-9.108279226899999,2.4550359876,870
94482,140129,205393,-0.5539384319,-9.2039921309,2.4059831243,871
94584,140119,205410,-0.5599204884,-9.2315095908,2.3318056236999998,872
94686,140145,205411,-0.454636294,-9.3116691479,2.4442682859,873
94764,140164,205428,-0.5682953675,-9.284151688,2.416750826,874
94969,140160,205393,-0.2799602442,-9.1226361625,2.4777678023000003,875
95047,140176,205426,-0.41276189849999995,-9.2805624541,2.3641087288000002,876
95127,140189,205416,-0.5347958510999999,-9.2315095908,2.4741785684,877
95229,140181,205455,-0.42592242280000003,-9.2889373332,2.4634108667000003,878
95276,140167,205424,-0.4019941968,-9.236295236,2.3353948576,879
95328,140170,205420,-0.36011980130000004,-9.1226361625,2.3868405435,880
95471,140174,205369,-0.4749752861,-9.2027957196,2.3964118339,881
95509,140177,205418,-0.43190447930000003,-9.1501536224,2.3976082452,882
95423,140133,205387,-0.4941178669,-9.3643112451,2.4921247379,883
95083,140121,205344,-0.5359922624,-9.3068835027,2.4921247379,884
94690,140144,205341,-0.42592242280000003,-9.284151688,2.3880369548,885
94425,140132,205352,-0.3266202849,-9.3367937852,2.4083759468999997,886
94263,140091,205352,-0.4402793584,-9.2949193897,2.4155544147,887
94199,140096,205393,-0.5682953675,-9.2135634213,2.4538395763,888
94217,140089,205390,-0.3984049629,-9.2877409219,2.368894374,889
94231,140093,205431,-0.34576286570000003,-9.236295236,2.3557338497,890
94397,140121,205445,-0.34456645439999994,-9.2829552767,2.4346969955,891
94553,140159,205443,-0.44386859230000003,-9.236295236,2.4263221164,892
94638,140133,205446,-0.40677984199999995,-9.3176512044,2.3497517932000003,893
94711,140156,205461,-0.49770710079999997,-9.1932244292,2.4011974791,894
94765,140157,205416,-0.33140593009999997,-9.2793660428,2.3114666316,895
94833,140127,205398,-0.4163511324,-9.2554378168,2.440679052,896
94898,140144,205429,-0.4881358104,-9.2315095908,2.440679052,897
94996,140167,205391,-0.3732803256,-9.332008140000001,2.4251257050999997,898
95042,140148,205397,-0.4163511324,-9.284151688,2.3306092124,899
95145,140135,205380,-0.46540399569999996,-9.2315095908,2.4263221164,900
95183,140154,205414,-0.4354937132,-9.3224368496,2.4023938904,901
95259,140201,205392,-0.5072783912000001,-9.1944208405,2.4251257050999997,902
95334,140144,205399,-0.3840480273,-9.2087777761,2.3605194949,903
95372,140141,205376,-0.47856452,-9.188438784,2.5160529638999996,904
95424,140135,205362,-0.42233318890000004,-9.284151688,2.4071795356,905
95505,140145,205365,-0.502492746,-9.207581364800001,2.3928226,906
95634,140155,205332,-0.3984049629,-9.1274218077,2.464607278,907
95601,140129,205338,-0.46540399569999996,-9.2231347117,2.5172493752,908
95332,140155,205327,-0.47377887479999997,-9.2889373332,2.2923240508,909
94924,140147,205282,-0.5012963347,-9.21236701,2.416750826,910
94602,140098,205308,-0.5682953675,-9.1836531388,2.3114666316,911
94379,140097,205303,-0.35413774480000004,-9.3367937852,2.3832513096,912
94200,140105,205309,-0.48335016519999996,-9.0939222913,2.464607278,913
94098,140087,205343,-0.40677984199999995,-9.175278259699999,2.416750826,914
94090,140068,205403,-0.5503491979999999,-9.2183490665,2.3318056236999998,915
94200,140107,205382,-0.4402793584,-9.2985086236,2.4119651808,916
94375,140108,205393,-0.4414757697,-9.2410808812,2.4203400599,917
94404,140133,205394,-0.3397808092,-9.1944208405,2.4670001006,918
94535,140135,205380,-0.3984049629,-9.3463650756,2.440679052,919
94611,140152,205407,-0.3493520996,-9.3128655592,2.4394826406999996,920
94651,140157,205382,-0.4211367776,-9.2889373332,2.4346969955,921
94729,140176,205377,-0.34097722049999996,-9.2925265671,2.4311077616,922
94816,140154,205351,-0.4079762533,-9.2255275343,2.3868405435,923
94893,140142,205382,-0.6209374647,-9.2793660428,2.321037922,924
94900,140168,205411,-0.5730810127,-9.3415794304,2.3736800192,925
95060,140156,205356,-0.4450650036,-9.3164547931,2.4299113503,926
95119,140142,205389,-0.4642075844,-9.2805624541,2.4251257050999997,927
95196,140142,205336,-0.4881358104,-9.1238325738,2.3784656644,928
95245,140135,205330,-0.4534398827,-9.164510558,2.3401805028,929
95306,140189,205371,-0.5539384319,-9.3128655592,2.4023938904,930
95378,140138,205331,-0.5407779076,-9.1704926145,2.3509482045,931
95438,140139,205339,-0.39361931769999997,-9.3355973739,2.4011974791,932
95503,140123,205328,-0.39361931769999997,-9.2183490665,2.3461625592999997,933
95367,140144,205353,-0.42233318890000004,-9.2614198733,2.416750826,934
94975,140122,205322,-0.5503491979999999,-9.236295236,2.3928226,935
94538,140097,205292,-0.5503491979999999,-9.2793660428,2.4071795356,936
94194,140090,205264,-0.4163511324,-9.2410808812,2.3700907853,937
94103,140084,205299,-0.5407779076,-9.2171526552,2.4358934068,938
93900,140066,205300,-0.4247260115,-9.2039921309,2.5016960283,939
93837,140074,205327,-0.42592242280000003,-9.2398844699,2.3174486881,940
93860,140104,205342,-0.430708068,-9.274580397600001,2.4311077616,941
94005,140133,205345,-0.2691925425,-9.2410808812,2.3784656644,942
94148,140134,205355,-0.4725824635,-9.2554378168,2.4071795356,943
94229,140159,205358,-0.42592242280000003,-9.2781696315,2.4346969955,944
94300,140148,205368,-0.40319060809999996,-9.327222494799999,2.4251257050999997,945
94362,140134,205380,-0.4019941968,-9.332008140000001,2.3365912689,946
94442,140148,205324,-0.5060819799,-9.1932244292,2.3509482045,947
94509,140143,205353,-0.5347958510999999,-9.2506521716,2.4538395763,948
94593,140158,205375,-0.3840480273,-9.2973122123,2.4825534475,949
94718,140197,205363,-0.4606183505,-9.2183490665,2.4251257050999997,950
94755,140156,205378,-0.3792623821,-9.2374916473,2.3976082452,951
94817,140169,205350,-0.4881358104,-9.1944208405,2.4263221164,952
94889,140171,205323,-0.42592242280000003,-9.3116691479,2.3557338497,953
94957,140157,205305,-0.42592242280000003,-9.2937229784,2.4490539311,954
95035,140139,205326,-0.5730810127,-9.2530449942,2.416750826,955
95085,140146,205323,-0.42592242280000003,-9.1609213241,2.4550359876,956
95150,140140,205311,-0.4462614149,-9.3643112451,2.5830519966999996,957
95226,140136,205294,-0.3984049629,-9.2374916473,2.440679052,958
95263,140142,205330,-0.3266202849,-9.308079914,2.4299113503,959
94962,140127,205292,-0.47856452,-9.128618219,2.4023938904,960
94572,140102,205260,-0.49770710079999997,-9.0795653557,2.3736800192,961
94220,140081,205252,-0.5300102059,-9.175278259699999,2.4299113503,962
93980,140086,205238,-0.3206382284,-9.165706969299999,2.3509482045,963
93821,140072,205244,-0.454636294,-9.2757768089,2.3976082452,964
93749,140086,205289,-0.48335016519999996,-9.3607220112,2.4502503424,965
93733,140092,205296,-0.5491527867,-9.2590270507,2.3880369548,966
93843,140155,205295,-0.4594219392,-9.2315095908,2.4023938904,967
93926,140128,205330,-0.2548356069,-9.2087777761,2.416750826,968
94138,140116,205329,-0.49770710079999997,-9.2985086236,2.3784656644,969
94177,140142,205302,-0.3732803256,-9.104689993,2.3988046565,970
94307,140162,205349,-0.41156548719999997,-9.21236701,2.416750826,971
94389,140149,205311,-0.36969109170000003,-9.1980100744,2.3976082452,972
94462,140147,205280,-0.5407779076,-9.2410808812,2.4789642136,973
94552,140185,205283,-0.5539384319,-9.2506521716,2.4263221164,974
94658,140142,205281,-0.47976093129999997,-9.2315095908,2.3832513096,975
94722,140145,205299,-0.34576286570000003,-9.2985086236,2.3724836079,976
94856,140139,205307,-0.5156532703,-9.1848495501,2.4358934068,977
94961,140152,205315,-0.3553341561,-9.3128655592,2.3832513096,978
95017,140141,205311,-0.48335016519999996,-9.284151688,2.4825534475,979
95117,140175,205252,-0.2931207685,-9.188438784,2.4023938904,980
95210,140172,205278,-0.48335016519999996,-9.1944208405,2.4035903017,981
95274,140145,205286,-0.3505485109,-9.2566342281,2.4358934068,982
95366,140177,205272,-0.382851616,-9.1130648721,2.4921247379,983
95378,140140,205270,-0.49770710079999997,-9.284151688,2.4933211492,984
95219,140129,205239,-0.3649054465,-9.2171526552,2.3868405435,985
94851,140125,205231,-0.5204389155,-9.3068835027,2.4502503424,986
94558,140132,205216,-0.5012963347,-9.2889373332,2.4119651808,987
94378,140117,205233,-0.3744767369,-9.273383986299999,2.368894374,988
94254,140126,205236,-0.35892339,-9.247062937699999,2.3353948576,989
94188,140133,205240,-0.5718846014,-9.2614198733,2.4215364712,990
94221,140097,205270,-0.39720855159999996,-9.0891366461,2.5016960283,991
94348,140123,205259,-0.34576286570000003,-9.1190469286,2.464607278,992
94562,140120,205288,-0.4211367776,-9.2171526552,2.3880369548,993
94659,140141,205300,-0.4582255279,-9.265009107200001,2.3928226,994
94786,140163,205275,-0.4821537539,-9.284151688,2.3820548983,995
94840,140177,205265,-0.4881358104,-9.260223461999999,2.3916261887,996
94917,140167,205296,-0.36969109170000003,-9.2171526552,2.4215364712,997
95022,140167,205285,-0.502492746,-9.2374916473,2.3880369548,998
95109,140218,205245,-0.3266202849,-9.308079914,2.440679052,999
95209,140176,205227,-0.48335016519999996,-9.2135634213,2.4215364712,1000
95296,140149,205278,-0.502492746,-9.2231347117,2.4873390927,1001
95434,140172,205217,-0.4725824635,-9.2662055185,2.4454646972,1002
95485,140167,205234,-0.48693939909999995,-9.117850517299999,2.3545374384,1003
95578,140190,205207,-0.33140593009999997,-9.1896351953,2.4634108667000003,1004
95649,140159,205233,-0.47856452,-9.2985086236,2.5351955446999996,1005
95720,140146,205198,-0.5359922624,-9.2374916473,2.4538395763,1006
95822,140176,205199,-0.382851616,-9.2554378168,2.4693929232,1007
95907,140140,205196,-0.5120640364,-9.21236701,2.4550359876,1008
95935,140178,205174,-0.3649054465,-9.3367937852,2.4825534475,1009
95734,140146,205184,-0.47736810869999996,-9.3786681807,2.4550359876,1010
95414,140147,205180,-0.34576286570000003,-9.2315095908,2.4071795356,1011
95137,140136,205141,-0.47377887479999997,-9.1549392676,2.4550359876,1012
95041,140099,205159,-0.4366901245,-9.232706002099999,2.4921247379,1013
94901,140134,205143,-0.33140593009999997,-9.2267239456,2.3832513096,1014
94870,140156,205204,-0.5012963347,-9.3128655592,2.3976082452,1015
94874,140143,205200,-0.4402793584,-9.274580397600001,2.4502503424,1016
94980,140156,205239,-0.4163511324,-9.3176512044,2.4263221164,1017
95160,140180,205266,-0.3505485109,-9.2889373332,2.3270199785,1018
95323,140184,205240,-0.526420972,-9.165706969299999,2.416750826,1019
95424,140200,205254,-0.42831524540000004,-9.2697947524,2.4011974791,1020
95516,140214,205233,-0.3206382284,-9.284151688,2.3545374384,1021
95628,140213,205263,-0.3397808092,-9.1130648721,2.4634108667000003,1022
95782,140208,205218,-0.5012963347,-9.1740818484,2.4215364712,1023
95783,140187,205206,-0.36011980130000004,-9.2506521716,2.4311077616,1024
95944,140201,205240,-0.3266202849,-9.1848495501,2.4681965119,1025
96014,140206,205233,-0.41276189849999995,-9.236295236,2.416750826,1026
96126,140213,205218,-0.4366901245,-9.3212404383,2.4634108667000003,1027
96210,140170,205189,-0.430708068,-9.1429751546,2.3509482045,1028
96313,140185,205211,-0.42592242280000003,-9.1609213241,2.4454646972,1029
96373,140210,205192,-0.5359922624,-9.2757768089,2.3976082452,1030
96453,140186,205180,-0.39361931769999997,-9.2781696315,2.4263221164,1031
96522,140224,205189,-0.3505485109,-9.274580397600001,2.416750826,1032
96598,140188,205146,-0.34576286570000003,-9.1944208405,2.3676979627,1033
96691,140187,205144,-0.3924229064,-9.1130648721,2.3533410271,1034
96650,140196,205156,-0.40677984199999995,-9.2889373332,2.5016960283,1035
96304,140204,205164,-0.5072783912000001,-9.3738825355,2.4023938904,1036
96132,140161,205129,-0.38763726119999997,-9.21236701,2.4741785684,1037
95890,140166,205130,-0.33260234139999995,-9.1992064857,2.2887348169,1038
95724,140143,205147,-0.5168496816,-9.1322074529,2.3641087288000002,1039
95624,140172,205103,-0.40677984199999995,-9.1513500337,2.3880369548,1040
95540,140143,205170,-0.40319060809999996,-9.3511507208,2.416750826,1041
95572,140172,205164,-0.3924229064,-9.274580397600001,2.4023938904,1042
95798,140168,205179,-0.6735795618999999,-9.1417787433,2.4251257050999997,1043
95878,140203,205227,-0.4019941968,-9.2374916473,2.2923240508,1044
95989,140214,205199,-0.48335016519999996,-9.2985086236,2.4311077616,1045
96047,140232,205207,-0.4450650036,-9.2829552767,2.4454646972,1046
96123,140226,205209,-0.5407779076,-9.260223461999999,2.3162522768000002,1047
96141,140232,205184,-0.47856452,-9.3690968903,2.5160529638999996,1048
96299,140216,205209,-0.41276189849999995,-9.242277292499999,2.440679052,1049
96372,140247,205179,-0.49292145559999995,-9.1692962032,2.4825534475,1050
96451,140208,205169,-0.3505485109,-9.1034935817,2.4358934068,1051
96546,140240,205191,-0.47856452,-9.3032942688,2.3964118339,1052
96620,140193,205167,-0.48335016519999996,-9.3260260835,2.3928226,1053
96691,140227,205151,-0.49292145559999995,-9.3702933016,2.4586252215,1054
96798,140206,205161,-0.4749752861,-9.2410808812,2.4131615921,1055
96827,140212,205155,-0.36370903520000003,-9.284151688,2.4825534475,1056
96906,140203,205105,-0.34097722049999996,-9.1908316066,2.3401805028,1057
96946,140174,205106,-0.526420972,-9.2697947524,2.4119651808,1058
97067,140193,205135,-0.3684946804,-9.0855474122,2.5064816735,1059
97038,140198,205135,-0.44985064880000003,-9.3355973739,2.4981067944,1060
96780,140202,205096,-0.4594219392,-9.2374916473,2.4789642136,1061
96400,140179,205062,-0.4881358104,-9.330811728699999,2.4107687694999997,1062
96208,140167,205033,-0.3840480273,-9.1465643885,2.3641087288000002,1063
96012,140163,205030,-0.5072783912000001,-9.2219383004,2.4358934068,1064
95893,140141,205093,-0.36011980130000004,-9.1609213241,2.5016960283,1065
95775,140165,205052,-0.4450650036,-9.2506521716,2.4059831243,1066
95768,140183,205106,-0.49292145559999995,-9.2458665264,2.3736800192,1067
95908,140197,205114,-0.4402793584,-9.2219383004,2.4346969955,1068
95988,140203,205155,-0.47856452,-9.340383019099999,2.3784656644,1069
96064,140227,205139,-0.454636294,-9.3116691479,2.4598216327999998,1070
96133,140213,205102,-0.4402793584,-9.1597249128,2.3078773977,1071
96169,140235,205114,-0.3505485109,-9.2315095908,2.4071795356,1072
96232,140249,205140,-0.36969109170000003,-9.2937229784,2.344966148,1073
96304,140235,205133,-0.5347958510999999,-9.2039921309,2.4023938904,1074
96365,140223,205093,-0.49292145559999995,-9.0999043478,2.5064816735,1075
96434,140240,205107,-0.5407779076,-9.1980100744,2.5674986498,1076
96555,140220,205097,-0.4606183505,-9.2805624541,2.4741785684,1077
96564,140215,205112,-0.4402793584,-9.3032942688,2.4394826406999996,1078
96660,140239,205108,-0.33738798659999997,-9.2315095908,2.3844477209,1079
96614,140218,205064,-0.430708068,-9.3032942688,2.4023938904,1080
96767,140210,205058,-0.47377887479999997,-9.4217389875,2.4454646972,1081
96806,140234,205056,-0.4881358104,-9.4408815683,2.4119651808,1082
96862,140242,205074,-0.5443671415,-9.2434737038,2.4729821571,1083
96963,140226,205051,-0.4199403663,-9.095118702599999,2.464607278,1084
96920,140218,205068,-0.44985064880000003,-9.3224368496,2.464607278,1085
96659,140231,205073,-0.3278166962,-9.2279203569,2.3832513096,1086
96278,140198,205011,-0.5300102059,-9.2267239456,2.4155544147,1087
95974,140196,205006,-0.4163511324,-9.3607220112,2.4454646972,1088
95723,140174,204983,-0.5347958510999999,-9.2518485829,2.440679052,1089
95530,140175,205021,-0.3984049629,-9.2985086236,2.5016960283,1090
95386,140149,205040,-0.49770710079999997,-9.1357966868,2.4873390927,1091
95339,140187,205035,-0.5730810127,-9.2985086236,2.3066809864,1092
95396,140173,205049,-0.47976093129999997,-9.236295236,2.4203400599,1093
95494,140185,205056,-0.3026920589,-9.1609213241,2.4454646972,1094
95595,140216,205054,-0.47736810869999996,-9.1274218077,2.4502503424,1095
95600,140212,205052,-0.4725824635,-9.2279203569,2.3676979627,1096
95644,140235,205053,-0.3026920589,-9.1322074529,2.4777678023000003,1097
95681,140234,205045,-0.3888336725,-9.1992064857,2.4346969955,1098
95734,140241,205064,-0.4689932296,-9.2087777761,2.416750826,1099
95793,140238,205058,-0.430708068,-9.1130648721,2.4741785684,1100
95901,140243,205049,-0.4642075844,-9.175278259699999,2.416750826,1101
95905,140234,205023,-0.4594219392,-9.188438784,2.4586252215,1102
95971,140238,205051,-0.44985064880000003,-9.1704926145,2.3928226,1103
96064,140247,205019,-0.46540399569999996,-9.1322074529,2.5351955446999996,1104
96047,140238,205010,-0.4594219392,-9.3176512044,2.416750826,1105
96091,140253,205032,-0.6209374647,-9.0664048314,2.488535504,1106
96157,140213,205018,-0.4510470601,-9.207581364800001,2.440679052,1107
96214,140246,205043,-0.3888336725,-9.162117735399999,2.4969103831,1108
96277,140241,205020,-0.31704899449999996,-9.2518485829,2.3928226,1109
96066,140235,205031,-0.5587240770999999,-9.2315095908,2.4634108667000003,1110
95667,140195,204962,-0.4247260115,-9.2279203569,2.3784656644,1111
95292,140189,204957,-0.3218346397,-9.1896351953,2.3401805028,1112
94980,140181,204925,-0.42233318890000004,-9.232706002099999,2.3880369548,1113
94748,140147,204938,-0.6436692794,-9.3930251163,2.4215364712,1114
94547,140173,204969,-0.33140593009999997,-9.1992064857,2.3928226,1115
94424,140168,204991,-0.4594219392,-9.1944208405,2.4586252215,1116
94425,140188,204973,-0.4845465765,-9.2410808812,2.4071795356,1117
94530,140154,204983,-0.35892339,-9.2183490665,2.3880369548,1118
94655,140227,205015,-0.5730810127,-9.2374916473,2.3365912689,1119
94722,140255,205026,-0.34097722049999996,-9.232706002099999,2.416750826,1120
94766,140269,205000,-0.35413774480000004,-9.247062937699999,2.3114666316,1121
94828,140260,205007,-0.43429730190000004,-9.175278259699999,2.4825534475,1122
94873,140254,204991,-0.31704899449999996,-9.2231347117,2.4933211492,1123
94944,140243,205007,-0.3924229064,-9.2315095908,2.2983061073,1124
94988,140292,205007,-0.40319060809999996,-9.1561356789,2.3641087288000002,1125
95096,140281,205019,-0.44386859230000003,-9.379864592,2.3880369548,1126
95142,140249,205047,-0.5060819799,-9.2889373332,2.4119651808,1127
95216,140275,205005,-0.4821537539,-9.3547399547,2.3784656644,1128
95278,140259,204973,-0.430708068,-9.1848495501,2.4538395763,1129
95250,140242,204997,-0.4510470601,-9.2697947524,2.4777678023000003,1130
95411,140259,204996,-0.502492746,-9.4085784632,2.3497517932000003,1131
95443,140248,204968,-0.4510470601,-9.1369930981,2.4203400599,1132
95509,140232,204938,-0.5826523031,-9.340383019099999,2.285145583,1133
95611,140243,204970,-0.4941178669,-9.108279226899999,2.3880369548,1134
95485,140258,204971,-0.5694917788,-9.162117735399999,2.3976082452,1135
95237,140236,204939,-0.5407779076,-9.175278259699999,2.4681965119,1136
94869,140211,204932,-0.5647061336,-9.2697947524,2.4729821571,1137
94497,140192,204890,-0.4689932296,-9.2267239456,2.3880369548,1138
94257,140195,204883,-0.5682953675,-9.2985086236,2.4119651808,1139
94106,140165,204927,-0.4594219392,-9.3068835027,2.4358934068,1140
93956,140182,204957,-0.4594219392,-9.2949193897,2.4107687694999997,1141
93932,140196,204929,-0.5682953675,-9.1944208405,2.3784656644,1142
94024,140194,204936,-0.3302095188,-9.1980100744,2.4777678023000003,1143
94197,140223,204983,-0.49770710079999997,-9.1896351953,2.3629123174999997,1144
94303,140230,204976,-0.34097722049999996,-9.274580397600001,2.3066809864,1145
94299,140251,205003,-0.6125625856,-9.1465643885,2.4346969955,1146
94453,140253,204993,-0.5012963347,-9.340383019099999,2.3784656644,1147
94513,140245,205008,-0.5443671415,-9.332008140000001,2.4358934068,1148
94594,140218,204979,-0.34097722049999996,-9.2662055185,2.3976082452,1149
94675,140269,204982,-0.4450650036,-9.3655076564,2.4454646972,1150
94778,140271,204982,-0.4079762533,-9.3690968903,2.4011974791,1151
94849,140266,204974,-0.4019941968,-9.232706002099999,2.3736800192,1152
94938,140268,204973,-0.47856452,-9.242277292499999,2.4071795356,1153
95029,140296,204965,-0.39720855159999996,-9.1357966868,2.3928226,1154
95085,140267,204990,-0.4211367776,-9.2087777761,2.3557338497,1155
95172,140264,204974,-0.4881358104,-9.050851484499999,2.6249263922,1156
95226,140240,205041,-0.4019941968,-9.2231347117,2.4634108667000003,1157
95231,140257,204948,-0.4941178669,-9.272187575,2.4059831243,1158
95448,140278,204950,-0.4019941968,-9.308079914,2.4358934068,1159
95458,140260,204952,-0.5312066172,-9.1609213241,2.368894374,1160
95305,140248,204964,-0.454636294,-9.3032942688,2.4454646972,1161
94963,140212,204934,-0.4163511324,-9.1417787433,2.3832513096,1162
94557,140227,204874,-0.48335016519999996,-9.2458665264,2.4119651808,1163
94409,140182,204879,-0.46540399569999996,-9.2829552767,2.4969103831,1164
94253,140175,204884,-0.4881358104,-9.2315095908,2.4442682859,1165
94158,140195,204889,-0.5551348432,-9.3260260835,2.4358934068,1166
94159,140207,204918,-0.4462614149,-9.236295236,2.2935204621,1167
94221,140201,204927,-0.36969109170000003,-9.2889373332,2.3796620756999998,1168
94360,140207,204910,-0.2739781877,-9.3499543095,2.344966148,1169
94507,140254,204941,-0.6017948839,-9.340383019099999,2.4203400599,1170
94632,140254,204977,-0.48335016519999996,-9.2171526552,2.3641087288000002,1171
94693,140289,204969,-0.5132604477,-9.2219383004,2.4873390927,1172
94777,140271,204954,-0.42233318890000004,-9.265009107200001,2.4538395763,1173
94853,140274,204931,-0.4594219392,-9.242277292499999,2.3593230836,1174
94955,140271,204964,-0.39720855159999996,-9.2697947524,2.5028924396,1175
95037,140271,204951,-0.4606183505,-9.260223461999999,2.5208386090999997,1176
95140,140275,204937,-0.44985064880000003,-9.2638126959,2.4693929232,1177
95221,140289,204970,-0.59820565,-9.178867493599999,2.4059831243,1178
95313,140284,204981,-0.5503491979999999,-9.1704926145,2.3880369548,1179
95433,140287,204927,-0.4534398827,-9.3367937852,2.416750826,1180
95475,140266,204934,-0.33260234139999995,-9.332008140000001,2.4107687694999997,1181
95492,140255,204919,-0.4211367776,-9.1561356789,2.4215364712,1182
95627,140288,204956,-0.5252245607,-9.2458665264,2.3162522768000002,1183
95703,140280,204939,-0.5682953675,-9.1417787433,2.5160529638999996,1184
95727,140287,204934,-0.49292145559999995,-9.1740818484,2.4634108667000003,1185
95522,140272,204888,-0.41754754369999997,-9.2039921309,2.3258235672,1186
95198,140272,204867,-0.5647061336,-9.2315095908,2.4155544147,1187
94962,140231,204894,-0.4534398827,-9.3547399547,2.4251257050999997,1188
94826,140183,204861,-0.4881358104,-9.3044906801,2.4681965119,1189
94684,140178,204848,-0.39720855159999996,-9.2542414055,2.3976082452,1190
94658,140194,204893,-0.33140593009999997,-9.117850517299999,2.4299113503,1191
94671,140210,204869,-0.502492746,-9.247062937699999,2.4263221164,1192
94798,140227,204889,-0.311066938,-9.1896351953,2.4394826406999996,1193
94957,140238,204860,-0.3026920589,-9.309276325299999,2.3976082452,1194
95046,140209,204925,-0.46540399569999996,-9.2135634213,2.4873390927,1195
95125,140274,204897,-0.4450650036,-9.207581364800001,2.4323041729,1196
95197,140266,204891,-0.42592242280000003,-9.3164547931,2.4969103831,1197
95286,140274,204906,-0.4163511324,-9.3176512044,2.416750826,1198
95374,140282,204930,-0.4163511324,-9.3547399547,2.344966148,1199
95474,140292,204939,-0.5491527867,-9.2781696315,2.3545374384,1200
95547,140288,204931,-0.4271188341,-9.2410808812,2.4215364712,1201
95633,140296,204915,-0.3361915753,-9.2315095908,2.3557338497,1202
95767,140324,204913,-0.3888336725,-9.188438784,2.4789642136,1203
95788,140301,204908,-0.5551348432,-9.1513500337,2.4263221164,1204
95860,140273,204878,-0.4354937132,-9.1369930981,2.4873390927,1205
95939,140335,204907,-0.4354937132,-9.1896351953,2.5351955446999996,1206
95996,140291,204872,-0.4402793584,-9.1896351953,2.3497517932000003,1207
96077,140301,204867,-0.3684946804,-9.1896351953,2.3545374384,1208
96112,140311,204858,-0.35413774480000004,-9.1501536224,2.4454646972,1209
95914,140315,204855,-0.4271188341,-9.2315095908,2.3940190112999997,1210
95596,140259,204806,-0.5730810127,-9.1704926145,2.3772692530999997,1211
95301,140220,204784,-0.4582255279,-9.165706969299999,2.4311077616,1212
95097,140224,204780,-0.4007977855,-9.1944208405,2.4969103831,1213
94960,140193,204798,-0.3792623821,-9.2985086236,2.4071795356,1214
94899,140204,204797,-0.40677984199999995,-9.2793660428,2.4358934068,1215
94875,140218,204804,-0.4402793584,-9.2829552767,2.3641087288000002,1216
94990,140227,204854,-0.3744767369,-9.2219383004,2.4023938904,1217
95110,140250,204819,-0.35413774480000004,-9.308079914,2.416750826,1218
95207,140278,204844,-0.430708068,-9.3415794304,2.4550359876,1219
95292,140282,204884,-0.40677984199999995,-9.4229353988,2.4454646972,1220
95377,140277,204830,-0.502492746,-9.2183490665,2.4011974791,1221
95412,140292,204844,-0.3792623821,-9.327222494799999,2.3641087288000002,1222
95471,140291,204852,-0.4689932296,-9.1369930981,2.3641087288000002,1223
95602,140327,204869,-0.5072783912000001,-9.0999043478,2.4789642136,1224
95630,140307,204860,-0.49651068949999994,-9.178867493599999,2.416750826,1225
95625,140325,204864,-0.39361931769999997,-9.3738825355,2.416750826,1226
95776,140308,204840,-0.5156532703,-9.3032942688,2.4502503424,1227
95843,140308,204867,-0.502492746,-9.3595255999,2.3880369548,1228
95907,140304,204861,-0.5216353268,-9.1800639049,2.4921247379,1229
95965,140304,204825,-0.454636294,-9.2889373332,2.4598216327999998,1230
96018,140292,204829,-0.4606183505,-9.2506521716,2.4873390927,1231
96082,140313,204822,-0.3984049629,-9.2973122123,2.4358934068,1232
96078,140304,204795,-0.5455635528,-9.2518485829,2.4215364712,1233
96011,140302,204803,-0.3924229064,-9.1896351953,2.4107687694999997,1234
95690,140287,204780,-0.2979064137,-9.3894358824,2.416750826,1235
95381,140239,204729,-0.44985064880000003,-9.3032942688,2.4693929232,1236
95146,140251,204744,-0.3122633493,-9.284151688,2.4119651808,1237
94939,140184,204733,-0.42592242280000003,-9.399007172800001,2.3401805028,1238
94871,140212,204772,-0.4642075844,-9.3020978575,2.3509482045,1239
94749,140202,204776,-0.5635097223,-9.2087777761,2.3880369548,1240
94778,140205,204758,-0.4594219392,-9.3643112451,2.4502503424,1241
94904,140179,204783,-0.3266202849,-9.2793660428,2.4263221164,1242
95064,140249,204781,-0.3505485109,-9.3188476157,2.4119651808,1243
95113,140262,204831,-0.3924229064,-9.2183490665,2.488535504,1244
95154,140276,204769,-0.44985064880000003,-9.2554378168,2.4215364712,1245
95228,140271,204777,-0.4642075844,-9.0855474122,2.4586252215,1246
95284,140293,204785,-0.4642075844,-9.2219383004,2.4059831243,1247
95347,140295,204760,-0.5647061336,-9.3068835027,2.3832513096,1248
95418,140237,204780,-0.2967100024,-9.260223461999999,2.4071795356,1249
95482,140309,204813,-0.47856452,-9.345168664300001,2.4741785684,1250
95535,140298,204821,-0.4594219392,-9.2087777761,2.4969103831,1251
95611,140314,204793,-0.38763726119999997,-9.2506521716,2.4729821571,1252
95672,140322,204774,-0.36011980130000004,-9.3128655592,2.3593230836,1253
95730,140329,204787,-0.3218346397,-9.2087777761,2.3736800192,1254
95819,140297,204747,-0.526420972,-9.1896351953,2.4741785684,1255
95837,140295,204737,-0.3206382284,-9.117850517299999,2.4071795356,1256
95905,140298,204733,-0.46540399569999996,-9.2267239456,2.4538395763,1257
95971,140303,204755,-0.5072783912000001,-9.2697947524,2.4538395763,1258
95912,140296,204729,-0.3888336725,-9.2374916473,2.3736800192,1259
95621,140269,204698,-0.5407779076,-9.236295236,2.3928226,1260
95323,140250,204660,-0.4594219392,-9.2315095908,2.4729821571,1261
94977,140217,204634,-0.5838487144,-9.1034935817,2.5016960283,1262
94776,140187,204655,-0.5072783912000001,-9.1800639049,2.4071795356,1263
94636,140188,204703,-0.47856452,-9.2027957196,2.3736800192,1264
94545,140179,204680,-0.5635097223,-9.2554378168,2.2695922361,1265
94524,140196,204709,-0.4642075844,-9.3415794304,2.464607278,1266
94644,140231,204703,-0.4450650036,-9.1800639049,2.4071795356,1267
94762,140226,204728,-0.5168496816,-9.2662055185,2.3832513096,1268
94852,140234,204729,-0.44985064880000003,-9.1190469286,2.3736800192,1269
94921,140262,204710,-0.31345976059999997,-9.164510558,2.4071795356,1270
94967,140268,204697,-0.4642075844,-9.2506521716,2.5016960283,1271
95034,140278,204710,-0.4163511324,-9.2135634213,2.368894374,1272
95095,140287,204710,-0.44386859230000003,-9.2171526552,2.3736800192,1273
95154,140296,204720,-0.35413774480000004,-9.2697947524,2.4681965119,1274
95236,140290,204714,-0.42592242280000003,-9.3511507208,2.3964118339,1275
95217,140285,204708,-0.4402793584,-9.219545477799999,2.4299113503,1276
95371,140296,204700,-0.5204389155,-9.232706002099999,2.3784656644,1277
95369,140291,204757,-0.526420972,-9.3655076564,2.4358934068,1278
95424,140291,204711,-0.49292145559999995,-9.0891366461,2.4969103831,1279
95576,140314,204679,-0.4845465765,-9.2267239456,2.5339991334,1280
95631,140282,204713,-0.6448656907,-9.2458665264,2.4969103831,1281
95684,140282,204659,-0.4821537539,-9.236295236,2.3796620756999998,1282
95750,140323,204672,-0.47736810869999996,-9.2985086236,2.3641087288000002,1283
95648,140295,204701,-0.4450650036,-9.2267239456,2.5208386090999997,1284
95559,140266,204678,-0.6544369810999999,-9.2985086236,2.4119651808,1285
95151,140242,204585,-0.41754754369999997,-9.265009107200001,2.3928226,1286
94869,140195,204603,-0.40677984199999995,-9.3499543095,2.4550359876,1287
94633,140183,204617,-0.2967100024,-9.3176512044,2.3593230836,1288
94485,140166,204634,-0.36011980130000004,-9.3164547931,2.4921247379,1289
94404,140157,204679,-0.48933222169999996,-9.2793660428,2.3545374384,1290
94373,140160,204672,-0.41754754369999997,-9.2410808812,2.3545374384,1291
94489,140212,204637,-0.33140593009999997,-9.2350988247,2.6057838114000003,1292
94573,140239,204683,-0.41276189849999995,-9.2793660428,2.4358934068,1293
94686,140252,204681,-0.5790630692000001,-9.1740818484,2.4311077616,1294
94759,140305,204664,-0.430708068,-9.1980100744,2.3928226,1295
94819,140287,204672,-0.3122633493,-9.3068835027,2.4358934068,1296
94871,140305,204674,-0.47377887479999997,-9.1848495501,2.368894374,1297
94923,140289,204669,-0.5084748025,-9.1573320902,2.4490539311,1298
95006,140300,204687,-0.3732803256,-9.3355973739,2.4119651808,1299
95067,140302,204683,-0.4414757697,-9.3128655592,2.3928226,1300
95140,140307,204703,-0.4462614149,-9.1848495501,2.4586252215,1301
95245,140271,204697,-0.4354937132,-9.2554378168,2.4598216327999998,1302
95187,140290,204673,-0.5826523031,-9.1453679772,2.4119651808,1303
95357,140301,204657,-0.40677984199999995,-9.308079914,2.3916261887,1304
95388,140292,204679,-0.5120640364,-9.236295236,2.2839491717,1305
95456,140306,204669,-0.47856452,-9.260223461999999,2.4490539311,1306
95507,140329,204607,-0.3864408499,-9.3607220112,2.4311077616,1307
95569,140314,204639,-0.5108676251000001,-9.2697947524,2.5208386090999997,1308
95534,140309,204644,-0.454636294,-9.2506521716,2.3629123174999997,1309
95228,140266,204657,-0.5168496816,-9.2279203569,2.4873390927,1310
94879,140247,204585,-0.3266202849,-9.4217389875,2.4311077616,1311
94610,140228,204559,-0.31704899449999996,-9.2458665264,2.4729821571,1312
94419,140177,204603,-0.6257231099,-9.2506521716,2.4071795356,1313
94293,140182,204623,-0.3505485109,-9.2805624541,2.4263221164,1314
94270,140195,204614,-0.430708068,-9.165706969299999,2.3772692530999997,1315
94243,140197,204635,-0.5156532703,-9.2709911637,2.4203400599,1316
94375,140200,204669,-0.4462614149,-9.2542414055,2.4777678023000003,1317
94478,140253,204644,-0.5120640364,-9.3224368496,2.368894374,1318
94554,140220,204646,-0.5312066172,-9.2973122123,2.464607278,1319
94587,140240,204675,-0.4354937132,-9.1812603162,2.5076780847999998,1320
94668,140276,204693,-0.3732803256,-9.2554378168,2.4299113503,1321
94724,140284,204653,-0.5694917788,-9.3834538259,2.2983061073,1322
94796,140299,204663,-0.382851616,-9.1980100744,2.4071795356,1323
94875,140293,204664,-0.44985064880000003,-9.3128655592,2.4358934068,1324
94936,140261,204691,-0.5072783912000001,-9.1944208405,2.4693929232,1325
94990,140295,204677,-0.382851616,-9.274580397600001,2.3653051401,1326
95078,140273,204673,-0.5539384319,-9.308079914,2.4023938904,1327
95137,140313,204666,-0.5168496816,-9.1968136631,2.3784656644,1328
95202,140298,204649,-0.4462614149,-9.1704926145,2.3545374384,1329
95256,140259,204652,-0.5072783912000001,-9.2506521716,2.3365912689,1330
95356,140280,204613,-0.49292145559999995,-9.2315095908,2.4311077616,1331
95367,140274,204673,-0.3505485109,-9.1836531388,2.3784656644,1332
95347,140303,204629,-0.5694917788,-9.2937229784,2.4454646972,1333
95083,140276,204616,-0.430708068,-9.299705034899999,2.3928226,1334
94711,140232,204612,-0.2608176634,-9.260223461999999,2.4346969955,1335
94418,140194,204553,-0.4211367776,-9.2937229784,2.3736800192,1336
94201,140198,204603,-0.40319060809999996,-9.1908316066,2.4215364712,1337
94001,140149,204622,-0.6065805291,-9.2889373332,2.4263221164,1338
93904,140164,204618,-0.5156532703,-9.2793660428,2.3545374384,1339
93882,140179,204644,-0.454636294,-9.2183490665,2.4598216327999998,1340
93981,140195,204595,-0.3505485109,-9.1453679772,2.4311077616,1341
94108,140233,204656,-0.3505485109,-9.188438784,2.4538395763,1342
94148,140211,204657,-0.4295116567,-9.1465643885,2.4825534475,1343
94240,140250,204624,-0.4725824635,-9.2662055185,2.3928226,1344
94315,140239,204659,-0.5120640364,-9.1513500337,2.4454646972,1345
94337,140268,204623,-0.5599204884,-9.1142612834,2.3318056236999998,1346
94393,140264,204661,-0.311066938,-9.21236701,2.4311077616,1347
94468,140287,204675,-0.4402793584,-9.284151688,2.4598216327999998,1348
94481,140250,204658,-0.36370903520000003,-9.2626162846,2.4442682859,1349
94594,140285,204706,-0.4594219392,-9.2267239456,2.5256242543,1350
94667,140289,204678,-0.42592242280000003,-9.3224368496,2.3605194949,1351
94719,140271,204698,-0.3792623821,-9.2554378168,2.3976082452,1352
94777,140281,204731,-0.3888336725,-9.2697947524,2.368894374,1353
94822,140309,204693,-0.3218346397,-9.3655076564,2.4789642136,1354
94897,140290,204664,-0.4139583098,-9.2458665264,2.3676979627,1355
94951,140260,204688,-0.5168496816,-9.2087777761,2.3641087288000002,1356
94969,140269,204702,-0.5216353268,-9.2267239456,2.464607278,1357
94797,140275,204646,-0.4881358104,-9.2697947524,2.4358934068,1358
94372,140233,204621,-0.454636294,-9.332008140000001,2.5016960283,1359
94028,140204,204615,-0.5168496816,-9.2985086236,2.3784656644,1360
93755,140168,204639,-0.41754754369999997,-9.2171526552,2.2827527603999997,1361
93589,140164,204639,-0.4079762533,-9.3164547931,2.4071795356,1362
93512,140154,204662,-0.49292145559999995,-9.3367937852,2.3832513096,1363
93407,140121,204683,-0.4079762533,-9.3032942688,2.4789642136,1364
93477,140170,204679,-0.3744767369,-9.1513500337,2.4837498588,1365
93644,140187,204667,-0.48693939909999995,-9.2853480993,2.4873390927,1366
93755,140232,204703,-0.454636294,-9.131011041599999,2.3545374384,1367
93808,140241,204712,-0.382851616,-9.108279226899999,2.3784656644,1368
93882,140251,204757,-0.5072783912000001,-9.2518485829,2.4299113503,1369
93959,140254,204778,-0.3684946804,-9.327222494799999,2.4693929232,1370
94018,140252,204749,-0.4558327053,-9.3367937852,2.4311077616,1371
94088,140286,204785,-0.5216353268,-9.247062937699999,2.4263221164,1372
94158,140271,204778,-0.42592242280000003,-9.2793660428,2.3736800192,1373
94239,140255,204771,-0.34097722049999996,-9.2159562439,2.4873390927,1374
94325,140260,204767,-0.3026920589,-9.1561356789,2.4023938904,1375
94390,140285,204784,-0.4450650036,-9.308079914,2.4921247379,1376
94461,140266,204756,-0.42233318890000004,-9.4325066892,2.4119651808,1377
94509,140289,204772,-0.3792623821,-9.2410808812,2.5351955446999996,1378
94569,140271,204760,-0.3649054465,-9.242277292499999,2.4107687694999997,1379
94657,140288,204740,-0.3361915753,-9.340383019099999,2.416750826,1380
94707,140268,204767,-0.40677984199999995,-9.274580397600001,2.2779671152,1381
94616,140303,204718,-0.43429730190000004,-9.2793660428,2.4981067944,1382
94263,140167,204727,-0.4366901245,-9.2267239456,2.3796620756999998,1383
93791,140191,204697,-0.4558327053,-9.2985086236,2.4311077616,1384
93605,140126,204704,-0.2081755662,-9.327222494799999,2.3641087288000002,1385
93363,140119,204752,-0.5539384319,-9.1226361625,2.4215364712,1386
93193,140154,204725,-0.430708068,-9.3415794304,2.3940190112999997,1387
93136,140141,204782,-0.3505485109,-9.3750789468,2.3676979627,1388
93057,140149,204734,-0.502492746,-9.260223461999999,2.4263221164,1389
93256,140157,204756,-0.5168496816,-9.2614198733,2.368894374,1390
93388,140204,204772,-0.502492746,-9.2027957196,2.4550359876,1391
93479,140224,204778,-0.42592242280000003,-9.2937229784,2.3784656644,1392
93541,140240,204810,-0.3649054465,-9.2231347117,2.4011974791,1393
93587,140244,204795,-0.44985064880000003,-9.2267239456,2.4873390927,1394
93673,140222,204830,-0.6149554081999999,-9.164510558,2.464607278,1395
93810,140229,204839,-0.502492746,-9.1992064857,2.3880369548,1396
93834,140242,204873,-0.3732803256,-9.355936366,2.3784656644,1397
93919,140223,204866,-0.44985064880000003,-9.274580397600001,2.5016960283,1398
93899,140255,204833,-0.4402793584,-9.2985086236,2.4394826406999996,1399
94063,140239,204865,-0.4462614149,-9.2410808812,2.4215364712,1400
94128,140256,204886,-0.3553341561,-9.2410808812,2.368894374,1401
94201,140242,204854,-0.4271188341,-9.2171526552,2.368894374,1402
94175,140274,204854,-0.4725824635,-9.3188476157,2.368894374,1403
94352,140235,204827,-0.502492746,-9.1740818484,2.4071795356,1404
94394,140236,204824,-0.4450650036,-9.2410808812,2.3976082452,1405
94459,140227,204844,-0.47377887479999997,-9.1501536224,2.440679052,1406
94240,140271,204836,-0.5874379483000001,-9.2506521716,2.2600209457,1407
93854,140219,204820,-0.4510470601,-9.1800639049,2.3581266723,1408
93506,140180,204751,-0.36011980130000004,-9.247062937699999,2.4011974791,1409
93237,140132,204779,-0.4450650036,-9.188438784,2.4346969955,1410
93049,140116,204779,-0.49172504429999997,-9.2458665264,2.4598216327999998,1411
92922,140118,204833,-0.4689932296,-9.2566342281,2.4598216327999998,1412
92886,140115,204834,-0.48335016519999996,-9.330811728699999,2.3832513096,1413
92963,140156,204820,-0.430708068,-9.117850517299999,2.4071795356,1414
93136,140180,204850,-0.454636294,-9.2279203569,2.4873390927,1415
93295,140198,204896,-0.526420972,-9.2709911637,2.3653051401,1416
93329,140225,204882,-0.5347958510999999,-9.1740818484,2.4263221164,1417
93403,140230,204894,-0.34097722049999996,-9.2267239456,2.4490539311,1418
93451,140198,204916,-0.3182454058,-9.3463650756,2.4071795356,1419
93552,140212,204943,-0.3924229064,-9.3415794304,2.4777678023000003,1420
93630,140209,204963,-0.4642075844,-9.3499543095,2.3772692530999997,1421
93713,140248,204937,-0.3924229064,-9.2087777761,2.3258235672,1422
93815,140241,204959,-0.3984049629,-9.2709911637,2.4023938904,1423
93883,140228,204981,-0.5359922624,-9.1034935817,2.4741785684,1424
93970,140243,204956,-0.4366901245,-9.2506521716,2.4119651808,1425
94044,140262,204959,-0.5443671415,-9.260223461999999,2.4454646972,1426
94008,140243,204908,-0.3780659708,-9.260223461999999,2.416750826,1427
94171,140229,204936,-0.34456645439999994,-9.232706002099999,2.4825534475,1428
94261,140234,204925,-0.5730810127,-9.345168664300001,2.3401805028,1429
94314,140228,204932,-0.36969109170000003,-9.1800639049,2.4789642136,1430
94301,140228,204943,-0.41156548719999997,-9.3224368496,2.5160529638999996,1431
93989,140219,204890,-0.33499516399999996,-9.260223461999999,2.3928226,1432
93605,140171,204849,-0.5503491979999999,-9.274580397600001,2.3174486881,1433
93306,140131,204816,-0.5216353268,-9.2410808812,2.3270199785,1434
93109,140094,204884,-0.33140593009999997,-9.1932244292,2.3461625592999997,1435
92978,140090,204891,-0.36969109170000003,-9.164510558,2.4550359876,1436
92926,140138,204950,-0.5072783912000001,-9.0747797105,2.4011974791,1437
93010,140134,204937,-0.6029912952,-9.242277292499999,2.5016960283,1438
93142,140158,204958,-0.526420972,-9.2231347117,2.5016960283,1439
93296,140164,204956,-0.44985064880000003,-9.3020978575,2.4442682859,1440
93398,140197,204964,-0.3553341561,-9.2219383004,2.4358934068,1441
93448,140180,205027,-0.5204389155,-9.2279203569,2.4502503424,1442
93551,140187,204992,-0.3649054465,-9.1513500337,2.4538395763,1443
93616,140229,205045,-0.38763726119999997,-9.3128655592,2.4777678023000003,1444
93730,140224,205043,-0.5790630692000001,-9.2662055185,2.3593230836,1445
93848,140206,205085,-0.502492746,-9.3032942688,2.4442682859,1446
93884,140217,205082,-0.4582255279,-9.3738825355,2.4394826406999996,1447
93980,140227,205060,-0.47856452,-9.3643112451,2.3784656644,1448
94068,140216,205070,-0.4749752861,-9.2458665264,2.4634108667000003,1449
94137,140226,205035,-0.4821537539,-9.274580397600001,2.3880369548,1450
94228,140233,205056,-0.40319060809999996,-9.1800639049,2.3030917525,1451
94297,140214,205041,-0.40319060809999996,-9.379864592,2.4837498588,1452
94386,140222,205020,-0.3744767369,-9.3702933016,2.5064816735,1453
94365,140228,205027,-0.44985064880000003,-9.2685983411,2.440679052,1454
94432,140242,205036,-0.5012963347,-9.2506521716,2.3545374384,1455
94128,140195,205012,-0.526420972,-9.1956172518,2.4023938904,1456
93751,140173,204963,-0.4211367776,-9.1992064857,2.3832513096,1457
93458,140138,204950,-0.39960137419999997,-9.2027957196,2.4119651808,1458
93262,140103,204975,-0.2943171798,-9.2183490665,2.4394826406999996,1459
93128,140092,205020,-0.49770710079999997,-9.260223461999999,2.4023938904,1460
93068,140097,205016,-0.44386859230000003,-9.1800639049,2.368894374,1461
93114,140123,205056,-0.42592242280000003,-9.340383019099999,2.368894374,1462
93269,140141,205062,-0.4642075844,-9.4313102779,2.5112673187,1463
93374,140151,205095,-0.4462614149,-9.178867493599999,2.4071795356,1464
93533,140177,205113,-0.4271188341,-9.290133744499999,2.5064816735,1465
93621,140184,205101,-0.5647061336,-9.236295236,2.5639094158999995,1466
93697,140197,205141,-0.299102825,-9.1130648721,2.3700907853,1467
93788,140189,205129,-0.4450650036,-9.3260260835,2.4251257050999997,1468
93861,140228,205152,-0.39361931769999997,-9.1561356789,2.3676979627,1469
93954,140182,205145,-0.4881358104,-9.2087777761,2.4203400599,1470
94080,140232,205192,-0.6161518195,-9.3020978575,2.4598216327999998,1471
94148,140219,205147,-0.5539384319,-9.1980100744,2.3605194949,1472
94223,140223,205169,-0.4211367776,-9.260223461999999,2.4023938904,1473
94290,140280,205165,-0.3266202849,-9.309276325299999,2.5399811898999998,1474
94354,140253,205165,-0.48335016519999996,-9.1692962032,2.4155544147,1475
94434,140226,205157,-0.3924229064,-9.178867493599999,2.3413769141,1476
94521,140237,205169,-0.5347958510999999,-9.3355973739,2.416750826,1477
94602,140217,205153,-0.2931207685,-9.260223461999999,2.4215364712,1478
94514,140244,205202,-0.5730810127,-9.2937229784,2.4251257050999997,1479
94141,140204,205098,-0.4642075844,-9.2458665264,2.4825534475,1480
93786,140177,205065,-0.5407779076,-9.3032942688,2.4071795356,1481
93498,140117,205093,-0.3649054465,-9.1357966868,2.4358934068,1482
93267,140104,205131,-0.5108676251000001,-9.0843510009,2.3306092124,1483
93135,140120,205205,-0.4450650036,-9.3511507208,2.2983061073,1484
93075,140132,205166,-0.4725824635,-9.175278259699999,2.3066809864,1485
93112,140134,205186,-0.5060819799,-9.2087777761,2.4777678023000003,1486
93267,140145,205195,-0.47377887479999997,-9.09272588,2.3736800192,1487
93450,140171,205219,-0.47736810869999996,-9.1716890258,2.4358934068,1488
93594,140196,205261,-0.4366901245,-9.2315095908,2.4215364712,1489
93579,140197,205291,-0.48933222169999996,-9.1501536224,2.4011974791,1490
93736,140185,205300,-0.4462614149,-9.4121676971,2.4777678023000003,1491
93812,140225,205296,-0.5168496816,-9.2279203569,2.4969103831,1492
93906,140219,205334,-0.5072783912000001,-9.2662055185,2.4777678023000003,1493
93984,140248,205308,-0.4450650036,-9.2039921309,2.344966148,1494
94068,140248,205345,-0.42233318890000004,-9.3224368496,2.3401805028,1495
94169,140246,205298,-0.4103690759,-9.3236332609,2.5016960283,1496
94293,140260,205308,-0.3900300838,-9.2805624541,2.3880369548,1497
94321,140255,205254,-0.3792623821,-9.284151688,2.4681965119,1498
94404,140260,205297,-0.5120640364,-9.2315095908,2.3736800192,1499
94508,140263,205287,-0.34576286570000003,-9.332008140000001,2.4394826406999996,1500
94539,140259,205272,-0.47377887479999997,-9.2554378168,2.4251257050999997,1501
94616,140243,205288,-0.4079762533,-9.2219383004,2.3832513096,1502
94677,140190,205261,-0.5072783912000001,-9.3212404383,2.5028924396,1503
94469,140247,205281,-0.4534398827,-9.2793660428,2.4442682859,1504
94020,140202,205223,-0.40319060809999996,-9.3870430598,2.321037922,1505
93687,140160,205246,-0.36011980130000004,-9.2697947524,2.4071795356,1506
93438,140127,205203,-0.4402793584,-9.1561356789,2.4263221164,1507
93279,140140,205274,-0.3744767369,-9.2829552767,2.3880369548,1508
93194,140128,205299,-0.49770710079999997,-9.2219383004,2.4969103831,1509
93164,140135,205318,-0.4163511324,-9.1932244292,2.464607278,1510
93282,140114,205299,-0.38763726119999997,-9.3655076564,2.368894374,1511
93467,140181,205354,-0.39361931769999997,-9.2949193897,2.4693929232,1512
93598,140188,205346,-0.3505485109,-9.3882394711,2.4263221164,1513
93713,140221,205361,-0.4402793584,-9.3020978575,2.3736800192,1514
93829,140203,205372,-0.41276189849999995,-9.1322074529,2.4071795356,1515
93891,140224,205389,-0.28953153460000003,-9.1992064857,2.4813570362,1516
93998,140230,205393,-0.4689932296,-9.2925265671,2.3736800192,1517
94054,140243,205440,-0.5443671415,-9.273383986299999,2.3497517932000003,1518
