green,red,IR,acc_x,acc_y,acc_z,sample_index
62105,210034,188961,0.6652046827999999,7.9489566772,5.7702916999,1
62168,210046,188973,0.6077769404,8.2133635745,5.8360943214,2
62223,210029,188961,0.8350950873999999,8.1523465982,5.7020962558,3
62135,209918,188935,0.7369893608,8.0733834524,5.7188460139999995,4
61855,209765,188835,0.7441678286,8.2037922841,5.8073804502,5
61549,209714,188855,0.8327022648,8.1918281711,5.923432346299999,6
61373,209680,188826,0.8362914987,8.124829138299999,5.7726845225,7
61289,209698,188811,0.7800601676,8.0183485326,5.8049876276,8
61278,209675,188824,0.7465606512,8.087740388,5.843272789199999,9
61323,209647,188821,0.8267202082999999,8.0925260332,5.7846486355,10
61387,209638,188847,0.6675975054,8.1391860739,5.7726845225,11
61458,209625,188808,0.6652046827999999,8.1798640581,5.8301122648999995,12
61483,209621,188820,0.5946164161,8.2612200265,5.7810594016,13
61500,209602,188834,0.6460621019999999,8.1367932513,5.74277424,14
61527,209626,188818,0.7465606512,8.124829138299999,5.7714881112,15
61552,209615,188784,0.6005984726,8.027919823,5.8408799666,16
61613,209641,188761,0.6616154488999999,8.1762748242,5.773880933799999,17
61669,209632,188835,0.7453642399,8.0817583315,5.7846486355,18
61745,209631,188850,0.7465606512,8.1894353485,5.843272789199999,19
61836,209655,188822,0.6041877065,8.115257847899999,5.8241302084,20
61909,209642,188822,0.6077769404,8.0458659925,5.831308676200001,21
61963,209648,188818,0.8267202082999999,8.226524098799999,6.029912952,22
62062,209750,188840,0.4881358104,8.0925260332,5.7523455304,23
62018,209652,188857,0.6711867393,8.0339018795,5.8372907327,24
61782,209544,188805,0.6556333924,8.0697942185,5.934200048,25
61436,209546,188784,0.5958128274,8.087740388,5.8815579507999995,26
61290,209504,188778,0.6771687957999999,8.0410803473,5.826523031,27
61219,209539,188773,0.8111668613999999,8.0087772422,5.7224352479,28
61243,209537,188813,0.6412764568,7.9944203065999995,5.8241302084,29
61306,209536,188817,0.6149554081999999,8.0410803473,5.831308676200001,30
61374,209544,188742,0.6029912952,8.0458659925,5.8289158536,31
61427,209563,188808,0.6687939167,8.0027951857,5.9090754107,32
61479,209558,188768,0.5886343596,7.956135144999999,5.8959148864,33
61493,209546,188823,0.622133876,7.9992059518000005,5.8767723056,34
61534,209544,188775,0.5886343596,8.0961152671,5.7260244818,35
61544,209537,188820,0.7405785947,8.0015987744,5.8109696841,36
61620,209575,188809,0.5407779076,8.0769726863,5.7942199259,37
61679,209614,188832,0.6628118601999999,8.0829547428,5.8672010152,38
61661,209636,188845,0.6125625856,8.051848049,5.74277424,39
61809,209641,188858,0.7118647235000001,7.9334033303,6.0071811373,40
61820,209654,188839,0.7094719009,8.1032937349,5.8037912163000005,41
61950,209655,188817,0.7525427077,8.1391860739,5.7391850061000005,42
61988,209671,188836,0.5958128274,8.111668614,5.6913285541,43
61822,209516,188763,0.6305087550999999,8.0374911134,5.7858450468,44
61485,209427,188697,0.6903293201,8.0207413552,5.9162538785,45
61212,209423,188700,0.7082754896000001,8.1308111948,5.812166095399999,46
61082,209400,188699,0.7956135145,8.0650085733,5.9018969429000006,47
61049,209392,188704,0.7214360139,7.9645100241,5.806184038900001,48
61077,209366,188701,0.7106683122,8.062615750700001,5.831308676200001,49
61152,209355,188665,0.6412764568,8.0590265168,5.8301122648999995,50
61220,209400,188681,0.6508477471999999,8.0255270004,5.7870414581,51
61327,209357,188740,0.7477570625,8.1044901462,5.7882378694,52
61307,209339,188655,0.7214360139,8.0327054682,5.8636117813,53
61253,209326,188645,0.6556333924,8.1092757914,5.838487144,54
61338,209338,188637,0.6173482308,8.1176506705,5.802594804999999,55
61411,209332,188723,0.7250252478,7.9956167179,5.7834522241999995,56
61479,209345,188691,0.7992027483999999,8.087740388,5.735595772199999,57
61547,209328,188718,0.7226324252,8.116454259200001,5.760720409499999,58
61628,209369,188704,0.7549355303,8.2061851067,5.858826136099999,59
61719,209333,188675,0.6340979889999999,7.9836526049,5.6638110942,60
61791,209371,188615,0.8554340795,8.1128650253,5.8241302084,61
61868,209324,188668,0.7956135145,8.159525066,5.7858450468,62
61795,209273,188627,0.7405785947,8.1942209937,5.7116675462,63
61516,209143,188535,0.7070790783,7.9884382501,5.843272789199999,64
61241,209074,188531,0.7704888772,8.1224363157,5.843272789199999,65
61078,209054,188528,0.7010970218,7.9992059518000005,5.818148151899999,66
60970,209051,188490,0.6723831506,8.0937224445,5.748756296500001,67
60968,209035,188480,0.8099704500999999,8.170292767700001,5.7236316592000005,68
61024,209007,188455,0.6305087550999999,8.1523465982,5.8145589179999995,69
61102,208960,188488,0.705882667,8.0685978072,5.766702466,70
61185,208953,188491,0.7788637562999999,8.0793655089,5.7523455304,71
61231,209013,188451,0.7106683122,8.1463645417,5.8217373858000006,72
61272,208967,188477,0.6065805291,8.1260255496,5.8253266197,73
61314,208972,188435,0.6185446421,8.1990066389,5.74277424,74
61357,208992,188449,0.705882667,8.116454259200001,5.790630692000001,75
61446,208983,188448,0.8386843212999999,8.1511501869,5.7595239982,76
61503,209030,188490,0.6652046827999999,8.1774712355,5.7571311756,77
61602,209009,188468,0.7034898444000001,8.0255270004,5.6614182716,78
61679,209030,188476,0.8638089586000001,8.1499537756,5.838487144,79
61761,209050,188482,0.5599204884,8.1128650253,5.7702916999,80
61830,209049,188465,0.6484549246,8.1547394208,5.871986660399999,81
61900,209052,188481,0.7214360139,8.1571322434,5.7499527078,82
61739,208945,188430,0.6855436748999999,8.1272219609,5.8552369022,83
61431,208835,188356,0.7549355303,7.9657064354,5.8085768615,84
61204,208850,188337,0.6568298037,8.0015987744,5.778666579,85
61089,208825,188356,0.6245266986,8.0805619202,5.7511491191,86
61082,208777,188366,0.7034898444000001,7.992027484,5.745167062599999,87
61121,208808,188397,0.8099704500999999,8.1200434931,5.8911292412,88
61205,208830,188355,0.7429714173,8.084151154099999,5.7284173044,89
61268,208805,188360,0.6675975054,8.1439717191,5.8612189587,90
61338,208825,188386,0.7250252478,8.1140614366,5.7511491191,91
61369,208826,188351,0.6819544409999999,8.0925260332,5.874379483,92
61403,208834,188367,0.801595571,8.0853475654,5.8097732728,93
61437,208879,188385,0.6604190376,8.0111700648,5.7643096434,94
61497,208837,188381,0.5874379483000001,8.2217384536,5.747559885199999,95
61580,208890,188376,0.5910271822000001,8.0590265168,5.7726845225,96
61662,208907,188392,0.7130611348,8.147560953,5.826523031,97
61729,208918,188390,0.7154539574000001,8.061419339399999,5.7822558129,98
61787,208918,188404,0.7094719009,8.1188470818,5.732006538299999,99
61853,208916,188364,0.7274180704000001,8.124829138299999,5.8971112976999995,100
61929,208924,188382,0.6580262149999999,8.0374911134,5.7643096434,101
61848,208799,188312,0.6149554081999999,8.0662049846,5.858826136099999,102
61628,208692,188272,0.6807580296999999,8.01595571,5.9377892819,103
61334,208665,188188,0.6364908116,8.1619178886,5.856433313499999,104
61191,208655,188246,0.7740781111,8.0685978072,5.8755758943,105
61162,208632,188231,0.6077769404,8.0434731699,5.747559885199999,106
61200,208654,188206,0.622133876,8.2707913169,5.838487144,107
61267,208658,188273,0.6149554081999999,8.070990629799999,5.7332029496,108
61343,208676,188260,0.6089733517,8.039883936,5.7978091598,109
61408,208680,188225,0.6987041992,7.9178499834,5.8552369022,110
61438,208724,188207,0.7094719009,8.1774712355,5.776273756399999,111
61454,208705,188275,0.5778666579,8.160721477300001,5.7140603688,112
61483,208734,188291,0.6412764568,7.9178499834,5.844469200500001,113
61534,208765,188259,0.6604190376,7.9489566772,5.74277424,114
61582,208760,188261,0.6963113766000001,8.102097323599999,5.761916820800001,115
61654,208813,188252,0.7334001269,8.1894353485,5.826523031,116
61726,208797,188281,0.6855436748999999,8.2253276875,5.923432346299999,117
61791,208811,188293,0.5491527867,7.9872418388,5.582455125799999,118
61860,208779,188298,0.7621139981,8.1308111948,5.9018969429000006,119
61954,208819,188282,0.6640082715,8.1367932513,5.747559885199999,120
61867,208744,188273,0.6580262149999999,8.0697942185,5.735595772199999,121
61554,208625,188179,0.6352944003,8.075776275,5.8085768615,122
61295,208540,188167,0.6819544409999999,8.2085779293,5.858826136099999,123
61138,208513,188134,0.7884350467,8.0805619202,5.8899328299,124
61106,208507,188105,0.7908278692999999,8.0386875247,5.8073804502,125
61115,208452,188076,0.6460621019999999,8.075776275,5.7523455304,126
61171,208431,188088,0.6532405698,8.1631142999,5.7930235146,127
61222,208417,188096,0.4725824635,8.049455226400001,5.6685967394,128
61305,208427,188047,0.7477570625,8.1044901462,5.7260244818,129
61294,208439,188075,0.7082754896000001,7.9633136127999995,5.7882378694,130
61280,208411,188086,0.6460621019999999,8.1547394208,5.8217373858000006,131
61273,208407,188069,0.7680960546,8.0362947021,5.7128639575,132
61409,208415,188083,0.8482556117000001,8.1344004287,5.7403814174,133
61474,208396,188073,0.6675975054,8.0733834524,5.7020962558,134
61553,208415,188089,0.6915257314000001,8.1810604694,5.826523031,135
61623,208479,188108,0.5850451257,8.0339018795,5.637490045600001,136
61715,208470,188115,0.7764709337,7.8520473619,5.748756296500001,137
61788,208471,188070,0.7501498851,8.0853475654,5.856433313499999,138
61855,208513,188053,0.6424728680999999,8.0925260332,5.7714881112,139
61861,208440,188079,0.6484549246,8.0685978072,5.8133625067,140
61626,208351,188015,0.8542376682,7.9968131291999995,5.8073804502,141
61338,208266,188013,0.7226324252,8.102097323599999,5.8289158536,142
61130,208236,187960,0.6508477471999999,8.049455226400001,5.773880933799999,143
61113,208190,187997,0.7441678286,8.1427753078,5.7044890784,144
61108,208150,187933,0.6556333924,8.0566336942,5.6638110942,145
61138,208127,187931,0.7214360139,8.2061851067,5.761916820800001,146
61197,208122,187913,0.8243273857,8.159525066,5.7810594016,147
61244,208142,187929,0.7513462964000001,8.2037922841,5.8540404909,148
61292,208149,187904,0.6987041992,8.0889367993,5.8241302084,149
61319,208143,187922,0.7980063370999999,8.099704501,5.7188460139999995,150
61378,208133,187950,0.6903293201,8.1188470818,5.790630692000001,151
61323,208157,187901,0.5778666579,8.1188470818,5.8193445632000005,152
61469,208194,187929,0.705882667,8.1308111948,5.7188460139999995,153
61534,208193,187963,0.7106683122,8.0422767586,5.8013983936999995,154
61593,208210,187948,0.7645068207,8.0733834524,5.777470167700001,155
61695,208258,187955,0.5802594805,7.9944203065999995,5.7152567801,156
61756,208267,187967,0.777667345,8.0243305891,5.6865429089,157
61834,208254,187981,0.6879364975,8.0063844196,5.8552369022,158
61900,208232,187970,0.7130611348,8.2002030502,5.8360943214,159
61894,208245,187946,0.7094719009,8.1104722027,5.7343993608999995,160
61699,208141,187908,0.7800601676,8.0183485326,5.74277424,161
61450,208079,187892,0.7334001269,7.8879397009000005,5.8552369022,162
61300,208044,187896,0.7728816998,8.074579863699999,5.6997034332,163
61251,208020,187913,0.729810893,8.115257847899999,5.7643096434,164
61241,208034,187888,0.7154539574000001,8.0087772422,5.8133625067,165
61288,208052,187869,0.7728816998,8.1403824852,5.8301122648999995,166
61364,208047,187872,0.7884350467,8.1918281711,5.7188460139999995,167
61424,208016,187900,0.7489534738,8.075776275,5.7643096434,168
61483,208030,187878,0.8362914987,8.0183485326,5.8109696841,169
61497,208087,187908,0.6293123438,8.1451681304,5.831308676200001,170
61534,208064,187877,0.7286144817,8.0530444603,5.74277424,171
61585,208080,187917,0.7908278692999999,8.0865439767,5.827719442299999,172
61652,208122,187933,0.6269195211999999,8.1511501869,5.802594804999999,173
61723,208114,187936,0.6987041992,8.2253276875,5.7128639575,174
61790,208191,187943,0.7034898444000001,8.1080793801,5.8217373858000006,175
61886,208214,187962,0.7764709337,8.1535430095,5.773880933799999,176
61962,208184,187968,0.8003991597,8.1080793801,5.826523031,177
62026,208249,187965,0.7357929495000001,7.9872418388,5.754738353,178
62103,208233,187979,0.6424728680999999,8.051848049,5.7750773451,179
62150,208236,187996,0.5300102059,8.0339018795,5.6865429089,180
62056,208176,187945,0.7800601676,7.9214392173,5.8037912163000005,181
61806,208069,187912,0.7549355303,8.116454259200001,5.9473605723,182
61584,208032,187896,0.5335994398,8.0087772422,5.8504512570000005,183
61488,208025,187934,0.7740781111,8.062615750700001,5.7810594016,184
61455,208010,187896,0.6496513358999999,8.1009009123,5.7966127485,185
61476,208008,187888,0.71784678,8.1212399044,5.86241537,186
61539,207992,187850,0.7214360139,7.980063371,5.7595239982,187
61579,207990,187867,0.5670989562,8.1320076061,5.8947184750999995,188
61670,208018,187887,0.6005984726,8.0255270004,5.8193445632000005,189
61654,207985,187920,0.5718846014,7.9465638546,5.8540404909,190
61693,207995,187874,0.610169763,8.063812162,5.754738353,191
61703,208007,187897,0.7262216591,8.1188470818,5.8241302084,192
61766,208074,187934,0.6903293201,8.0255270004,5.777470167700001,193
61809,208089,187937,0.6293123438,8.1499537756,5.8229337971,194
61876,208095,187926,0.8003991597,8.1439717191,5.747559885199999,195
61956,208147,187943,0.7226324252,8.124829138299999,5.8085768615,196
62020,208146,188013,0.6077769404,8.0829547428,5.9018969429000006,197
62086,208198,187970,0.59820565,7.9369925642,5.7523455304,198
62135,208203,188004,0.6329015777,8.128418372199999,5.9018969429000006,199
62233,208249,187973,0.5754738353000001,8.0805619202,5.6769716185,200
62145,208157,187970,0.6855436748999999,8.0566336942,5.7092747236,201
61914,208075,187922,0.6652046827999999,7.9525459111,5.7690952886,202
61559,208000,187883,0.6795616184,8.1571322434,5.838487144,203
61464,207983,187867,0.8626125473,8.1403824852,5.7367921835,204
61442,207953,187851,0.7716852885,8.0183485326,5.6805608524,205
61428,207960,187847,0.6831508522999999,8.1176506705,5.754738353,206
61449,207896,187830,0.6867400861999999,8.061419339399999,5.7296137157,207
61480,207889,187791,0.6771687957999999,8.1320076061,5.716453191399999,208
61530,207871,187833,0.6795616184,8.147560953,5.7978091598,209
61528,207897,187829,0.6604190376,8.1678999451,5.8660046039,210
61534,207873,187803,0.5551348432,8.1308111948,5.7571311756,211
61557,207907,187780,0.8267202082999999,8.124829138299999,5.812166095399999,212
61634,207903,187788,0.7034898444000001,8.1463645417,5.8372907327,213
61637,207940,187823,0.6867400861999999,8.1188470818,5.7643096434,214
61612,207931,187813,0.6807580296999999,8.0829547428,5.735595772199999,215
61749,207987,187862,0.8171489179,8.1870425259,5.827719442299999,216
61825,207980,187821,0.6891329087999999,8.1403824852,5.789434280699999,217
61902,208010,187863,0.6340979889999999,7.9992059518000005,5.7116675462,218
61951,208012,187855,0.7310073043,8.1439717191,5.802594804999999,219
62033,208053,187875,0.861416136,8.0985080897,5.8037912163000005,220
62083,207977,187858,0.8243273857,8.1906317598,5.8049876276,221
62150,208015,187877,0.6532405698,8.0566336942,5.745167062599999,222
61926,207923,187822,0.7597211755,8.0566336942,5.7643096434,223
61652,207803,187764,0.705882667,8.0434731699,5.7990055710999995,224
61421,207766,187762,0.7310073043,8.1631142999,5.7212388366,225
61314,207740,187778,0.7920242806,8.170292767700001,5.766702466,226
61261,207693,187720,0.7405785947,8.0350982908,5.7092747236,227
61273,207663,187675,0.6915257314000001,8.1344004287,5.8408799666,228
61305,207685,187676,0.8685946038000001,8.1344004287,5.7702916999,229
61350,207643,187687,0.6807580296999999,8.1571322434,5.818148151899999,230
61378,207663,187684,0.7322037156,7.9812597822999996,5.754738353,231
61384,207654,187693,0.6723831506,8.116454259200001,5.8289158536,232
61403,207710,187666,0.7429714173,8.2480595022,5.8480584344,233
61455,207650,187691,0.7010970218,8.137989662599999,5.766702466,234
61513,207710,187701,0.7836494015,7.9453674433,5.7260244818,235
61530,207727,187716,0.705882667,8.1056865575,5.7284173044,236
61599,207756,187746,0.8446663778000001,8.170292767700001,5.7882378694,237
61666,207781,187735,0.8171489179,8.063812162,5.8492548457,238
61738,207817,187786,0.8279166196,7.9968131291999995,5.730810127,239
61811,207848,187778,0.7728816998,8.061419339399999,5.806184038900001,240
61882,207861,187833,0.8374879099999999,8.1272219609,5.812166095399999,241
61954,207897,187815,0.7082754896000001,7.9716884919,5.5800623032,242
62026,207877,187866,0.8147560952999999,8.1930245824,5.8672010152,243
62058,207936,187824,0.6616154488999999,8.1978102276,5.748756296500001,244
61959,207782,187795,0.7920242806,7.9884382501,5.761916820800001,245
61683,207748,187739,0.6771687957999999,8.0901332106,5.9114682333,246
61438,207679,187728,0.6819544409999999,8.087740388,5.7188460139999995,247
61300,207642,187692,0.7477570625,8.0721870411,5.7236316592000005,248
61282,207622,187698,0.7238288365000001,8.0590265168,5.7870414581,249
61275,207626,187684,0.7250252478,8.2755769621,5.7714881112,250
61325,207565,187655,0.7214360139,8.0470624038,5.7678988773,251
61361,207602,187659,0.6819544409999999,8.1810604694,5.7822558129,252
61419,207598,187686,0.6807580296999999,7.9872418388,5.716453191399999,253
61438,207635,187679,0.7561319416,8.0111700648,5.7978091598,254
61466,207635,187705,0.7728816998,8.0362947021,5.8456656118,255
61492,207631,187704,0.8123632727,8.1009009123,5.826523031,256
61542,207650,187700,0.7860422241,8.0063844196,5.7942199259,257
61615,207667,187717,0.7010970218,8.075776275,5.7978091598,258
61668,207708,187759,0.6675975054,8.003991596999999,5.653043392499999,259
61745,207736,187784,0.7633104094,8.137989662599999,5.730810127,260
61824,207788,187805,0.8171489179,8.0542408716,5.7822558129,261
61888,207790,187822,0.7214360139,8.1487573643,5.7714881112,262
61986,207860,187808,0.5898307709,8.1391860739,5.7128639575,263
62035,207865,187825,0.6723831506,7.9776705484,5.659025449,264
62105,207890,187856,0.8051848049,8.3054872446,5.9760744435,265
62182,207915,187887,0.5838487144,8.1403824852,5.7020962558,266
62173,207911,187870,0.6293123438,7.9716884919,5.7092747236,267
62004,207795,187812,0.7345965382,8.1344004287,5.7631132321,268
61709,207698,187773,0.6484549246,8.1080793801,5.7978091598,269
61517,207623,187751,0.6664010940999999,8.1655071225,5.7846486355,270
61422,207593,187701,0.5132604477,8.0901332106,5.7918271033,271
61407,207568,187713,0.6053841178,8.0961152671,5.8133625067,272
61431,207532,187680,0.6604190376,8.063812162,5.773880933799999,273
61451,207532,187648,0.6161518195,8.1140614366,5.7750773451,274
61540,207563,187683,0.5826523031,8.0889367993,5.8002019824,275
61576,207559,187746,0.6053841178,8.051848049,5.747559885199999,276
61586,207545,187710,0.622133876,8.0685978072,5.886343596000001,277
61583,207581,187711,0.6113661743,8.1750784129,5.843272789199999,278
61610,207577,187724,0.6364908116,8.0889367993,5.8241302084,279
61646,207606,187746,0.6532405698,8.1391860739,5.776273756399999,280
61704,207653,187759,0.5874379483000001,8.1032937349,5.8660046039,281
61792,207660,187727,0.6161518195,8.0063844196,5.8636117813,282
61853,207693,187806,0.6029912952,8.0853475654,5.838487144,283
61917,207745,187817,0.6532405698,8.1224363157,5.720042425300001,284
61974,207804,187838,0.6723831506,8.0650085733,5.8767723056,285
62056,207804,187879,0.6245266986,7.9034930478000005,5.682953675,286
62103,207862,187849,0.789631458,8.111668614,5.8791651282,287
62179,207873,187895,0.6628118601999999,8.087740388,5.8085768615,288
62031,207817,187877,0.7908278692999999,8.0470624038,5.7690952886,289
61865,207715,187822,0.7357929495000001,8.1415788965,5.776273756399999,290
61566,207634,187774,0.6819544409999999,8.0937224445,5.8193445632000005,291
61369,207589,187757,0.8075776275,8.1655071225,5.730810127,292
61284,207531,187705,0.6963113766000001,8.1212399044,5.7858450468,293
61257,207507,187688,0.6460621019999999,8.102097323599999,5.7092747236,294
61271,207423,187648,0.8051848049,8.0183485326,5.8360943214,295
61311,207436,187600,0.6484549246,7.9752777258,5.7978091598,296
61336,207429,187631,0.6867400861999999,7.969295669299999,5.730810127,297
61368,207421,187607,0.6508477471999999,8.1260255496,5.7834522241999995,298
61397,207428,187652,0.7118647235000001,8.1451681304,5.7810594016,299
61372,207442,187600,0.7465606512,8.0470624038,5.7678988773,300
61394,207451,187598,0.7250252478,8.1499537756,5.8420763779,301
61440,207447,187652,0.6628118601999999,8.2253276875,5.7978091598,302
61487,207445,187634,0.6723831506,8.170292767700001,5.778666579,303
61577,207488,187679,0.610169763,7.9836526049,5.754738353,304
61655,207539,187673,0.7214360139,8.1487573643,5.812166095399999,305
61717,207555,187676,0.6125625856,8.0111700648,5.7056854897,306
61775,207548,187664,0.7585247642,8.0590265168,5.9282179915,307
61848,207585,187712,0.7010970218,8.0602229281,5.6446685134,308
61916,207580,187704,0.8075776275,8.070990629799999,5.761916820800001,309
61952,207624,187718,0.705882667,8.2337025666,5.766702466,310
61801,207547,187676,0.8003991597,8.128418372199999,5.754738353,311
61484,207395,187622,0.7238288365000001,7.9836526049,5.8049876276,312
61192,207313,187613,0.7274180704000001,8.13559684,5.730810127,313
61030,207237,187569,0.7788637562999999,8.1643107112,5.754738353,314
60960,207158,187505,0.7621139981,8.137989662599999,5.8576297248,315
60936,207125,187430,0.6388836341999999,8.1631142999,5.7571311756,316
60961,207099,187439,0.5335994398,8.2121671632,5.7750773451,317
61010,207079,187404,0.8446663778000001,8.1451681304,5.6961141993,318
61049,207089,187409,0.7381857721,8.074579863699999,5.6973106106,319
61055,207110,187422,0.765703232,8.061419339399999,5.8348979101000005,320
61120,207057,187402,0.7405785947,8.1308111948,5.6961141993,321
61112,207092,187430,0.6508477471999999,8.051848049,5.7690952886,322
61138,207119,187431,0.7130611348,8.0350982908,5.7020962558,323
61191,207141,187455,0.7082754896000001,8.062615750700001,5.6422756908,324
61254,207190,187475,0.7621139981,8.063812162,5.7702916999,325
61335,207191,187472,0.8111668613999999,8.182256880699999,5.745167062599999,326
61409,207196,187526,0.7393821834000001,7.9669028467,5.8253266197,327
61492,207278,187522,0.8267202082999999,8.1726855903,5.7954163372,328
61563,207321,187532,0.693918554,8.2181492197,5.790630692000001,329
61637,207302,187571,0.705882667,8.0829547428,5.7463634739,330
61707,207316,187520,0.7932206919,8.1978102276,5.7690952886,331
61742,207357,187575,0.8362914987,8.116454259200001,5.694917788000001,332
61622,207303,187573,0.7549355303,8.003991596999999,5.7643096434,333
61282,207191,187528,0.6819544409999999,8.0087772422,5.7332029496,334
61020,207034,187471,0.8338986760999999,8.1571322434,5.8002019824,335
60856,207034,187386,0.6819544409999999,8.0662049846,5.766702466,336
60801,206913,187337,0.6125625856,8.0470624038,5.7176496027,337
60818,206901,187335,0.6723831506,8.1487573643,5.856433313499999,338
60863,206886,187310,0.7752745223999999,8.0458659925,5.7523455304,339
60933,206882,187326,0.6915257314000001,8.13559684,5.7032926670999995,340
60984,206895,187410,0.729810893,8.0662049846,5.7858450468,341
61032,206911,187384,0.7740781111,8.0015987744,5.8875400073,342
61020,206927,187379,0.7597211755,8.1774712355,5.7930235146,343
61050,206937,187373,0.7082754896000001,8.1810604694,5.7846486355,344
61080,206915,187364,0.6376872229,8.182256880699999,5.7678988773,345
61153,206978,187378,0.8051848049,8.0135628874,5.653043392499999,346
61209,207007,187434,0.7513462964000001,8.1499537756,5.802594804999999,347
61293,207040,187455,0.6783652070999999,8.063812162,5.8013983936999995,348
61388,207080,187484,0.5012963347,8.1212399044,5.778666579,349
61466,207127,187513,0.6197410534,8.0530444603,5.8133625067,350
61541,207148,187573,0.6412764568,7.980063371,5.7571311756,351
61622,207157,187508,0.7812565789,8.0961152671,5.8073804502,352
61684,207209,187544,0.7764709337,8.160721477300001,5.7631132321,353
61629,207142,187533,0.6975077879,8.1104722027,5.8169517405999995,354
61340,207050,187505,0.5730810127,8.1140614366,5.8049876276,355
61060,206935,187405,0.6460621019999999,8.115257847899999,5.8672010152,356
60892,206827,187392,0.6317051664,7.9944203065999995,5.8049876276,357
60843,206749,187339,0.5910271822000001,8.0733834524,5.730810127,358
60844,206736,187336,0.6879364975,8.0817583315,5.8217373858000006,359
60897,206743,187336,0.6472585133,8.128418372199999,5.802594804999999,360
60969,206741,187357,0.6412764568,8.1260255496,5.7690952886,361
61016,206767,187397,0.5838487144,8.2037922841,5.7846486355,362
61049,206772,187375,0.7645068207,8.0865439767,5.776273756399999,363
61068,206777,187398,0.6855436748999999,7.9094751043,5.8157553293,364
61107,206796,187405,0.5814558918,8.1451681304,5.8923256525,365
61151,206851,187411,0.5479563754,8.0458659925,5.7379885948,366
61211,206868,187429,0.6352944003,8.1499537756,5.7978091598,367
61293,206859,187492,0.6508477471999999,8.1523465982,5.7595239982,368
61363,206955,187478,0.6951149653,8.2085779293,5.8540404909,369
61441,206999,187506,0.622133876,7.9764741371,5.6973106106,370
61520,207019,187500,0.5611168997,7.984849016199999,5.7571311756,371
61583,207008,187488,0.7010970218,8.0350982908,5.8540404909,372
61640,207047,187492,0.46540399569999996,8.1870425259,5.74277424,373
61658,207091,187544,0.7226324252,8.0027951857,5.6733823846,374
61438,207013,187447,0.622133876,8.124829138299999,5.7236316592000005,375
61141,206866,187429,0.6352944003,8.1846497033,5.843272789199999,376
60934,206758,187378,0.7884350467,8.1403824852,5.7403814174,377
60802,206673,187287,0.7357929495000001,8.111668614,5.766702466,378
60788,206630,187328,0.7429714173,8.1056865575,5.649454158599999,379
60825,206606,187310,0.6951149653,8.160721477300001,5.694917788000001,380
60879,206610,187321,0.6819544409999999,8.1068829688,5.754738353,381
60953,206612,187307,0.6747759731999999,8.0985080897,5.7403814174,382
60998,206627,187349,0.6891329087999999,8.099704501,5.7523455304,383
61015,206598,187361,0.7082754896000001,8.0662049846,5.818148151899999,384
61039,206621,187348,0.7692924659,8.2013994615,5.8205409745,385
61050,206638,187351,0.8171489179,8.1068829688,5.8193445632000005,386
61186,206647,187342,0.6759723845,8.2468630909,5.6195438761,387
61218,206649,187333,0.7609175868,8.1774712355,5.761916820800001,388
61294,206703,187323,0.7202396026000001,8.0662049846,5.6961141993,389
61392,206771,187371,0.6484549246,8.1846497033,5.7092747236,390
61466,206780,187404,0.7621139981,8.1487573643,5.681757263700001,391
61540,206811,187403,0.6077769404,8.0422767586,5.7188460139999995,392
61613,206813,187427,0.8506484343,8.115257847899999,5.8660046039,393
61688,206832,187426,0.8817551281,8.1332040174,5.7714881112,394
61660,206825,187418,0.5826523031,8.0853475654,5.6566326264,395
61397,206715,187356,0.7322037156,8.1966138163,5.706881900999999,396
61120,206633,187299,0.7154539574000001,8.129614783500001,5.7834522241999995,397
60926,206521,187241,0.7130611348,8.1870425259,5.716453191399999,398
60848,206429,187234,0.5802594805,8.0949188558,5.7188460139999995,399
60743,206327,187246,0.8003991597,7.9513494998,5.7260244818,400
60812,206336,187234,0.7980063370999999,8.1547394208,5.773880933799999,401
60940,206340,187223,0.7010970218,8.1104722027,5.7499527078,402
60979,206362,187262,0.8171489179,8.057830105499999,5.7332029496,403
61013,206367,187241,0.6951149653,8.1104722027,5.8097732728,404
61032,206402,187265,0.7788637562999999,8.111668614,5.844469200500001,405
61076,206358,187249,0.7992027483999999,7.9992059518000005,5.745167062599999,406
61114,206374,187243,0.7561319416,7.992027484,5.716453191399999,407
61182,206433,187262,0.6340979889999999,8.1523465982,5.7044890784,408
61252,206458,187285,0.71784678,8.0566336942,5.6997034332,409
61339,206489,187314,0.7872386353999999,8.0458659925,5.806184038900001,410
61419,206519,187328,0.7094719009,8.1499537756,5.778666579,411
61497,206584,187353,0.7154539574000001,8.0602229281,5.6997034332,412
61581,206589,187380,0.7944171031999999,8.1583286547,5.860022547400001,413
61670,206642,187361,0.7609175868,8.2037922841,5.747559885199999,414
61734,206652,187364,0.7310073043,8.102097323599999,5.8337014988,415
61748,206710,187365,0.7238288365000001,8.1547394208,5.6602218603,416
61552,206600,187325,0.7836494015,7.980063371,5.8301122648999995,417
61216,206467,187274,0.6580262149999999,8.0829547428,5.8648081926,418
61082,206352,187232,0.7429714173,8.075776275,5.6997034332,419
60979,206298,187193,0.71784678,8.087740388,5.8456656118,420
60962,206235,187188,0.7106683122,8.1140614366,5.7260244818,421
60987,206241,187184,0.6879364975,8.1188470818,5.8253266197,422
61042,206270,187205,0.6424728680999999,8.170292767700001,5.802594804999999,423
61111,206223,187242,0.71784678,8.1631142999,5.7379885948,424
61168,206252,187213,0.7453642399,8.0303126456,5.6674003281,425
61199,206270,187303,0.6161518195,8.111668614,5.7882378694,426
61227,206279,187252,0.6652046827999999,8.0685978072,5.7403814174,427
61223,206291,187271,0.7226324252,8.159525066,5.8683974265,428
61364,206336,187273,0.7680960546,8.0590265168,5.8803615395,429
61395,206337,187347,0.7836494015,8.0889367993,5.7403814174,430
61476,206416,187326,0.7034898444000001,8.1547394208,5.761916820800001,431
61570,206435,187318,0.7250252478,8.087740388,5.7690952886,432
61648,206517,187355,0.6293123438,8.0207413552,5.7367921835,433
61720,206532,187375,0.7621139981,8.0662049846,5.8528440796,434
61794,206537,187413,0.8841479507000001,8.2420774457,5.8241302084,435
61888,206586,187405,0.5168496816,8.1212399044,5.735595772199999,436
61884,206578,187435,0.6652046827999999,8.0303126456,5.7990055710999995,437
61738,206495,187327,0.8338986760999999,8.0973116784,5.7858450468,438
61452,206390,187308,0.6484549246,8.0374911134,5.745167062599999,439
61277,206295,187219,0.6963113766000001,8.2109707519,5.730810127,440
61192,206242,187238,0.6915257314000001,7.968099258,5.8217373858000006,441
61186,206182,187234,0.7214360139,8.039883936,5.789434280699999,442
61224,206173,187243,0.6460621019999999,8.129614783500001,5.8002019824,443
61209,206205,187239,0.7238288365000001,8.044669581199999,5.735595772199999,444
61274,206211,187251,0.7106683122,8.003991596999999,5.8660046039,445
61382,206214,187273,0.7692924659,8.0889367993,5.7978091598,446
61405,206254,187239,0.6687939167,8.062615750700001,5.8097732728,447
61422,206230,187270,0.6664010940999999,8.1966138163,5.8636117813,448
61467,206240,187298,0.6029912952,7.9190463947000005,5.826523031,449
61511,206313,187288,0.5694917788,8.0434731699,5.7571311756,450
61569,206311,187326,0.7310073043,8.0829547428,5.7942199259,451
61656,206342,187316,0.5910271822000001,7.9310105077,5.7834522241999995,452
61725,206411,187355,0.5467599640999999,7.9992059518000005,5.6889357315,453
61815,206429,187371,0.7214360139,8.0255270004,5.8360943214,454
61891,206449,187421,0.6005984726,8.0315090569,5.777470167700001,455
61957,206527,187439,0.5910271822000001,8.2085779293,5.8133625067,456
61915,206551,187449,0.5694917788,8.155935832099999,5.665007505499999,457
61854,206440,187388,0.6412764568,7.9465638546,5.7056854897,458
61617,206341,187285,0.6197410534,7.9645100241,5.8193445632000005,459
61462,206255,187278,0.5347958510999999,8.2372918005,5.7284173044,460
61302,206195,187227,0.5659025448999999,7.984849016199999,5.8205409745,461
61264,206165,187263,0.6436692794,7.9896346614,5.778666579,462
61265,206106,187204,0.7633104094,7.9609207902,5.7858450468,463
61305,206145,187217,0.6987041992,8.137989662599999,5.7834522241999995,464
61354,206156,187246,0.8099704500999999,8.0662049846,5.735595772199999,465
61363,206148,187254,0.6317051664,8.128418372199999,5.7643096434,466
61366,206149,187262,0.7860422241,8.0769726863,5.8540404909,467
61438,206175,187234,0.7884350467,8.0901332106,5.7882378694,468
61479,206171,187227,0.71784678,8.1308111948,5.706881900999999,469
61518,206200,187284,0.7429714173,8.0805619202,5.748756296500001,470
61568,206247,187320,0.8147560952999999,8.0255270004,5.7571311756,471
61646,206280,187292,0.7357929495000001,8.182256880699999,5.735595772199999,472
61719,206273,187333,0.7489534738,8.1619178886,5.7882378694,473
61800,206344,187355,0.6125625856,8.1260255496,5.7391850061000005,474
61879,206357,187352,0.7441678286,8.0554372829,5.735595772199999,475
61946,206373,187376,0.8051848049,8.2337025666,5.856433313499999,476
61994,206422,187381,0.897308475,8.2037922841,5.8133625067,477
61941,206414,187358,0.6484549246,7.984849016199999,5.6135618196,478
61728,206259,187273,0.8147560952999999,8.1846497033,5.754738353,479
61444,206145,187181,0.7094719009,7.9764741371,5.8755758943,480
61276,206009,187167,0.7920242806,8.0781690976,5.7499527078,481
61183,205962,187133,0.8267202082999999,8.1643107112,5.831308676200001,482
61169,205881,187086,0.7226324252,8.0829547428,5.7870414581,483
61179,205883,187083,0.7226324252,8.075776275,5.8480584344,484
61212,205882,187120,0.8291130308999999,8.0949188558,5.6697931507,485
61251,205906,187132,0.6017948839,8.1511501869,5.754738353,486
61277,205934,187113,0.5180460929,8.057830105499999,5.747559885199999,487
61300,205897,187153,0.6532405698,8.1487573643,5.7523455304,488
61335,205923,187148,0.6640082715,8.0925260332,5.8145589179999995,489
61378,205923,187144,0.9068797654,8.1260255496,5.806184038900001,490
61441,205929,187145,0.6891329087999999,8.2061851067,5.710471134900001,491
61487,205997,187195,0.6616154488999999,8.0685978072,5.789434280699999,492
61577,206037,187186,0.6975077879,8.1272219609,5.760720409499999,493
61648,206093,187207,0.8506484343,8.0374911134,5.7260244818,494
61728,206162,187253,0.6747759731999999,8.1391860739,5.7379885948,495
61813,206129,187223,0.753739119,8.1260255496,5.7140603688,496
61806,206231,187243,0.6795616184,8.185846114599999,5.7966127485,497
61954,206252,187267,0.729810893,8.1009009123,5.7643096434,498
61980,206254,187265,0.705882667,8.1882389372,5.6434721021,499
61772,206164,187210,0.6209374647,8.0889367993,5.773880933799999,500
61498,206002,187152,0.8650053699,7.956135144999999,5.74277424,501
61303,205862,187087,0.7501498851,8.1140614366,5.7714881112,502
61222,205843,187070,0.7465606512,8.1547394208,5.706881900999999,503
61192,205823,187054,0.7202396026000001,8.0973116784,5.7044890784,504
61208,205807,187067,0.7106683122,8.1044901462,5.777470167700001,505
61255,205812,187079,0.6017948839,8.1056865575,5.9162538785,506
61304,205828,187111,0.6771687957999999,8.0470624038,5.7643096434,507
61348,205849,187122,0.7609175868,8.1176506705,5.7954163372,508
61357,205856,187141,0.7704888772,8.039883936,5.760720409499999,509
61394,205886,187144,0.6412764568,8.1990066389,5.8923256525,510
61431,205905,187129,0.6173482308,8.0793655089,5.8875400073,511
61498,205937,187158,0.8171489179,7.9896346614,5.776273756399999,512
61551,205950,187177,0.6424728680999999,8.0853475654,5.7954163372,513
61621,206015,187182,0.7645068207,8.061419339399999,5.773880933799999,514
61709,206093,187187,0.7621139981,8.0602229281,5.7559347643,515
61783,206164,187308,0.7202396026000001,8.2025958728,5.8408799666,516
61919,206147,187275,0.7501498851,8.0327054682,5.923432346299999,517
61934,206211,187312,0.7238288365000001,8.0087772422,5.678168029799999,518
62012,206228,187304,0.6005984726,8.1978102276,5.8767723056,519
62084,206302,187368,0.6759723845,8.129614783500001,5.7643096434,520
62019,206275,187293,0.6532405698,8.062615750700001,5.7643096434,521
61777,206106,187220,0.6987041992,7.9489566772,5.923432346299999,522
61540,206012,187233,0.6616154488999999,8.0865439767,5.8779687169,523
61397,205916,187155,0.753739119,8.1870425259,5.761916820800001,524
61345,205862,187133,0.5934200048,7.980063371,5.8013983936999995,525
61346,205882,187109,0.6460621019999999,8.070990629799999,5.827719442299999,526
61384,205897,187132,0.6484549246,8.160721477300001,5.8169517405999995,527
61455,205892,187209,0.5204389155,8.0650085733,5.8528440796,528
61491,205920,187139,0.7310073043,8.0015987744,5.8815579507999995,529
61516,205950,187201,0.4725824635,8.147560953,5.8767723056,530
61523,205971,187181,0.5647061336,8.0243305891,5.8528440796,531
61552,205911,187217,0.6891329087999999,7.9824561936,5.8193445632000005,532
61579,205977,187193,0.6951149653,8.0805619202,5.8911292412,533
61628,206019,187228,0.6161518195,8.0506516377,5.827719442299999,534
61694,206064,187290,0.6029912952,8.0949188558,5.8408799666,535
61766,206128,187273,0.6903293201,8.049455226400001,5.7810594016,536
61838,206182,187297,0.586241537,8.0362947021,5.706881900999999,537
61916,206240,187349,0.6675975054,8.026723411699999,5.8145589179999995,538
62030,206246,187323,0.5407779076,8.061419339399999,5.8229337971,539
62064,206291,187378,0.5910271822000001,8.115257847899999,5.8504512570000005,540
62109,206336,187387,0.5934200048,8.1726855903,5.8037912163000005,541
61990,206254,187343,0.729810893,8.0721870411,5.8504512570000005,542
61743,206123,187235,0.7022934331,8.0255270004,5.874379483,543
61503,205994,187227,0.7597211755,8.044669581199999,5.871986660399999,544
61364,205924,187160,0.6987041992,8.116454259200001,5.7655060547,545
61327,205923,187161,0.610169763,7.992027484,5.7571311756,546
61320,205878,187194,0.6795616184,8.2301133327,5.7415778287,547
61349,205898,187158,0.6652046827999999,8.124829138299999,5.8360943214,548
61382,205883,187188,0.7310073043,8.0829547428,5.8217373858000006,549
61423,205926,187183,0.6125625856,8.0554372829,5.8073804502,550
61448,205851,187168,0.6891329087999999,8.0458659925,5.7978091598,551
61456,205916,187185,0.8171489179,8.0889367993,5.812166095399999,552
61483,205968,187182,0.7250252478,8.1272219609,5.773880933799999,553
61589,205980,187229,0.6388836341999999,8.0650085733,5.6997034332,554
61599,206022,187182,0.7980063370999999,8.2253276875,5.8372907327,555
61650,206057,187253,0.7597211755,8.1391860739,5.8217373858000006,556
61732,206114,187246,0.6604190376,8.0590265168,5.7008998445,557
61803,206147,187267,0.6652046827999999,8.0853475654,5.7918271033,558
61873,206179,187290,0.8219345630999999,8.0350982908,5.8660046039,559
61929,206207,187265,0.7441678286,8.062615750700001,5.6877393201999995,560
62007,206219,187327,0.7513462964000001,8.2707913169,5.7571311756,561
62056,206280,187326,0.7477570625,8.147560953,5.6901321428,562
61930,206242,187302,0.6699903279999999,8.182256880699999,5.6757752072,563
61675,206084,187206,0.71784678,8.0470624038,5.8193445632000005,564
61423,205947,187145,0.7489534738,8.084151154099999,5.7834522241999995,565
61240,205847,187123,0.6927221427000001,8.0434731699,5.745167062599999,566
61159,205738,187070,0.6723831506,8.0303126456,5.7379885948,567
61142,205723,187075,0.6580262149999999,8.0470624038,5.682953675,568
61141,205710,187010,0.7154539574000001,8.0829547428,5.9641103305,569
61190,205733,187069,0.7980063370999999,8.13559684,5.682953675,570
61221,205771,187082,0.7680960546,8.1140614366,5.8085768615,571
61261,205760,187070,0.6460621019999999,8.2037922841,5.7643096434,572
61241,205769,187084,0.6999006105000001,8.0195449439,5.8325050875,573
61230,205795,187109,0.7046862557000001,8.075776275,5.766702466,574
61354,205805,187097,0.7369893608,7.9956167179,5.7834522241999995,575
61369,205882,187107,0.8075776275,8.169096356399999,5.7714881112,576
61455,205915,187099,0.6819544409999999,8.0566336942,5.7379885948,577
61514,205917,187146,0.6592226263,8.1463645417,5.8157553293,578
61585,205944,187186,0.7848458128,8.063812162,5.7858450468,579
61671,205984,187226,0.7010970218,8.0853475654,5.7834522241999995,580
61745,206041,187200,0.8195417405,8.0590265168,5.831308676200001,581
61823,206095,187245,0.8123632727,8.2325061553,5.7020962558,582
61899,206125,187252,0.693918554,8.1667035338,5.761916820800001,583
61931,206149,187239,0.7214360139,8.0805619202,5.6925249654,584
61814,206061,187245,0.6185446421,8.0590265168,5.802594804999999,585
61507,205933,187151,0.7621139981,8.1487573643,5.7930235146,586
61177,205809,187126,0.6532405698,8.1391860739,5.682953675,587
61157,205714,187028,0.8183453291999999,8.0949188558,5.778666579,588
61043,205689,187052,0.6065805291,8.0925260332,5.7571311756,589
61102,205685,187099,0.7501498851,8.1391860739,5.776273756399999,590
61188,205688,187074,0.6460621019999999,8.2097743406,5.7858450468,591
61201,205714,187068,0.7154539574000001,8.075776275,5.7020962558,592
61254,205717,187093,0.6987041992,8.0063844196,5.8995041203,593
61276,205729,187068,0.59820565,8.0697942185,5.9018969429000006,594
61277,205760,187125,0.6544369810999999,8.0350982908,5.8253266197,595
61337,205784,187083,0.6448656907,8.0422767586,5.790630692000001,596
61355,205765,187165,0.6723831506,8.0985080897,5.7008998445,597
61352,205817,187176,0.6843472636,8.0901332106,5.8325050875,598
61480,205872,187162,0.59820565,8.0733834524,5.8540404909,599
61544,205911,187203,0.7118647235000001,8.1499537756,5.7978091598,600
61658,205952,187215,0.6340979889999999,8.0063844196,5.74277424,601
61685,205973,187197,0.6616154488999999,8.0303126456,5.790630692000001,602
61759,206014,187233,0.59820565,8.1224363157,5.9569318627,603
61829,206047,187280,0.6867400861999999,8.123632727,5.8408799666,604
61874,206057,187257,0.7381857721,8.1403824852,5.7690952886,605
61700,205977,187216,0.6305087550999999,8.1080793801,5.860022547400001,606
61425,205863,187120,0.5599204884,8.0350982908,5.8803615395,607
61216,205760,187060,0.6125625856,8.087740388,5.7978091598,608
61098,205669,187096,0.5958128274,8.0721870411,5.8337014988,609
61097,205669,187042,0.6364908116,8.1978102276,5.7643096434,610
61085,205640,187049,0.7046862557000001,8.0410803473,5.885147184699999,611
61156,205642,187093,0.6340979889999999,8.099704501,5.7714881112,612
61194,205726,187098,0.6604190376,8.2205420423,5.812166095399999,613
61241,205748,187118,0.6293123438,8.1308111948,5.730810127,614
61258,205779,187131,0.7334001269,8.0685978072,5.9377892819,615
61208,205765,187116,0.6556333924,8.129614783500001,5.858826136099999,616
61305,205789,187150,0.6867400861999999,8.1966138163,5.8360943214,617
61352,205824,187186,0.6747759731999999,8.0219377665,5.7882378694,618
61407,205881,187167,0.6388836341999999,8.0386875247,5.7810594016,619
61483,205918,187191,0.6317051664,8.0685978072,5.812166095399999,620
61541,205999,187233,0.6448656907,7.8951181687,5.8241302084,621
61617,206013,187267,0.6209374647,8.129614783500001,5.831308676200001,622
61722,206004,187272,0.6963113766000001,8.0985080897,5.665007505499999,623
61762,206045,187252,0.7106683122,8.1571322434,6.0167524277,624
61817,206107,187288,0.6843472636,8.249255913499999,5.8049876276,625
61781,206104,187246,0.6496513358999999,8.0685978072,5.7463634739,626
61541,205973,187207,0.6652046827999999,7.9369925642,5.888736418600001,627
61259,205870,187155,0.7812565789,8.051848049,5.9593246853,628
61074,205716,187102,0.6963113766000001,8.0973116784,5.74277424,629
61014,205631,187028,0.7154539574000001,8.070990629799999,5.790630692000001,630
60981,205610,187032,0.5946164161,8.1344004287,5.7463634739,631
60922,205602,187036,0.7310073043,8.1810604694,5.8169517405999995,632
60966,205636,187054,0.7166503687,8.0901332106,5.8779687169,633
61146,205670,187041,0.7812565789,8.182256880699999,5.7044890784,634
61149,205652,187097,0.6257231099,8.0386875247,5.7846486355,635
61167,205664,187071,0.7812565789,8.2109707519,5.8229337971,636
61201,205679,187070,0.7226324252,8.1140614366,5.7882378694,637
61236,205713,187034,0.6771687957999999,8.1320076061,5.7690952886,638
61286,205735,187100,0.7262216591,8.070990629799999,5.7930235146,639
61348,205745,187107,0.7956135145,8.2444702683,5.7798629903,640
61414,205781,187105,0.6843472636,8.0590265168,5.7332029496,641
61508,205865,187145,0.7621139981,8.1571322434,5.7858450468,642
61591,205875,187176,0.8662017812,8.0889367993,5.766702466,643
61661,205987,187203,0.7609175868,8.0470624038,5.7690952886,644
61747,206006,187175,0.7489534738,8.0805619202,5.844469200500001,645
61855,205991,187212,0.7788637562999999,8.1200434931,5.682953675,646
61791,206017,187221,0.7788637562999999,8.0123664761,5.6757752072,647
61564,205891,187162,0.8961120637,8.0327054682,5.812166095399999,648
61248,205744,187037,0.6628118601999999,8.1344004287,5.7714881112,649
61084,205600,186999,0.777667345,8.1870425259,5.761916820800001,650
60982,205538,186984,0.7357929495000001,8.1009009123,5.747559885199999,651
60961,205496,186983,0.6951149653,8.0973116784,5.858826136099999,652
60984,205510,186974,0.8063812161999999,8.115257847899999,5.7966127485,653
61036,205488,186945,0.753739119,8.1631142999,5.790630692000001,654
61093,205581,186974,0.6903293201,8.123632727,5.7116675462,655
61139,205582,187012,0.8219345630999999,8.0901332106,5.74277424,656
61158,205606,186988,0.7453642399,8.1535430095,5.766702466,657
61190,205571,187000,0.6652046827999999,8.0685978072,5.778666579,658
61253,205603,186998,0.729810893,8.0255270004,5.7212388366,659
61218,205622,187042,0.7082754896000001,8.1068829688,5.789434280699999,660
61344,205648,187076,0.8147560952999999,8.1427753078,5.8660046039,661
61425,205718,187098,0.7070790783,8.0350982908,5.8899328299,662
61509,205747,187104,0.6747759731999999,8.2013994615,5.8109696841,663
61587,205861,187126,0.7262216591,8.0853475654,5.790630692000001,664
61665,205871,187142,0.6496513358999999,8.0674013959,5.6674003281,665
61744,205885,187160,0.8147560952999999,8.0937224445,5.8097732728,666
61809,205905,187179,0.7322037156,8.147560953,5.7032926670999995,667
61792,205950,187174,0.7154539574000001,8.183453292,5.6398828682,668
61559,205837,187077,0.6795616184,8.0901332106,5.730810127,669
61305,205654,187033,0.5718846014,7.9932238953,5.8899328299,670
61138,205556,187007,0.622133876,8.099704501,5.806184038900001,671
61027,205470,187005,0.7740781111,8.1726855903,5.7810594016,672
61020,205447,186987,0.8291130308999999,8.0769726863,5.7260244818,673
61057,205460,186921,0.6999006105000001,8.1571322434,5.789434280699999,674
61117,205490,186977,0.729810893,8.0805619202,5.778666579,675
61174,205574,187014,0.7872386353999999,8.1188470818,5.6913285541,676
61223,205590,187049,0.5958128274,8.0374911134,5.806184038900001,677
61252,205601,187015,0.7322037156,7.9944203065999995,5.8133625067,678
61319,205640,187036,0.7513462964000001,8.075776275,5.7595239982,679
61310,205634,187060,0.8243273857,8.0147592987,5.7284173044,680
61376,205711,187081,0.6460621019999999,8.0805619202,5.8229337971,681
61435,205724,187110,0.7130611348,8.155935832099999,5.7930235146,682
61523,205757,187112,0.7106683122,8.1631142999,5.7571311756,683
61595,205807,187161,0.7130611348,8.070990629799999,5.6865429089,684
61680,205862,187202,0.777667345,8.1140614366,5.8301122648999995,685
61759,205891,187156,0.6472585133,8.0004023631,5.7188460139999995,686
61835,205880,187177,0.6819544409999999,8.169096356399999,5.9449677497,687
61901,205973,187232,0.6580262149999999,8.129614783500001,5.7236316592000005,688
61864,205943,187191,0.7405785947,7.9525459111,5.766702466,689
61613,205805,187123,0.5730810127,8.099704501,5.8396835553,690
61372,205681,187063,0.5000999234,7.9776705484,5.8875400073,691
61205,205552,187037,0.6628118601999999,8.044669581199999,5.7499527078,692
61172,205557,187068,0.6652046827999999,8.0590265168,5.716453191399999,693
61165,205548,187009,0.6532405698,8.049455226400001,5.7236316592000005,694
61203,205559,187010,0.59820565,8.129614783500001,5.7942199259,695
61268,205568,187038,0.5730810127,8.0650085733,5.8420763779,696
61320,205631,187027,0.6472585133,8.0961152671,5.8337014988,697
61358,205642,187048,0.7944171031999999,8.0362947021,5.9114682333,698
61366,205620,187071,0.6831508522999999,8.0805619202,5.8169517405999995,699
61393,205629,187085,0.6867400861999999,8.1583286547,5.8456656118,700
61426,205691,187119,0.6556333924,8.01595571,5.8097732728,701
61482,205694,187127,0.6771687957999999,8.0853475654,5.858826136099999,702
61548,205754,187157,0.6699903279999999,8.0554372829,5.8073804502,703
61614,205802,187157,0.5527420206,8.1726855903,5.802594804999999,704
61696,205859,187181,0.7441678286,8.0913296219,5.8995041203,705
61750,205873,187150,0.6149554081999999,7.8676007087999995,5.670989562,706
61833,205918,187203,0.6568298037,8.1750784129,5.874379483,707
61895,205986,187254,0.6209374647,8.147560953,5.7631132321,708
61835,205932,187223,0.8027919822999999,8.169096356399999,5.8540404909,709
61590,205842,187179,0.7106683122,8.0901332106,5.8408799666,710
61346,205673,187047,0.6604190376,8.0075808309,5.8528440796,711
61184,205569,187056,0.5898307709,8.0829547428,5.7403814174,712
61154,205561,187048,0.6903293201,8.0147592987,5.710471134900001,713
61156,205528,187009,0.7250252478,8.0829547428,5.7499527078,714
61140,205535,186988,0.7310073043,8.0674013959,5.8145589179999995,715
61195,205548,187001,0.7597211755,8.1188470818,5.8013983936999995,716
61231,205559,186981,0.7692924659,8.0566336942,5.8325050875,717
61263,205605,187012,0.6424728680999999,8.0063844196,5.8002019824,718
61289,205582,187021,0.6652046827999999,8.1260255496,5.651846981199999,719
61304,205619,187022,0.8231309743999999,8.0566336942,5.790630692000001,720
61370,205598,187051,0.8291130308999999,8.0219377665,5.7643096434,721
61427,205636,187056,0.6807580296999999,8.075776275,5.802594804999999,722
61391,205682,187062,0.7082754896000001,8.2348989779,5.7056854897,723
61538,205691,187052,0.7142575461,8.1200434931,5.7092747236,724
61611,205747,187090,0.8183453291999999,8.0111700648,5.7858450468,725
61697,205788,187108,0.8123632727,8.1583286547,5.706881900999999,726
61779,205822,187109,0.7908278692999999,8.1344004287,5.8097732728,727
61844,205837,187123,0.6951149653,8.1894353485,5.662614682899999,728
61805,205857,187112,0.6951149653,8.2420774457,5.6566326264,729
61566,205706,187086,0.6400800455,8.0721870411,5.8660046039,730
61297,205582,186989,0.6245266986,8.2002030502,5.8504512570000005,731
61127,205455,186931,0.7322037156,8.1726855903,5.7020962558,732
61032,205390,186907,0.7860422241,8.2181492197,5.8145589179999995,733
61019,205324,186863,0.8099704500999999,7.970492080600001,5.730810127,734
61034,205345,186910,0.7968099258,8.061419339399999,5.8002019824,735
61077,205351,186903,0.6771687957999999,8.1631142999,5.789434280699999,736
61025,205368,186890,0.7106683122,8.0961152671,5.8097732728,737
61163,205415,186933,0.6269195211999999,8.0901332106,5.7690952886,738
61187,205397,186919,0.7166503687,8.039883936,5.8002019824,739
61215,205427,186941,0.7441678286,8.1678999451,5.735595772199999,740
61243,205449,186910,0.7501498851,8.0422767586,5.7714881112,741
61312,205452,186938,0.7310073043,8.0542408716,5.7008998445,742
61380,205474,186969,0.8291130308999999,8.2564343813,5.778666579,743
61445,205523,186982,0.7824529901999999,8.070990629799999,5.7882378694,744
61525,205596,186999,0.7094719009,7.992027484,5.6973106106,745
61598,205638,187030,0.6065805291,7.942974620699999,5.682953675,746
61692,205661,187024,0.7573283529,8.0685978072,5.8217373858000006,747
61654,205681,187045,0.5970092387,8.3007015994,5.7499527078,748
61746,205695,187029,0.6484549246,8.0374911134,5.6733823846,749
61530,205570,187003,0.7369893608,7.980063371,5.720042425300001,750
61272,205397,186915,0.6747759731999999,8.003991596999999,5.6997034332,751
61077,205315,186868,0.6699903279999999,8.1655071225,5.7858450468,752
60994,205219,186852,0.7968099258,8.2013994615,5.8169517405999995,753
60966,205221,186846,0.7824529901999999,8.070990629799999,5.7403814174,754
60992,205225,186813,0.7345965382,8.0087772422,5.7116675462,755
61040,205247,186850,0.6987041992,8.123632727,5.6542398038,756
61097,205277,186887,0.7118647235000001,8.170292767700001,5.7439706513,757
61140,205308,186872,0.5288137946,8.0004023631,5.8253266197,758
61178,205353,186904,0.6675975054,8.0901332106,5.8037912163000005,759
61195,205340,186849,0.7381857721,8.1032937349,5.6997034332,760
61216,205368,186939,0.6963113766000001,8.1487573643,5.6614182716,761
61266,205437,186945,0.729810893,7.9992059518000005,5.754738353,762
61354,205426,186921,0.6807580296999999,8.0075808309,5.7690952886,763
61428,205500,187021,0.7369893608,8.2420774457,5.6674003281,764
61515,205544,187007,0.5790630692000001,7.940581798099999,5.7116675462,765
61584,205572,187056,0.7034898444000001,8.0111700648,5.776273756399999,766
61660,205614,187055,0.705882667,8.252845147399999,5.8779687169,767
61757,205648,187070,0.6867400861999999,8.2013994615,5.776273756399999,768
61725,205664,187074,0.6005984726,7.984849016199999,5.7367921835,769
61507,205540,187008,0.6077769404,8.1487573643,5.8516476683,770
61261,205399,186949,0.729810893,8.0925260332,5.8995041203,771
61081,205314,186897,0.7357929495000001,7.970492080600001,5.790630692000001,772
61017,205234,186841,0.6699903279999999,7.9884382501,5.778666579,773
61010,205225,186864,0.6293123438,8.1092757914,5.8145589179999995,774
61053,205228,186845,0.610169763,8.1918281711,5.730810127,775
61093,205246,186897,0.6843472636,8.003991596999999,5.7798629903,776
61148,205293,186905,0.8063812161999999,8.1810604694,5.7930235146,777
61223,205301,186918,0.6532405698,8.0135628874,5.9018969429000006,778
61198,205310,186893,0.574277424,7.9094751043,5.8169517405999995,779
61228,205327,186940,0.5659025448999999,8.1511501869,5.8145589179999995,780
61207,205330,186942,0.6963113766000001,8.1032937349,5.776273756399999,781
61318,205373,186962,0.6125625856,8.039883936,5.812166095399999,782
61388,205400,186970,0.71784678,8.0602229281,5.7690952886,783
61452,205431,186983,0.5563312545,8.0793655089,5.7116675462,784
61524,205518,187012,0.7429714173,8.0781690976,5.9353964593,785
61593,205492,187019,0.538385085,7.968099258,5.8013983936999995,786
61675,205540,187032,0.7238288365000001,8.1667035338,5.8408799666,787
61725,205599,187043,0.5970092387,8.0231341778,5.7332029496,788
61608,205520,187041,0.6771687957999999,7.9657064354,5.8193445632000005,789
61361,205380,186951,0.6640082715,8.0937224445,5.9114682333,790
61142,205284,186900,0.7633104094,7.844868894099999,5.665007505499999,791
61037,205197,186883,0.5335994398,8.099704501,5.778666579,792
60995,205178,186860,0.6412764568,7.8592258297,5.7523455304,793
61079,205209,186842,0.5910271822000001,8.1272219609,5.790630692000001,794
61078,205215,186882,0.5886343596,8.1930245824,5.8971112976999995,795
61151,205252,186913,0.6197410534,8.1080793801,5.776273756399999,796
61171,205290,186929,0.7202396026000001,8.017152121299999,5.8002019824,797
61193,205299,186915,0.5766702466,8.1140614366,5.8528440796,798
61222,205269,186887,0.6963113766000001,8.1056865575,5.778666579,799
61259,205298,186904,0.6580262149999999,8.1056865575,5.730810127,800
61313,205341,186931,0.6556333924,8.102097323599999,5.790630692000001,801
61379,205402,186930,0.71784678,8.0542408716,5.6865429089,802
61451,205430,187000,0.6604190376,8.116454259200001,5.8971112976999995,803
61502,205487,187012,0.6460621019999999,8.1583286547,5.8372907327,804
61620,205513,186996,0.6472585133,7.9836526049,5.7535419417,805
61694,205532,187030,0.71784678,8.2133635745,5.8875400073,806
61778,205577,187047,0.7357929495000001,8.159525066,5.7535419417,807
61748,205551,186991,0.7118647235000001,8.070990629799999,5.694917788000001,808
61524,205408,186983,0.6759723845,8.0925260332,5.8109696841,809
61261,205260,186887,0.7118647235000001,7.998009540499999,5.7595239982,810
61083,205146,186815,0.5826523031,7.9896346614,5.730810127,811
61004,205087,186770,0.7597211755,8.0925260332,5.6805608524,812
60985,205064,186760,0.6317051664,8.0183485326,5.7978091598,813
61002,205006,186756,0.6675975054,8.1188470818,5.7188460139999995,814
61063,205030,186747,0.7549355303,8.0901332106,5.747559885199999,815
61088,205075,186784,0.6412764568,8.1332040174,5.6805608524,816
61127,205076,186791,0.6604190376,8.1499537756,5.7152567801,817
61161,205073,186788,0.5539384319,8.160721477300001,5.754738353,818
61196,205097,186781,0.7334001269,8.0339018795,5.8097732728,819
61255,205133,186778,0.6388836341999999,8.0566336942,5.7379885948,820
61319,205180,186810,0.7645068207,8.2863446638,5.735595772199999,821
61380,205210,186873,0.8362914987,8.236095389199999,5.7714881112,822
61470,205250,186856,0.6448656907,8.1320076061,5.7188460139999995,823
61552,205308,186963,0.7884350467,7.932206919,5.8085768615,824
61635,205325,186927,0.6951149653,8.173882001600001,5.6267223439,825
61709,205370,186932,0.8961120637,8.0542408716,5.838487144,826
61775,205403,186976,0.7704888772,8.1044901462,5.7224352479,827
61722,205405,186983,0.6664010940999999,8.0590265168,5.7044890784,828
61500,205283,186902,0.6448656907,8.170292767700001,5.7978091598,829
61242,205104,186810,0.9188438784,8.0015987744,5.7882378694,830
61088,205032,186812,0.705882667,8.044669581199999,5.7882378694,831
61022,204966,186763,0.7381857721,8.0853475654,5.766702466,832
60995,204950,186719,0.7166503687,8.147560953,5.766702466,833
61014,204956,186731,0.789631458,8.0925260332,5.7643096434,834
61064,204998,186757,0.7441678286,8.075776275,5.7595239982,835
61113,205020,186736,0.8003991597,8.170292767700001,5.7714881112,836
61153,205018,186790,0.7968099258,8.1044901462,5.8205409745,837
61175,205043,186746,0.7154539574000001,8.0650085733,5.7990055710999995,838
61207,205048,186779,0.6508477471999999,8.099704501,5.777470167700001,839
61254,205097,186798,0.7668996433,8.0566336942,5.8396835553,840
61332,205101,186859,0.7202396026000001,8.1846497033,5.7463634739,841
61402,205193,186889,0.8530412569000001,8.0195449439,5.6614182716,842
61490,205259,186920,0.7202396026000001,8.0973116784,5.6721859733,843
61569,205304,186933,0.6149554081999999,8.0949188558,5.735595772199999,844
61641,205363,186941,0.9056833541,8.1200434931,5.7690952886,845
61709,205393,186967,0.6508477471999999,7.9932238953,5.7499527078,846
61790,205412,187034,0.6843472636,8.1068829688,5.843272789199999,847
61854,205478,187007,0.6113661743,8.1463645417,5.7236316592000005,848
61687,205380,186986,0.7357929495000001,8.0506516377,5.8229337971,849
61428,205240,186929,0.5814558918,8.1511501869,5.8253266197,850
61219,205139,186844,0.7238288365000001,8.1391860739,5.777470167700001,851
61132,205057,186785,0.6412764568,8.2025958728,5.7882378694,852
61114,204999,186769,0.7310073043,7.9645100241,5.7978091598,853
61120,205045,186793,0.6436692794,8.173882001600001,5.9114682333,854
61168,205083,186777,0.6077769404,8.1415788965,5.8073804502,855
61222,205132,186831,0.6388836341999999,7.9238320399,5.8540404909,856
61273,205134,186818,0.6113661743,8.1080793801,5.831308676200001,857
61284,205114,186828,0.5958128274,8.1463645417,5.8504512570000005,858
61320,205101,186832,0.7812565789,7.9992059518000005,5.778666579,859
61343,205133,186860,0.586241537,8.0733834524,5.8253266197,860
61403,205182,186893,0.5228317381,7.9944203065999995,5.7918271033,861
61483,205226,186937,0.5922235935,8.0961152671,5.8456656118,862
61545,205297,186963,0.5790630692000001,8.0973116784,5.776273756399999,863
61626,205327,186952,0.7190431913,7.9106715156,5.8372907327,864
61717,205383,186957,0.6843472636,8.051848049,5.938985693199999,865
61786,205388,187010,0.6364908116,7.9740813145,5.8707902491,866
61852,205473,186995,0.4677968183,8.1009009123,5.790630692000001,867
61904,205502,187032,0.6388836341999999,8.1415788965,5.8217373858000006,868
61771,205377,186975,0.705882667,8.0350982908,5.9198431124,869
61520,205288,186916,0.6987041992,7.9968131291999995,5.8241302084,870
61302,205157,186908,0.8542376682,8.0482588151,5.732006538299999,871
61237,205106,186853,0.5946164161,8.087740388,5.843272789199999,872
61235,205103,186839,0.6257231099,8.061419339399999,5.735595772199999,873
61211,205093,186830,0.7262216591,8.0566336942,5.8504512570000005,874
61281,205126,186861,0.6317051664,8.039883936,5.8169517405999995,875
61329,205191,186889,0.6640082715,8.0183485326,5.773880933799999,876
61372,205231,186885,0.6364908116,7.9345997416,5.778666579,877
61389,205227,186926,0.574277424,8.1535430095,5.790630692000001,878
61418,205231,186899,0.6747759731999999,8.2109707519,5.8576297248,879
61461,205267,186882,0.7214360139,8.1320076061,5.761916820800001,880
61507,205273,186902,0.6580262149999999,8.049455226400001,5.8073804502,881
61581,205307,186920,0.6305087550999999,8.1403824852,5.9186467011,882
61664,205397,186962,0.8123632727,8.075776275,5.8097732728,883
61745,205401,186967,0.7226324252,8.1427753078,5.730810127,884
61810,205470,187022,0.7489534738,8.115257847899999,5.8145589179999995,885
61938,205520,187028,0.7980063370999999,8.0985080897,5.7870414581,886
61980,205540,187019,0.8291130308999999,8.294719542900001,5.886343596000001,887
61892,205550,187036,0.8099704500999999,8.0829547428,5.6075797630999995,888
61813,205472,186990,0.7884350467,8.0374911134,5.7655060547,889
61539,205323,186896,0.7633104094,8.0805619202,5.8899328299,890
61331,205137,186848,0.6652046827999999,8.160721477300001,5.694917788000001,891
61228,205123,186767,0.8027919822999999,8.0889367993,5.6697931507,892
61182,205047,186788,0.6484549246,8.0662049846,5.7212388366,893
61184,205048,186755,0.6819544409999999,8.1523465982,5.7714881112,894
61232,205025,186777,0.7788637562999999,8.1978102276,5.754738353,895
61225,205046,186798,0.6819544409999999,8.2133635745,5.6769716185,896
61297,205089,186754,0.7429714173,8.1631142999,5.8013983936999995,897
61331,205137,186814,0.6747759731999999,7.9908310727,5.7846486355,898
61361,205133,186785,0.6544369810999999,8.075776275,5.693721376699999,899
61414,205109,186822,0.6819544409999999,8.0901332106,5.6697931507,900
61471,205183,186843,0.897308475,8.0865439767,5.7403814174,901
61529,205216,186837,0.6987041992,8.0733834524,5.8085768615,902
61612,205228,186884,0.6987041992,8.2037922841,5.7415778287,903
61681,205327,186917,0.7848458128,8.2229348649,5.8253266197,904
61756,205366,186926,0.7764709337,8.057830105499999,5.6015977066,905
61813,205424,186943,0.6616154488999999,8.075776275,5.802594804999999,906
61894,205458,186986,0.7728816998,8.0985080897,5.7702916999,907
61976,205525,187032,0.6675975054,8.1200434931,5.8073804502,908
61981,205541,186995,0.6352944003,8.0099736535,5.7188460139999995,909
61766,205424,186915,0.7190431913,8.1439717191,5.7690952886,910
61495,205240,186909,0.7525427077,8.0147592987,5.7403814174,911
61305,205142,186835,0.6233302873,8.0566336942,5.8002019824,912
61215,205071,186775,0.705882667,8.1200434931,5.7810594016,913
61179,205036,186741,0.586241537,8.0973116784,5.7571311756,914
61189,205057,186757,0.8195417405,8.0901332106,5.8085768615,915
61238,205080,186773,0.6412764568,8.0793655089,5.6877393201999995,916
61294,205101,186796,0.7812565789,8.075776275,5.6997034332,917
61321,205135,186800,0.8530412569000001,8.0327054682,5.7236316592000005,918
61362,205118,186831,0.8291130308999999,8.13559684,5.8085768615,919
61387,205148,186838,0.6664010940999999,8.1188470818,5.7631132321,920
61441,205166,186818,0.7908278692999999,8.1092757914,5.6973106106,921
61508,205230,186822,0.8303094421999999,7.9992059518000005,5.7140603688,922
61444,205281,186904,0.7118647235000001,8.075776275,5.747559885199999,923
61635,205336,186897,0.8195417405,7.998009540499999,5.730810127,924
61720,205425,186937,0.6532405698,8.1044901462,5.7188460139999995,925
61807,205482,186982,0.6460621019999999,8.0231341778,5.754738353,926
61881,205499,187001,0.7764709337,8.0602229281,5.8002019824,927
61958,205541,187017,0.7202396026000001,8.1009009123,5.8971112976999995,928
62029,205597,187041,0.7130611348,8.2121671632,5.7954163372,929
62046,205611,187052,0.8542376682,8.0434731699,5.7092747236,930
61884,205524,186986,0.6388836341999999,8.0817583315,5.8360943214,931
61627,205389,186918,0.6257231099,8.063812162,5.826523031,932
61398,205285,186873,0.5455635528,7.9046894591,5.8253266197,933
61297,205228,186865,0.7872386353999999,8.1678999451,5.7882378694,934
61257,205217,186851,0.6759723845,8.0458659925,5.8157553293,935
61277,205216,186832,0.6628118601999999,8.1667035338,5.873183071700001,936
61336,205271,186845,0.6388836341999999,8.0315090569,5.761916820800001,937
61378,205252,186873,0.5347958510999999,8.123632727,5.7882378694,938
61404,205284,186929,0.6149554081999999,8.0721870411,5.818148151899999,939
61423,205302,186891,0.6891329087999999,8.1415788965,5.7535419417,940
61446,205314,186909,0.7250252478,8.1056865575,5.8253266197,941
61476,205335,186937,0.5611168997,7.9345997416,5.7690952886,942
61534,205379,186955,0.5766702466,8.0697942185,5.7272208931,943
61604,205440,186982,0.6197410534,8.062615750700001,5.8516476683,944
61668,205441,186988,0.6173482308,8.0817583315,5.766702466,945
61744,205540,187008,0.6783652070999999,7.9501530885,5.8839507734,946
61821,205587,187065,0.6843472636,8.0985080897,5.8791651282,947
61901,205666,187061,0.6532405698,8.0063844196,5.735595772199999,948
61964,205674,187073,0.6795616184,8.0374911134,5.9509498062,949
62036,205704,187105,0.5958128274,8.0255270004,5.747559885199999,950
61970,205671,187078,0.7381857721,8.0470624038,5.7714881112,951
61706,205560,187013,0.6460621019999999,8.0889367993,5.886343596000001,952
61471,205435,186956,0.7345965382,8.0937224445,5.8480584344,953
61318,205330,186913,0.6364908116,8.0733834524,5.8408799666,954
61247,205335,186916,0.6388836341999999,8.1583286547,5.730810127,955
61283,205330,186929,0.6149554081999999,8.0733834524,5.7978091598,956
61305,205365,186919,0.5036891573,8.1643107112,5.8779687169,957
61358,205418,186953,0.6484549246,8.0255270004,5.7583275869,958
61432,205445,186974,0.5647061336,8.0231341778,5.7834522241999995,959
61361,205449,187003,0.6855436748999999,8.0063844196,5.8995041203,960
61401,205475,186989,0.7884350467,8.0458659925,5.7403814174,961
61483,205506,187012,0.6975077879,8.01595571,5.7798629903,962
61550,205505,187002,0.6580262149999999,8.1224363157,5.6985070219,963
61585,205552,186972,0.6508477471999999,8.1104722027,5.7595239982,964
61653,205583,187049,0.7357929495000001,8.084151154099999,5.7140603688,965
61736,205654,187039,0.5778666579,8.0542408716,5.7236316592000005,966
61800,205668,187074,0.6628118601999999,8.1655071225,5.8372907327,967
61879,205739,187106,0.7142575461,7.9956167179,5.7810594016,968
61948,205741,187073,0.6891329087999999,8.1367932513,5.8337014988,969
62000,205800,187096,0.7549355303,8.219345631,5.773880933799999,970
61996,205772,187111,0.5527420206,8.1990066389,5.7595239982,971
61739,205645,187008,0.7848458128,8.063812162,5.776273756399999,972
61449,205482,186941,0.7680960546,8.1128650253,5.8827543621,973
61266,205375,186845,0.6245266986,8.0662049846,5.8013983936999995,974
61173,205308,186911,0.7633104094,8.170292767700001,5.8097732728,975
61163,205276,186842,0.6867400861999999,8.0339018795,5.647061336,976
61178,205290,186851,0.8075776275,8.2013994615,5.827719442299999,977
61224,205305,186910,0.8051848049,8.2325061553,5.8971112976999995,978
61286,205303,186857,0.8554340795,8.0901332106,5.8217373858000006,979
61329,205297,186896,0.6556333924,8.099704501,5.7212388366,980
61390,205377,186895,0.7250252478,8.0733834524,5.7379885948,981
61383,205371,186925,0.6053841178,8.1128650253,5.754738353,982
61433,205428,186918,0.6915257314000001,8.185846114599999,5.7188460139999995,983
61491,205462,186907,0.6843472636,8.1260255496,5.666203916800001,984
61546,205484,186944,0.6915257314000001,8.185846114599999,5.747559885199999,985
61633,205535,187012,0.6532405698,8.0949188558,5.7379885948,986
61716,205614,186999,0.7250252478,8.0422767586,5.8492548457,987
61784,205614,187049,0.8841479507000001,8.1547394208,5.8552369022,988
61869,205709,187092,0.6508477471999999,8.0339018795,5.7439706513,989
61944,205755,187048,0.7477570625,8.0554372829,5.9078789994,990
62008,205783,187069,0.6831508522999999,8.2109707519,5.8073804502,991
61879,205690,187039,0.7884350467,7.9669028467,5.7571311756,992
61596,205573,186979,0.693918554,8.1224363157,5.745167062599999,993
61344,205433,186907,0.6951149653,8.2061851067,5.720042425300001,994
61200,205324,186889,0.6795616184,8.182256880699999,5.818148151899999,995
61139,205276,186851,0.6197410534,8.1260255496,5.6566326264,996
61149,205265,186844,0.729810893,8.1487573643,5.7128639575,997
61196,205266,186823,0.7429714173,8.099704501,5.8301122648999995,998
61253,205328,186851,0.7214360139,8.051848049,5.7212388366,999
61316,205360,186883,0.6305087550999999,8.099704501,5.8552369022,1000
61352,205386,186919,0.8243273857,8.1140614366,5.7702916999,1001
61389,205383,186882,0.6999006105000001,8.1906317598,5.761916820800001,1002
61418,205405,186967,0.753739119,8.2085779293,5.7379885948,1003
61469,205429,186945,0.7740781111,8.0973116784,5.7379885948,1004
61533,205505,186989,0.741775006,8.1391860739,5.7870414581,1005
61606,205506,187010,0.729810893,8.115257847899999,5.8085768615,1006
61718,205579,187030,0.7824529901999999,8.0829547428,5.8576297248,1007
61768,205619,187016,0.6867400861999999,8.0111700648,5.7332029496,1008
61838,205694,187059,0.741775006,8.1762748242,5.766702466,1009
61937,205710,187088,0.8267202082999999,8.063812162,5.831308676200001,1010
61997,205728,187113,0.6652046827999999,8.0243305891,5.7044890784,1011
62021,205778,187139,0.7513462964000001,8.1403824852,5.7822558129,1012
61836,205676,187064,0.8099704500999999,8.1032937349,5.8408799666,1013
61540,205516,186987,0.7477570625,8.061419339399999,5.826523031,1014
61332,205390,186941,0.7860422241,7.9968131291999995,5.735595772199999,1015
61228,205328,186941,0.7668996433,8.1128650253,5.7858450468,1016
61209,205310,186905,0.6723831506,8.1224363157,5.7942199259,1017
61227,205339,186929,0.7884350467,8.0853475654,5.773880933799999,1018
61301,205345,186912,0.7262216591,8.0315090569,5.8396835553,1019
61390,205388,186947,0.6245266986,8.116454259200001,5.6841500863,1020
61402,205437,186975,0.6652046827999999,8.182256880699999,5.8145589179999995,1021
61449,205422,186964,0.6077769404,8.0662049846,5.790630692000001,1022
61455,205456,186983,0.526420972,8.0733834524,5.7403814174,1023
61488,205456,187034,0.6017948839,8.0602229281,5.7858450468,1024
61543,205526,187008,0.5300102059,8.115257847899999,5.7810594016,1025
61589,205519,186966,0.6053841178,8.137989662599999,5.7834522241999995,1026
61664,205561,187025,0.6484549246,8.099704501,5.9018969429000006,1027
61733,205645,187037,0.7262216591,7.9369925642,5.7499527078,1028
61807,205645,187065,0.5623133109999999,7.9836526049,5.6733823846,1029
61887,205658,187092,0.8099704500999999,8.0674013959,5.9030933542,1030
61956,205729,187127,0.6077769404,8.0829547428,5.7690952886,1031
61950,205780,187122,0.6879364975,7.8352976037,5.6602218603,1032
61756,205663,187076,0.8662017812,7.968099258,5.7678988773,1033
61452,205514,186993,0.6675975054,8.1367932513,5.8337014988,1034
61243,205386,186960,0.7477570625,8.0805619202,5.7810594016,1035
61165,205340,186914,0.6951149653,8.1750784129,5.8169517405999995,1036
61148,205276,186890,0.6245266986,8.0805619202,5.873183071700001,1037
61175,205280,186879,0.5790630692000001,8.1511501869,5.7595239982,1038
61227,205345,186943,0.6269195211999999,8.027919823,5.8241302084,1039
61292,205387,186920,0.4989035121,8.1655071225,5.7595239982,1040
61305,205390,186954,0.6759723845,7.9764741371,5.7583275869,1041
61358,205445,186978,0.7142575461,8.01595571,5.776273756399999,1042
61366,205444,186987,0.6269195211999999,8.087740388,5.7188460139999995,1043
61412,205485,186966,0.6795616184,8.0542408716,5.7332029496,1044
61451,205463,186941,0.6317051664,8.124829138299999,5.856433313499999,1045
61517,205487,187014,0.7118647235000001,8.2133635745,5.7463634739,1046
61590,205515,187009,0.7621139981,8.147560953,5.8049876276,1047
61693,205581,187054,0.7130611348,8.1583286547,5.922235935,1048
61722,205630,187056,0.5766702466,8.0554372829,5.6614182716,1049
61749,205649,187040,0.6388836341999999,8.1188470818,5.927021580200001,1050
61893,205683,187060,0.7070790783,8.1092757914,5.7260244818,1051
61771,205660,187068,0.5898307709,8.075776275,5.6458649247,1052
61497,205502,186990,0.7513462964000001,8.1176506705,5.8013983936999995,1053
61229,205336,186921,0.6759723845,8.0925260332,5.8002019824,1054
61053,205242,186859,0.6831508522999999,8.0542408716,5.8073804502,1055
60980,205182,186819,0.6616154488999999,8.1487573643,5.7978091598,1056
60969,205144,186819,0.5886343596,7.9872418388,5.874379483,1057
61004,205124,186795,0.7262216591,8.1571322434,5.831308676200001,1058
61055,205189,186830,0.7704888772,7.984849016199999,5.7966127485,1059
61114,205202,186799,0.71784678,8.1200434931,5.7714881112,1060
61140,205240,186813,0.7525427077,8.0793655089,5.8133625067,1061
61156,205235,186872,0.7680960546,8.0111700648,5.7714881112,1062
61178,205252,186875,0.7202396026000001,8.0243305891,5.7966127485,1063
61213,205252,186871,0.6520441585,8.1212399044,5.8301122648999995,1064
61274,205322,186896,0.6269195211999999,8.249255913499999,5.7834522241999995,1065
61341,205356,186900,0.6580262149999999,8.1104722027,5.730810127,1066
61450,205400,186935,0.7728816998,8.0829547428,5.6889357315,1067
61518,205439,186930,0.7956135145,8.1930245824,5.735595772199999,1068
61597,205490,186971,0.7680960546,7.9740813145,5.6901321428,1069
61665,205502,186965,0.765703232,8.2229348649,5.8049876276,1070
61725,205587,187025,0.7597211755,8.1619178886,5.8504512570000005,1071
61617,205540,186982,0.693918554,8.1188470818,5.7595239982,1072
61328,205353,186918,0.8147560952999999,7.968099258,5.7499527078,1073
61075,205254,186856,0.7369893608,8.0015987744,5.6697931507,1074
60921,205122,186761,0.6951149653,7.9824561936,5.74277424,1075
60914,205058,186757,0.7250252478,8.1188470818,5.745167062599999,1076
60851,205028,186751,0.6604190376,8.1332040174,5.8229337971,1077
60890,205037,186764,0.6580262149999999,8.1571322434,5.8707902491,1078
60938,205070,186793,0.6149554081999999,8.128418372199999,5.6327044004,1079
60986,205117,186788,0.7154539574000001,8.039883936,5.7690952886,1080
61040,205119,186859,0.7250252478,8.1774712355,5.8636117813,1081
61047,205114,186795,0.6795616184,8.0015987744,5.7583275869,1082
61079,205145,186824,0.6137589969,7.9190463947000005,5.7690952886,1083
61150,205153,186850,0.6987041992,8.1990066389,5.6315079891,1084
61205,205199,186848,0.7369893608,8.1344004287,5.7690952886,1085
61298,205252,186858,0.6891329087999999,8.1463645417,5.8480584344,1086
61371,205300,186908,0.6580262149999999,8.147560953,5.7188460139999995,1087
61459,205333,186929,0.6831508522999999,8.1200434931,5.9030933542,1088
61534,205412,186918,0.6879364975,8.0913296219,5.6805608524,1089
61621,205407,186960,0.7453642399,8.099704501,5.900700531599999,1090
61678,205477,186997,0.6640082715,8.1894353485,5.7260244818,1091
61569,205445,186972,0.7190431913,8.160721477300001,5.710471134900001,1092
61281,205273,186885,0.6687939167,8.1032937349,5.7655060547,1093
61025,205130,186804,0.6269195211999999,8.1367932513,5.8420763779,1094
60882,205030,186788,0.6592226263,8.1188470818,5.74277424,1095
60844,204998,186723,0.7070790783,8.155935832099999,5.706881900999999,1096
60840,204969,186739,0.7692924659,8.123632727,5.844469200500001,1097
60901,205032,186751,0.7716852885,8.1332040174,5.670989562,1098
60939,205038,186790,0.7489534738,8.185846114599999,5.7379885948,1099
61043,205089,186800,0.6364908116,8.1367932513,5.7140603688,1100
61057,205122,186827,0.6053841178,8.0662049846,5.9030933542,1101
61092,205093,186800,0.6412764568,8.1750784129,5.6733823846,1102
61129,205119,186840,0.753739119,8.0937224445,5.790630692000001,1103
61175,205143,186887,0.6412764568,8.0781690976,5.5884371823,1104
61238,205204,186895,0.7166503687,8.1224363157,5.6997034332,1105
61320,205258,186931,0.6293123438,8.169096356399999,5.7463634739,1106
61391,205298,186921,0.8243273857,8.051848049,5.651846981199999,1107
61462,205329,186953,0.5635097223,8.155935832099999,5.8002019824,1108
61555,205386,186976,0.7082754896000001,8.0590265168,5.8037912163000005,1109
61626,205390,186970,0.6604190376,8.271987728200001,5.802594804999999,1110
61686,205439,187025,0.538385085,8.0913296219,5.766702466,1111
61538,205349,187007,0.7322037156,8.0817583315,5.7978091598,1112
61238,205220,186914,0.6496513358999999,8.1643107112,5.8899328299,1113
60929,205105,186848,0.7106683122,8.0889367993,5.7080783123000005,1114
60916,204992,186811,0.6185446421,7.9633136127999995,5.7571311756,1115
60890,204982,186778,0.7286144817,7.8257263133,5.730810127,1116
60905,205005,186735,0.6747759731999999,8.1798640581,5.7834522241999995,1117
60973,205032,186820,0.7453642399,8.1344004287,5.735595772199999,1118
61041,205043,186785,0.6795616184,8.1320076061,5.7044890784,1119
61092,205077,186873,0.5814558918,7.984849016199999,5.7930235146,1120
61122,205095,186844,0.5946164161,8.0506516377,5.812166095399999,1121
61160,205110,186857,0.7501498851,7.9716884919,5.748756296500001,1122
61191,205133,186873,0.5599204884,8.147560953,5.7882378694,1123
61307,205183,186903,0.5850451257,8.115257847899999,5.8002019824,1124
61321,205187,186894,0.610169763,7.957331556300001,5.74277424,1125
61398,205257,186921,0.6173482308,8.1009009123,5.7631132321,1126
61478,205294,186964,0.7070790783,8.0985080897,5.7559347643,1127
61571,205318,186978,0.7082754896000001,8.0327054682,5.7403814174,1128
61626,205373,187016,0.6795616184,8.279166196,5.9162538785,1129
61714,205438,187058,0.5623133109999999,8.0303126456,5.6745787959,1130
61715,205444,187030,0.6364908116,8.1009009123,5.8396835553,1131
61493,205323,186973,0.7262216591,8.027919823,5.7643096434,1132
61244,205203,186922,0.6819544409999999,8.0458659925,5.812166095399999,1133
61033,205057,186879,0.7585247642,8.1487573643,5.7882378694,1134
60964,205056,186823,0.7357929495000001,8.049455226400001,5.9090754107,1135
60939,205020,186842,0.5934200048,8.1726855903,5.790630692000001,1136
60989,205007,186842,0.6233302873,8.1176506705,5.856433313499999,1137
61046,205057,186799,0.5300102059,8.0937224445,5.856433313499999,1138
61085,205069,186837,0.6329015777,8.116454259200001,5.7571311756,1139
61136,205065,186890,0.5419743189,8.1332040174,5.766702466,1140
61162,205096,186843,0.8662017812,8.1308111948,5.7882378694,1141
61189,205142,186868,0.7501498851,8.1798640581,5.730810127,1142
61230,205151,186865,0.6735795618999999,8.0111700648,5.6997034332,1143
61307,205197,186883,0.7130611348,8.1439717191,5.754738353,1144
61373,205226,186924,0.6735795618999999,8.185846114599999,5.8468620231,1145
61461,205295,186937,0.7130611348,8.182256880699999,5.8301122648999995,1146
61535,205284,186934,0.7836494015,8.124829138299999,5.818148151899999,1147
61682,205352,186982,0.6305087550999999,8.0087772422,5.693721376699999,1148
61717,205348,186968,0.6963113766000001,8.1882389372,5.7882378694,1149
61747,205414,187001,0.5790630692000001,8.1009009123,5.659025449,1150
61632,205349,186997,0.6963113766000001,8.0386875247,5.7678988773,1151
61355,205207,186909,0.7728816998,8.0123664761,5.843272789199999,1152
61087,205061,186842,0.7226324252,8.0350982908,5.74277424,1153
60963,204927,186777,0.6149554081999999,8.1810604694,5.7284173044,1154
60911,204906,186768,0.5371886737,7.957331556300001,5.693721376699999,1155
60901,204883,186715,0.7070790783,8.1308111948,5.754738353,1156
60935,204853,186742,0.7082754896000001,8.0542408716,5.7379885948,1157
60995,204957,186747,0.6376872229,8.061419339399999,5.636293634299999,1158
61051,204940,186812,0.6436692794,8.1104722027,5.8875400073,1159
61081,204975,186793,0.6616154488999999,8.0231341778,5.694917788000001,1160
61114,204995,186791,0.6975077879,8.1870425259,5.844469200500001,1161
61163,204992,186808,0.6927221427000001,8.0721870411,5.86241537,1162
61239,205027,186831,0.7860422241,7.9453674433,5.8205409745,1163
61290,205051,186834,0.6580262149999999,8.1403824852,5.760720409499999,1164
61314,205094,186861,0.6819544409999999,8.0590265168,5.8348979101000005,1165
61470,205138,186894,0.7573283529,7.9944203065999995,5.6685967394,1166
61513,205237,186934,0.6963113766000001,8.0650085733,5.860022547400001,1167
61665,205247,186925,0.8913264185,8.0697942185,5.9198431124,1168
61685,205277,186960,0.6735795618999999,8.1571322434,5.7643096434,1169
61674,205298,186962,0.6388836341999999,8.2085779293,5.7499527078,1170
61490,205193,186926,0.7429714173,8.1188470818,5.7942199259,1171
61224,205016,186845,0.6915257314000001,8.0207413552,5.8289158536,1172
61033,204893,186787,0.6843472636,8.1092757914,5.7379885948,1173
60952,204835,186707,0.6735795618999999,8.1726855903,5.7834522241999995,1174
60942,204818,186705,0.7429714173,8.1320076061,5.6638110942,1175
60972,204803,186705,0.6927221427000001,8.231309744,5.766702466,1176
61020,204798,186751,0.7082754896000001,8.137989662599999,5.8002019824,1177
61079,204865,186711,0.693918554,7.969295669299999,5.735595772199999,1178
61131,204868,186741,0.6963113766000001,8.2468630909,5.7499527078,1179
61149,204874,186759,0.729810893,8.0901332106,5.812166095399999,1180
61196,204869,186778,0.7465606512,8.1140614366,5.773880933799999,1181
61244,204933,186787,0.7357929495000001,8.0853475654,5.8253266197,1182
61315,205000,186830,0.6963113766000001,8.170292767700001,5.7260244818,1183
61404,205036,186848,0.6891329087999999,8.0949188558,5.7930235146,1184
61489,205100,186920,0.741775006,8.061419339399999,5.7631132321,1185
61575,205158,186946,0.6592226263,8.0793655089,5.678168029799999,1186
61669,205191,186957,0.8506484343,8.1870425259,5.8480584344,1187
61747,205267,186966,0.7956135145,8.0350982908,5.827719442299999,1188
61819,205271,186987,0.5192425042,8.137989662599999,5.8097732728,1189
61855,205341,187027,0.5802594805,8.111668614,5.7212388366,1190
61705,205242,186938,0.6137589969,8.1056865575,5.7882378694,1191
61444,205074,186890,0.6340979889999999,8.0315090569,5.8408799666,1192
61237,204928,186879,0.7549355303,8.1212399044,5.7092747236,1193
61154,204876,186761,0.8315058535,8.2037922841,5.8013983936999995,1194
61118,204864,186773,0.5730810127,8.2037922841,5.7499527078,1195
61145,204867,186776,0.6867400861999999,8.13559684,5.754738353,1196
61189,204901,186775,0.6293123438,8.057830105499999,5.761916820800001,1197
61244,204926,186804,0.6843472636,8.1080793801,5.8157553293,1198
61297,204955,186833,0.59820565,8.1583286547,5.761916820800001,1199
61314,204948,186799,0.6556333924,8.0087772422,5.812166095399999,1200
61336,204973,186846,0.7226324252,8.0662049846,5.8995041203,1201
61393,205005,186858,0.6233302873,8.005188008300001,5.8612189587,1202
61439,205046,186862,0.5587240770999999,8.1080793801,5.7882378694,1203
61507,205077,186904,0.4989035121,8.0339018795,5.7128639575,1204
61579,205137,186924,0.7022934331,7.984849016199999,5.7834522241999995,1205
61680,205172,186922,0.6400800455,8.0650085733,5.7188460139999995,1206
61738,205224,186949,0.7310073043,7.9417782094,5.766702466,1207
61813,205246,186996,0.6257231099,8.0793655089,5.8971112976999995,1208
61874,205316,187008,0.5814558918,7.9740813145,5.748756296500001,1209
61934,205295,187026,0.5994020613,8.062615750700001,5.6219366987,1210
61768,205230,186938,0.7812565789,7.9992059518000005,5.827719442299999,1211
61522,205102,186881,0.5754738353000001,8.0674013959,5.8911292412,1212
61337,204961,186865,0.4642075844,8.0135628874,5.745167062599999,1213
61245,204876,186822,0.6209374647,8.0925260332,5.8648081926,1214
61235,204869,186830,0.7010970218,8.0207413552,5.7834522241999995,1215
61262,204886,186784,0.5910271822000001,8.044669581199999,5.8169517405999995,1216
61363,204969,186859,0.6604190376,8.0183485326,5.8528440796,1217
61368,204969,186811,0.5455635528,7.9824561936,5.831308676200001,1218
61392,204960,186825,0.7477570625,8.1128650253,5.7332029496,1219
61439,205058,186840,0.7513462964000001,8.01595571,5.8049876276,1220
61481,205055,186835,0.6711867393,8.1212399044,5.694917788000001,1221
61517,205071,186891,0.7489534738,8.1427753078,5.8169517405999995,1222
61604,205120,186875,0.7609175868,8.0542408716,5.7236316592000005,1223
61643,205136,186916,0.6364908116,7.9932238953,5.7116675462,1224
61728,205189,186956,0.8255237969999999,8.1499537756,5.8169517405999995,1225
61786,205206,186930,0.6891329087999999,8.0925260332,5.7511491191,1226
61860,205261,186964,0.6137589969,8.0733834524,5.7595239982,1227
61939,205306,186994,0.7621139981,8.0339018795,5.8827543621,1228
62014,205351,187003,0.6855436748999999,8.1978102276,5.7523455304,1229
61984,205339,186999,0.71784678,8.1092757914,5.7212388366,1230
61779,205193,186922,0.7764709337,8.0195449439,5.8540404909,1231
61532,205062,186842,0.7752745223999999,8.0973116784,5.923432346299999,1232
61360,204908,186798,0.6508477471999999,8.2097743406,5.745167062599999,1233
61281,204836,186754,0.8003991597,8.147560953,5.778666579,1234
61247,204814,186724,0.7381857721,8.0470624038,5.6877393201999995,1235
61259,204820,186756,0.8087740388,8.1451681304,5.6997034332,1236
61297,204878,186728,0.6520441585,8.1332040174,5.8360943214,1237
61349,204903,186705,0.7680960546,8.159525066,5.7116675462,1238
61383,204888,186763,0.7908278692999999,8.0685978072,5.694917788000001,1239
61410,204921,186745,0.6867400861999999,8.1332040174,5.8169517405999995,1240
61440,204938,186807,0.6592226263,8.1332040174,5.7954163372,1241
61500,204941,186778,0.7549355303,8.0566336942,5.760720409499999,1242
61552,205009,186810,0.7585247642,8.039883936,5.7212388366,1243
61636,205033,186875,0.6352944003,8.0542408716,5.773880933799999,1244
61699,205154,186891,0.7322037156,8.0685978072,5.730810127,1245
61788,205181,186891,0.6580262149999999,8.005188008300001,5.649454158599999,1246
61868,205264,186915,0.5898307709,8.062615750700001,5.8097732728,1247
61950,205271,186945,0.6987041992,7.9357961529,5.745167062599999,1248
62018,205293,186965,0.7812565789,8.1056865575,5.776273756399999,1249
62098,205369,186973,0.6987041992,8.1451681304,5.7750773451,1250
62035,205370,186989,0.7202396026000001,8.1272219609,5.706881900999999,1251
61869,205234,186927,0.6652046827999999,8.01595571,5.7918271033,1252
61600,205051,186832,0.6771687957999999,8.0350982908,5.8049876276,1253
61415,204963,186784,0.705882667,8.1583286547,5.7092747236,1254
61312,204875,186791,0.6819544409999999,8.1798640581,5.7810594016,1255
61269,204903,186753,0.71784678,8.1344004287,5.7523455304,1256
61289,204875,186686,0.8638089586000001,8.01595571,5.8372907327,1257
61317,204933,186729,0.7034898444000001,8.137989662599999,5.7643096434,1258
61370,204951,186800,0.71784678,8.0590265168,5.790630692000001,1259
61390,204957,186773,0.7477570625,8.099704501,5.8492548457,1260
61401,204960,186781,0.729810893,8.170292767700001,5.7978091598,1261
61473,205018,186798,0.7262216591,8.1009009123,5.7212388366,1262
61499,205009,186834,0.6472585133,8.0853475654,5.8169517405999995,1263
61549,205077,186833,0.6352944003,8.2133635745,5.716453191399999,1264
61621,205120,186866,0.7214360139,8.1140614366,5.6566326264,1265
61687,205164,186902,0.6747759731999999,8.1272219609,5.754738353,1266
61768,205186,186934,0.6352944003,8.1391860739,5.8540404909,1267
61846,205310,186937,0.6364908116,8.1272219609,5.8145589179999995,1268
61962,205355,187013,0.5910271822000001,8.1906317598,5.8109696841,1269
62003,205400,187026,0.6759723845,7.902296636499999,5.7690952886,1270
61955,205399,187018,0.7740781111,8.1643107112,5.8360943214,1271
62133,205491,187081,0.586241537,8.1930245824,5.748756296500001,1272
62086,205462,187025,0.5910271822000001,8.0662049846,5.7499527078,1273
61847,205320,186964,0.7286144817,8.1523465982,5.8217373858000006,1274
61569,205185,186921,0.6771687957999999,8.1044901462,5.8360943214,1275
61397,205092,186872,0.6508477471999999,8.0566336942,5.8145589179999995,1276
61325,205049,186870,0.6640082715,8.0769726863,5.706881900999999,1277
61298,205036,186846,0.71784678,8.0063844196,5.9330036367,1278
61335,205050,186829,0.7034898444000001,8.1367932513,5.7954163372,1279
61372,205107,186863,0.5670989562,8.1367932513,5.790630692000001,1280
61421,205119,186827,0.6400800455,8.0769726863,5.7595239982,1281
61435,205108,186868,0.7094719009,8.0350982908,5.8480584344,1282
61420,205108,186854,0.6053841178,8.0339018795,5.8636117813,1283
61487,205156,186869,0.5670989562,8.0805619202,5.7810594016,1284
61505,205187,186911,0.8159525066,8.1439717191,5.7236316592000005,1285
61551,205145,186913,0.5898307709,8.0422767586,5.7643096434,1286
61600,205226,186957,0.6580262149999999,8.0243305891,5.790630692000001,1287
61688,205300,186963,0.7034898444000001,8.0255270004,5.8049876276,1288
61757,205396,186991,0.6340979889999999,8.204988695399999,5.8480584344,1289
61823,205402,187030,0.5886343596,8.0183485326,5.8217373858000006,1290
61902,205482,187066,0.7489534738,7.9106715156,5.8217373858000006,1291
61972,205475,187064,0.6089733517,8.0937224445,5.9030933542,1292
62049,205549,187085,0.5718846014,8.0769726863,5.694917788000001,1293
62002,205541,187070,0.6041877065,8.1009009123,5.7284173044,1294
61819,205420,186990,0.526420972,8.0207413552,5.8408799666,1295
61509,205315,186990,0.7118647235000001,8.0303126456,5.860022547400001,1296
61327,205190,186933,0.6999006105000001,8.049455226400001,5.7595239982,1297
61236,205158,186884,0.6077769404,8.0733834524,5.7571311756,1298
61221,205134,186887,0.6352944003,8.0183485326,5.8289158536,1299
61255,205171,186875,0.6891329087999999,8.2097743406,5.6913285541,1300
61326,205221,186857,0.6843472636,8.2205420423,5.8456656118,1301
61353,205232,186916,0.5778666579,8.1391860739,5.8516476683,1302
61388,205251,186950,0.7046862557000001,8.111668614,5.8169517405999995,1303
61394,205308,186932,0.6951149653,8.129614783500001,5.8372907327,1304
61430,205282,186955,0.7022934331,8.1092757914,5.8408799666,1305
61437,205314,186921,0.7046862557000001,8.027919823,5.730810127,1306
61497,205306,186970,0.8147560952999999,8.0255270004,5.7643096434,1307
61555,205361,186998,0.7082754896000001,8.123632727,5.7714881112,1308
61636,205426,186994,0.7334001269,8.1786676468,5.7954163372,1309
61694,205446,187018,0.7573283529,8.0530444603,5.735595772199999,1310
61775,205474,187027,0.7920242806,8.116454259200001,5.776273756399999,1311
61852,205521,187069,0.6616154488999999,8.0470624038,5.7008998445,1312
61908,205518,187040,0.7405785947,8.1176506705,5.802594804999999,1313
61983,205643,187078,0.6628118601999999,8.249255913499999,5.778666579,1314
61948,205591,187077,0.741775006,8.1631142999,5.7284173044,1315
61700,205448,186955,0.8063812161999999,8.1140614366,5.8337014988,1316
61387,205306,186894,0.8195417405,8.1846497033,5.8289158536,1317
61168,205147,186867,0.7022934331,8.1774712355,5.6925249654,1318
61123,205089,186787,0.6556333924,8.0255270004,5.7571311756,1319
61049,205041,186788,0.7645068207,8.0327054682,5.6291151665,1320
61061,205063,186810,0.8231309743999999,8.1188470818,5.8217373858000006,1321
61114,205053,186837,0.801595571,8.219345631,5.7631132321,1322
61158,205086,186833,0.7369893608,8.0949188558,5.777470167700001,1323
61208,205131,186861,0.7154539574000001,8.049455226400001,5.8157553293,1324
61229,205127,186839,0.5946164161,8.1655071225,5.8145589179999995,1325
61260,205182,186853,0.7286144817,8.044669581199999,5.7284173044,1326
61305,205171,186861,0.7106683122,8.1427753078,5.6614182716,1327
61300,205234,186884,0.7692924659,8.0781690976,5.8420763779,1328
61446,205239,186885,0.6424728680999999,8.0829547428,5.806184038900001,1329
61507,205257,186916,0.7154539574000001,8.0566336942,5.7188460139999995,1330
61576,205344,186965,0.7046862557000001,8.1535430095,5.6757752072,1331
61668,205422,186972,0.6831508522999999,8.1678999451,5.8193445632000005,1332
61758,205430,187001,0.6628118601999999,8.0303126456,5.7140603688,1333
61842,205490,187047,0.7704888772,8.0410803473,5.730810127,1334
61856,205572,187044,0.6975077879,8.1870425259,5.873183071700001,1335
62035,205571,187083,0.6053841178,8.183453292,5.7846486355,1336
61966,205583,187098,0.7465606512,8.1009009123,5.710471134900001,1337
61696,205467,186991,0.7477570625,8.1272219609,5.8253266197,1338
61390,205246,186890,0.6675975054,8.0542408716,5.8803615395,1339
61181,205188,186847,0.7010970218,8.128418372199999,5.6973106106,1340
61079,205094,186841,0.7034898444000001,8.099704501,5.7822558129,1341
61054,205069,186834,0.7369893608,8.0350982908,5.7535419417,1342
61079,205075,186808,0.7106683122,8.003991596999999,5.776273756399999,1343
61163,205135,186830,0.5587240770999999,8.1990066389,5.7499527078,1344
61219,205137,186843,0.6125625856,8.123632727,5.7918271033,1345
61211,205165,186869,0.6987041992,7.9872418388,5.716453191399999,1346
61312,205143,186862,0.6005984726,8.0590265168,5.778666579,1347
61317,205210,186911,0.6699903279999999,8.137989662599999,5.761916820800001,1348
61354,205246,186925,0.6053841178,8.0004023631,5.7523455304,1349
61397,205229,186934,0.7070790783,8.2025958728,5.7379885948,1350
61479,205308,186982,0.6269195211999999,8.01595571,5.8109696841,1351
61536,205364,186956,0.6687939167,8.1140614366,5.766702466,1352
61615,205401,187001,0.6831508522999999,8.3138621237,5.716453191399999,1353
61704,205506,187078,0.8243273857,8.0973116784,5.8935220638,1354
61756,205511,187109,0.7142575461,8.0339018795,5.7583275869,1355
61838,205568,187082,0.5814558918,8.0374911134,5.8002019824,1356
61964,205608,187094,0.765703232,8.123632727,5.8672010152,1357
62003,205663,187122,0.6927221427000001,8.2109707519,5.7128639575,1358
62006,205694,187135,0.7226324252,8.0697942185,5.8372907327,1359
61793,205589,187093,0.7860422241,8.173882001600001,5.8157553293,1360
61485,205423,187015,0.6867400861999999,8.0374911134,5.8193445632000005,1361
61267,205297,186990,0.7286144817,7.9417782094,5.818148151899999,1362
61154,205219,186917,0.5922235935,8.01595571,5.748756296500001,1363
61134,205185,186908,0.5539384319,8.01595571,5.8348979101000005,1364
61188,205228,186935,0.7453642399,8.070990629799999,5.766702466,1365
61168,205240,186909,0.6544369810999999,8.0422767586,5.7714881112,1366
61225,205279,186966,0.622133876,8.1092757914,5.8337014988,1367
61363,205308,186947,0.71784678,8.0135628874,5.7858450468,1368
61408,205306,186984,0.7310073043,8.062615750700001,5.8337014988,1369
61402,205320,186955,0.6317051664,7.9645100241,5.6889357315,1370
61415,205346,186969,0.5826523031,8.01595571,5.74277424,1371
61469,205380,187020,0.6532405698,7.970492080600001,5.778666579,1372
61515,205440,187000,0.6352944003,8.1810604694,5.7499527078,1373
61588,205440,187020,0.5790630692000001,8.0733834524,5.74277424,1374
61659,205509,187049,0.7106683122,7.890332523500001,5.8683974265,1375
61746,205572,187108,0.6209374647,8.087740388,5.748756296500001,1376
61843,205635,187096,0.4941178669,8.0243305891,5.7690952886,1377
61896,205649,187126,0.6089733517,8.0817583315,5.9330036367,1378
61956,205693,187133,0.5288137946,8.0685978072,5.7954163372,1379
61969,205759,187143,0.7010970218,8.1320076061,5.745167062599999,1380
61833,205667,187099,0.6053841178,8.0590265168,5.8049876276,1381
61513,205551,187084,0.7549355303,8.1200434931,5.8337014988,1382
61260,205404,186998,0.6747759731999999,8.0721870411,5.773880933799999,1383
61124,205279,186947,0.7860422241,8.0805619202,5.844469200500001,1384
61098,205265,186910,0.6879364975,8.1176506705,5.7403814174,1385
61135,205287,186904,0.7549355303,8.1942209937,5.7403814174,1386
61160,205290,186939,0.7190431913,8.051848049,5.8145589179999995,1387
61226,205278,186959,0.8111668613999999,8.0542408716,5.8145589179999995,1388
61290,205314,186950,0.6484549246,8.0925260332,5.778666579,1389
61318,205309,186968,0.7836494015,8.1403824852,5.8576297248,1390
61342,205331,186906,0.7573283529,8.159525066,5.6997034332,1391
61364,205357,186957,0.7453642399,8.0805619202,5.8049876276,1392
61403,205357,186936,0.7465606512,8.102097323599999,5.7379885948,1393
61472,205392,187000,0.7453642399,7.9597243789,5.7260244818,1394
61538,205412,186976,0.8147560952999999,8.0566336942,5.7954163372,1395
61622,205497,186991,0.71784678,8.1894353485,5.900700531599999,1396
61683,205527,187032,0.7262216591,8.0949188558,5.7152567801,1397
61773,205554,187019,0.7716852885,8.0542408716,5.773880933799999,1398
61866,205584,187052,0.6747759731999999,8.049455226400001,5.8085768615,1399
61939,205641,187096,0.7872386353999999,8.147560953,5.8169517405999995,1400
61986,205706,187131,0.7501498851,8.2025958728,5.745167062599999,1401
61857,205644,187064,0.6616154488999999,8.0303126456,5.678168029799999,1402
61540,205497,186983,0.6807580296999999,7.9585279676,5.831308676200001,1403
61255,205361,186923,0.6556333924,8.057830105499999,5.7930235146,1404
61090,205216,186847,0.8063812161999999,8.0973116784,5.761916820800001,1405
61005,205159,186841,0.7250252478,8.0985080897,5.6195438761,1406
61005,205159,186830,0.6771687957999999,8.102097323599999,5.8660046039,1407
61032,205138,186880,0.7274180704000001,7.9621172015,5.8372907327,1408
61104,205154,186822,0.7094719009,8.1643107112,5.7188460139999995,1409
61150,205182,186862,0.8075776275,8.13559684,5.7284173044,1410
61208,205222,186901,0.6975077879,8.087740388,5.7284173044,1411
61232,205229,186867,0.7645068207,8.0566336942,5.7846486355,1412
61266,205234,186890,0.7106683122,8.1391860739,5.6985070219,1413
61293,205245,186877,0.7010970218,8.102097323599999,5.831308676200001,1414
61342,205311,186917,0.6951149653,8.01595571,5.7224352479,1415
61417,205315,186929,0.7322037156,8.2648092604,5.7188460139999995,1416
61506,205393,186949,0.8434699665000001,8.1212399044,5.789434280699999,1417
61587,205428,187008,0.7334001269,8.1942209937,5.8037912163000005,1418
61692,205489,186978,0.7274180704000001,8.1631142999,5.8420763779,1419
61742,205503,187044,0.7585247642,8.0542408716,5.761916820800001,1420
61804,205564,187031,0.5898307709,8.306683655899999,5.826523031,1421
61899,205582,187073,0.6269195211999999,8.128418372199999,5.6733823846,1422
61881,205619,187055,0.7920242806,8.1750784129,5.7511491191,1423
61635,205510,187025,0.6699903279999999,8.159525066,5.773880933799999,1424
61321,205326,186901,0.765703232,8.1104722027,5.745167062599999,1425
61102,205151,186917,0.6795616184,8.115257847899999,5.716453191399999,1426
60982,205116,186767,0.7501498851,8.1391860739,5.790630692000001,1427
61019,205083,186811,0.7633104094,8.0602229281,5.8157553293,1428
61022,205100,186835,0.765703232,8.102097323599999,5.735595772199999,1429
61093,205146,186824,0.7956135145,8.1571322434,5.7726845225,1430
61154,205142,186917,0.5970092387,8.137989662599999,5.735595772199999,1431
61216,205197,186891,0.7046862557000001,8.061419339399999,5.7930235146,1432
61234,205216,186843,0.7393821834000001,8.2181492197,5.7236316592000005,1433
61311,205224,186878,0.6484549246,8.1044901462,5.706881900999999,1434
61302,205218,186898,0.7202396026000001,8.1320076061,5.7702916999,1435
61337,205249,186905,0.705882667,8.155935832099999,5.7140603688,1436
61431,205318,186946,0.6293123438,8.075776275,5.747559885199999,1437
61495,205344,186968,0.8626125473,8.1631142999,5.7116675462,1438
61586,205395,186973,0.6089733517,8.227720510100001,5.7559347643,1439
61669,205473,187009,0.6987041992,8.0961152671,5.7332029496,1440
61742,205491,187018,0.6915257314000001,8.1583286547,5.706881900999999,1441
61831,205596,187043,0.7513462964000001,8.1918281711,5.9114682333,1442
61890,205597,187092,0.5431707302,8.123632727,5.7391850061000005,1443
61937,205615,187129,0.6963113766000001,8.1260255496,5.7092747236,1444
61757,205513,187053,0.7381857721,8.0889367993,5.8169517405999995,1445
61460,205413,186984,0.8099704500999999,8.099704501,5.8241302084,1446
61207,205252,186958,0.5898307709,8.099704501,5.776273756399999,1447
61076,205159,186906,0.71784678,8.1272219609,5.7284173044,1448
61057,205142,186868,0.6628118601999999,8.0853475654,5.7511491191,1449
61062,205152,186887,0.7070790783,8.074579863699999,5.74277424,1450
61128,205181,186874,0.6484549246,8.0374911134,5.790630692000001,1451
61203,205245,186889,0.7190431913,8.1212399044,5.8492548457,1452
61253,205272,186903,0.5838487144,8.1667035338,5.8193445632000005,1453
61274,205247,186900,0.5910271822000001,8.1415788965,5.8002019824,1454
61288,205259,186935,0.6699903279999999,8.1451681304,5.766702466,1455
61314,205295,186905,0.6903293201,8.049455226400001,5.745167062599999,1456
61354,205311,186946,0.6592226263,8.1032937349,5.789434280699999,1457
61321,205339,186974,0.6652046827999999,8.0195449439,5.7954163372,1458
61475,205408,187019,0.6855436748999999,7.9992059518000005,5.7882378694,1459
61552,205433,187016,0.6520441585,8.1415788965,5.735595772199999,1460
61629,205472,187030,0.6448656907,8.0602229281,5.8552369022,1461
61697,205480,187051,0.6448656907,8.0410803473,5.827719442299999,1462
61767,205537,187071,0.59820565,8.1798640581,5.6841500863,1463
61827,205592,187074,0.6747759731999999,8.1523465982,5.7702916999,1464
61712,205540,187116,0.7549355303,8.075776275,5.7643096434,1465
61416,205420,186986,0.7405785947,8.049455226400001,5.8133625067,1466
61152,205258,186962,0.6209374647,8.1463645417,5.8480584344,1467
60963,205144,186903,0.6484549246,8.0111700648,5.856433313499999,1468
61010,205121,186868,0.6819544409999999,8.1571322434,5.7595239982,1469
60985,205133,186839,0.6747759731999999,8.1427753078,5.8396835553,1470
61033,205130,186845,0.6783652070999999,8.1128650253,5.735595772199999,1471
61111,205145,186880,0.7250252478,8.1044901462,5.7212388366,1472
61161,205187,186893,0.6687939167,8.0781690976,5.790630692000001,1473
61203,205187,186899,0.7166503687,8.0925260332,5.7260244818,1474
61228,205178,186888,0.6771687957999999,8.2337025666,5.761916820800001,1475
61262,205220,186903,0.6604190376,8.183453292,5.802594804999999,1476
61317,205233,186891,0.6604190376,8.087740388,5.7583275869,1477
61374,205280,186923,0.6604190376,8.2061851067,5.706881900999999,1478
61454,205263,186959,0.7202396026000001,8.111668614,5.7188460139999995,1479
61534,205354,186905,0.6460621019999999,8.061419339399999,5.773880933799999,1480
61611,205359,186981,0.6652046827999999,8.044669581199999,5.8097732728,1481
61694,205407,186964,0.6460621019999999,8.0015987744,5.681757263700001,1482
61768,205419,187037,0.741775006,8.1092757914,5.843272789199999,1483
61849,205496,187035,0.5910271822000001,8.2875410751,5.7655060547,1484
61793,205476,186987,0.6963113766000001,8.0901332106,5.7332029496,1485
61528,205361,186965,0.7597211755,8.1104722027,5.747559885199999,1486
61226,205155,186858,0.8267202082999999,8.207381518,5.858826136099999,1487
61036,205022,186815,0.6340979889999999,8.026723411699999,5.7092747236,1488
60950,204997,186770,0.7322037156,8.185846114599999,5.7595239982,1489
60935,204942,186746,0.6173482308,8.1032937349,5.7176496027,1490
60956,204928,186760,0.71784678,8.2983087768,5.7942199259,1491
61006,204907,186779,0.7130611348,8.0087772422,5.8002019824,1492
61066,204982,186799,0.7082754896000001,8.2875410751,5.730810127,1493
61152,204994,186753,0.7106683122,7.9812597822999996,5.7284173044,1494
61152,205028,186807,0.7106683122,8.0590265168,5.8145589179999995,1495
61170,205051,186776,0.7836494015,8.0123664761,5.7188460139999995,1496
61220,205011,186811,0.7106683122,8.147560953,5.6853464976,1497
61269,205067,186854,0.7022934331,8.0733834524,5.649454158599999,1498
61341,205075,186896,0.6113661743,8.0327054682,5.8037912163000005,1499
61405,205149,186918,0.8087740388,8.0925260332,5.7260244818,1500
61481,205211,186894,0.789631458,8.0889367993,5.670989562,1501
61571,205243,186869,0.7381857721,8.0506516377,5.778666579,1502
61639,205273,186917,0.71784678,8.0482588151,5.873183071700001,1503
61729,205345,186939,0.7465606512,8.1044901462,5.6997034332,1504
61759,205366,186998,0.6604190376,8.1128650253,5.706881900999999,1505
61552,205254,186941,0.7034898444000001,8.0829547428,5.8253266197,1506
61254,205089,186855,0.6556333924,8.137989662599999,5.7882378694,1507
61025,204943,186760,0.7345965382,8.1272219609,5.8133625067,1508
60927,204864,186693,0.9188438784,8.0805619202,5.7858450468,1509
60912,204843,186713,0.8219345630999999,8.2025958728,5.7284173044,1510
60940,204783,186692,0.7310073043,8.170292767700001,5.747559885199999,1511
60932,204847,186713,0.7980063370999999,8.1631142999,5.74277424,1512
61066,204900,186763,0.7489534738,8.1726855903,5.6925249654,1513
61091,204903,186759,0.705882667,8.0590265168,5.7188460139999995,1514
61119,204894,186797,0.7381857721,8.0973116784,5.7224352479,1515
61166,204884,186763,0.7585247642,8.1547394208,5.8013983936999995,1516
61207,204926,186810,0.6412764568,8.0063844196,5.8205409745,1517
61262,205009,186811,0.7848458128,8.0901332106,5.8492548457,1518
