green,red,IR,acc_x,acc_y,acc_z,sample_index
102173,204405,271594,3.2614172038,4.0725840652,-8.3042908333,1
102140,204328,271647,3.2291140987,3.8943187815,-8.4083786164,2
102293,204456,271661,3.2494530908,3.9924245080999996,-8.2325061553,3
102317,204464,271638,3.3367911156999996,3.9864424516000003,-8.2600236152,4
102509,204496,271725,3.3798619225,3.9457644674,-8.3413795836,5
102533,204578,271660,3.2685956716,3.9553357578,-8.3090764785,6
102681,204561,271724,3.2566315586,3.9912280968,-8.350950873999999,7
102785,204601,271691,3.1836504693,3.9984065645999998,-8.4837525283,8
102743,204568,271781,3.1836504693,3.9589249917,-8.316254946299999,9
102657,204544,271669,3.3463624061,3.9756747499,-8.2899338977,10
102181,204373,271580,3.1836504693,4.1647077353,-8.2779697847,11
101760,204388,271555,3.1908289370999996,4.1168512833,-8.4131642616,12
101625,204250,271569,3.3798619225,3.9912280968,-8.3653078096,13
101450,204225,271478,3.3188449462,3.8907295476,-8.4490566006,14
101494,204209,271454,3.2841490185,3.9146577735999997,-8.3294154706,15
101628,204269,271529,3.2853454298,4.0031922098,-8.3449688175,16
101718,204256,271548,3.2793633733,4.126422573699999,-8.3557365192,17
101814,204364,271516,3.2446674455999998,4.1168512833,-8.3413795836,18
101950,204326,271583,3.2877382523999996,4.1108692268,-8.3054872446,19
101894,204342,271584,3.3092736558,3.9577285803999995,-8.3353975271,20
101913,204318,271618,3.3068808331999997,3.8823546685,-8.3306118819,21
101955,204349,271562,3.3164521235999995,3.9505501125999998,-8.3234334141,22
102120,204399,271608,3.2207392196,4.0187455567,-8.3784683339,23
102104,204406,271619,3.3726834547,3.9338003543999998,-8.3222370028,24
102299,204420,271614,3.2195428083000004,4.0510486617999995,-8.2683984943,25
102336,204461,271633,3.3726834547,4.0414773714,-8.2851482525,26
102473,204494,271637,3.3511480513,3.8871403137,-8.3748791,27
102544,204516,271644,3.2542387359999996,4.0127635002,-8.3102728898,28
102572,204486,271618,3.3020951879999996,4.0534414844,-8.4299140198,29
102591,204506,271662,3.2997023654,3.9290147091999996,-8.3306118819,30
102337,204370,271539,3.2925238975999997,4.0175491454,-8.3976109147,31
101801,204254,271515,3.3547372851999997,3.9768711611999996,-8.281559018600001,32
101440,204170,271474,3.2961131315000003,4.0785661217,-8.267202082999999,33
101431,204116,271462,3.266202849,4.0283168471,-8.3018980107,34
101311,204130,271424,3.2004002275,3.9852460403000003,-8.3461652288,35
101406,204128,271458,3.2518459134,4.0713876539,-8.2755769621,36
101409,204191,271505,3.2027930501,3.9517465239000003,-8.2959159542,37
101571,204133,271440,3.2374889778,3.9338003543999998,-8.4023965599,38
101643,204219,271516,3.4325040196999996,3.9864424516000003,-8.3018980107,39
101642,204201,271476,3.2721849055,4.0606199522,-8.303094422,40
101592,204222,271528,3.3535408739,3.996013742,-8.3246298254,41
101664,204237,271525,3.3966116807,4.1001015251,-8.3581293418,42
101757,204269,271474,3.4301111971,3.996013742,-8.3724862774,43
101855,204275,271598,3.3786655112000004,4.1048871703,-8.254041558700001,44
101860,204322,271565,3.2985059541,4.0342989036,-8.350950873999999,45
102120,204341,271567,3.361915753,3.9720855159999995,-8.405985793800001,46
102196,204341,271539,3.2949167202,4.019941968,-8.3964145034,47
102174,204400,271597,3.2099715178999997,4.0462630166,-8.347361640099999,48
102280,204374,271621,3.2817561959000003,3.9529429352,-8.3581293418,49
102360,204417,271586,3.2327033326,3.9314075318,-8.419146318100001,50
102358,204374,271556,3.158525832,3.9457644674,-8.3246298254,51
101816,204240,271518,3.1728827676,3.9517465239000003,-8.3365939384,52
101541,204159,271441,3.2171499857,4.091726646,-8.227720510100001,53
101267,204109,271414,3.3116664784,4.0331024923,-8.4167534955,54
101179,204110,271428,3.2434710343,3.9529429352,-8.3772719226,55
101280,204046,271414,3.3367911156999996,4.0067814437,-8.3677006322,56
101526,204155,271449,3.3320054705,4.0378881375,-8.4012001486,57
101410,204175,271439,3.266202849,3.9182470075,-8.3533436966,58
101608,204197,271498,3.2961131315000003,4.1647077353,-8.3533436966,59
101573,204160,271465,3.2386853891,4.0773697104,-8.3126657124,60
101554,204227,271522,3.2614172038,3.8919259589,-8.4155570842,61
101741,204233,271471,3.3439695835000003,3.9314075318,-8.3485580514,62
101574,204234,271498,3.3248270027,3.9373895883000003,-8.405985793800001,63
101747,204246,271515,3.1908289370999996,4.0845481781999995,-8.3617185757,64
101935,204297,271556,3.266202849,3.9493537012999997,-8.3700934548,65
102078,204258,271514,3.4121650276000004,3.8943187815,-8.3330047045,66
102136,204391,271577,3.2925238975999997,4.0689948312999995,-8.3353975271,67
102292,204379,271537,3.5030922864000003,4.0295132584,-8.3437724062,68
102299,204411,271543,3.3391839383,3.9744783386,-8.2971123655,69
102395,204385,271587,3.2446674455999998,3.8787654346,-8.3018980107,70
102328,204357,271485,3.2793633733,3.9768711611999996,-8.3772719226,71
101883,204232,271475,3.3547372851999997,4.0271204358,-8.360522164399999,72
101395,204141,271430,3.1860432919,4.0426737827,-8.3748791,73
101184,204115,271384,3.1716863562999995,3.9409788222,-8.3748791,74
101189,204060,271377,3.2889346637,3.8943187815,-8.2420774457,75
101280,204107,271385,3.4013973259,4.0761732991,-8.3820575678,76
101354,204069,271438,3.2518459134,4.1288153963,-8.3784683339,77
101592,204155,271482,3.3080772444999997,4.1850467274,-8.352147285300001,78
101554,204130,271498,3.2039894614,3.9924245080999996,-8.3940216808,79
101608,204174,271486,3.2434710343,4.0031922098,-8.3114693011,80
101638,204221,271434,3.3726834547,4.0247276132000005,-8.3174513576,81
101701,204213,271486,3.2434710343,3.9158541848999997,-8.362914987,82
101816,204279,271464,3.3332018818,4.0881374121,-8.364111398299999,83
101814,204217,271525,3.3296126479000003,4.0067814437,-8.3796647452,84
102039,204321,271525,3.2614172038,4.007977855,-8.405985793800001,85
102111,204223,271513,3.2542387359999996,3.9816568063999997,-8.281559018600001,86
102196,204351,271544,3.2997023654,4.0881374121,-8.2301133327,87
102382,204402,271552,3.3320054705,4.126422573699999,-8.405985793800001,88
102456,204406,271576,3.2757741394,4.092923057299999,-8.3246298254,89
102594,204412,271532,3.2398818003999996,3.9062828945,-8.4035929712,90
102545,204402,271598,3.3523444626,3.9589249917,-8.360522164399999,91
102293,204301,271459,3.4205399067,3.9912280968,-8.362914987,92
101769,204177,271434,3.3188449462,3.9170505962,-8.3892360356,93
101443,204104,271419,3.2673992603000004,3.9505501125999998,-8.417949906799999,94
101322,204062,271402,3.2219356309,3.9445680561,-8.386843213,95
101365,204094,271403,3.3200413575,4.0522450731,-8.3449688175,96
101378,204103,271386,3.3523444626,3.9936209194,-8.3832539791,97
101570,204118,271391,3.1980074049,4.0510486617999995,-8.3318082932,98
101605,204097,271396,3.3439695835000003,4.1060835816,-8.386843213,99
101731,204205,271438,3.3499516399999996,4.055834307,-8.4012001486,100
101781,204160,271489,3.2997023654,3.9314075318,-8.3940216808,101
101770,204183,271447,3.1812576466999998,3.9816568063999997,-8.2899338977,102
101881,204178,271459,3.2685956716,3.9816568063999997,-8.3581293418,103
101914,204232,271485,3.2470602682000003,3.996013742,-8.2851482525,104
102075,204247,271486,3.2985059541,4.1001015251,-8.2983087768,105
102060,204266,271468,3.2590243811999997,3.9625142255999997,-8.405985793800001,106
102174,204281,271488,3.2506495021,4.0737804765,-8.3198441802,107
102290,204380,271533,3.2590243811999997,4.043870194,-8.2683984943,108
102361,204385,271535,3.3583265191000002,4.019941968,-8.434699665,109
102545,204242,271514,3.4289147858,3.912264951,-8.3234334141,110
102526,204383,271532,3.2973095428,4.0450666053,-8.2959159542,111
102511,204379,271561,3.2733813167999997,4.092923057299999,-8.3700934548,112
102377,204308,271506,3.1872397032,3.9086757171,-8.3497544627,113
102042,204187,271438,3.3643085755999995,4.1288153963,-8.3042908333,114
101642,204135,271374,3.2638100264,4.019941968,-8.3114693011,115
101449,204063,271404,3.2805597846,4.1048871703,-8.3246298254,116
101488,204036,271388,3.1692935337,4.043870194,-8.3365939384,117
101500,204060,271407,3.2470602682000003,4.0402809601,-8.3114693011,118
101527,204063,271371,3.2805597846,3.9373895883000003,-8.3377903497,119
101674,204069,271396,3.1334011947,4.0474594279,-8.4012001486,120
101788,204132,271433,3.3439695835000003,4.0187455567,-8.417949906799999,121
101660,204102,271424,3.2805597846,3.8991044267,-8.3844503904,122
101721,204119,271457,3.2769705507,4.0211383793,-8.360522164399999,123
101926,204155,271411,3.3451659948,4.0594235409,-8.3796647452,124
101850,204144,271487,3.242274623,4.0402809601,-8.417949906799999,125
102038,204193,271466,3.2087751066,3.9505501125999998,-8.391628858199999,126
102113,204229,271477,3.3343982931,3.9457644674,-8.3724862774,127
102173,204246,271481,3.242274623,3.9696926934,-8.3258262367,128
102249,204286,271519,3.2195428083000004,3.9517465239000003,-8.4299140198,129
102355,204316,271544,3.2362925665,4.0809589443,-8.3485580514,130
102430,204320,271513,3.2075786953,3.9577285803999995,-8.3198441802,131
102538,204294,271568,3.3284162366,3.9098721283999995,-8.3653078096,132
102583,204390,271557,3.2434710343,4.1240297511,-8.3533436966,133
102494,204328,271570,3.2614172038,3.924229064,-8.3940216808,134
102050,204233,271479,3.1980074049,4.0295132584,-8.3497544627,135
101638,204108,271410,3.3248270027,4.0689948312999995,-8.3377903497,136
101451,204070,271343,3.242274623,3.9984065645999998,-8.3844503904,137
101337,204071,271420,3.2207392196,4.0055850324,-8.3246298254,138
101366,204087,271389,3.3870403903,4.031906081,-8.4203427294,139
101383,204112,271415,3.2231320422,4.091726646,-8.360522164399999,140
101419,204129,271391,3.2506495021,4.1120656381,-8.3772719226,141
101541,204168,271421,3.3092736558,4.1599220901,-8.2755769621,142
101633,204178,271444,3.326023414,4.0737804765,-8.3688970435,143
101655,204218,271389,3.2614172038,4.0414773714,-8.3007015994,144
101572,204200,271407,3.3403803495999997,4.1108692268,-8.3413795836,145
101647,204243,271428,3.206382284,4.0905302347,-8.3748791,146
101745,204233,271510,3.2877382523999996,4.0007993872,-8.3485580514,147
101753,204288,271489,3.314059301,4.0510486617999995,-8.306683655899999,148
101796,204321,271480,3.3248270027,4.031906081,-8.3844503904,149
102039,204324,271474,3.2087751066,3.9098721283999995,-8.3665042209,150
102059,204361,271487,3.3559336964999997,4.1168512833,-8.2564343813,151
102116,204388,271457,3.2757741394,3.9505501125999998,-8.450253011900001,152
102146,204443,271561,3.4707891813,3.8895331363000003,-8.316254946299999,153
102215,204435,271496,3.2817561959000003,4.097708702499999,-8.3449688175,154
101894,204356,271482,3.2446674455999998,4.0761732991,-8.3282190593,155
101357,204226,271440,3.4923245847,3.9744783386,-8.3282190593,156
100946,204142,271346,3.2709884942,4.0007993872,-8.4670027701,157
100674,204064,271336,3.2973095428,3.9206398301,-8.4251283746,158
100732,204101,271268,3.3104700671000002,4.0857445895,-8.4538422458,159
100514,204081,271299,3.3702906320999997,3.984049629,-8.3557365192,160
100571,204109,271307,3.2997023654,4.1383866867,-8.3437724062,161
100690,204137,271317,3.1884361145,4.0881374121,-8.3892360356,162
100719,204141,271380,3.2590243811999997,4.1072799929,-8.3330047045,163
100716,204094,271353,3.3583265191000002,3.960121403,-8.3294154706,164
100716,204175,271300,3.2757741394,3.9672998708,-8.3342011158,165
100548,204202,271318,3.2626136151000003,3.9972101532999997,-8.3401831723,166
100562,204192,271399,3.326023414,4.06779842,-8.362914987,167
100711,204227,271347,3.3559336964999997,3.9613178143,-8.360522164399999,168
100850,204292,271352,3.3008987767,4.0905302347,-8.4155570842,169
100813,204294,271436,3.2518459134,3.9170505962,-8.446663778,170
100946,204288,271418,3.2015966388,4.0486558392,-8.3952180921,171
101027,204354,271394,3.4013973259,4.0474594279,-8.2875410751,172
100970,204398,271465,3.1286155494999996,3.924229064,-8.240881034400001,173
101110,204431,271419,3.2015966388,4.0953158799,-8.3653078096,174
101101,204320,271408,3.1728827676,4.0259240245,-8.4490566006,175
101034,204384,271425,3.3942188581,4.1012979364,-8.2899338977,176
100585,204243,271317,3.314059301,4.0354953148999995,-8.3653078096,177
100094,204137,271268,3.23031051,4.0450666053,-8.2755769621,178
99788,204096,271219,3.2709884942,3.9158541848999997,-8.4335032537,179
99627,204022,271227,3.2949167202,4.0354953148999995,-8.3294154706,180
99533,204028,271237,3.4133614389,3.9158541848999997,-8.3581293418,181
99648,204049,271201,3.2135607518000002,3.9326039431,-8.4370924876,182
99729,204049,271259,3.3008987767,3.8608192651000004,-8.3892360356,183
99820,204063,271302,3.3212377687999997,4.0534414844,-8.3282190593,184
99793,204107,271324,3.3343982931,4.043870194,-8.2959159542,185
99872,204105,271257,3.3284162366,4.0103706776,-8.2995051881,186
99891,204096,271285,3.4181470840999997,3.9625142255999997,-8.3090764785,187
99917,204031,271303,3.2614172038,4.0031922098,-8.2899338977,188
99965,204151,271230,3.2398818003999996,4.0450666053,-8.2983087768,189
100046,204175,271328,3.3535408739,4.0450666053,-8.360522164399999,190
100041,204208,271326,3.2470602682000003,3.996013742,-8.3054872446,191
100207,204196,271266,3.385843979,3.9792639838,-8.3258262367,192
100292,204299,271317,3.3236305914,4.0510486617999995,-8.459824302300001,193
100239,204275,271283,3.3607193417,3.9756747499,-8.405985793800001,194
100351,204279,271314,3.4229327293,4.031906081,-8.3102728898,195
100383,204318,271297,3.3044880106,4.1060835816,-8.3796647452,196
100477,204346,271287,3.2626136151000003,3.9948173307,-8.4083786164,197
100304,204186,271250,3.3798619225,3.9996029759000002,-8.291130309,198
99883,204126,271250,3.278166962,3.9589249917,-8.4394853102,199
99481,204021,271177,3.3367911156999996,4.1575292675,-8.3318082932,200
99228,203987,271119,3.266202849,3.9672998708,-8.3653078096,201
99074,203909,271137,3.3631121643,4.1001015251,-8.404789382499999,202
99087,204003,271164,3.2350961552,3.9852460403000003,-8.350950873999999,203
99100,203988,271120,3.2015966388,3.8799618459,-8.4693955927,204
99242,203990,271167,3.3667013982,3.9768711611999996,-8.3593257531,205
99285,204008,271144,3.3511480513,4.0654055974,-8.4143606729,206
99385,203977,271183,3.3870403903,4.064209186099999,-8.362914987,207
99351,203990,271140,3.2709884942,4.030709669699999,-8.3581293418,208
99291,204014,271184,3.2877382523999996,4.0295132584,-8.1882389372,209
99411,204002,271235,3.2745777280999997,3.9816568063999997,-8.434699665,210
99510,204026,271165,3.3714870434,3.8835510798,-8.3665042209,211
99444,204099,271237,3.2338997439000003,3.9649070482,-8.4215391407,212
99662,204096,271189,3.3487552287,3.9756747499,-8.3054872446,213
99757,204139,271229,3.2327033326,3.9349967657,-8.3342011158,214
99822,204120,271237,3.2410782117,4.0223347905999995,-8.2971123655,215
99888,204214,271321,3.1800612354,4.0055850324,-8.2959159542,216
99979,204202,271277,3.3320054705,4.0618163635,-8.2516487361,217
100017,204192,271272,3.2817561959000003,3.960121403,-8.4035929712,218
100043,204251,271328,3.2757741394,3.8835510798,-8.4299140198,219
99929,204157,271218,3.2865418411,4.092923057299999,-8.427521197199999,220
99533,204074,271200,3.2171499857,4.1096728155,-8.3437724062,221
99132,203897,271154,3.3487552287,4.0223347905999995,-8.3090764785,222
99003,203920,271143,3.3032915993,4.1347974528,-8.327022648,223
99013,203921,271126,3.361915753,4.1599220901,-8.3964145034,224
98994,203910,271081,3.3020951879999996,4.0378881375,-8.293523131599999,225
99308,203995,271152,3.1369904286000003,4.0462630166,-8.3844503904,226
99233,204019,271171,3.1896325258,3.8979080154,-8.3306118819,227
99351,203995,271111,3.2889346637,3.9864424516000003,-8.4251283746,228
99349,204016,271201,3.4085757937,4.030709669699999,-8.4562350684,229
99509,204009,271173,3.2267212761,3.8751762007000004,-8.4299140198,230
99530,204063,271208,3.2518459134,4.0139599115,-8.3365939384,231
99657,204074,271214,3.2231320422,3.9768711611999996,-8.3294154706,232
99731,204069,271215,3.2267212761,3.9302111204999997,-8.4023965599,233
99746,204124,271268,3.2697920829,4.0031922098,-8.3892360356,234
100010,204105,271259,3.3188449462,4.0223347905999995,-8.4131642616,235
100089,204193,271224,3.4073793824000003,4.0342989036,-8.4263247859,236
100062,204211,271294,3.1968109935999998,4.0713876539,-8.3365939384,237
100240,204232,271285,3.3499516399999996,3.996013742,-8.3186477689,238
100469,204268,271279,3.2494530908,3.9038900719000003,-8.410771439,239
100479,204296,271271,3.3511480513,4.0390845488,-8.3437724062,240
100106,204163,271249,3.1310083721,3.9888352742,-8.2779697847,241
99723,204070,271197,3.2937203089,4.0953158799,-8.3928252695,242
99464,204010,271153,3.3966116807,4.0103706776,-8.2971123655,243
99286,203936,271140,3.2327033326,4.031906081,-8.4430745441,244
99292,203919,271168,3.1609186546,3.9888352742,-8.3114693011,245
99469,203944,271190,3.2973095428,3.8632120877,-8.3892360356,246
99572,203985,271226,3.1429724850999996,3.924229064,-8.3748791,247
99699,204059,271192,3.3200413575,3.9900316855,-8.2576307926,248
99986,203944,271195,3.2733813167999997,3.9888352742,-8.4203427294,249
99877,204086,271238,3.2925238975999997,3.9756747499,-8.3294154706,250
99948,204068,271252,3.2327033326,3.9649070482,-8.3186477689,251
100036,204098,271234,3.2446674455999998,3.9744783386,-8.4394853102,252
100163,204079,271255,3.290131075,4.1072799929,-8.338986761000001,253
100226,204120,271238,3.1800612354,4.0953158799,-8.3485580514,254
100369,204132,271228,3.3559336964999997,4.1108692268,-8.3258262367,255
100468,204201,271335,3.2757741394,4.0402809601,-8.3557365192,256
100673,204186,271294,3.4683963587,4.0534414844,-8.360522164399999,257
100779,204258,271353,3.3367911156999996,4.030709669699999,-8.3796647452,258
100858,204277,271400,3.3571301077999998,4.0510486617999995,-8.2683984943,259
101046,204271,271326,3.3176485349,3.996013742,-8.3342011158,260
101065,204292,271361,3.3248270027,3.9170505962,-8.2995051881,261
100893,204227,271348,3.242274623,3.9266218866,-8.391628858199999,262
100451,204119,271253,3.2805597846,4.0175491454,-8.3820575678,263
100191,203963,271281,3.4002009146,3.8703905555,-8.4311104311,264
100040,203986,271205,3.1896325258,3.9637106368999997,-8.3677006322,265
100110,203951,271218,3.4540394231000002,3.9529429352,-8.3724862774,266
100183,204054,271208,3.3343982931,4.079762533,-8.3042908333,267
100315,203973,271236,3.1190442591,4.1336010414999995,-8.315058535,268
100505,204044,271268,3.2350961552,4.0175491454,-8.4370924876,269
100606,204063,271313,3.2398818003999996,3.8823546685,-8.4622171249,270
100680,204096,271310,3.1657042998000002,4.1443687432,-8.3282190593,271
100717,204092,271356,3.2338997439000003,3.9625142255999997,-8.3461652288,272
100801,204128,271289,3.1621150658999997,4.0666020087,-8.362914987,273
100911,204112,271385,3.3116664784,3.8811582571999996,-8.3126657124,274
101057,204144,271360,3.2039894614,4.1599220901,-8.3461652288,275
101231,204274,271369,3.326023414,4.001995798499999,-8.3772719226,276
101286,204245,271332,3.1525437755,3.9625142255999997,-8.3700934548,277
101451,204233,271420,3.3918260355000003,4.0259240245,-8.3126657124,278
101523,204283,271482,3.2709884942,3.9876388629,-8.347361640099999,279
101695,204262,271450,3.3559336964999997,4.097708702499999,-8.4765740605,280
101717,204368,271464,3.2123643404999997,3.9744783386,-8.362914987,281
101834,204322,271480,3.1920253483999996,3.8703905555,-8.3557365192,282
101698,204307,271405,3.2099715178999997,4.0031922098,-8.2779697847,283
101329,204138,271369,3.2446674455999998,3.9314075318,-8.417949906799999,284
100900,204100,271355,3.3702906320999997,4.0498522505,-8.3342011158,285
100782,204000,271327,3.2769705507,3.9158541848999997,-8.3796647452,286
100774,203922,271268,3.3284162366,3.9672998708,-8.4012001486,287
100939,204012,271243,3.3463624061,3.9912280968,-8.316254946299999,288
100890,204025,271332,3.1992038162000003,3.936193177,-8.4131642616,289
101012,204031,271434,3.2362925665,4.1168512833,-8.3413795836,290
101142,203988,271364,3.2123643404999997,4.0283168471,-8.405985793800001,291
101263,204103,271386,3.2398818003999996,4.0606199522,-8.3796647452,292
101333,204051,271360,3.3032915993,3.9936209194,-8.362914987,293
101333,204097,271341,3.2709884942,4.1192441059,-8.2683984943,294
101384,204010,271449,3.2207392196,4.0857445895,-8.417949906799999,295
101530,204161,271428,3.1884361145,4.0654055974,-8.3198441802,296
101615,204186,271446,3.2291140987,4.019941968,-8.3198441802,297
101724,204183,271431,3.3523444626,4.0630127748,-8.3796647452,298
101853,204237,271479,3.2614172038,4.019941968,-8.3174513576,299
101980,204249,271488,3.2350961552,3.9672998708,-8.2743805508,300
101933,204281,271471,3.2745777280999997,3.8117664018,-8.4394853102,301
102127,204290,271526,3.2685956716,4.0845481781999995,-8.350950873999999,302
102236,204322,271600,3.2913274863,4.0127635002,-8.471788415299999,303
102305,204305,271508,3.2111679291999997,3.9852460403000003,-8.3377903497,304
102070,204217,271458,3.2937203089,4.0175491454,-8.3294154706,305
101640,204091,271451,3.2362925665,4.0235312019,-8.3102728898,306
101346,204055,271426,3.2123643404999997,4.0737804765,-8.3820575678,307
101322,204024,271360,3.1561330094,3.9744783386,-8.3186477689,308
101330,204017,271419,3.3355947043999996,3.9661034595,-8.315058535,309
101471,204040,271406,3.3511480513,4.0953158799,-8.3102728898,310
101514,204093,271406,3.2638100264,3.9194434188,-8.3210405915,311
101711,204081,271462,3.1956145822999997,4.1024943476999995,-8.3078800672,312
101837,204132,271409,3.2709884942,4.091726646,-8.3784683339,313
101732,204144,271542,3.2949167202,4.1096728155,-8.3485580514,314
101905,204144,271509,3.1573294206999996,3.9828532177,-8.281559018600001,315
101748,204175,271469,3.2470602682000003,3.9816568063999997,-8.316254946299999,316
101883,204207,271542,3.1680971224,3.984049629,-8.3234334141,317
102018,204209,271507,3.3523444626,4.030709669699999,-8.3653078096,318
102223,204258,271504,3.2398818003999996,4.019941968,-8.391628858199999,319
102271,204305,271549,3.2075786953,4.0857445895,-8.3294154706,320
102348,204299,271549,3.2877382523999996,4.0187455567,-8.3700934548,321
102529,204381,271532,3.3188449462,4.1168512833,-8.2779697847,322
102575,204345,271600,3.2590243811999997,3.9098721283999995,-8.3796647452,323
102708,204397,271589,3.3044880106,4.0833517669,-8.3222370028,324
102700,204357,271611,3.158525832,3.9948173307,-8.4562350684,325
102428,204326,271543,3.2207392196,4.0247276132000005,-8.3772719226,326
101972,204176,271514,3.3595229304,3.9577285803999995,-8.3437724062,327
101751,204077,271502,3.278166962,4.0211383793,-8.4442709554,328
101693,204084,271466,3.3092736558,4.0067814437,-8.3497544627,329
101608,204080,271442,3.3571301077999998,4.0522450731,-8.4143606729,330
101728,204107,271453,3.1968109935999998,4.079762533,-8.3246298254,331
101894,204152,271520,3.3056844219,3.9876388629,-8.3210405915,332
101925,204153,271493,3.2925238975999997,4.019941968,-8.4215391407,333
102105,204176,271495,3.2997023654,3.9888352742,-8.3138621237,334
102073,204187,271538,3.206382284,4.0055850324,-8.3377903497,335
102167,204206,271545,3.1692935337,4.0462630166,-8.293523131599999,336
102216,204206,271518,3.2937203089,4.0845481781999995,-8.3677006322,337
102291,204229,271544,3.3583265191000002,4.1084764042,-8.3880396243,338
102400,204262,271589,3.3631121643,4.0235312019,-8.4155570842,339
102571,204298,271576,3.3463624061,4.091726646,-8.3090764785,340
102602,204328,271621,3.3367911156999996,3.9613178143,-8.3772719226,341
102747,204382,271624,3.4229327293,3.9170505962,-8.4155570842,342
102820,204375,271653,3.1752755902,4.0881374121,-8.3078800672,343
102972,204407,271654,3.2279176874,4.0223347905999995,-8.2325061553,344
103009,204374,271672,3.3164521235999995,3.9744783386,-8.315058535,345
103088,204465,271680,3.4468609552999996,3.9290147091999996,-8.4155570842,346
102917,204374,271638,3.3571301077999998,3.9672998708,-8.316254946299999,347
102328,204242,271563,3.2973095428,4.1240297511,-8.3198441802,348
102169,204189,271545,3.3116664784,4.0737804765,-8.417949906799999,349
102090,204107,271450,3.3308090592,3.996013742,-8.3653078096,350
101933,204084,271484,3.2793633733,4.0713876539,-8.3018980107,351
102137,204078,271473,3.2434710343,3.9924245080999996,-8.3054872446,352
102181,204166,271566,3.2566315586,3.924229064,-8.352147285300001,353
102336,204157,271518,3.3427731722,3.9314075318,-8.316254946299999,354
102298,204165,271589,3.3547372851999997,4.0103706776,-8.3318082932,355
102383,204236,271581,3.4384860762,4.0127635002,-8.303094422,356
102443,204203,271564,3.2470602682000003,4.0366917262,-8.3222370028,357
102457,204142,271588,3.3188449462,3.9457644674,-8.4323068424,358
102532,204259,271583,3.3224341800999997,3.9924245080999996,-8.2468630909,359
102626,204226,271620,3.3176485349,4.1778682596,-8.405985793800001,360
102769,204291,271599,3.242274623,3.8751762007000004,-8.3533436966,361
102891,204304,271589,3.3128628897,4.0295132584,-8.3234334141,362
102977,204363,271658,3.2985059541,4.0055850324,-8.398807326,363
103216,204363,271565,3.2446674455999998,4.0654055974,-8.3581293418,364
103115,204383,271631,3.290131075,3.9816568063999997,-8.427521197199999,365
103228,204446,271680,3.2279176874,4.0091742663,-8.3485580514,366
103313,204455,271700,3.2602207924999997,3.8871403137,-8.3138621237,367
103280,204464,271706,3.337987527,4.0857445895,-8.3772719226,368
103089,204312,271606,3.2709884942,4.001995798499999,-8.3688970435,369
102617,204261,271572,3.2685956716,4.0247276132000005,-8.338986761000001,370
102340,204157,271534,3.3092736558,4.0833517669,-8.3653078096,371
102218,204094,271496,3.2458638569,3.9397824109,-8.3940216808,372
102202,204138,271553,3.2829526072,4.126422573699999,-8.3485580514,373
102270,204129,271513,3.314059301,4.0390845488,-8.293523131599999,374
102387,204180,271530,3.3212377687999997,4.0259240245,-8.3724862774,375
102503,204221,271545,3.206382284,3.9768711611999996,-8.3569329305,376
102461,204209,271569,3.3655049869,4.0223347905999995,-8.3449688175,377
102486,204176,271590,3.2470602682000003,4.1575292675,-8.4035929712,378
102503,204216,271616,3.2841490185,3.8991044267,-8.3138621237,379
102537,204227,271558,3.3044880106,4.126422573699999,-8.4155570842,380
102650,204166,271585,3.4552358344000003,4.0857445895,-8.2971123655,381
102732,204253,271604,3.266202849,3.9792639838,-8.3844503904,382
102776,204299,271603,3.2793633733,4.064209186099999,-8.3306118819,383
102889,204313,271624,3.3272198253,4.0953158799,-8.362914987,384
102893,204327,271616,3.1381868399,4.0510486617999995,-8.2731841395,385
103096,204359,271593,3.2829526072,3.9816568063999997,-8.3042908333,386
103149,204379,271588,3.2554351473,4.0857445895,-8.4131642616,387
103295,204367,271637,3.2757741394,4.1072799929,-8.3114693011,388
103277,204390,271648,3.1357940173,3.9266218866,-8.3198441802,389
103306,204424,271654,3.3870403903,4.0725840652,-8.3796647452,390
103192,204340,271530,3.2518459134,3.9816568063999997,-8.360522164399999,391
102827,204250,271538,3.314059301,4.055834307,-8.293523131599999,392
102427,204168,271525,3.2231320422,4.0689948312999995,-8.3210405915,393
102246,204082,271450,3.3008987767,3.9912280968,-8.3234334141,394
102242,204135,271493,3.421736318,4.1551364449,-8.405985793800001,395
102211,203989,271507,3.3774690999,4.0594235409,-8.3485580514,396
102369,204117,271501,3.3176485349,3.9613178143,-8.306683655899999,397
102380,204118,271588,3.2709884942,3.9948173307,-8.3174513576,398
102484,204161,271516,3.3631121643,3.9852460403000003,-8.362914987,399
102554,204176,271595,3.2279176874,4.079762533,-8.3437724062,400
102530,204155,271570,3.1800612354,4.0510486617999995,-8.410771439,401
102687,204159,271521,3.2925238975999997,3.9936209194,-8.350950873999999,402
102663,204224,271532,3.2506495021,3.9972101532999997,-8.3437724062,403
102626,204238,271629,3.2566315586,3.9912280968,-8.398807326,404
102724,204251,271579,3.2518459134,4.113262049399999,-8.4035929712,405
102887,204294,271596,3.3308090592,4.1336010414999995,-8.3174513576,406
102965,204289,271604,3.4480573666,4.007977855,-8.434699665,407
103163,204321,271610,3.2434710343,4.0295132584,-8.4012001486,408
103172,204359,271607,3.2327033326,3.8727833781,-8.4370924876,409
103219,204389,271616,3.2386853891,4.0175491454,-8.3557365192,410
103137,204349,271613,3.2410782117,4.0534414844,-8.3653078096,411
102661,204222,271506,3.3774690999,4.0390845488,-8.3365939384,412
102306,204117,271492,3.2925238975999997,4.1216369285,-8.2923267203,413
102197,204084,271449,3.2590243811999997,3.9409788222,-8.3090764785,414
102182,204101,271466,3.1680971224,3.9110685397,-8.4131642616,415
102176,204092,271544,3.3451659948,4.0534414844,-8.2707913169,416
102257,204099,271517,3.1908289370999996,4.1216369285,-8.3904324469,417
102469,204158,271519,3.11066938,4.1814574935,-8.3437724062,418
102484,204151,271522,3.2506495021,4.079762533,-8.405985793800001,419
102523,204197,271529,3.4061829711000002,3.9625142255999997,-8.3940216808,420
102498,204189,271556,3.3714870434,4.0342989036,-8.3365939384,421
102569,204203,271594,3.2542387359999996,4.0905302347,-8.3772719226,422
102667,204224,271543,3.3355947043999996,3.9720855159999995,-8.3461652288,423
102713,204265,271587,3.182454058,4.0247276132000005,-8.3485580514,424
102826,204301,271605,3.2123643404999997,3.9206398301,-8.463413536200001,425
103014,204343,271577,3.3475588174,4.0211383793,-8.4610207136,426
103153,204354,271605,3.2889346637,3.9792639838,-8.3748791,427
103202,204391,271629,3.3056844219,4.1623149127,-8.3748791,428
103276,204354,271643,3.2494530908,3.9505501125999998,-8.4012001486,429
103202,204423,271604,3.2673992603000004,3.9014972492999997,-8.3700934548,430
102924,204275,271561,3.1992038162000003,3.9469608787,-8.3365939384,431
102324,204160,271481,3.4121650276000004,4.0450666053,-8.2444702683,432
102043,204112,271504,3.3726834547,3.9481572899999997,-8.3018980107,433
102021,204052,271419,3.3846475676999996,4.0151563228,-8.2887374864,434
101906,204101,271397,3.278166962,4.0378881375,-8.3353975271,435
102036,204065,271455,3.2865418411,4.0630127748,-8.3222370028,436
102003,204105,271430,3.23031051,4.0654055974,-8.4239319633,437
102030,204182,271447,3.2494530908,3.9529429352,-8.3569329305,438
102158,204136,271479,3.2614172038,4.031906081,-8.3844503904,439
102155,204219,271458,3.278166962,4.0151563228,-8.3198441802,440
102139,204182,271493,3.3391839383,4.0103706776,-8.3497544627,441
102238,204202,271472,3.3355947043999996,3.9445680561,-8.4538422458,442
102424,204282,271483,3.2135607518000002,4.0223347905999995,-8.3820575678,443
102353,204268,271426,3.2374889778,3.9553357578,-8.360522164399999,444
102410,204331,271504,3.2566315586,3.9936209194,-8.404789382499999,445
102510,204312,271556,3.2985059541,4.0031922098,-8.4131642616,446
102565,204369,271453,3.2111679291999997,4.1671005579,-8.3246298254,447
102659,204354,271494,3.1956145822999997,4.0486558392,-8.3688970435,448
102704,204464,271484,3.2997023654,3.8584264425,-8.445467366699999,449
102589,204401,271493,3.1513473642000003,3.9326039431,-8.4370924876,450
102385,204302,271428,3.2039894614,3.9996029759000002,-8.291130309,451
101924,204134,271337,3.290131075,3.9672998708,-8.4215391407,452
101766,204101,271320,3.3044880106,4.0151563228,-8.2959159542,453
101412,204060,271213,3.3080772444999997,4.043870194,-8.3557365192,454
101418,203973,271216,3.3427731722,4.1563328562,-8.405985793800001,455
101293,203987,271177,3.3056844219,4.0941194686,-8.3581293418,456
101244,203938,271119,3.2434710343,3.9996029759000002,-8.2253276875,457
101258,203940,271150,3.3200413575,4.0725840652,-8.3126657124,458
101194,203924,271081,3.2709884942,4.1288153963,-8.2923267203,459
101200,203918,271095,3.3008987767,4.0103706776,-8.3222370028,460
101254,203923,271190,3.2745777280999997,4.1671005579,-8.2516487361,461
101355,203944,271130,3.3367911156999996,4.079762533,-8.3545401079,462
101439,204081,271205,3.1716863562999995,4.126422573699999,-8.3748791,463
101532,204159,271254,3.4037901484999997,4.151547211,-8.3294154706,464
101684,204198,271350,3.2566315586,4.0821553556,-8.2420774457,465
101848,204272,271349,3.3044880106,4.126422573699999,-8.3126657124,466
102010,204308,271384,3.2542387359999996,4.0283168471,-8.3425759949,467
102140,204352,271374,3.2997023654,4.146761565799999,-8.3007015994,468
102206,204423,271384,3.3128628897,3.9876388629,-8.3557365192,469
102410,204424,271365,3.3403803495999997,4.1527436223,-8.2564343813,470
102368,204439,271358,3.2913274863,4.0390845488,-8.362914987,471
102113,204359,271322,3.3822547451,4.0785661217,-8.3700934548,472
101849,204252,271287,3.3080772444999997,4.1012979364,-8.3102728898,473
101567,204209,271242,3.2135607518000002,4.1359938641000005,-8.2875410751,474
101511,204058,271245,3.266202849,3.9038900719000003,-8.2612200265,475
101416,204164,271282,3.3475588174,4.0366917262,-8.3282190593,476
101572,204165,271206,3.326023414,4.0187455567,-8.3210405915,477
101571,204204,271276,3.2398818003999996,3.9110685397,-8.2504523248,478
101714,204211,271246,3.3284162366,3.9996029759000002,-8.3330047045,479
101736,204203,271309,3.3367911156999996,4.06779842,-8.3772719226,480
101732,204274,271304,3.3702906320999997,4.1599220901,-8.3258262367,481
101910,204249,271277,3.2219356309,4.1551364449,-8.2959159542,482
101866,204285,271328,3.2518459134,4.06779842,-8.3126657124,483
101919,204306,271284,3.2542387359999996,4.0522450731,-8.3461652288,484
102130,204333,271320,3.1621150658999997,4.139583098,-8.2851482525,485
102224,204320,271318,3.3535408739,4.0773697104,-8.362914987,486
102229,204368,271363,3.3176485349,4.2281175342,-8.3114693011,487
102359,204432,271309,3.3056844219,4.0749768878,-8.338986761000001,488
102406,204451,271356,3.2446674455999998,4.0809589443,-8.5052879317,489
102594,204458,271363,3.0604201053999995,4.1300118076,-8.3042908333,490
102599,204476,271352,3.1657042998000002,4.0618163635,-8.3078800672,491
102718,204500,271412,3.206382284,3.9493537012999997,-8.427521197199999,492
102506,204467,271346,3.2685956716,4.1934216065,-8.4155570842,493
102330,204351,271373,3.2470602682000003,4.1371902754,-8.3437724062,494
102071,204289,271262,3.2829526072,4.18743955,-8.3318082932,495
101972,204224,271267,3.23031051,4.113262049399999,-8.3820575678,496
101952,204241,271278,3.3056844219,4.113262049399999,-8.4143606729,497
102021,204237,271284,3.1788648241,4.0390845488,-8.3748791,498
101943,204316,271283,3.2542387359999996,4.0510486617999995,-8.4083786164,499
102150,204320,271307,3.2590243811999997,4.1336010414999995,-8.2959159542,500
102221,204356,271330,3.2877382523999996,3.9373895883000003,-8.338986761000001,501
102256,204354,271277,3.1920253483999996,4.1240297511,-8.3126657124,502
102355,204339,271314,3.3224341800999997,3.9110685397,-8.2695949056,503
102351,204406,271278,3.2039894614,4.1048871703,-8.347361640099999,504
102389,204418,271344,3.2135607518000002,4.0654055974,-8.4430745441,505
102513,204378,271331,3.1489545415999998,4.1587256788,-8.3964145034,506
102560,204483,271346,3.3439695835000003,4.0366917262,-8.3677006322,507
102656,204521,271354,3.158525832,4.0127635002,-8.3796647452,508
102711,204526,271348,3.2147571631,3.9756747499,-8.4203427294,509
102893,204548,271376,3.2805597846,4.0689948312999995,-8.350950873999999,510
102965,204564,271445,3.3200413575,4.2149570099,-8.2959159542,511
102940,204591,271433,3.3583265191000002,4.0031922098,-8.470592004,512
102926,204612,271417,3.2769705507,4.2125641873,-8.398807326,513
102803,204513,271351,3.2231320422,4.1766718483,-8.3497544627,514
102419,204435,271296,3.2111679291999997,4.1108692268,-8.3772719226,515
102070,204360,271352,3.2745777280999997,4.103690759,-8.3174513576,516
101880,204310,271292,3.2733813167999997,3.9864424516000003,-8.2827554299,517
101727,204324,271225,3.2829526072,3.9792639838,-8.2995051881,518
101641,204259,271248,3.2805597846,4.0618163635,-8.2707913169,519
101644,204355,271263,3.2362925665,4.1527436223,-8.4323068424,520
101712,204392,271256,3.1357940173,4.0845481781999995,-8.3318082932,521
101740,204301,271298,3.2123643404999997,4.0785661217,-8.2564343813,522
101638,204375,271296,3.2769705507,4.0654055974,-8.3461652288,523
101725,204433,271295,3.3499516399999996,4.0103706776,-8.3186477689,524
101573,204404,271328,3.3164521235999995,4.0749768878,-8.3461652288,525
101617,204449,271295,3.1645078885,4.0534414844,-8.417949906799999,526
101696,204455,271332,3.2841490185,4.2137605985999995,-8.3437724062,527
101718,204548,271313,3.1956145822999997,4.0725840652,-8.4299140198,528
101854,204544,271328,3.2685956716,3.936193177,-8.2420774457,529
101812,204559,271323,3.1968109935999998,4.1575292675,-8.3294154706,530
101889,204575,271382,3.2877382523999996,4.0941194686,-8.3796647452,531
101994,204595,271325,3.2027930501,3.8895331363000003,-8.3198441802,532
102075,204638,271385,3.2470602682000003,4.1084764042,-8.3246298254,533
102015,204644,271329,3.3367911156999996,4.0187455567,-8.3940216808,534
102099,204655,271345,3.266202849,4.055834307,-8.3234334141,535
101685,204599,271304,3.2470602682000003,4.043870194,-8.3126657124,536
101137,204459,271229,3.1537401868,3.9756747499,-8.2337025666,537
100787,204372,271228,3.218346397,4.055834307,-8.3748791,538
100553,204348,271220,3.3272198253,4.0510486617999995,-8.4358960763,539
100375,204331,271234,3.1178478478000002,4.0414773714,-8.3365939384,540
100390,204307,271170,3.2614172038,4.0689948312999995,-8.3018980107,541
100431,204346,271232,3.2853454298,4.1096728155,-8.3497544627,542
100526,204373,271239,3.2985059541,3.9672998708,-8.327022648,543
100360,204346,271287,3.2338997439000003,4.0570307183,-8.350950873999999,544
100461,204356,271223,3.2051858726999995,4.1886359613,-8.3246298254,545
100543,204387,271230,3.3332018818,3.984049629,-8.3413795836,546
100551,204422,271334,3.2805597846,4.1168512833,-8.3294154706,547
100686,204418,271328,3.1573294206999996,4.0594235409,-8.3186477689,548
100703,204408,271323,3.3463624061,4.0271204358,-8.338986761000001,549
100800,204452,271334,3.4157542615,4.0893338234,-8.2564343813,550
100875,204476,271390,3.2255248647999997,4.1012979364,-8.327022648,551
100958,204572,271344,3.2626136151000003,4.0773697104,-8.3461652288,552
101009,204507,271410,3.3044880106,4.0462630166,-8.3796647452,553
101177,204570,271396,3.2374889778,3.8847474911,-8.3282190593,554
101271,204554,271379,3.2446674455999998,4.0594235409,-8.3533436966,555
101417,204559,271406,3.3008987767,3.9469608787,-8.398807326,556
101333,204582,271414,3.290131075,4.0402809601,-8.3677006322,557
101305,204467,271373,3.1716863562999995,4.0055850324,-8.4012001486,558
100858,204394,271281,3.2614172038,4.1539400336,-8.3557365192,559
100527,204293,271277,3.3152557123,4.2077785421,-8.249255913499999,560
100413,204308,271275,3.361915753,4.0761732991,-8.4251283746,561
100359,204146,271324,3.2398818003999996,3.9672998708,-8.3246298254,562
100468,204265,271368,3.3020951879999996,4.0055850324,-8.391628858199999,563
100640,204286,271334,3.2769705507,4.1192441059,-8.2612200265,564
100922,204201,271369,3.3104700671000002,3.9804603951,-8.4394853102,565
101119,204319,271437,3.4289147858,4.1084764042,-8.3413795836,566
101165,204327,271366,3.2614172038,4.1204405172000005,-8.434699665,567
101231,204357,271446,3.2279176874,4.1575292675,-8.360522164399999,568
101354,204352,271427,3.2578279699,4.0749768878,-8.4203427294,569
101425,204348,271457,3.3176485349,4.0331024923,-8.3569329305,570
101525,204329,271454,3.3320054705,4.0989051138,-8.2229348649,571
101800,204389,271505,3.2937203089,4.0414773714,-8.3294154706,572
102032,204345,271517,3.1561330094,4.0342989036,-8.3258262367,573
102062,204456,271522,3.1573294206999996,4.1934216065,-8.2037922841,574
102274,204476,271538,3.3116664784,3.9912280968,-8.3485580514,575
102473,204480,271589,3.3631121643,4.115654872,-8.4239319633,576
102492,204578,271619,3.1669007111,4.0893338234,-8.3294154706,577
102644,204563,271639,3.23031051,4.1072799929,-8.360522164399999,578
102757,204572,271592,3.3415767608999998,4.0127635002,-8.3485580514,579
102777,204537,271617,3.3559336964999997,4.1527436223,-8.3772719226,580
102588,204526,271567,3.1692935337,4.0881374121,-8.3653078096,581
102306,204404,271529,3.2757741394,4.1503507997,-8.3413795836,582
102069,204344,271510,3.3296126479000003,4.1383866867,-8.2995051881,583
102075,204300,271530,3.2135607518000002,4.1108692268,-8.3820575678,584
102154,204317,271549,3.1836504693,4.1910287839,-8.3533436966,585
102298,204356,271627,3.2697920829,4.1431723319,-8.254041558700001,586
102439,204385,271537,3.3822547451,4.1168512833,-8.3114693011,587
102615,204401,271560,3.3008987767,3.9816568063999997,-8.4131642616,588
102658,204385,271675,3.2685956716,4.1838503161,-8.2875410751,589
102866,204451,271643,3.2709884942,4.1527436223,-8.2755769621,590
102995,204472,271617,3.182454058,4.1742790257,-8.3808611565,591
103002,204436,271645,3.2949167202,4.0271204358,-8.3677006322,592
103090,204536,271653,3.2015966388,4.1240297511,-8.3018980107,593
103272,204492,271626,3.3056844219,4.1718862031,-8.3294154706,594
103434,204593,271726,3.1764720014999996,4.0869410008000004,-8.254041558700001,595
103532,204618,271666,3.2865418411,4.0055850324,-8.4287176085,596
103600,204615,271738,3.3427731722,4.0534414844,-8.3318082932,597
103731,204655,271731,3.2877382523999996,4.0570307183,-8.3569329305,598
103898,204696,271788,3.2638100264,4.0606199522,-8.4394853102,599
103933,204691,271755,3.2745777280999997,3.9589249917,-8.2420774457,600
104119,204687,271793,3.1549365981,4.0845481781999995,-8.3964145034,601
103955,204698,271777,3.2470602682000003,4.0390845488,-8.427521197199999,602
103740,204498,271741,3.3020951879999996,4.1108692268,-8.3282190593,603
103179,204521,271720,3.3415767608999998,4.1084764042,-8.3772719226,604
103187,204454,271719,3.2518459134,4.0498522505,-8.4370924876,605
103136,204419,271678,3.2590243811999997,3.960121403,-8.3485580514,606
103161,204416,271735,3.3032915993,3.9625142255999997,-8.398807326,607
103228,204437,271732,3.2626136151000003,4.1024943476999995,-8.3700934548,608
103416,204469,271746,3.2745777280999997,3.9625142255999997,-8.3557365192,609
103524,204518,271760,3.2087751066,4.1300118076,-8.3581293418,610
103501,204499,271752,3.3607193417,4.0007993872,-8.3090764785,611
103549,204543,271764,3.2039894614,4.0701912426,-8.2707913169,612
103677,204538,271763,3.242274623,4.1671005579,-8.4323068424,613
103652,204593,271750,3.1992038162000003,4.1048871703,-8.3138621237,614
103862,204628,271789,3.2757741394,4.0905302347,-8.360522164399999,615
103905,204621,271847,3.2913274863,4.0953158799,-8.303094422,616
104041,204646,271803,3.206382284,3.9792639838,-8.4442709554,617
104088,204677,271864,3.3655049869,4.1336010414999995,-8.3772719226,618
104180,204676,271865,3.278166962,4.1084764042,-8.306683655899999,619
104290,204677,271838,3.3690942208,4.1419759206,-8.3318082932,620
104359,204713,271890,3.3104700671000002,4.1419759206,-8.2707913169,621
104593,204764,271870,3.3164521235999995,4.0247276132000005,-8.3353975271,622
104538,204784,271825,3.3068808331999997,4.019941968,-8.458627890999999,623
104508,204741,271872,3.182454058,4.2065821308,-8.281559018600001,624
104157,204606,271780,3.2279176874,4.0857445895,-8.3114693011,625
103715,204535,271778,3.2446674455999998,3.9888352742,-8.3581293418,626
103488,204471,271765,3.1896325258,4.0606199522,-8.4287176085,627
103271,204413,271777,3.2243284535,3.9541393465,-8.306683655899999,628
103225,204414,271725,3.2470602682000003,3.9720855159999995,-8.3210405915,629
103390,204456,271779,3.2159535744,4.1108692268,-8.3461652288,630
103444,204485,271766,3.3702906320999997,4.0295132584,-8.3330047045,631
103540,204502,271750,3.2865418411,4.097708702499999,-8.4430745441,632
103553,204541,271815,3.2470602682000003,4.1778682596,-8.3342011158,633
103525,204573,271802,3.278166962,4.1144584607,-8.3018980107,634
103513,204496,271781,3.3463624061,4.1982072517,-8.3054872446,635
103501,204536,271777,3.2135607518000002,4.126422573699999,-8.3054872446,636
103566,204529,271769,3.2171499857,4.031906081,-8.3545401079,637
103609,204584,271776,3.2793633733,4.1324046302,-8.4012001486,638
103754,204581,271835,3.3236305914,4.0833517669,-8.3581293418,639
103737,204566,271797,3.3487552287,4.1527436223,-8.3174513576,640
103763,204635,271830,3.1716863562999995,4.1144584607,-8.3114693011,641
103704,204645,271759,3.314059301,4.0701912426,-8.3569329305,642
103771,204667,271755,3.2398818003999996,4.0007993872,-8.3198441802,643
103828,204674,271863,3.3391839383,4.0522450731,-8.3210405915,644
103916,204678,271828,3.2410782117,4.0893338234,-8.315058535,645
103719,204664,271828,3.2410782117,3.9469608787,-8.3904324469,646
103547,204591,271732,3.2231320422,4.1096728155,-8.3174513576,647
103030,204468,271716,3.1884361145,4.055834307,-8.3210405915,648
102733,204410,271691,3.2829526072,4.1324046302,-8.3844503904,649
102516,204351,271628,3.314059301,3.9948173307,-8.3210405915,650
102353,204342,271617,3.2255248647999997,4.0582271296000005,-8.3844503904,651
102386,204346,271673,3.2327033326,4.0594235409,-8.3964145034,652
102419,204354,271616,3.3535408739,3.9565321691,-8.3102728898,653
102408,204381,271684,3.1980074049,4.031906081,-8.3018980107,654
102436,204366,271626,3.3511480513,4.0486558392,-8.417949906799999,655
102489,204389,271675,3.2374889778,4.1336010414999995,-8.2660056717,656
102408,204413,271673,3.3631121643,4.0486558392,-8.3796647452,657
102417,204370,271657,3.2386853891,4.1383866867,-8.4083786164,658
102415,204449,271653,3.2219356309,4.043870194,-8.386843213,659
102439,204438,271668,3.1477581302999997,4.1958144290999995,-8.3581293418,660
102516,204423,271654,3.3391839383,3.9888352742,-8.4155570842,661
102671,204460,271658,3.2267212761,4.1228333398,-8.3222370028,662
102613,204490,271711,3.1740791789,4.0414773714,-8.3772719226,663
102618,204495,271731,3.2470602682000003,4.1120656381,-8.4299140198,664
102728,204519,271672,3.2554351473,4.0606199522,-8.3018980107,665
102798,204519,271733,3.2446674455999998,4.0390845488,-8.306683655899999,666
102803,204504,271725,3.182454058,4.0582271296000005,-8.3210405915,667
102820,204526,271727,3.2650064377,3.9888352742,-8.2731841395,668
102593,204495,271664,3.2446674455999998,4.0283168471,-8.3234334141,669
102108,204362,271610,3.3212377687999997,3.9182470075,-8.2839518412,670
101799,204311,271532,3.218346397,4.091726646,-8.315058535,671
101656,204305,271543,3.1680971224,4.0354953148999995,-8.3413795836,672
101626,204205,271487,3.2889346637,4.007977855,-8.2971123655,673
101621,204291,271581,3.3343982931,4.0115670889,-8.405985793800001,674
101724,204298,271570,3.2697920829,3.9864424516000003,-8.3485580514,675
101815,204339,271565,3.3631121643,4.091726646,-8.3533436966,676
101831,204303,271559,3.1920253483999996,4.1742790257,-8.2456666796,677
101945,204304,271633,3.3678978095,4.1108692268,-8.3533436966,678
101840,204315,271607,3.2518459134,4.1120656381,-8.3581293418,679
101842,204360,271548,3.2482566795000003,4.0833517669,-8.2839518412,680
101952,204329,271558,3.3367911156999996,3.9613178143,-8.3940216808,681
102014,204366,271570,3.2159535744,4.1144584607,-8.3617185757,682
102131,204428,271554,3.2099715178999997,4.0654055974,-8.3018980107,683
102272,204436,271565,3.2051858726999995,4.1096728155,-8.3557365192,684
102105,204465,271621,3.4109686163,4.0630127748,-8.291130309,685
102325,204478,271609,3.2398818003999996,4.1024943476999995,-8.327022648,686
102463,204512,271556,3.1860432919,3.9661034595,-8.417949906799999,687
102513,204462,271620,3.242274623,4.0055850324,-8.3688970435,688
102497,204516,271589,3.2207392196,3.9948173307,-8.4442709554,689
102189,204368,271570,3.2542387359999996,4.1001015251,-8.3198441802,690
101790,204301,271474,3.2865418411,4.007977855,-8.3892360356,691
101425,204205,271465,3.1669007111,4.115654872,-8.3653078096,692
101287,204145,271452,3.2015966388,4.1192441059,-8.3485580514,693
101307,204167,271481,3.1262227269,4.0821553556,-8.3892360356,694
101380,204114,271462,3.2374889778,4.0175491454,-8.391628858199999,695
101500,204219,271448,3.2841490185,4.0869410008000004,-8.3461652288,696
101527,204160,271381,3.2817561959000003,4.1958144290999995,-8.2839518412,697
101555,204194,271496,3.2362925665,4.0342989036,-8.2839518412,698
101579,204142,271500,3.1680971224,4.0546378957,-8.3437724062,699
101595,204282,271480,3.2087751066,4.0953158799,-8.3078800672,700
101669,204157,271451,3.278166962,4.1180476945999995,-8.410771439,701
101774,204243,271557,3.2745777280999997,4.1288153963,-8.3294154706,702
101803,204260,271547,3.3092736558,4.043870194,-8.3569329305,703
101857,204279,271448,3.2219356309,4.0534414844,-8.4239319633,704
101879,204325,271521,3.3607193417,4.0103706776,-8.2755769621,705
102006,204342,271509,3.3930224468000003,4.1503507997,-8.3724862774,706
102105,204375,271574,3.1848468806000003,4.0845481781999995,-8.3820575678,707
102354,204395,271559,3.2913274863,4.1718862031,-8.3461652288,708
102305,204451,271571,3.1800612354,4.1168512833,-8.2707913169,709
102390,204446,271565,3.1860432919,4.043870194,-8.4143606729,710
102403,204426,271591,3.2458638569,4.0570307183,-8.3365939384,711
101936,204322,271485,3.2518459134,4.1982072517,-8.3294154706,712
101602,204213,271487,3.2446674455999998,4.1838503161,-8.2372918005,713
101472,204160,271431,3.2099715178999997,4.0989051138,-8.3497544627,714
101323,204118,271415,3.2793633733,3.9672998708,-8.360522164399999,715
101258,204035,271406,3.2853454298,4.1120656381,-8.3282190593,716
101293,204159,271423,3.3343982931,4.092923057299999,-8.3820575678,717
101367,204097,271429,3.2673992603000004,3.9744783386,-8.4299140198,718
101454,204195,271452,3.2578279699,4.1312082188999995,-8.3712898661,719
101516,204174,271474,3.2446674455999998,4.031906081,-8.338986761000001,720
101534,204187,271431,3.2602207924999997,4.0331024923,-8.3760755113,721
101519,204184,271509,3.2434710343,4.0606199522,-8.360522164399999,722
101564,204194,271460,3.3942188581,4.0414773714,-8.3844503904,723
101682,204238,271450,3.182454058,3.9110685397,-8.362914987,724
101766,204238,271458,3.2434710343,4.1312082188999995,-8.3413795836,725
101876,204277,271529,3.242274623,4.1001015251,-8.2887374864,726
101955,204267,271503,3.278166962,4.0366917262,-8.3796647452,727
101890,204323,271544,3.2350961552,4.0175491454,-8.3198441802,728
102038,204385,271544,3.3523444626,4.0965122912,-8.3306118819,729
102260,204376,271525,3.3176485349,3.8727833781,-8.3748791,730
102216,204377,271542,3.2386853891,4.0630127748,-8.2516487361,731
102323,204409,271586,3.3008987767,4.0486558392,-8.3820575678,732
102436,204458,271587,3.2542387359999996,4.0833517669,-8.3138621237,733
102394,204427,271618,3.397808092,4.0666020087,-8.2707913169,734
102044,204344,271537,3.3906296242,4.031906081,-8.327022648,735
101573,204243,271489,3.2255248647999997,4.0893338234,-8.3712898661,736
101325,204115,271407,3.2279176874,4.0534414844,-8.4119678503,737
101271,204168,271415,3.2506495021,4.0713876539,-8.3892360356,738
101178,204156,271428,3.2745777280999997,4.0175491454,-8.3342011158,739
101214,204167,271498,3.1202406704,4.1575292675,-8.3461652288,740
101447,204184,271472,3.2709884942,3.9433716447999996,-8.303094422,741
101469,204212,271482,3.1968109935999998,4.1527436223,-8.3306118819,742
101507,204221,271495,3.2925238975999997,4.0366917262,-8.3844503904,743
101522,204199,271486,3.3655049869,4.0749768878,-8.3832539791,744
101554,204259,271494,3.2231320422,4.0881374121,-8.3820575678,745
101552,204225,271475,3.2733813167999997,4.0689948312999995,-8.3808611565,746
101669,204275,271537,3.2446674455999998,4.0785661217,-8.3796647452,747
101718,204305,271518,3.2494530908,4.1096728155,-8.3772719226,748
101791,204363,271496,3.3044880106,4.0342989036,-8.3018980107,749
101785,204345,271555,3.1992038162000003,4.064209186099999,-8.3700934548,750
101958,204367,271562,3.3403803495999997,3.9553357578,-8.3198441802,751
102042,204373,271605,3.2470602682000003,4.0175491454,-8.3700934548,752
102047,204435,271581,3.242274623,4.1551364449,-8.3569329305,753
102102,204440,271586,3.23031051,4.0486558392,-8.3904324469,754
102303,204483,271603,3.3092736558,4.0713876539,-8.4335032537,755
102238,204530,271602,3.2111679291999997,4.140779509300001,-8.2851482525,756
102397,204524,271550,3.2255248647999997,4.092923057299999,-8.3844503904,757
101918,204386,271540,3.2913274863,4.0713876539,-8.3533436966,758
101455,204268,271523,3.2997023654,4.0869410008000004,-8.3102728898,759
101222,204103,271392,3.2482566795000003,4.0043886211,-8.3856468017,760
101043,204202,271448,3.2769705507,3.9493537012999997,-8.3413795836,761
101116,204142,271441,3.1561330094,4.1718862031,-8.362914987,762
101133,204190,271478,3.3020951879999996,4.1527436223,-8.3485580514,763
101047,204145,271487,3.3451659948,4.1575292675,-8.391628858199999,764
101127,204205,271443,3.2291140987,3.9912280968,-8.4394853102,765
101183,204170,271494,3.2374889778,4.1001015251,-8.3964145034,766
101213,204225,271530,3.2279176874,4.0654055974,-8.3198441802,767
101155,204203,271461,3.1621150658999997,4.1288153963,-8.360522164399999,768
101290,204225,271547,3.278166962,3.9182470075,-8.3940216808,769
101308,204238,271521,3.2685956716,4.0043886211,-8.3007015994,770
101373,204199,271515,3.3786655112000004,4.0941194686,-8.3700934548,771
101460,204260,271471,3.3056844219,4.0486558392,-8.3724862774,772
101546,204315,271459,3.2626136151000003,4.1862431387,-8.4478601893,773
101502,204333,271554,3.2374889778,4.1539400336,-8.427521197199999,774
101697,204344,271570,3.3439695835000003,4.0845481781999995,-8.2899338977,775
101651,204374,271588,3.2805597846,4.0606199522,-8.3078800672,776
101810,204396,271564,3.1597222433,4.0785661217,-8.4012001486,777
101873,204333,271556,3.3128628897,4.139583098,-8.4323068424,778
101484,204274,271504,3.2087751066,4.2209390664,-8.293523131599999,779
101118,204136,271445,3.2087751066,4.1048871703,-8.350950873999999,780
100711,204127,271399,3.1968109935999998,4.1611185014,-8.3138621237,781
100646,203973,271451,3.3272198253,3.9696926934,-8.471788415299999,782
100675,204093,271347,3.0927232105,4.0630127748,-8.4251283746,783
100696,204081,271451,3.3607193417,4.0594235409,-8.2181492197,784
100805,204109,271440,3.0999016782999997,4.0402809601,-8.3724862774,785
100899,204103,271426,3.1429724850999996,4.2006000743,-8.3545401079,786
100934,204086,271455,3.2518459134,4.097708702499999,-8.2779697847,787
100942,204106,271416,3.3355947043999996,4.0414773714,-8.3892360356,788
100946,204109,271508,3.3152557123,4.2915273330999995,-8.3342011158,789
101075,204100,271464,3.1633114771999997,3.9936209194,-8.3940216808,790
101098,204147,271523,3.3535408739,4.1599220901,-8.4095750277,791
101233,204205,271465,3.3439695835000003,4.1072799929,-8.3318082932,792
101344,204231,271509,3.182454058,4.1958144290999995,-8.2636128491,793
101327,204231,271565,3.2470602682000003,4.0426737827,-8.3294154706,794
101397,204268,271538,3.2327033326,4.1060835816,-8.3952180921,795
101634,204357,271516,3.4025937372,4.1192441059,-8.2899338977,796
101642,204323,271614,3.2482566795000003,4.2101713647,-8.3222370028,797
101764,204321,271609,3.2087751066,4.0785661217,-8.315058535,798
101754,204365,271621,3.2793633733,4.1001015251,-8.4000037373,799
101467,204197,271512,3.2853454298,4.031906081,-8.3330047045,800
101119,204183,271435,3.2877382523999996,4.0462630166,-8.3964145034,801
100887,204094,271473,3.3296126479000003,4.0414773714,-8.3090764785,802
100852,204039,271487,3.4145578502,3.9661034595,-8.3581293418,803
100965,204064,271442,3.2614172038,4.0175491454,-8.3054872446,804
100958,204117,271514,3.1322047834,4.1012979364,-8.410771439,805
101089,204108,271520,3.3068808331999997,4.2029928969000006,-8.3342011158,806
101141,204161,271506,3.3714870434,3.9397824109,-8.3952180921,807
101187,204129,271501,3.218346397,4.1563328562,-8.271987728200001,808
101316,204156,271452,3.2853454298,3.996013742,-8.3724862774,809
101386,204168,271512,3.2793633733,4.0725840652,-8.3485580514,810
101376,204215,271571,3.2410782117,4.0713876539,-8.398807326,811
101525,204246,271582,3.3320054705,3.9828532177,-8.3007015994,812
101583,204224,271536,3.3332018818,4.0462630166,-8.3246298254,813
101691,204265,271563,3.3128628897,4.0869410008000004,-8.291130309,814
101751,204278,271548,3.2853454298,4.0989051138,-8.3581293418,815
101886,204345,271601,3.3164521235999995,4.0809589443,-8.3700934548,816
101986,204304,271582,3.2434710343,4.1575292675,-8.3018980107,817
102170,204428,271571,3.3224341800999997,4.0701912426,-8.3557365192,818
102143,204402,271624,3.2279176874,4.1359938641000005,-8.280362607299999,819
102067,204353,271559,3.3116664784,4.1359938641000005,-8.3258262367,820
101521,204228,271531,3.3008987767,4.0725840652,-8.1966138163,821
101199,204125,271512,3.2697920829,4.1682969692,-8.3437724062,822
101008,204086,271477,3.3942188581,4.0689948312999995,-8.404789382499999,823
100948,204104,271453,3.1549365981,4.007977855,-8.398807326,824
100876,204066,271448,3.4085757937,4.030709669699999,-8.3306118819,825
101022,204104,271502,3.1836504693,4.079762533,-8.2863446638,826
101162,204087,271452,3.2039894614,4.0821553556,-8.3724862774,827
101120,204118,271499,3.2231320422,4.103690759,-8.306683655899999,828
101232,204113,271538,3.3092736558,3.9900316855,-8.3784683339,829
101256,204142,271477,3.3020951879999996,4.0474594279,-8.3377903497,830
101321,204159,271509,3.1597222433,4.031906081,-8.3318082932,831
101423,204170,271482,3.1262227269,4.0175491454,-8.3318082932,832
101500,204236,271524,3.2518459134,3.9254254753,-8.3784683339,833
101395,204252,271494,3.2135607518000002,4.2137605985999995,-8.3365939384,834
101627,204243,271578,3.2937203089,4.0402809601,-8.410771439,835
101707,204305,271567,3.3152557123,3.9780675724999996,-8.3581293418,836
101844,204341,271612,3.3332018818,4.0414773714,-8.3940216808,837
101874,204348,271588,3.3020951879999996,3.9182470075,-8.3138621237,838
101977,204348,271578,3.242274623,4.0462630166,-8.3365939384,839
102171,204356,271610,3.2279176874,3.9996029759000002,-8.3844503904,840
102134,204381,271620,3.2757741394,3.9876388629,-8.4251283746,841
101810,204308,271555,3.1812576466999998,4.0630127748,-8.303094422,842
101380,204228,271490,3.2877382523999996,4.0941194686,-8.3724862774,843
101181,204133,271461,3.3834511564,3.9397824109,-8.3581293418,844
100952,204102,271425,3.2614172038,4.1144584607,-8.2827554299,845
100939,204121,271430,3.3439695835000003,4.0390845488,-8.2695949056,846
100877,204114,271517,3.2590243811999997,3.9696926934,-8.4155570842,847
101088,204148,271507,3.2374889778,3.9720855159999995,-8.3377903497,848
101101,204117,271518,3.2733813167999997,4.2053857195,-8.3234334141,849
101192,204212,271468,3.3032915993,4.06779842,-8.350950873999999,850
101175,204182,271497,3.3535408739,4.1934216065,-8.2851482525,851
101226,204208,271468,3.4002009146,4.0031922098,-8.417949906799999,852
101231,204189,271429,3.2709884942,4.0450666053,-8.3700934548,853
101428,204102,271453,3.170489945,3.9936209194,-8.315058535,854
101375,204225,271508,3.2961131315000003,4.0127635002,-8.3353975271,855
101478,204252,271504,3.2004002275,4.0689948312999995,-8.3222370028,856
101567,204325,271472,3.2542387359999996,4.1551364449,-8.338986761000001,857
101687,204276,271517,3.2398818003999996,4.0211383793,-8.3533436966,858
101739,204229,271546,3.1393832512,4.031906081,-8.3042908333,859
101709,204352,271558,3.3080772444999997,4.1001015251,-8.3677006322,860
101842,204394,271545,3.3487552287,3.9182470075,-8.2971123655,861
102007,204418,271559,3.2123643404999997,3.9720855159999995,-8.3677006322,862
102021,204431,271565,3.2398818003999996,3.9936209194,-8.2731841395,863
102001,204364,271504,3.2889346637,4.06779842,-8.3724862774,864
101661,204274,271480,3.3176485349,4.1001015251,-8.2923267203,865
101190,204209,271486,3.1094729686999996,4.1527436223,-8.2612200265,866
100990,204183,271336,3.1525437755,4.0713876539,-8.4012001486,867
100825,204105,271346,3.2398818003999996,4.1144584607,-8.405985793800001,868
100860,204132,271421,3.3236305914,4.1359938641000005,-8.3952180921,869
100914,204129,271380,3.2027930501,4.031906081,-8.3413795836,870
100964,204183,271393,3.2877382523999996,4.091726646,-8.386843213,871
101120,204198,271460,3.2398818003999996,4.0007993872,-8.398807326,872
101051,204158,271384,3.2159535744,4.1216369285,-8.352147285300001,873
101170,204159,271387,3.2709884942,4.0366917262,-8.3222370028,874
101073,204168,271458,3.1980074049,3.960121403,-8.3365939384,875
101097,204193,271425,3.2470602682000003,3.8919259589,-8.3246298254,876
101156,204204,271459,3.2554351473,3.960121403,-8.4095750277,877
101271,204242,271467,3.2602207924999997,4.031906081,-8.4957166413,878
101421,204244,271452,3.2709884942,4.0091742663,-8.4311104311,879
101506,204311,271422,3.3056844219,4.031906081,-8.1966138163,880
101628,204327,271416,3.1800612354,4.0366917262,-8.4263247859,881
101580,204358,271535,3.1310083721,3.9182470075,-8.3808611565,882
101725,204395,271537,3.2793633733,4.113262049399999,-8.3318082932,883
101783,204407,271538,3.1202406704,4.0833517669,-8.3772719226,884
101883,204406,271539,3.218346397,4.0390845488,-8.2683984943,885
101869,204403,271546,3.134597606,4.1527436223,-8.3964145034,886
101741,204427,271476,3.2350961552,4.0833517669,-8.3497544627,887
101325,204299,271414,3.2614172038,3.9852460403000003,-8.3318082932,888
101077,204140,271405,3.2709884942,4.1527436223,-8.2887374864,889
100841,204204,271398,3.2757741394,4.208974953399999,-8.327022648,890
100842,204200,271385,3.3224341800999997,4.079762533,-8.327022648,891
100908,204143,271388,3.2027930501,4.0881374121,-8.3365939384,892
100960,204229,271465,3.3690942208,4.0965122912,-8.362914987,893
101077,204226,271487,3.3583265191000002,4.0414773714,-8.254041558700001,894
101172,204258,271427,3.3678978095,4.0737804765,-8.3677006322,895
101203,204292,271448,3.2087751066,3.9948173307,-8.271987728200001,896
101208,204286,271417,3.2315069213,4.0953158799,-8.3342011158,897
101225,204327,271471,3.3678978095,4.0462630166,-8.3330047045,898
101277,204331,271463,3.1369904286000003,4.0630127748,-8.4370924876,899
101366,204361,271467,3.2542387359999996,3.9577285803999995,-8.405985793800001,900
101439,204371,271456,3.2207392196,4.1527436223,-8.3688970435,901
101618,204307,271529,3.2949167202,4.007977855,-8.405985793800001,902
101612,204405,271509,3.3942188581,3.9637106368999997,-8.350950873999999,903
101771,204428,271530,3.2494530908,4.0618163635,-8.3581293418,904
101774,204465,271515,3.3499516399999996,4.0007993872,-8.4251283746,905
101928,204519,271510,3.1501509529,4.0989051138,-8.3342011158,906
102049,204493,271581,3.2997023654,3.9469608787,-8.398807326,907
101995,204498,271533,3.4157542615,3.996013742,-8.2887374864,908
101750,204439,271527,3.2075786953,4.1671005579,-8.352147285300001,909
101371,204318,271430,3.3284162366,4.0905302347,-8.291130309,910
101125,204237,271391,3.2219356309,4.0187455567,-8.2348989779,911
100878,204249,271370,3.1513473642000003,4.0486558392,-8.3294154706,912
100786,204185,271427,3.2685956716,4.0235312019,-8.3748791,913
100791,204223,271468,3.3272198253,3.996013742,-8.2480595022,914
100909,204244,271426,3.2398818003999996,4.091726646,-8.3485580514,915
100875,204268,271434,3.2614172038,4.126422573699999,-8.4741812379,916
101016,204238,271445,3.2709884942,4.1312082188999995,-8.338986761000001,917
101003,204291,271419,3.2015966388,4.1204405172000005,-8.281559018600001,918
101106,204281,271428,3.0999016782999997,4.1455651545,-8.3222370028,919
101239,204281,271395,3.2135607518000002,4.0223347905999995,-8.350950873999999,920
101202,204284,271489,3.170489945,4.0486558392,-8.3748791,921
101436,204323,271538,3.2482566795000003,4.1347974528,-8.347361640099999,922
101469,204347,271425,3.2769705507,3.984049629,-8.398807326,923
101542,204383,271493,3.314059301,4.0103706776,-8.2695949056,924
101620,204409,271460,3.2733813167999997,4.1240297511,-8.3258262367,925
101644,204383,271469,3.2207392196,4.1288153963,-8.2887374864,926
101780,204468,271578,3.3020951879999996,4.1228333398,-8.4035929712,927
101877,204504,271530,3.1669007111,3.9996029759000002,-8.2959159542,928
102093,204554,271509,3.278166962,4.0067814437,-8.3700934548,929
102039,204487,271583,3.1633114771999997,3.9206398301,-8.2887374864,930
101975,204493,271508,3.1788648241,4.1312082188999995,-8.3318082932,931
101628,204404,271449,3.2817561959000003,4.0582271296000005,-8.3102728898,932
101175,204301,271438,3.4372896648999998,4.0701912426,-8.3294154706,933
100849,204227,271394,3.326023414,4.0366917262,-8.3186477689,934
100704,204230,271410,3.2458638569,4.055834307,-8.3533436966,935
100707,204235,271431,3.1848468806000003,3.9278182979,-8.327022648,936
100714,204211,271480,3.2757741394,4.2053857195,-8.3306118819,937
100752,204232,271421,3.1657042998000002,4.1144584607,-8.2887374864,938
100822,204263,271442,3.266202849,4.0271204358,-8.3557365192,939
100916,204258,271438,3.2327033326,3.9924245080999996,-8.2731841395,940
100831,204295,271503,3.1932217597,4.0331024923,-8.3796647452,941
100942,204249,271417,3.23031051,4.1192441059,-8.3796647452,942
100835,204253,271432,3.2338997439000003,4.0259240245,-8.410771439,943
100882,204307,271486,3.3128628897,3.9314075318,-8.362914987,944
100955,204261,271455,3.3128628897,4.0654055974,-8.3700934548,945
101022,204354,271476,3.337987527,4.1551364449,-8.3497544627,946
101002,204312,271471,3.3104700671000002,4.055834307,-8.315058535,947
101223,204364,271534,3.2219356309,4.126422573699999,-8.271987728200001,948
101214,204304,271472,3.2913274863,4.2101713647,-8.2875410751,949
101182,204381,271506,3.2757741394,4.0773697104,-8.4012001486,950
101320,204412,271505,3.1022945009000003,4.0606199522,-8.3114693011,951
101405,204433,271526,3.4109686163,4.103690759,-8.3246298254,952
101457,204484,271476,3.2817561959000003,4.0007993872,-8.2348989779,953
101345,204413,271467,3.23031051,4.0283168471,-8.315058535,954
100910,204337,271396,3.1764720014999996,4.1336010414999995,-8.3748791,955
100418,204211,271368,3.3415767608999998,4.0510486617999995,-8.450253011900001,956
100191,204155,271366,3.1393832512,4.0462630166,-8.362914987,957
100126,204054,271345,3.1788648241,4.055834307,-8.4000037373,958
100074,204123,271368,3.3942188581,4.0271204358,-8.398807326,959
100048,204106,271368,3.1633114771999997,4.1742790257,-8.2899338977,960
100197,204138,271333,3.2530423247,3.9541393465,-8.4035929712,961
100287,204143,271336,3.2709884942,4.2017964856,-8.3904324469,962
100290,204121,271329,3.2494530908,4.0821553556,-8.3760755113,963
100376,204144,271373,3.1621150658999997,4.0689948312999995,-8.2480595022,964
100298,204160,271350,3.3176485349,4.0701912426,-8.3102728898,965
100341,204151,271422,3.3296126479000003,4.1252261624,-8.4370924876,966
100432,204185,271369,3.3487552287,3.9732819273,-8.3533436966,967
100519,204200,271369,3.2697920829,4.1168512833,-8.2875410751,968
100672,204240,271386,3.2231320422,4.1048871703,-8.303094422,969
100644,204229,271420,3.3296126479000003,4.091726646,-8.417949906799999,970
100681,204281,271418,3.1070801461,4.103690759,-8.3461652288,971
100803,204264,271425,3.3343982931,3.9314075318,-8.386843213,972
100940,204331,271393,3.2374889778,4.0486558392,-8.3700934548,973
101073,204316,271372,3.2135607518000002,4.0271204358,-8.4083786164,974
101079,204375,271445,3.2769705507,4.0342989036,-8.3090764785,975
101234,204400,271431,3.2231320422,4.1108692268,-8.3413795836,976
101093,204265,271347,3.1884361145,4.0151563228,-8.327022648,977
100540,204209,271367,3.2829526072,3.996013742,-8.293523131599999,978
100370,204128,271328,3.1752755902,3.9206398301,-8.386843213,979
100136,204109,271282,3.3248270027,4.1359938641000005,-8.254041558700001,980
100233,204123,271297,3.2709884942,4.1288153963,-8.3042908333,981
100177,204138,271374,3.3726834547,4.0809589443,-8.3282190593,982
100389,204050,271420,3.2865418411,4.1587256788,-8.2755769621,983
100403,204155,271368,3.266202849,4.0007993872,-8.4012001486,984
100578,204206,271376,3.337987527,4.1084764042,-8.2851482525,985
100532,204185,271376,3.2638100264,4.0761732991,-8.360522164399999,986
100560,204193,271412,3.1573294206999996,4.0869410008000004,-8.293523131599999,987
100607,204195,271416,3.3020951879999996,4.0534414844,-8.3078800672,988
100737,204234,271439,3.2446674455999998,4.0163527341,-8.3533436966,989
100805,204194,271358,3.2338997439000003,4.1383866867,-8.3832539791,990
100952,204261,271440,3.2614172038,4.0821553556,-8.3102728898,991
100957,204292,271405,3.2099715178999997,4.0654055974,-8.386843213,992
101147,204330,271448,3.2135607518000002,4.0283168471,-8.386843213,993
101064,204338,271475,3.3224341800999997,3.924229064,-8.373682688699999,994
101348,204405,271464,3.2793633733,3.9984065645999998,-8.2109707519,995
101363,204425,271510,3.2793633733,4.0331024923,-8.4083786164,996
101458,204333,271449,3.2865418411,4.0175491454,-8.391628858199999,997
101403,204353,271490,3.1812576466999998,4.1120656381,-8.417949906799999,998
100900,204263,271443,3.1908289370999996,4.1228333398,-8.3748791,999
100550,204176,271406,3.4002009146,3.9433716447999996,-8.3485580514,1000
100324,204108,271296,3.1501509529,3.9481572899999997,-8.3617185757,1001
100266,204059,271346,3.3320054705,4.0773697104,-8.3246298254,1002
100419,204121,271374,3.2721849055,3.9816568063999997,-8.2827554299,1003
100381,204138,271354,3.2207392196,4.1336010414999995,-8.3174513576,1004
100460,204132,271358,3.2650064377,3.9744783386,-8.422735552,1005
100595,204152,271394,3.3487552287,4.1371902754,-8.3700934548,1006
100733,204189,271375,3.1896325258,4.1096728155,-8.3306118819,1007
100671,204154,271400,3.2470602682000003,3.9349967657,-8.4215391407,1008
100754,204220,271413,3.2219356309,4.0223347905999995,-8.3007015994,1009
100880,204132,271414,3.3367911156999996,4.1096728155,-8.249255913499999,1010
100994,204212,271409,3.1369904286000003,3.9110685397,-8.4095750277,1011
101079,204268,271440,3.2626136151000003,4.0414773714,-8.4012001486,1012
101133,204289,271454,3.206382284,4.163511324,-8.2875410751,1013
101320,204302,271398,3.1992038162000003,4.0725840652,-8.3437724062,1014
101314,204345,271469,3.1381868399,4.091726646,-8.2372918005,1015
101463,204370,271464,3.3236305914,4.1359938641000005,-8.3461652288,1016
101538,204397,271471,3.3236305914,4.0342989036,-8.3557365192,1017
101687,204391,271487,3.2386853891,3.9529429352,-8.280362607299999,1018
101669,204385,271445,3.2506495021,4.1192441059,-8.3138621237,1019
101393,204287,271460,3.3966116807,4.0247276132000005,-8.3904324469,1020
100933,204179,271359,3.2195428083000004,4.0414773714,-8.2301133327,1021
100709,204230,271412,3.3403803495999997,4.1503507997,-8.2588272039,1022
100618,204082,271338,3.1238299043,3.8536407972999998,-8.3557365192,1023
100605,204091,271372,3.3296126479000003,4.0103706776,-8.360522164399999,1024
100746,204144,271335,3.1956145822999997,4.0342989036,-8.391628858199999,1025
100797,204152,271415,3.2327033326,4.1551364449,-8.3425759949,1026
100942,204162,271382,3.4013973259,4.1383866867,-8.4323068424,1027
101061,204179,271395,3.2159535744,4.0139599115,-8.3126657124,1028
101037,204219,271405,3.3690942208,3.9026936606000002,-8.3222370028,1029
101065,204182,271387,3.1262227269,3.9338003543999998,-8.3748791,1030
101067,204197,271414,3.1776684127999997,4.1443687432,-8.386843213,1031
101216,204206,271369,3.2578279699,3.9888352742,-8.347361640099999,1032
101414,204259,271442,3.2255248647999997,4.0390845488,-8.2767733734,1033
101358,204276,271433,3.3774690999,4.1108692268,-8.2851482525,1034
101427,204323,271437,3.1573294206999996,4.1383866867,-8.398807326,1035
101563,204243,271465,3.3068808331999997,4.0007993872,-8.3928252695,1036
101597,204329,271475,3.3427731722,4.097708702499999,-8.3294154706,1037
101645,204367,271452,3.242274623,4.1096728155,-8.459824302300001,1038
101815,204394,271447,3.1645078885,4.0283168471,-8.3892360356,1039
101819,204420,271452,3.266202849,4.1312082188999995,-8.3557365192,1040
101534,204352,271406,3.3559336964999997,4.0187455567,-8.3294154706,1041
101157,204258,271354,3.3284162366,4.2006000743,-8.2755769621,1042
100840,204173,271324,3.1609186546,4.0055850324,-8.3617185757,1043
100724,204156,271331,3.2207392196,4.0881374121,-8.3784683339,1044
100574,204112,271269,3.1992038162000003,4.0654055974,-8.417949906799999,1045
100572,204166,271270,3.3248270027,4.0414773714,-8.3820575678,1046
100654,204174,271245,3.1214370817,4.019941968,-8.362914987,1047
100750,204137,271250,3.3678978095,4.1527436223,-8.249255913499999,1048
100859,204198,271321,3.2985059541,4.1324046302,-8.2959159542,1049
100763,204191,271300,3.2099715178999997,3.9984065645999998,-8.2983087768,1050
100740,204256,271289,3.2650064377,4.0761732991,-8.2863446638,1051
100836,204207,271275,3.2075786953,4.1359938641000005,-8.316254946299999,1052
100968,204265,271350,3.3152557123,4.0139599115,-8.362914987,1053
100971,204301,271269,3.1202406704,4.1060835816,-8.3581293418,1054
101099,204317,271307,3.218346397,3.9385859996,-8.3724862774,1055
101228,204366,271318,3.2051858726999995,4.0486558392,-8.3294154706,1056
101259,204390,271330,3.3104700671000002,3.9314075318,-8.2372918005,1057
101340,204470,271356,3.3032915993,4.0271204358,-8.4203427294,1058
101494,204478,271340,3.2673992603000004,4.1455651545,-8.3796647452,1059
101640,204477,271383,3.2207392196,4.1060835816,-8.3246298254,1060
101708,204536,271362,3.2470602682000003,3.9505501125999998,-8.4538422458,1061
101624,204461,271392,3.2530423247,4.0857445895,-8.3342011158,1062
101379,204460,271267,3.3894332128999998,3.9948173307,-8.3653078096,1063
101082,204332,271292,3.3104700671000002,4.0462630166,-8.4203427294,1064
100885,204270,271253,3.2709884942,4.0175491454,-8.3365939384,1065
100848,204286,271205,3.3032915993,4.140779509300001,-8.3533436966,1066
100813,204294,271194,3.3284162366,4.0534414844,-8.3318082932,1067
100981,204307,271246,3.3487552287,4.0689948312999995,-8.3377903497,1068
101107,204324,271211,3.2219356309,4.0007993872,-8.3401831723,1069
101015,204400,271183,3.1657042998000002,4.1336010414999995,-8.3964145034,1070
101161,204389,271243,3.2542387359999996,4.1180476945999995,-8.291130309,1071
101253,204392,271207,3.2638100264,4.0941194686,-8.3533436966,1072
101354,204409,271206,3.2195428083000004,4.1144584607,-8.2348989779,1073
101350,204403,271179,3.158525832,4.0295132584,-8.410771439,1074
101478,204481,271214,3.194418171,3.8536407972999998,-8.3545401079,1075
101614,204499,271222,3.2877382523999996,3.9278182979,-8.2731841395,1076
101707,204530,271199,3.1932217597,3.9912280968,-8.2971123655,1077
101876,204526,271182,3.3535408739,4.079762533,-8.293523131599999,1078
101958,204583,271253,3.3200413575,3.9433716447999996,-8.3700934548,1079
101981,204624,271257,3.2985059541,4.091726646,-8.2875410751,1080
102114,204656,271261,3.2733813167999997,4.0031922098,-8.3461652288,1081
102113,204641,271238,3.2327033326,4.0582271296000005,-8.427521197199999,1082
102304,204649,271311,3.182454058,4.0067814437,-8.2648092604,1083
102227,204654,271252,3.3535408739,4.0809589443,-8.3353975271,1084
102017,204526,271148,3.3164521235999995,4.0749768878,-8.3880396243,1085
101789,204482,271124,3.1776684127999997,4.0534414844,-8.2660056717,1086
101597,204440,271087,3.1680971224,4.0821553556,-8.3533436966,1087
101582,204388,271082,3.1692935337,4.0821553556,-8.362914987,1088
101531,204400,271075,3.2757741394,4.0342989036,-8.2612200265,1089
101530,204414,271117,3.2566315586,4.115654872,-8.3318082932,1090
101592,204470,271108,3.3870403903,4.1575292675,-8.293523131599999,1091
101767,204495,271073,3.3846475676999996,4.0606199522,-8.306683655899999,1092
101902,204490,271113,3.3631121643,4.0618163635,-8.422735552,1093
101869,204564,271096,3.326023414,3.9302111204999997,-8.303094422,1094
101874,204499,271071,3.2841490185,4.1336010414999995,-8.2983087768,1095
101949,204591,271123,3.3044880106,4.103690759,-8.3772719226,1096
102034,204593,271149,3.3092736558,4.030709669699999,-8.391628858199999,1097
102082,204616,271121,3.2757741394,4.1120656381,-8.249255913499999,1098
102241,204651,271106,3.3308090592,3.9158541848999997,-8.391628858199999,1099
102436,204648,271180,3.2386853891,4.0235312019,-8.3425759949,1100
102435,204639,271177,3.2458638569,4.0821553556,-8.2468630909,1101
102652,204727,271178,3.2973095428,4.1766718483,-8.227720510100001,1102
102582,204769,271136,3.2434710343,3.9888352742,-8.316254946299999,1103
102788,204663,271151,3.2542387359999996,4.0953158799,-8.405985793800001,1104
102699,204798,271171,3.3320054705,3.9589249917,-8.4167534955,1105
102814,204770,271137,3.2434710343,4.0582271296000005,-8.3401831723,1106
102790,204790,271080,3.1788648241,4.0139599115,-8.2731841395,1107
102604,204622,271079,3.3786655112000004,3.9314075318,-8.316254946299999,1108
102168,204528,270999,3.2685956716,4.1539400336,-8.3294154706,1109
102098,204518,270993,3.3774690999,4.1455651545,-8.3940216808,1110
101903,204547,270976,3.2685956716,4.097708702499999,-8.3772719226,1111
101963,204536,271044,3.385843979,3.9756747499,-8.2612200265,1112
101965,204529,270972,3.2745777280999997,3.8895331363000003,-8.4562350684,1113
102110,204575,270970,3.2350961552,4.0582271296000005,-8.316254946299999,1114
102209,204574,270971,3.3044880106,4.0342989036,-8.3880396243,1115
102155,204550,270969,3.3032915993,4.0881374121,-8.3724862774,1116
102084,204596,270964,3.2985059541,4.0582271296000005,-8.434699665,1117
102062,204599,271034,3.3128628897,4.0223347905999995,-8.350950873999999,1118
102128,204616,271001,3.2973095428,4.0331024923,-8.4131642616,1119
102218,204645,271031,3.2709884942,4.0390845488,-8.3461652288,1120
102304,204611,271007,3.2602207924999997,4.1084764042,-8.3365939384,1121
102419,204696,270995,3.2147571631,4.0725840652,-8.3353975271,1122
102575,204708,271029,3.1082765574000004,3.9852460403000003,-8.315058535,1123
102597,204734,271016,3.1477581302999997,3.8656049103,-8.4370924876,1124
102559,204728,271052,3.4037901484999997,4.1623149127,-8.280362607299999,1125
102723,204741,271032,3.2039894614,4.0654055974,-8.3294154706,1126
102695,204738,271058,3.1860432919,4.1060835816,-8.3557365192,1127
102782,204743,271053,3.2004002275,4.0127635002,-8.3342011158,1128
102779,204781,271067,3.2793633733,4.097708702499999,-8.3581293418,1129
102604,204679,270978,3.2350961552,4.2819560427,-8.2779697847,1130
102172,204615,270922,3.2542387359999996,4.1084764042,-8.3485580514,1131
101775,204602,270916,3.1776684127999997,4.0486558392,-8.398807326,1132
101575,204540,270899,3.1692935337,4.0271204358,-8.3318082932,1133
101378,204492,270908,3.2374889778,4.0462630166,-8.3413795836,1134
101334,204545,270897,3.3343982931,4.0905302347,-8.4562350684,1135
101482,204564,270867,3.3008987767,4.0606199522,-8.3138621237,1136
101447,204563,270870,3.3308090592,4.1240297511,-8.3533436966,1137
101335,204603,270811,3.2913274863,4.091726646,-8.2743805508,1138
101405,204650,270892,3.3367911156999996,4.0654055974,-8.338986761000001,1139
101274,204616,270837,3.1800612354,3.9972101532999997,-8.352147285300001,1140
101267,204600,270828,3.1800612354,4.0331024923,-8.417949906799999,1141
101336,204652,270884,3.2925238975999997,4.0965122912,-8.3892360356,1142
101386,204683,270870,3.2279176874,4.0881374121,-8.3748791,1143
101450,204623,270902,3.4253255519,4.0223347905999995,-8.2731841395,1144
101466,204695,270890,3.2638100264,4.0462630166,-8.3772719226,1145
101535,204708,270862,3.2159535744,4.1371902754,-8.3210405915,1146
101626,204820,270880,3.2973095428,4.043870194,-8.2636128491,1147
101654,204815,270889,3.2997023654,4.0713876539,-8.4035929712,1148
101704,204808,270926,3.266202849,4.0115670889,-8.303094422,1149
101791,204837,270962,3.3080772444999997,4.0833517669,-8.3772719226,1150
101622,204821,270945,3.2961131315000003,4.1359938641000005,-8.338986761000001,1151
101346,204756,270836,3.3583265191000002,4.1024943476999995,-8.306683655899999,1152
100798,204645,270833,3.266202849,4.1072799929,-8.2875410751,1153
100568,204596,270748,3.2350961552,4.146761565799999,-8.3748791,1154
100364,204534,270768,3.2350961552,4.0295132584,-8.4394853102,1155
100313,204506,270744,3.1190442591,4.0342989036,-8.3665042209,1156
100296,204519,270752,3.3942188581,3.9936209194,-8.3222370028,1157
100363,204577,270770,3.1453653077,4.1730826144,-8.254041558700001,1158
100312,204548,270767,3.3224341800999997,4.0235312019,-8.2456666796,1159
100337,204575,270740,3.1764720014999996,3.9804603951,-8.398807326,1160
100350,204551,270741,3.2350961552,4.0869410008000004,-8.3724862774,1161
100381,204580,270758,3.1752755902,4.0941194686,-8.2995051881,1162
100298,204579,270766,3.1896325258,3.9649070482,-8.327022648,1163
100414,204577,270689,3.2793633733,4.0582271296000005,-8.327022648,1164
100415,204614,270760,3.2829526072,4.2364924133,-8.3294154706,1165
100528,204662,270801,3.2518459134,4.1180476945999995,-8.3425759949,1166
100624,204647,270800,3.2685956716,3.9637106368999997,-8.3246298254,1167
100735,204711,270813,3.194418171,4.0031922098,-8.3724862774,1168
100805,204715,270861,3.2853454298,4.0390845488,-8.2839518412,1169
100856,204723,270820,3.2829526072,3.9038900719000003,-8.3222370028,1170
100880,204750,270834,3.4049865597999998,4.1180476945999995,-8.3796647452,1171
101014,204754,270859,3.2410782117,4.0498522505,-8.3102728898,1172
101065,204678,270879,3.2195428083000004,4.1694933805000005,-8.3772719226,1173
100730,204690,270716,3.2386853891,4.146761565799999,-8.3748791,1174
100272,204532,270709,3.2255248647999997,4.1060835816,-8.3018980107,1175
100021,204472,270682,3.1884361145,3.9649070482,-8.327022648,1176
99938,204452,270691,3.3631121643,4.1431723319,-8.3138621237,1177
99883,204456,270760,3.3176485349,4.0127635002,-8.3461652288,1178
99936,204471,270732,3.2566315586,4.0031922098,-8.4622171249,1179
100064,204463,270768,3.3044880106,4.0869410008000004,-8.315058535,1180
100108,204458,270763,3.3212377687999997,3.996013742,-8.327022648,1181
100040,204478,270753,3.1968109935999998,4.146761565799999,-8.2348989779,1182
100139,204479,270767,3.3499516399999996,4.0235312019,-8.3557365192,1183
100172,204515,270779,3.1788648241,4.092923057299999,-8.350950873999999,1184
100241,204501,270782,3.2518459134,3.9290147091999996,-8.3700934548,1185
100378,204538,270751,3.1992038162000003,4.2269211229,-8.3772719226,1186
100455,204489,270824,3.206382284,3.9912280968,-8.3904324469,1187
100614,204627,270780,3.3032915993,4.0235312019,-8.4394853102,1188
100601,204570,270787,3.2733813167999997,4.0701912426,-8.3940216808,1189
100734,204629,270844,3.3798619225,4.1623149127,-8.3557365192,1190
100886,204641,270865,3.1836504693,4.1252261624,-8.315058535,1191
100935,204656,270863,3.2087751066,4.0127635002,-8.3964145034,1192
101008,204669,270841,3.2542387359999996,3.9577285803999995,-8.362914987,1193
101114,204651,270879,3.2757741394,4.115654872,-8.254041558700001,1194
101126,204648,270891,3.3332018818,4.0462630166,-8.3222370028,1195
100867,204623,270832,3.3391839383,4.1742790257,-8.2516487361,1196
100582,204513,270828,3.2279176874,4.0055850324,-8.3234334141,1197
100192,204462,270716,3.3822547451,4.0390845488,-8.3844503904,1198
100104,204337,270740,3.2889346637,4.2053857195,-8.3677006322,1199
100098,204379,270766,3.2398818003999996,3.9613178143,-8.315058535,1200
100122,204350,270780,3.3056844219,4.0701912426,-8.3772719226,1201
100268,204413,270745,3.2027930501,3.9062828945,-8.422735552,1202
100329,204421,270838,3.2769705507,4.1790646709,-8.3485580514,1203
100396,204399,270851,3.1956145822999997,4.0773697104,-8.4131642616,1204
100454,204417,270851,3.218346397,4.2221354777,-8.404789382499999,1205
100634,204420,270826,3.4073793824000003,3.9876388629,-8.405985793800001,1206
100631,204391,270800,3.2087751066,4.0821553556,-8.3234334141,1207
100631,204439,270860,3.2075786953,4.0821553556,-8.3198441802,1208
100764,204474,270875,3.3547372851999997,4.0701912426,-8.422735552,1209
100809,204483,270852,3.2159535744,3.9553357578,-8.450253011900001,1210
100904,204465,270906,3.23031051,4.0821553556,-8.3748791,1211
101075,204549,270900,3.2913274863,4.199403663,-8.2923267203,1212
101146,204525,270893,3.1968109935999998,4.140779509300001,-8.2995051881,1213
101264,204541,270879,3.2279176874,4.1072799929,-8.3234334141,1214
101310,204576,270906,3.2446674455999998,4.1742790257,-8.3581293418,1215
101408,204592,270936,3.2949167202,3.984049629,-8.3114693011,1216
101467,204577,270967,3.2566315586,4.0223347905999995,-8.410771439,1217
101387,204492,270927,3.1800612354,3.996013742,-8.2707913169,1218
101110,204490,270888,3.3726834547,4.0163527341,-8.2959159542,1219
100669,204392,270865,3.3559336964999997,4.1060835816,-8.2971123655,1220
100558,204344,270835,3.2470602682000003,4.0450666053,-8.3365939384,1221
100667,204284,270849,3.314059301,4.0953158799,-8.4155570842,1222
100689,204342,270908,3.3571301077999998,4.1144584607,-8.3772719226,1223
100801,204312,270858,3.2051858726999995,3.8967116041,-8.2971123655,1224
100899,204392,270937,3.1740791789,4.043870194,-8.2683984943,1225
101045,204371,270859,3.2614172038,4.1503507997,-8.3748791,1226
101041,204369,270853,3.2721849055,4.151547211,-8.3677006322,1227
100992,204365,270936,3.3499516399999996,4.0869410008000004,-8.4323068424,1228
101189,204380,270898,3.2039894614,4.18743955,-8.3533436966,1229
101267,204412,270897,3.3152557123,3.9888352742,-8.2588272039,1230
101425,204455,270940,3.3080772444999997,4.0366917262,-8.2995051881,1231
101440,204455,270969,3.2470602682000003,4.211367776,-8.3234334141,1232
101578,204487,271040,3.1776684127999997,3.9385859996,-8.4012001486,1233
101728,204552,271009,3.23031051,3.9936209194,-8.4071822051,1234
101788,204534,271042,3.3128628897,4.163511324,-8.391628858199999,1235
101911,204575,271045,3.4037901484999997,3.9589249917,-8.3748791,1236
101944,204589,271019,3.278166962,4.1479579771,-8.3724862774,1237
102078,204638,271087,3.3164521235999995,4.0223347905999995,-8.4203427294,1238
102019,204597,271016,3.2913274863,4.0725840652,-8.3796647452,1239
101712,204474,271006,3.2673992603000004,4.1431723319,-8.3246298254,1240
101370,204419,270958,3.3343982931,4.1910287839,-8.2707913169,1241
101133,204370,270936,3.3571301077999998,3.9445680561,-8.3712898661,1242
101048,204348,270898,3.242274623,3.9732819273,-8.4131642616,1243
101072,204283,270949,3.3487552287,4.030709669699999,-8.4131642616,1244
101043,204350,270951,3.2650064377,4.0510486617999995,-8.3018980107,1245
101116,204371,270998,3.3032915993,4.1336010414999995,-8.3078800672,1246
101230,204378,270955,3.1250263156,4.1216369285,-8.2899338977,1247
101381,204408,270963,3.242274623,3.9696926934,-8.422735552,1248
101363,204408,271040,3.3451659948,4.091726646,-8.3677006322,1249
101369,204421,271010,3.1453653077,4.0271204358,-8.294719542900001,1250
101452,204452,271038,3.2853454298,3.9996029759000002,-8.3724862774,1251
101476,204462,271069,3.3296126479000003,4.0402809601,-8.2636128491,1252
101610,204452,271054,3.3008987767,3.9888352742,-8.362914987,1253
101849,204529,271066,3.3080772444999997,4.1503507997,-8.2899338977,1254
101929,204568,271126,3.2362925665,3.9409788222,-8.398807326,1255
102035,204547,271117,3.3499516399999996,4.2101713647,-8.3844503904,1256
102005,204614,271142,3.3272198253,4.0630127748,-8.3437724062,1257
102178,204615,271154,3.2207392196,4.1252261624,-8.3342011158,1258
102314,204670,271103,3.2769705507,4.1060835816,-8.3365939384,1259
102442,204660,271165,3.134597606,4.007977855,-8.3724862774,1260
102307,204666,271142,3.3176485349,4.1228333398,-8.2875410751,1261
101991,204537,271061,3.2973095428,4.0701912426,-8.3856468017,1262
101646,204452,271046,3.194418171,3.9816568063999997,-8.3557365192,1263
101376,204353,270985,3.2494530908,4.0785661217,-8.347361640099999,1264
101265,204332,270989,3.3343982931,4.1503507997,-8.280362607299999,1265
101358,204413,270995,3.3020951879999996,4.1324046302,-8.3461652288,1266
101310,204330,271017,3.2075786953,3.9684962821,-8.303094422,1267
101498,204378,270997,3.2171499857,4.001995798499999,-8.2731841395,1268
101612,204400,271057,3.2638100264,4.0606199522,-8.3210405915,1269
101615,204369,271032,3.2446674455999998,4.0785661217,-8.2420774457,1270
101658,204417,271111,3.1417760738,4.140779509300001,-8.3796647452,1271
101761,204401,271067,3.3918260355000003,3.9720855159999995,-8.445467366699999,1272
101680,204455,271099,3.2757741394,3.9505501125999998,-8.4251283746,1273
101903,204437,271102,3.2231320422,4.0857445895,-8.3677006322,1274
101993,204478,271094,3.2374889778,3.9003008379999997,-8.4239319633,1275
101891,204508,271137,3.2374889778,4.007977855,-8.3186477689,1276
102064,204501,271146,3.182454058,4.1120656381,-8.404789382499999,1277
102185,204537,271197,3.2231320422,4.0630127748,-8.3306118819,1278
102299,204590,271165,3.2111679291999997,4.092923057299999,-8.3365939384,1279
102414,204577,271176,3.2087751066,4.1192441059,-8.3581293418,1280
102585,204620,271185,3.2291140987,4.1072799929,-8.2372918005,1281
102595,204626,271184,3.1920253483999996,4.1491543884,-8.3186477689,1282
102517,204589,271214,3.2207392196,4.0534414844,-8.3198441802,1283
102176,204519,271122,3.2925238975999997,4.1228333398,-8.2683984943,1284
101794,204345,271082,3.3236305914,4.2412780585,-8.3712898661,1285
101530,204365,271001,3.2590243811999997,4.1240297511,-8.3138621237,1286
101348,204317,271049,3.3499516399999996,3.960121403,-8.3282190593,1287
101377,204308,271069,3.2685956716,4.0761732991,-8.4143606729,1288
101429,204312,271044,3.2398818003999996,4.1216369285,-8.3653078096,1289
101472,204300,271063,3.1310083721,3.9816568063999997,-8.3581293418,1290
101533,204319,271133,3.3415767608999998,4.0103706776,-8.391628858199999,1291
101583,204345,271051,3.2829526072,4.2245283003,-8.306683655899999,1292
101564,204400,271091,3.2817561959000003,3.924229064,-8.3294154706,1293
101702,204360,271138,3.3774690999,4.0713876539,-8.3748791,1294
101654,204331,271101,3.3343982931,3.9421752335,-8.3234334141,1295
101770,204342,271061,3.2829526072,4.1216369285,-8.2899338977,1296
101897,204372,271104,3.2865418411,4.1001015251,-8.338986761000001,1297
101972,204370,271100,3.2626136151000003,4.0450666053,-8.3677006322,1298
102062,204436,271164,3.3020951879999996,3.9948173307,-8.445467366699999,1299
102094,204417,271240,3.2111679291999997,4.007977855,-8.3294154706,1300
102181,204464,271182,3.1884361145,4.0989051138,-8.3090764785,1301
102193,204465,271136,3.2985059541,4.0115670889,-8.4335032537,1302
102411,204410,271155,3.2027930501,4.0761732991,-8.3653078096,1303
102393,204526,271141,3.2255248647999997,4.0785661217,-8.4801632944,1304
102395,204529,271128,3.290131075,4.1084764042,-8.3353975271,1305
102130,204474,271119,3.1525437755,3.9780675724999996,-8.3282190593,1306
101668,204243,271070,3.2087751066,4.007977855,-8.2384882118,1307
101454,204285,271085,3.2602207924999997,3.9852460403000003,-8.3138621237,1308
101359,204241,271019,3.1298119607999997,4.0235312019,-8.3892360356,1309
101307,204239,271037,3.2757741394,3.9158541848999997,-8.4873417622,1310
101438,204250,271087,3.1609186546,4.1024943476999995,-8.2863446638,1311
101550,204273,271124,3.1740791789,4.0175491454,-8.3330047045,1312
101565,204298,271074,3.2231320422,4.055834307,-8.4693955927,1313
101556,204276,271044,3.3667013982,4.2675991071,-8.3964145034,1314
101643,204284,271110,3.2111679291999997,4.0701912426,-8.2863446638,1315
101692,204287,271125,3.2231320422,4.1180476945999995,-8.3892360356,1316
101755,204301,271090,3.2949167202,4.06779842,-8.364111398299999,1317
101873,204321,271191,3.2817561959000003,4.0510486617999995,-8.3198441802,1318
101930,204363,271135,3.2207392196,3.9756747499,-8.3748791,1319
101904,204418,271083,3.3798619225,4.0689948312999995,-8.3581293418,1320
102097,204388,271168,3.2638100264,4.1312082188999995,-8.4167534955,1321
102233,204463,271244,3.2757741394,4.1168512833,-8.405985793800001,1322
102287,204448,271150,3.2793633733,4.0522450731,-8.410771439,1323
102486,204463,271199,3.0855447427,4.0163527341,-8.3114693011,1324
102486,204555,271219,3.1908289370999996,4.0354953148999995,-8.3138621237,1325
102533,204518,271168,3.2039894614,4.0725840652,-8.3796647452,1326
102335,204427,271112,3.3559336964999997,4.259224228,-8.4035929712,1327
101909,204333,271108,3.1561330094,4.0881374121,-8.3485580514,1328
101588,204275,271122,3.3164521235999995,4.1443687432,-8.303094422,1329
101483,204258,271065,3.2829526072,4.0773697104,-8.3712898661,1330
101446,204241,271063,3.194418171,3.9625142255999997,-8.3210405915,1331
101520,204259,271121,3.194418171,4.1120656381,-8.2839518412,1332
101659,204271,271109,3.2578279699,4.1910287839,-8.2755769621,1333
101622,204294,271105,3.2398818003999996,4.0689948312999995,-8.2109707519,1334
101684,204271,271092,3.1872397032,4.1144584607,-8.362914987,1335
101750,204330,271107,3.3774690999,4.0833517669,-8.2325061553,1336
101814,204324,271163,3.3714870434,4.0055850324,-8.3437724062,1337
101872,204331,271097,3.2255248647999997,4.1479579771,-8.352147285300001,1338
101908,204394,271143,3.2327033326,3.9517465239000003,-8.3365939384,1339
102058,204378,271153,3.2231320422,4.0689948312999995,-8.3964145034,1340
102174,204433,271196,3.2542387359999996,3.9433716447999996,-8.3294154706,1341
102155,204469,271212,3.3080772444999997,4.0965122912,-8.2923267203,1342
102269,204475,271197,3.2458638569,4.0151563228,-8.3485580514,1343
102275,204485,271154,3.1501509529,4.1359938641000005,-8.281559018600001,1344
102444,204520,271264,3.3296126479000003,4.0091742663,-8.3892360356,1345
102497,204529,271208,3.3571301077999998,4.0103706776,-8.3581293418,1346
102629,204584,271254,3.1513473642000003,4.0151563228,-8.3018980107,1347
102477,204491,271186,3.1381868399,4.030709669699999,-8.3042908333,1348
101988,204367,271194,3.2566315586,4.0965122912,-8.3054872446,1349
101698,204301,271123,3.2841490185,4.1347974528,-8.2959159542,1350
101457,204295,271065,3.1657042998000002,4.0247276132000005,-8.3772719226,1351
101474,204223,271087,3.2614172038,4.1288153963,-8.391628858199999,1352
101267,204198,271126,3.2518459134,4.0845481781999995,-8.3892360356,1353
101433,204208,271067,3.1405796625,3.9062828945,-8.3796647452,1354
101569,204242,271141,3.23031051,4.0821553556,-8.434699665,1355
101567,204249,271168,3.3822547451,4.113262049399999,-8.2827554299,1356
101611,204291,271151,3.1776684127999997,4.0342989036,-8.3928252695,1357
101571,204259,271130,3.2219356309,4.0606199522,-8.3724862774,1358
101749,204262,271130,3.2087751066,4.0881374121,-8.3485580514,1359
101802,204295,271158,3.2111679291999997,4.0295132584,-8.391628858199999,1360
101972,204356,271188,3.337987527,4.0689948312999995,-8.3485580514,1361
101909,204371,271245,3.1369904286000003,4.140779509300001,-8.3090764785,1362
102066,204398,271174,3.2135607518000002,4.1108692268,-8.3677006322,1363
102068,204370,271243,3.3032915993,4.0426737827,-8.360522164399999,1364
102289,204435,271243,3.2075786953,3.9792639838,-8.3748791,1365
102295,204442,271283,3.3224341800999997,4.0223347905999995,-8.2731841395,1366
102398,204494,271260,3.2913274863,4.0725840652,-8.3760755113,1367
102433,204472,271257,3.1393832512,4.091726646,-8.3138621237,1368
102460,204528,271281,3.3320054705,3.9696926934,-8.2971123655,1369
102212,204408,271201,3.3655049869,4.0055850324,-8.3018980107,1370
101656,204281,271103,3.146561719,3.9254254753,-8.386843213,1371
101423,204177,271090,3.2949167202,4.1060835816,-8.2325061553,1372
101329,204216,271067,3.2518459134,3.9912280968,-8.417949906799999,1373
101288,204142,271039,3.1896325258,3.9732819273,-8.3210405915,1374
101351,204182,271157,3.2398818003999996,4.0175491454,-8.4155570842,1375
101396,204176,271085,3.3535408739,4.0067814437,-8.3485580514,1376
101423,204192,271104,3.2650064377,4.0713876539,-8.2923267203,1377
101539,204192,271133,3.2614172038,3.9314075318,-8.2971123655,1378
101551,204215,271129,3.158525832,4.140779509300001,-8.338986761000001,1379
101556,204189,271141,3.3056844219,4.0905302347,-8.2253276875,1380
101567,204224,271132,3.2494530908,4.043870194,-8.3772719226,1381
101743,204130,271196,3.1525437755,4.1120656381,-8.3437724062,1382
101790,204278,271201,3.3296126479000003,4.0869410008000004,-8.459824302300001,1383
101834,204290,271187,3.3822547451,4.0725840652,-8.2959159542,1384
101931,204319,271157,3.2769705507,4.1527436223,-8.3688970435,1385
101989,204341,271276,3.3152557123,4.2221354777,-8.3174513576,1386
102131,204336,271196,3.218346397,4.1024943476999995,-8.3306118819,1387
102202,204407,271260,3.2985059541,4.043870194,-8.3653078096,1388
102217,204432,271209,3.2889346637,4.0151563228,-8.4012001486,1389
102252,204384,271267,3.1429724850999996,4.1048871703,-8.3437724062,1390
101999,204298,271224,3.086741154,3.9780675724999996,-8.419146318100001,1391
101617,204255,271144,3.326023414,4.1228333398,-8.315058535,1392
101390,204180,271124,3.218346397,4.115654872,-8.4335032537,1393
101313,204149,271084,3.2446674455999998,4.0953158799,-8.3677006322,1394
101240,204138,271111,3.3116664784,4.079762533,-8.3964145034,1395
101354,204143,271148,3.2709884942,4.06779842,-8.360522164399999,1396
101511,204170,271178,3.2638100264,3.9230326527000003,-8.4083786164,1397
101570,204170,271153,3.2446674455999998,4.064209186099999,-8.398807326,1398
101596,204210,271187,3.2865418411,3.9732819273,-8.463413536200001,1399
101667,204142,271138,3.3822547451,4.0809589443,-8.3545401079,1400
101710,204222,271195,3.1609186546,4.1419759206,-8.303094422,1401
101669,204233,271204,3.4540394231000002,4.0271204358,-8.352147285300001,1402
101806,204259,271218,3.2709884942,4.0091742663,-8.315058535,1403
101939,204296,271227,3.2542387359999996,4.151547211,-8.2612200265,1404
102051,204313,271258,3.2961131315000003,4.1922251952,-8.3258262367,1405
102151,204346,271252,3.1740791789,4.0725840652,-8.315058535,1406
102282,204402,271297,3.2051858726999995,4.1359938641000005,-8.291130309,1407
102357,204401,271238,3.337987527,4.1300118076,-8.3677006322,1408
102466,204430,271284,3.1968109935999998,4.0582271296000005,-8.4418781328,1409
102528,204449,271342,3.1908289370999996,4.0378881375,-8.3940216808,1410
102475,204414,271226,3.2338997439000003,4.0773697104,-8.2636128491,1411
101961,204275,271241,3.2817561959000003,4.007977855,-8.3222370028,1412
101644,204201,271195,3.2111679291999997,4.0749768878,-8.3832539791,1413
101450,204202,271137,3.1872397032,4.1910287839,-8.239684623099999,1414
101342,204148,271142,3.2494530908,4.0151563228,-8.4203427294,1415
101408,204201,271176,3.2350961552,3.9565321691,-8.3581293418,1416
101553,204179,271160,3.266202849,3.9038900719000003,-8.3677006322,1417
101574,204230,271232,3.3032915993,4.0821553556,-8.291130309,1418
101624,204261,271273,3.2231320422,4.1347974528,-8.327022648,1419
101728,204222,271223,3.3104700671000002,4.0426737827,-8.3018980107,1420
101715,204282,271263,3.3248270027,3.9996029759000002,-8.3665042209,1421
101757,204232,271268,3.3918260355000003,4.0701912426,-8.338986761000001,1422
101823,204260,271282,3.2219356309,4.1910287839,-8.3653078096,1423
101912,204325,271254,3.3655049869,3.8991044267,-8.3437724062,1424
102002,204346,271285,3.2470602682000003,4.0845481781999995,-8.3461652288,1425
102122,204382,271279,3.2027930501,4.1168512833,-8.3126657124,1426
102226,204417,271332,3.2745777280999997,4.0247276132000005,-8.2480595022,1427
102379,204470,271340,3.2494530908,3.984049629,-8.4370924876,1428
102447,204476,271313,3.266202849,4.0701912426,-8.2983087768,1429
102468,204485,271295,3.2673992603000004,4.055834307,-8.3186477689,1430
102541,204421,271308,3.1800612354,4.055834307,-8.3940216808,1431
102308,204358,271287,3.2111679291999997,4.1503507997,-8.2444702683,1432
101889,204232,271231,3.1477581302999997,4.1742790257,-8.267202082999999,1433
101540,204155,271216,3.3128628897,4.0869410008000004,-8.3880396243,1434
101381,204146,271186,3.1992038162000003,4.1682969692,-8.2875410751,1435
101334,204127,271177,3.2626136151000003,4.0606199522,-8.3377903497,1436
101459,204143,271211,3.3020951879999996,4.055834307,-8.3892360356,1437
101521,204166,271207,3.158525832,3.9936209194,-8.4083786164,1438
101615,204247,271209,3.2374889778,4.1730826144,-8.3892360356,1439
101678,204189,271223,3.2099715178999997,4.0749768878,-8.405985793800001,1440
101618,204198,271228,3.4480573666,4.0845481781999995,-8.2731841395,1441
101723,204262,271282,3.1848468806000003,4.0271204358,-8.362914987,1442
101753,204189,271260,3.1537401868,4.1216369285,-8.3330047045,1443
101911,204338,271309,3.1441688964,4.1108692268,-8.3174513576,1444
102025,204296,271263,3.3224341800999997,4.0115670889,-8.293523131599999,1445
102093,204341,271318,3.206382284,4.1324046302,-8.2767733734,1446
102174,204369,271269,3.2757741394,4.0965122912,-8.3294154706,1447
102247,204283,271359,3.1453653077,4.0390845488,-8.4323068424,1448
102394,204375,271298,3.3092736558,4.0271204358,-8.4562350684,1449
102499,204450,271329,3.3439695835000003,4.0366917262,-8.4203427294,1450
102622,204443,271334,3.1872397032,4.1180476945999995,-8.3186477689,1451
102631,204469,271370,3.182454058,4.0175491454,-8.4012001486,1452
102330,204368,271361,3.3954152694,3.9613178143,-8.3557365192,1453
102023,204282,271215,3.2231320422,4.0534414844,-8.3090764785,1454
101679,204196,271190,3.3798619225,4.0773697104,-8.262416437799999,1455
101502,204168,271229,3.1190442591,4.079762533,-8.4012001486,1456
101514,204150,271211,3.1549365981,4.0486558392,-8.2827554299,1457
101511,204118,271212,3.3583265191000002,4.06779842,-8.3126657124,1458
101611,204164,271226,3.2159535744,3.9469608787,-8.3700934548,1459
101767,204195,271311,3.2697920829,4.0989051138,-8.3246298254,1460
101777,204154,271197,3.2925238975999997,4.103690759,-8.2851482525,1461
101746,204204,271239,3.3236305914,4.0713876539,-8.2887374864,1462
101716,204200,271280,3.2769705507,4.0366917262,-8.4155570842,1463
101808,204217,271198,3.2566315586,4.0749768878,-8.3401831723,1464
101943,204234,271278,3.1872397032,4.1599220901,-8.3772719226,1465
101952,204257,271292,3.2578279699,4.1288153963,-8.3126657124,1466
102044,204310,271307,3.2697920829,3.9912280968,-8.3234334141,1467
102258,204273,271331,3.2733813167999997,4.1766718483,-8.227720510100001,1468
102373,204296,271319,3.2554351473,4.0115670889,-8.4131642616,1469
102421,204360,271431,3.2925238975999997,4.0989051138,-8.306683655899999,1470
102387,204390,271395,3.2135607518000002,4.0187455567,-8.3318082932,1471
102533,204410,271374,3.2973095428,3.9948173307,-8.404789382499999,1472
102589,204420,271367,3.1549365981,4.1168512833,-8.3174513576,1473
102679,204417,271413,3.3008987767,3.9661034595,-8.4035929712,1474
102461,204375,271353,3.2793633733,4.1192441059,-8.3042908333,1475
101990,204245,271245,3.2398818003999996,4.0965122912,-8.4012001486,1476
101619,204167,271243,3.2482566795000003,3.9397824109,-8.3318082932,1477
101598,204104,271225,3.1680971224,4.097708702499999,-8.3485580514,1478
101664,204124,271206,3.1453653077,4.0845481781999995,-8.360522164399999,1479
101605,204115,271238,3.3367911156999996,4.103690759,-8.3198441802,1480
101693,204186,271301,3.2398818003999996,4.007977855,-8.362914987,1481
101865,204178,271290,3.1405796625,4.001995798499999,-8.4012001486,1482
101837,204184,271310,3.2135607518000002,4.1503507997,-8.303094422,1483
101891,204184,271329,3.2099715178999997,4.0522450731,-8.3581293418,1484
101853,204244,271296,3.4719855926,4.0845481781999995,-8.3222370028,1485
101857,204240,271272,3.3798619225,4.0534414844,-8.3820575678,1486
101862,204252,271316,3.2757741394,4.1144584607,-8.4203427294,1487
102107,204260,271294,3.3846475676999996,4.1024943476999995,-8.4394853102,1488
102296,204317,271334,3.242274623,3.8955151927999996,-8.362914987,1489
102262,204326,271328,3.2518459134,4.0809589443,-8.2516487361,1490
102360,204373,271381,3.2434710343,4.0630127748,-8.427521197199999,1491
102515,204403,271381,3.2817561959000003,4.0055850324,-8.3796647452,1492
102548,204401,271429,3.242274623,4.031906081,-8.2899338977,1493
102784,204455,271328,3.2327033326,4.208974953399999,-8.271987728200001,1494
102715,204471,271419,3.2949167202,4.0259240245,-8.294719542900001,1495
102672,204355,271384,3.3176485349,4.1958144290999995,-8.3724862774,1496
102208,204261,271324,3.1752755902,4.0618163635,-8.3844503904,1497
101770,204223,271359,3.1310083721,4.1300118076,-8.3772719226,1498
101689,204209,271285,3.2494530908,4.06779842,-8.3557365192,1499
101651,204157,271283,3.2027930501,3.9481572899999997,-8.3964145034,1500
101638,204180,271304,3.4109686163,4.113262049399999,-8.2899338977,1501
101753,204204,271333,3.218346397,4.1790646709,-8.3844503904,1502
101891,204135,271316,3.2470602682000003,4.0426737827,-8.3617185757,1503
101855,204233,271346,3.3020951879999996,4.0869410008000004,-8.306683655899999,1504
101986,204247,271336,3.2685956716,4.031906081,-8.3413795836,1505
101984,204261,271369,3.2925238975999997,4.0067814437,-8.3533436966,1506
101980,204323,271323,3.3092736558,4.091726646,-8.3940216808,1507
102050,204343,271357,3.1812576466999998,4.091726646,-8.2612200265,1508
102116,204351,271410,3.2805597846,3.8620156764,-8.3677006322,1509
102244,204360,271355,3.1788648241,3.9780675724999996,-8.338986761000001,1510
102324,204395,271395,3.2470602682000003,3.9924245080999996,-8.3186477689,1511
102456,204483,271405,3.2997023654,3.9493537012999997,-8.4394853102,1512
102500,204443,271358,3.278166962,4.092923057299999,-8.2755769621,1513
102740,204464,271476,3.278166962,4.1204405172000005,-8.4035929712,1514
102760,204513,271459,3.2997023654,4.1240297511,-8.3724862774,1515
102816,204515,271457,3.2685956716,4.0378881375,-8.3042908333,1516
102724,204433,271427,3.409772205,3.9852460403000003,-8.3198441802,1517
102236,204312,271382,3.2937203089,4.0486558392,-8.3306118819,1518
