green,red,IR,acc_x,acc_y,acc_z,sample_index
73009,172227,218342,-5.983252911299999,7.8412796602,1.9525432416,1
73007,172230,218353,-6.0107703712000005,7.6043902228,2.009970984,2
73015,172226,218348,-5.9724852096,7.6187471584,1.9800607015,3
73024,172217,218344,-6.0023954921,7.733602643199999,1.8951154991999999,4
73091,172257,218333,-5.9976098469000005,7.6701928443,1.9286150156,5
73048,172227,218285,-6.077769404,7.708478005899999,1.9106688461,6
73010,172275,218281,-5.922235935,7.5194450205,1.91425808,7
73075,172231,218322,-6.005984725999999,7.6091758679999995,1.9238293703999998,8
72971,172223,218302,-6.1064832752,7.6654071991,1.962114532,9
72965,172187,218281,-5.9736816209,7.5816584081,1.8089738856,10
72908,172135,218232,-5.9449677497,7.5948189324,1.9669001771999999,11
72880,172177,218270,-5.8971112976999995,7.718049296299999,2.0039889275,12
72876,172134,218282,-6.0047883147,7.7611201031,1.8269200550999998,13
72826,172138,218232,-5.9246287576,7.5960153436999995,2.0039889275,14
72854,172195,218276,-6.0155560164,7.6091758679999995,2.0231315083,15
72838,172201,218223,-6.120840210799999,7.6139615132000005,1.866401628,16
72839,172177,218230,-6.077769404,7.5996045776,2.0135602179,17
72819,172169,218212,-6.0394842424,7.6139615132000005,1.9154544913,18
72804,172183,218206,-5.934200048,7.695317481599999,1.9573288867999998,19
72805,172128,218178,-6.0598232345,7.6283184488,2.0374884439,20
72803,172174,218209,-5.9485569836,7.6809605460000006,2.0039889275,21
72790,172138,218202,-6.1112689204,7.7276205867,1.9561324755,22
72814,172157,218140,-6.1112689204,7.5661050612,1.8233308212,23
72807,172136,218190,-6.162714606300001,7.5804619967999995,1.9286150156,24
72812,172137,218177,-6.053841177999999,7.653443086099999,1.9561324755,25
72834,172129,218158,-6.077769404,7.53739119,1.9010975557,26
72822,172139,218154,-6.0825550492,7.6043902228,1.9190437251999999,27
72822,172151,218191,-5.9353964593,7.5098737301,1.9848463467,28
72859,172160,218163,-6.092126339599999,7.624729214899999,1.9417755399,29
72831,172187,218118,-6.0023954921,7.651050263499999,1.9286150156,30
72835,172103,218152,-5.9976098469000005,7.718049296299999,1.890329854,31
72702,172123,218105,-5.9976098469000005,7.6151579245,1.8711872732,32
72661,172099,218108,-5.996413435599999,7.6235328036,1.8759729184,33
72638,172049,218070,-6.178267953200001,7.6103722793,1.9417755399,34
72598,172060,218076,-5.8396835553,7.542176835199999,2.0183458631,35
72556,172039,218067,-5.8492548457,7.65703232,1.8520446924,36
72521,172078,218087,-5.9772708547999995,7.6773713121,1.9657037659,37
72520,172046,218034,-5.967699564399999,7.708478005899999,1.8999011444,38
72491,172063,218059,-6.1064832752,7.6845497799,1.938186306,39
72509,172081,218057,-6.0490555328,7.633104094,1.9046867896,40
72468,172069,218022,-6.053841177999999,7.633104094,1.8197415872999998,41
72450,172056,218029,-5.9868421452,7.7324062319,1.91425808,42
72398,172010,217987,-5.9868421452,7.6031938115,2.0087745727,43
72390,172006,217974,-6.1579289611,7.6941210703,1.8759729184,44
72372,172042,218003,-6.0933227509000005,7.5637122386,1.9214365478,45
72364,172024,217958,-5.9485569836,7.495516794499999,1.8699908619,46
72360,172006,217958,-6.1052868639,7.6103722793,1.8568303376,47
72360,172016,217932,-6.0753765814,7.6713892556,1.8460626359,48
72355,172026,217941,-6.1160545656,7.5756763516,1.9178473139,49
72346,172014,217982,-6.0203416616,7.6606215538999995,1.8376877568,50
72338,172018,217917,-5.8923256525,7.5948189324,1.9226329591,51
72359,172021,217969,-5.9904313791,7.6857461912,1.8436698133,52
72336,171999,217922,-5.9724852096,7.7706913935,1.8041882404,53
72357,171998,217899,-5.983252911299999,7.6474610296,1.9417755399,54
72314,171983,217864,-5.8492548457,7.8185478454999995,1.8329021116,55
72166,171995,217796,-5.996413435599999,7.7611201031,1.7084753364,56
72075,171905,217814,-6.005984725999999,7.750352401400001,1.8233308212,57
72033,171961,217836,-6.0825550492,7.6426753844,1.8364913454999998,58
72023,171917,217830,-5.9210395237,7.5481588917,1.9561324755,59
72028,172004,217894,-6.0598232345,7.5625158273,1.6654045296,60
72044,172019,217939,-6.2679988007,7.679764134699999,1.770688724,61
72110,172145,217991,-5.970092387,7.749155990099999,1.8460626359,62
72148,172165,218022,-6.125625856,7.5673014725,1.79461695,63
72145,172179,217986,-6.0550375893,7.570890706399999,1.9034903783000001,64
72128,172197,218006,-5.941378515799999,7.5756763516,1.8616159827999998,65
72092,172201,218066,-6.0550375893,7.637889739199999,1.7324035624,66
72083,172159,218045,-6.244070574699999,7.4799634476,1.8376877568,67
72059,172200,218072,-6.0885371056999995,7.4811598589,1.8891334427000002,68
72046,172171,218066,-6.0837514605,7.5469624804,1.79461695,69
72053,172178,218052,-6.0729837587999995,7.5900332872,1.8508482811000002,70
72055,172197,218030,-6.0394842424,7.5003024396999995,1.9465611851,71
72042,172194,218045,-6.2153567034999995,7.7312098206,1.7371892076000002,72
72041,172223,218007,-6.0406806537,7.5290163108999995,1.8520446924,73
72042,172195,218073,-6.053841177999999,7.5278198996,1.7898313048,74
72051,172230,218049,-6.0490555328,7.6606215538999995,1.770688724,75
72055,172287,218072,-6.1543397272,7.6414789731,1.8711872732,76
71981,172236,218060,-6.077769404,7.7036923607,1.7611174336,77
71900,172210,218040,-6.0550375893,7.5517481256,1.7575281996999998,78
71841,172223,218073,-6.2356956956000005,7.5625158273,1.8472590472,79
71820,172231,218102,-6.2261244052,7.53739119,1.9046867896,80
71816,172237,218090,-6.0610196458,7.5661050612,1.7371892076000002,81
71830,172272,218168,-6.3194444866,7.5601230047,1.7431712641,82
71810,172296,218171,-6.3158552527000005,7.666603610399999,1.8412769907000002,83
71748,172307,218166,-6.1830535984,7.622336392299999,1.8053846516999998,84
71845,172309,218211,-6.4163538019,7.5278198996,1.8041882404,85
71827,172334,218207,-6.2009997679,7.5756763516,1.8089738856,86
71809,172360,218236,-6.120840210799999,7.5900332872,1.8376877568,87
71795,172363,218296,-6.1878392436,7.5326055448,1.7850456596,88
71802,172432,218277,-6.0358950085,7.5804619967999995,1.8520446924,89
71828,172382,218292,-6.2787665024,7.737191877099999,1.842473402,90
71836,172435,218350,-6.0933227509000005,7.737191877099999,1.7898313048,91
71855,172435,218282,-6.1268222673,7.5948189324,1.7659030788,92
71862,172457,218340,-6.077769404,7.7324062319,1.7754743692000001,93
71868,172480,218336,-6.1351971464,7.4847490928,1.8711872732,94
71882,172452,218349,-6.1686966628,7.6055866341,1.8233308212,95
71902,172511,218369,-6.259623921599999,7.5900332872,1.8460626359,96
71934,172538,218362,-6.1878392436,7.5038916736,1.8987047331,97
71928,172528,218444,-6.2117674696,7.6426753844,1.8029918290999998,98
71782,172500,218447,-6.1268222673,7.5601230047,1.8795621523000001,99
71745,172536,218410,-6.0981083961,7.633104094,1.7036896912000001,100
71745,172493,218458,-6.2249279939,7.4763742137,1.8532411037,101
71720,172525,218434,-6.053841177999999,7.6558359087,1.8556339263000001,102
71719,172565,218515,-6.1543397272,7.7276205867,1.8795621523000001,103
71759,172581,218518,-6.0406806537,7.6283184488,1.7563317884,104
71744,172593,218516,-6.149554082000001,7.585247642000001,1.8281164664,105
71749,172656,218592,-6.2105710583,7.6187471584,1.7515461432000001,106
71788,172658,218570,-6.0933227509000005,7.6701928443,1.8221344098999999,107
71753,172679,218604,-6.206981824400001,7.6139615132000005,1.8472590472,108
71746,172679,218602,-6.1028940413,7.622336392299999,1.8843477975,109
71750,172690,218645,-6.2117674696,7.651050263499999,1.7419748528,110
71771,172715,218671,-6.1411792029,7.6701928443,1.7766707805,111
71795,172741,218655,-6.0023954921,7.561319416,1.7431712641,112
71801,172745,218640,-6.2500526312,7.5996045776,1.746760498,113
71814,172782,218678,-6.1220366221,7.5003024396999995,1.7383856189,114
71823,172774,218700,-6.1005012187,7.6606215538999995,1.770688724,115
71847,172808,218663,-6.1543397272,7.5505517143,1.8041882404,116
71874,172827,218746,-6.0490555328,7.5517481256,1.8281164664,117
71860,172826,218741,-6.0825550492,7.666603610399999,1.79461695,118
71801,172808,218717,-6.149554082000001,7.556533770800001,1.8843477975,119
71701,172769,218740,-6.197410534,7.6462646183,1.7802600144,120
71654,172756,218713,-6.1555361385,7.6343005053,1.8604195715,121
71677,172818,218754,-6.2009997679,7.5326055448,1.7084753364,122
71643,172832,218785,-6.092126339599999,7.5445696578,1.770688724,123
71624,172829,218766,-6.1830535984,7.6606215538999995,1.7659030788,124
71646,172870,218830,-6.1124653317,7.447660342499999,1.8041882404,125
71690,172883,218919,-6.1878392436,7.5744799403,1.8520446924,126
71706,172887,218848,-6.1064832752,7.622336392299999,1.7659030788,127
71700,172916,218883,-6.0969119848,7.5996045776,1.8460626359,128
71708,172913,218824,-5.9976098469000005,7.415357237399999,1.842473402,129
71708,172933,218932,-6.0263237181000004,7.5661050612,1.7754743692000001,130
71740,172989,218894,-6.2679988007,7.7694949822,1.9274186043000001,131
71792,172965,218947,-6.1411792029,7.5804619967999995,1.9274186043000001,132
71834,173029,218998,-6.0885371056999995,7.6426753844,1.8939190879,133
71865,173045,218996,-6.0490555328,7.6701928443,1.842473402,134
71900,173052,218996,-6.005984725999999,7.5984081663000005,1.8412769907000002,135
71925,173087,218982,-6.1447684368,7.556533770800001,1.9130616687,136
71979,173086,219042,-6.063412468399999,7.542176835199999,1.79461695,137
71991,173152,219048,-6.0203416616,7.5481588917,2.0147566292,138
71987,173122,219107,-6.137589969,7.542176835199999,1.8089738856,139
71910,173105,219071,-6.050251944099999,7.5673014725,1.7419748528,140
71820,173065,219068,-6.1160545656,7.6462646183,1.8711872732,141
71792,173044,219037,-6.0406806537,7.637889739199999,1.8987047331,142
71780,173102,219019,-6.2584275103,7.5469624804,1.8795621523000001,143
71758,173053,219030,-6.397211221099999,7.542176835199999,1.7192430381,144
71748,173137,219040,-6.1064832752,7.4811598589,1.8855442087999998,145
71730,173036,219001,-6.1112689204,7.6043902228,1.818545176,146
71769,173062,218980,-6.053841177999999,7.5804619967999995,1.8340985228999998,147
71776,173049,218997,-6.0406806537,7.4512495764,1.9477575963999998,148
71776,173070,219008,-6.0454662989,7.5948189324,1.8269200550999998,149
71756,173069,218920,-5.9976098469000005,7.6151579245,1.8951154991999999,150
71757,173072,218989,-6.1411792029,7.4715885685,1.8532411037,151
71765,173034,218980,-6.1160545656,7.514659375300001,1.8759729184,152
71796,173083,218922,-6.0167524277,7.6558359087,1.866401628,153
71793,173062,218930,-6.125625856,7.570890706399999,1.8472590472,154
71820,173049,218991,-6.2500526312,7.6139615132000005,2.0614166699,155
71810,173046,218917,-6.050251944099999,7.5888368759,1.8616159827999998,156
71844,173076,218863,-6.1686966628,7.633104094,1.8807585636,157
71843,173048,218965,-6.1543397272,7.556533770800001,1.91425808,158
71871,173054,218913,-6.1830535984,7.5661050612,1.91425808,159
71885,173040,218961,-6.0598232345,7.651050263499999,1.9956140484,160
71869,173046,218931,-6.0681981136,7.5900332872,2.0231315083,161
71766,173014,218892,-6.1268222673,7.679764134699999,1.9669001771999999,162
71691,172967,218905,-6.0646088797,7.4943203832,1.8472590472,163
71683,172950,218861,-6.120840210799999,7.4225357052000005,1.9369898947,164
71678,172972,218876,-6.1435720255,7.446463931199999,1.9669001771999999,165
71698,172994,218887,-6.0729837587999995,7.556533770800001,1.9429719511999999,166
71701,172999,218889,-6.1686966628,7.6474610296,1.8197415872999998,167
71729,173012,218894,-6.1543397272,7.6749784895,1.7670994901,168
71751,173034,218921,-6.0598232345,7.5661050612,1.8819549749,169
71776,173031,218940,-6.120840210799999,7.5086773188,1.9848463467,170
71785,173030,218928,-6.0167524277,7.542176835199999,2.0327027987,171
71824,173097,218915,-6.1160545656,7.746763167499999,1.8711872732,172
71877,173077,218969,-6.2117674696,7.485945504099999,1.9669001771999999,173
71957,173183,219066,-6.1543397272,7.6893354250999995,2.0614166699,174
72005,173199,219053,-6.2117674696,7.4668029232999995,2.0147566292,175
72059,173234,219116,-6.0729837587999995,7.6139615132000005,1.9657037659,176
72096,173220,219069,-6.0550375893,7.6091758679999995,1.9812571127999998,177
72138,173260,219075,-6.2344992843,7.5804619967999995,1.9908284031999999,178
72157,173271,219097,-6.1435720255,7.6271220375,1.9286150156,179
72173,173234,219046,-6.1112689204,7.495516794499999,1.8388841681,180
72192,173233,219087,-6.092126339599999,7.6091758679999995,1.9286150156,181
72212,173214,219067,-6.0681981136,7.645068207,2.0422740890999997,182
72213,173228,219025,-6.0454662989,7.5326055448,2.0003996936,183
72247,173255,218992,-6.0119667825,7.6414789731,1.7144573929,184
72258,173209,219031,-6.1304115012,7.6618179652,2.0662023151,185
72240,173228,219026,-6.0693945249,7.6139615132000005,1.8855442087999998,186
72145,173174,218898,-6.0083775485999995,7.6283184488,1.9274186043000001,187
72094,173123,218914,-6.2261244052,7.6654071991,1.9094724347999998,188
72066,173109,218967,-6.0119667825,7.7036923607,1.9477575963999998,189
72074,173105,218895,-5.9736816209,7.4751778024,1.9800607015,190
72072,173123,218910,-6.0837514605,7.6845497799,1.9046867896,191
72072,173127,218915,-6.177071541899999,7.5888368759,1.9764714676,192
72095,173135,218844,-6.1351971464,7.6091758679999995,1.9800607015,193
72128,173122,218900,-6.0394842424,7.53739119,1.8951154991999999,194
72114,173138,218869,-6.2823557362999995,7.6522466748,1.91425808,195
72132,173093,218820,-5.9449677497,7.5242306657,1.9286150156,196
72133,173073,218835,-6.0119667825,7.6139615132000005,1.9716858223999998,197
72136,173087,218780,-6.244070574699999,7.6175507471,1.8999011444,198
72162,172970,218785,-6.1447684368,7.5984081663000005,1.9130616687,199
72186,173106,218782,-5.9449677497,7.5792655855,1.9956140484,200
72203,173062,218814,-6.1220366221,7.53739119,1.9238293703999998,201
72227,173081,218785,-6.050251944099999,7.556533770800001,1.9956140484,202
72237,173078,218752,-6.0119667825,7.5469624804,1.9525432416,203
72266,173087,218784,-5.9988062582,7.679764134699999,2.057827436,204
72276,173021,218728,-6.0586268232,7.5517481256,1.9525432416,205
72282,173010,218705,-6.067001702300001,7.7228349415,2.0470597343,206
72318,173014,218725,-6.1399827916000005,7.5948189324,1.9369898947,207
72330,173035,218687,-6.0311093633,7.5517481256,1.8807585636,208
72359,173081,218705,-6.0969119848,7.4715885685,1.8951154991999999,209
72377,173052,218646,-6.2524454538,7.6235328036,1.9525432416,210
72395,173024,218617,-6.0083775485999995,7.666603610399999,1.8915262653,211
72422,173012,218663,-6.0263237181000004,7.6235328036,1.9992032822999999,212
72437,173034,218638,-6.1818571871,7.5625158273,1.9250257817,213
72407,173009,218674,-5.958128274,7.5194450205,2.0231315083,214
72313,172948,218538,-6.162714606300001,7.622336392299999,2.0087745727,215
72270,172917,218500,-6.2644095668,7.53739119,2.0614166699,216
72264,172920,218544,-6.107679686499999,7.5517481256,2.0530417908,217
72280,172899,218529,-5.9066825881,7.6414789731,1.9298114269,218
72256,172890,218509,-6.2117674696,7.5661050612,1.9190437251999999,219
72265,172911,218498,-6.021538072899999,7.5649086499,1.9250257817,220
72279,172915,218473,-5.9772708547999995,7.5996045776,1.842473402,221
72299,172939,218490,-6.0837514605,7.447660342499999,2.009970984,222
72298,172900,218457,-6.0119667825,7.633104094,2.0709879603,223
72309,172897,218495,-6.0969119848,7.6283184488,1.9812571127999998,224
72299,172875,218509,-6.1351971464,7.6187471584,2.0291135648000003,225
72326,172895,218471,-6.0646088797,7.5326055448,1.9334006607999998,226
72340,172923,218495,-6.1698930741,7.489534738000001,2.0853448959,227
72351,172910,218489,-6.145964848099999,7.4847490928,1.9190437251999999,228
72408,172944,218435,-6.2679988007,7.6091758679999995,2.0721843716,229
72395,172909,218470,-6.029912952,7.429714173,1.9190437251999999,230
72424,172895,218419,-6.0969119848,7.4751778024,1.866401628,231
72437,172897,218426,-6.101697629999999,7.5326055448,1.8771693297,232
72459,172923,218386,-6.0646088797,7.6414789731,2.0949161863,233
72485,172879,218478,-6.0358950085,7.6618179652,1.866401628,234
72513,172891,218368,-6.1160545656,7.5003024396999995,1.9525432416,235
72509,172882,218388,-6.0023954921,7.556533770800001,1.9908284031999999,236
72482,172915,218372,-6.2356956956000005,7.428517761699999,2.0135602179,237
72515,172877,218395,-6.1603217837,7.6558359087,1.9752750562999999,238
72570,172865,218361,-6.125625856,7.4524459877,1.9944176371,239
72620,172886,218370,-6.0837514605,7.6558359087,2.009970984,240
72620,172852,218390,-6.0969119848,7.633104094,1.9956140484,241
72636,172858,218398,-6.1794643645,7.6187471584,1.9489540077,242
72647,172868,218333,-5.970092387,7.505088084900001,1.9537396529,243
72684,172847,218321,-6.101697629999999,7.637889739199999,1.8855442087999998,244
72691,172882,218321,-6.025127306799999,7.4751778024,1.9716858223999998,245
72594,172869,218292,-5.9976098469000005,7.446463931199999,1.9429719511999999,246
72565,172795,218256,-6.125625856,7.633104094,1.938186306,247
72527,172796,218176,-6.1591253724,7.5601230047,1.9190437251999999,248
72513,172768,218251,-6.0311093633,7.6414789731,1.8999011444,249
72508,172806,218210,-6.1830535984,7.5469624804,2.1188444122999996,250
72536,172781,218237,-6.0729837587999995,7.585247642000001,2.0757736055,251
72507,172785,218211,-6.0454662989,7.418946471299999,1.9764714676,252
72509,172802,218190,-6.2344992843,7.53739119,1.9238293703999998,253
72532,172811,218220,-5.9449677497,7.418946471299999,1.9286150156,254
72529,172826,218244,-6.0119667825,7.633104094,1.9956140484,255
72534,172794,218189,-6.1447684368,7.622336392299999,1.9286150156,256
72514,172819,218181,-6.0454662989,7.543373246500001,1.9669001771999999,257
72520,172779,218201,-6.1543397272,7.5038916736,1.962114532,258
72483,172771,218189,-6.1112689204,7.5673014725,1.91425808,259
72553,172782,218176,-6.1304115012,7.465606512,1.8951154991999999,260
72616,172797,218189,-6.1351971464,7.6414789731,2.0087745727,261
72597,172777,218209,-6.22133876,7.5936225210999995,2.0231315083,262
72603,172795,218164,-6.0969119848,7.5134629639999995,2.0051853388,263
72630,172855,218140,-6.0586268232,7.556533770800001,1.938186306,264
72638,172795,218129,-6.078965815299999,7.6283184488,1.9800607015,265
72657,172829,218147,-6.0873406944,7.5278198996,1.91425808,266
72644,172772,218144,-6.1507504933,7.5003024396999995,1.9860427579999997,267
72692,172805,218153,-6.1028940413,7.5481588917,2.0662023151,268
72722,172777,218168,-6.2261244052,7.5804619967999995,2.0709879603,269
72730,172806,218127,-6.0442698876,7.5278198996,1.9944176371,270
72740,172816,218122,-6.092126339599999,7.5601230047,1.9561324755,271
72777,172836,218129,-6.149554082000001,7.5290163108999995,2.0003996936,272
72786,172828,218084,-6.0358950085,7.5194450205,1.8759729184,273
72797,172797,218071,-5.9784672661,7.5756763516,1.91425808,274
72842,172855,218099,-6.1064832752,7.5900332872,1.8436698133,275
72848,172860,218101,-6.120840210799999,7.5948189324,2.0195422744,276
72858,172795,218122,-6.1292150899,7.6187471584,1.8807585636,277
72748,172794,218046,-6.1292150899,7.5086773188,1.9525432416,278
72685,172762,218012,-6.1639110176,7.5792655855,1.9477575963999998,279
72641,172727,218032,-5.9880385565,7.6055866341,1.9812571127999998,280
72638,172754,218056,-6.0071811373,7.460820866800001,1.9800607015,281
72629,172713,218061,-6.2344992843,7.5804619967999995,1.8855442087999998,282
72632,172744,218057,-6.2153567034999995,7.556533770800001,1.9046867896,283
72685,172772,218054,-6.1304115012,7.6558359087,2.0087745727,284
72652,172768,218036,-6.1112689204,7.4811598589,1.9812571127999998,285
72557,172773,217997,-6.1244294447000005,7.5469624804,1.9369898947,286
72645,172775,218025,-6.092126339599999,7.5278198996,1.9082760235,287
72622,172771,218020,-6.1447684368,7.6091758679999995,1.938186306,288
72628,172746,218032,-6.0885371056999995,7.5996045776,1.8855442087999998,289
72675,172768,218004,-6.2584275103,7.5194450205,1.8616159827999998,290
72634,172761,218047,-5.8695938378,7.721638530200001,2.0231315083,291
72575,172772,218048,-6.0311093633,7.6283184488,1.9704894111,292
72643,172773,218033,-6.1351971464,7.651050263499999,1.9848463467,293
72740,172787,218049,-6.0933227509000005,7.5673014725,1.9238293703999998,294
72704,172778,218009,-6.145964848099999,7.570890706399999,1.9561324755,295
72736,172811,218026,-6.0813586379,7.779066272600001,1.9573288867999998,296
72727,172770,218051,-6.1399827916000005,7.5900332872,1.8819549749,297
72728,172828,218078,-6.0765729927,7.5409804239,1.8915262653,298
72737,172803,217972,-6.1639110176,7.7036923607,1.9046867896,299
72650,172801,218017,-6.063412468399999,7.4811598589,1.9657037659,300
72738,172820,218022,-6.095715573500001,7.5230342544,1.9477575963999998,301
72773,172832,218053,-6.0167524277,7.5792655855,1.962114532,302
72788,172842,218033,-6.2907306154,7.447660342499999,1.9609181207,303
72855,172827,218039,-5.9880385565,7.4703921572,2.0051853388,304
72839,172878,218070,-6.005984725999999,7.5038916736,1.8436698133,305
72844,172833,218028,-5.9784672661,7.542176835199999,2.0183458631,306
72843,172891,218054,-6.050251944099999,7.4524459877,1.9525432416,307
72786,172828,218001,-6.0741801701,7.5804619967999995,1.9238293703999998,308
72708,172792,218015,-6.1447684368,7.6139615132000005,1.9764714676,309
72629,172819,217992,-6.092126339599999,7.5756763516,1.9525432416,310
72591,172809,218015,-6.077769404,7.6701928443,1.9334006607999998,311
72579,172819,218014,-6.0442698876,7.418946471299999,1.9669001771999999,312
72600,172829,217971,-6.2297136391,7.5194450205,2.0279171535,313
72568,172815,218025,-6.0131631938000005,7.6522466748,1.8951154991999999,314
72464,172855,218032,-6.191428477500001,7.4380890521,2.0135602179,315
72568,172893,218059,-6.2488562199,7.6319076827,2.0279171535,316
72576,172900,218035,-6.1722858967,7.5505517143,2.009970984,317
72520,172858,218029,-6.2249279939,7.6462646183,1.9669001771999999,318
72527,172879,218125,-6.2057854131,7.5912296985,1.9525432416,319
72556,172923,218079,-5.9210395237,7.6522466748,1.9429719511999999,320
72569,172899,218090,-6.1818571871,7.573283529,1.8149559420999999,321
72571,172950,218096,-6.1064832752,7.542176835199999,2.0374884439,322
72577,172984,218134,-6.2057854131,7.5361947787,1.8807585636,323
72577,172982,218180,-6.148357670699999,7.5290163108999995,1.9082760235,324
72606,172992,218150,-5.8935220638,7.5182486092000005,1.9513468303000001,325
72549,172996,218202,-6.1830535984,7.542176835199999,1.9609181207,326
72607,173024,218206,-6.2117674696,7.637889739199999,1.9573288867999998,327
72640,173013,218223,-6.0155560164,7.4799634476,1.8616159827999998,328
72651,173055,218237,-6.1292150899,7.5314091335,2.0470597343,329
72702,173024,218227,-6.0323057746,7.5134629639999995,1.8951154991999999,330
72678,173091,218287,-6.162714606300001,7.612765101899999,2.0518453795,331
72683,173077,218272,-6.0311093633,7.572087117700001,1.8747765071,332
72688,173111,218225,-6.1686966628,7.5661050612,2.0422740890999997,333
72721,173136,218308,-6.1543397272,7.5900332872,2.0422740890999997,334
72731,173161,218333,-6.0729837587999995,7.6618179652,2.1032910654,335
72745,173189,218307,-6.0586268232,7.5984081663000005,2.0374884439,336
72685,173158,218283,-6.0119667825,7.4847490928,1.9669001771999999,337
72609,173152,218337,-6.0263237181000004,7.6366933279,1.8711872732,338
72532,173124,218332,-6.2297136391,7.6091758679999995,1.9417755399,339
72507,173159,218353,-6.0729837587999995,7.6845497799,1.9238293703999998,340
72508,173197,218338,-5.8791651282,7.6091758679999995,1.8580267489000002,341
72512,173240,218408,-6.2536418651,7.5098737301,1.9848463467,342
72515,173220,218417,-6.1591253724,7.556533770800001,1.9992032822999999,343
72520,173247,218405,-6.1399827916000005,7.5326055448,1.938186306,344
72535,173283,218466,-6.241677752099999,7.5469624804,1.8771693297,345
72529,173251,218518,-6.1268222673,7.4811598589,1.8951154991999999,346
72511,173283,218507,-6.0167524277,7.633104094,1.9585252981,347
72513,173301,218498,-6.1639110176,7.5996045776,1.9669001771999999,348
72508,173322,218506,-5.9174502898000005,7.764709337,1.9573288867999998,349
72515,173338,218578,-6.1064832752,7.5601230047,1.962114532,350
72553,173380,218566,-6.053841177999999,7.5996045776,1.9238293703999998,351
72549,173371,218588,-6.125625856,7.6319076827,2.0482561456,352
72554,173388,218576,-6.0358950085,7.6462646183,1.938186306,353
72567,173402,218613,-6.029912952,7.5481588917,1.9010975557,354
72582,173443,218602,-5.9449677497,7.4943203832,1.8999011444,355
72614,173431,218656,-6.0490555328,7.7036923607,1.9800607015,356
72631,173438,218651,-6.1160545656,7.6187471584,1.9513468303000001,357
72615,173478,218653,-6.005984725999999,7.651050263499999,1.9764714676,358
72686,173483,218697,-6.197410534,7.6558359087,2.0662023151,359
72688,173531,218662,-6.0454662989,7.5469624804,1.8867406201,360
72679,173537,218701,-6.0598232345,7.53739119,1.9812571127999998,361
72686,173532,218702,-6.1112689204,7.5086773188,1.9752750562999999,362
72717,173540,218711,-6.2297136391,7.6031938115,2.0051853388,363
72730,173602,218697,-6.1686966628,7.5948189324,1.9657037659,364
72738,173595,218676,-6.1830535984,7.6091758679999995,1.8723836845000001,365
72762,173565,218757,-6.0885371056999995,7.5086773188,1.9429719511999999,366
72650,173574,218717,-6.0155560164,7.5038916736,1.9477575963999998,367
72537,173516,218656,-6.293123438,7.53739119,1.9190437251999999,368
72492,173492,218761,-6.021538072899999,7.716852885,1.8149559420999999,369
72470,173532,218771,-6.1351971464,7.5517481256,2.0518453795,370
72456,173547,218721,-6.0394842424,7.5529445369,1.9848463467,371
72442,173523,218767,-6.191428477500001,7.668996433,1.8951154991999999,372
72429,173561,218769,-6.0490555328,7.4763742137,1.9369898947,373
72459,173566,218784,-6.0981083961,7.6701928443,2.0231315083,374
72459,173590,218822,-6.0071811373,7.5517481256,2.0470597343,375
72449,173574,218812,-6.178267953200001,7.622336392299999,1.9441683625,376
72434,173602,218805,-6.1399827916000005,7.651050263499999,1.9525432416,377
72429,173597,218805,-6.0837514605,7.4991060284,1.9561324755,378
72439,173591,218861,-6.0490555328,7.6271220375,1.8759729184,379
72434,173627,218798,-6.2763736798,7.6139615132000005,1.8484554585000001,380
72456,173633,218882,-6.3110696074999995,7.6091758679999995,1.938186306,381
72467,173654,218912,-6.1112689204,7.5625158273,1.9286150156,382
72483,173619,218877,-6.1160545656,7.4847490928,1.9429719511999999,383
72501,173701,218877,-6.1220366221,7.65703232,1.9525432416,384
72510,173724,218903,-6.1064832752,7.5661050612,2.0195422744,385
72534,173619,218909,-6.134000735100001,7.489534738000001,2.0039889275,386
72487,173698,218898,-6.0119667825,7.5230342544,2.0327027987,387
72557,173693,218910,-6.2057854131,7.633104094,2.0901305410999997,388
72571,173717,218923,-6.173482308,7.5900332872,1.9477575963999998,389
72571,173712,218957,-6.0167524277,7.6175507471,1.8388841681,390
72583,173729,218904,-6.0466627102,7.5756763516,1.9633109433,391
72602,173730,218915,-6.1160545656,7.6366933279,1.9238293703999998,392
72616,173732,218960,-6.1160545656,7.5744799403,1.9429719511999999,393
72640,173715,218948,-6.1387863803,7.5517481256,1.9704894111,394
72624,173712,218935,-5.9976098469000005,7.5469624804,1.8532411037,395
72520,173707,218897,-6.2548382764,7.447660342499999,1.8807585636,396
72381,173652,218908,-6.178267953200001,7.5996045776,1.8843477975,397
72345,173615,218893,-6.0598232345,7.5936225210999995,1.9190437251999999,398
72297,173603,218938,-6.1351971464,7.6414789731,1.9094724347999998,399
72277,173585,218921,-6.2488562199,7.561319416,1.8795621523000001,400
72260,173626,218931,-6.092126339599999,7.6558359087,1.8867406201,401
72248,173637,219023,-6.1579289611,7.5661050612,1.9286150156,402
72277,173649,218949,-6.1064832752,7.5338019561000005,1.998006871,403
72267,173653,218993,-6.0837514605,7.4799634476,1.9465611851,404
72269,173619,219004,-6.2297136391,7.7324062319,1.9896319919,405
72283,173622,219003,-6.149554082000001,7.5744799403,1.8951154991999999,406
72232,173607,219041,-6.0071811373,7.7419775223,2.0183458631,407
72235,173635,219005,-6.1962141227,7.6187471584,1.9238293703999998,408
72234,173601,219000,-6.125625856,7.4907311493,1.9429719511999999,409
72253,173593,219009,-6.1962141227,7.4715885685,2.0434705004000002,410
72256,173612,219002,-6.0490555328,7.6845497799,2.0003996936,411
72273,173600,219073,-6.0454662989,7.7694949822,1.9764714676,412
72294,173613,219056,-5.9736816209,7.721638530200001,1.8233308212,413
72308,173635,218980,-6.077769404,7.6235328036,2.0135602179,414
72322,173628,219027,-5.9461641610000004,7.5038916736,2.0614166699,415
72333,173634,219089,-6.2057854131,7.6606215538999995,2.0434705004000002,416
72351,173603,219015,-6.0394842424,7.4811598589,1.9573288867999998,417
72405,173595,219037,-6.0849478718,7.679764134699999,1.8005990065,418
72351,173584,219021,-6.0646088797,7.460820866800001,1.9764714676,419
72364,173582,219040,-6.1818571871,7.5756763516,1.9238293703999998,420
72408,173601,219021,-6.101697629999999,7.679764134699999,1.9956140484,421
72465,173568,219054,-6.1160545656,7.460820866800001,1.8999011444,422
72357,173535,219014,-6.203392590499999,7.5936225210999995,1.9669001771999999,423
72254,173503,218950,-6.244070574699999,7.6139615132000005,1.962114532,424
72130,173457,218947,-6.125625856,7.5601230047,1.938186306,425
72058,173425,218967,-6.2009997679,7.718049296299999,1.938186306,426
72063,173433,218982,-6.1639110176,7.6187471584,1.8520446924,427
72070,173414,218988,-6.029912952,7.6941210703,1.9669001771999999,428
72041,173411,219029,-6.1052868639,7.5577301821,1.9525432416,429
72060,173383,219010,-5.968895975700001,7.6043902228,1.9860427579999997,430
72091,173386,219027,-6.1124653317,7.6139615132000005,1.9944176371,431
72080,173307,219067,-6.078965815299999,7.465606512,1.9525432416,432
72073,173334,219044,-6.0873406944,7.5278198996,1.962114532,433
72128,173334,219044,-5.996413435599999,7.485945504099999,1.9477575963999998,434
72082,173303,219033,-6.0550375893,7.5792655855,1.8855442087999998,435
72092,173351,219042,-6.0969119848,7.5003024396999995,1.8855442087999998,436
72105,173333,219065,-6.1830535984,7.6462646183,1.9190437251999999,437
72131,173286,219073,-6.0586268232,7.5469624804,2.0231315083,438
72144,173232,219108,-6.197410534,7.5326055448,1.9345970721,439
72187,173290,219111,-6.0933227509000005,7.5804619967999995,1.962114532,440
72199,173256,219048,-6.0406806537,7.651050263499999,1.962114532,441
72234,173276,219087,-6.1591253724,7.5601230047,2.0327027987,442
72270,173263,219108,-6.1926248888,7.4991060284,2.0039889275,443
72278,173266,219069,-5.9916277904,7.651050263499999,1.8568303376,444
72294,173235,219046,-6.0442698876,7.5792655855,1.8819549749,445
72319,173213,219036,-6.053841177999999,7.5756763516,2.0315063874,446
72347,173257,219093,-6.0729837587999995,7.5804619967999995,1.9094724347999998,447
72390,173239,219111,-6.2201423487000005,7.6283184488,1.9609181207,448
72395,173179,219086,-6.0203416616,7.53739119,2.0291135648000003,449
72304,173136,219089,-6.173482308,7.679764134699999,1.9956140484,450
72168,173090,219010,-6.120840210799999,7.5098737301,1.8616159827999998,451
72121,173063,219073,-6.1591253724,7.485945504099999,1.938186306,452
72097,173037,219019,-6.0143596051,7.5098737301,1.9716858223999998,453
72074,173016,219080,-6.0933227509000005,7.6606215538999995,1.938186306,454
72069,173021,219068,-6.125625856,7.5601230047,1.9190437251999999,455
72070,172982,219086,-6.0969119848,7.489534738000001,2.0039889275,456
72111,173000,219143,-5.983252911299999,7.5661050612,1.9848463467,457
72140,172990,219147,-6.0550375893,7.5661050612,1.9956140484,458
72171,173003,219129,-6.216553114800001,7.5864440533,1.9896319919,459
72148,172956,219149,-6.1926248888,7.6139615132000005,1.9704894111,460
72154,172946,219140,-6.1878392436,7.5182486092000005,1.8711872732,461
72123,172928,219250,-6.0909299283,7.5900332872,2.0853448959,462
72199,172920,219226,-6.1064832752,7.788637563,1.91425808,463
72221,172925,219197,-6.0311093633,7.6366933279,2.0039889275,464
72238,172942,219211,-6.149554082000001,7.5385876013,1.9716858223999998,465
72315,172909,219207,-6.0263237181000004,7.5673014725,1.9190437251999999,466
72305,172899,219187,-6.0406806537,7.6235328036,2.0470597343,467
72331,172948,219240,-6.1304115012,7.4763742137,1.8771693297,468
72348,172914,219252,-6.0825550492,7.6749784895,1.9010975557,469
72391,172922,219267,-6.0203416616,7.556533770800001,2.0195422744,470
72409,172909,219179,-6.148357670699999,7.6031938115,2.0003996936,471
72416,172869,219222,-6.22133876,7.556533770800001,1.9920248145,472
72432,172896,219247,-6.125625856,7.6941210703,1.9752750562999999,473
72497,172930,219273,-6.0981083961,7.585247642000001,1.8951154991999999,474
72511,172869,219272,-6.0729837587999995,7.585247642000001,1.9896319919,475
72521,172875,219284,-6.0825550492,7.6809605460000006,1.9812571127999998,476
72473,172836,219297,-6.0969119848,7.5984081663000005,2.0147566292,477
72346,172781,219281,-6.1268222673,7.5457660691,1.9848463467,478
72249,172736,219218,-6.1064832752,7.6055866341,1.9800607015,479
72204,172730,219272,-6.0729837587999995,7.5517481256,1.962114532,480
72210,172738,219300,-6.101697629999999,7.5469624804,1.9525432416,481
72205,172671,219322,-6.077769404,7.5948189324,1.962114532,482
72219,172676,219325,-6.1351971464,7.6366933279,1.8867406201,483
72247,172686,219354,-6.125625856,7.5469624804,1.938186306,484
72276,172660,219400,-6.2261244052,7.5182486092000005,2.009970984,485
72270,172683,219404,-6.101697629999999,7.570890706399999,1.962114532,486
72263,172691,219437,-6.1830535984,7.6031938115,1.9860427579999997,487
72279,172651,219454,-6.1818571871,7.637889739199999,1.938186306,488
72297,172704,219431,-6.1675002515,7.6031938115,1.9094724347999998,489
72307,172667,219496,-6.0311093633,7.6977103042,1.91425808,490
72325,172632,219469,-5.9988062582,7.570890706399999,1.9477575963999998,491
72378,172643,219535,-5.9976098469000005,7.6139615132000005,1.9465611851,492
72397,172657,219580,-6.1351971464,7.5517481256,1.9716858223999998,493
72464,172675,219555,-6.1148581543,7.5517481256,1.9046867896,494
72460,172677,219560,-6.092126339599999,7.584051230699999,1.9669001771999999,495
72485,172640,219576,-6.0837514605,7.5038916736,1.8711872732,496
72510,172676,219592,-6.134000735100001,7.6091758679999995,1.9956140484,497
72538,172670,219625,-6.0598232345,7.5326055448,1.9812571127999998,498
72558,172661,219608,-6.0646088797,7.637889739199999,1.9190437251999999,499
72591,172647,219587,-6.095715573500001,7.556533770800001,2.0279171535,500
72592,172642,219607,-5.9162538785,7.53739119,1.9764714676,501
72689,172669,219664,-6.0550375893,7.5696942951,1.9908284031999999,502
72678,172647,219663,-6.1160545656,7.7036923607,1.9286150156,503
72696,172649,219697,-5.9784672661,7.6606215538999995,2.0422740890999997,504
72720,172664,219669,-6.2009997679,7.6905318364,1.8771693297,505
72663,172597,219663,-6.0490555328,7.4560352216,1.9046867896,506
72514,172539,219643,-6.120840210799999,7.5409804239,1.9657037659,507
72434,172504,219680,-5.958128274,7.5792655855,1.9669001771999999,508
72390,172462,219647,-5.8648081926,7.4751778024,2.1475582835,509
72337,172513,219658,-6.2009997679,7.5900332872,2.0530417908,510
72392,172487,219718,-6.1112689204,7.6343005053,2.0003996936,511
72377,172504,219720,-6.1005012187,7.6175507471,2.0279171535,512
72402,172465,219752,-6.1639110176,7.612765101899999,1.8951154991999999,513
72420,172489,219767,-6.0969119848,7.5230342544,2.0003996936,514
72433,172456,219821,-6.0586268232,7.5182486092000005,1.9764714676,515
72443,172460,219854,-6.149554082000001,7.6091758679999995,2.0985054202,516
72449,172455,219916,-6.0071811373,7.561319416,1.9286150156,517
72444,172466,219890,-6.0693945249,7.4991060284,1.9908284031999999,518
72455,172446,219888,-6.1292150899,7.5649086499,2.0470597343,519
72440,172474,219943,-6.1304115012,7.6139615132000005,1.9848463467,520
72532,172483,219956,-6.1124653317,7.5960153436999995,2.0051853388,521
72534,172486,219954,-6.125625856,7.5361947787,1.9226329591,522
72578,172520,219974,-6.0442698876,7.718049296299999,2.0566310246999997,523
72592,172508,219984,-6.0681981136,7.637889739199999,1.9992032822999999,524
72622,172498,220014,-6.1160545656,7.585247642000001,1.962114532,525
72633,172483,220057,-6.173482308,7.5278198996,1.9190437251999999,526
72671,172503,220033,-6.1962141227,7.304090986499999,1.9429719511999999,527
72694,172530,220050,-6.173482308,7.542176835199999,1.9525432416,528
72721,172520,220105,-6.1878392436,7.5792655855,2.009970984,529
72740,172475,220133,-6.1304115012,7.570890706399999,1.8807585636,530
72752,172527,220141,-6.0071811373,7.6941210703,2.0231315083,531
72799,172481,220169,-6.2057854131,7.6031938115,1.9669001771999999,532
72881,172539,220105,-6.0717873475,7.6761749007999995,2.0087745727,533
72780,172518,220152,-6.125625856,7.6031938115,1.9477575963999998,534
72801,172513,220207,-6.0311093633,7.4907311493,1.8807585636,535
72675,172451,220176,-5.9353964593,7.5409804239,1.9860427579999997,536
72608,172410,220144,-6.0406806537,7.485945504099999,1.9812571127999998,537
72571,172443,220198,-6.216553114800001,7.5948189324,1.9908284031999999,538
72525,172447,220284,-6.1064832752,7.5469624804,1.9704894111,539
72509,172462,220314,-6.2548382764,7.4991060284,2.0518453795,540
72524,172442,220336,-6.1878392436,7.5936225210999995,1.8520446924,541
72549,172451,220369,-6.0490555328,7.5661050612,2.0949161863,542
72600,172494,220436,-6.0203416616,7.6474610296,1.9657037659,543
72617,172431,220433,-6.178267953200001,7.6283184488,1.938186306,544
72600,172475,220532,-6.2309100503999995,7.5996045776,1.9334006607999998,545
72603,172500,220522,-6.2249279939,7.6414789731,2.0195422744,546
72589,172490,220573,-6.173482308,7.679764134699999,1.9704894111,547
72622,172491,220588,-6.2261244052,7.6043902228,1.9764714676,548
72656,172553,220666,-6.1543397272,7.6187471584,1.962114532,549
72573,172545,220732,-6.1399827916000005,7.5326055448,2.0003996936,550
72721,172589,220753,-6.1148581543,7.418946471299999,1.9525432416,551
72747,172601,220771,-6.0394842424,7.5469624804,2.0243279196,552
72771,172653,220802,-6.1543397272,7.622336392299999,1.9896319919,553
72805,172657,220893,-6.0873406944,7.6893354250999995,1.9848463467,554
72842,172704,220915,-6.0586268232,7.6462646183,1.9238293703999998,555
72877,172711,220928,-6.0454662989,7.6558359087,2.0147566292,556
72888,172723,221018,-5.983252911299999,7.556533770800001,1.9669001771999999,557
72908,172744,221000,-6.0969119848,7.5756763516,1.91425808,558
72930,172757,221064,-6.0119667825,7.6091758679999995,1.9226329591,559
72961,172766,221128,-6.1639110176,7.4907311493,1.9860427579999997,560
73008,172798,221122,-6.063412468399999,7.447660342499999,1.866401628,561
73034,172889,221202,-6.1962141227,7.6558359087,1.9992032822999999,562
73047,172867,221231,-6.0047883147,7.556533770800001,1.9609181207,563
72958,172840,221272,-6.1399827916000005,7.5888368759,1.9657037659,564
72835,172803,221296,-6.2201423487000005,7.6319076827,2.0853448959,565
72783,172793,221324,-6.2057854131,7.5804619967999995,1.9609181207,566
72767,172804,221298,-6.0394842424,7.718049296299999,1.8532411037,567
72767,172796,221397,-6.1112689204,7.5804619967999995,1.9573288867999998,568
72766,172803,221401,-6.1112689204,7.6426753844,1.962114532,569
72778,172843,221468,-6.0813586379,7.5756763516,2.0147566292,570
72831,172856,221549,-6.078965815299999,7.633104094,1.9477575963999998,571
72841,172904,221576,-6.1028940413,7.542176835199999,1.9573288867999998,572
72883,172930,221661,-6.206981824400001,7.6701928443,1.9657037659,573
72846,172937,221684,-6.0873406944,7.556533770800001,1.8723836845000001,574
72856,172949,221718,-6.1112689204,7.5996045776,2.0039889275,575
72784,172957,221749,-6.1603217837,7.764709337,1.9106688461,576
72856,172990,221866,-5.9641103305,7.5912296985,2.0195422744,577
72913,173001,221836,-6.0646088797,7.6462646183,1.9238293703999998,578
72968,173010,221918,-6.1399827916000005,7.4524459877,1.9669001771999999,579
73047,173052,221950,-6.1447684368,7.6043902228,1.9764714676,580
73037,173025,221968,-5.983252911299999,7.651050263499999,1.8819549749,581
73106,173069,222006,-6.1591253724,7.5278198996,1.8101702968999998,582
73107,173148,222043,-5.970092387,7.6283184488,1.9573288867999998,583
73124,173129,222138,-6.101697629999999,7.5326055448,1.9334006607999998,584
73143,173140,222162,-6.1531433159,7.585247642000001,1.9669001771999999,585
73163,173148,222169,-6.1818571871,7.5996045776,1.9609181207,586
73186,173199,222199,-6.2117674696,7.5182486092000005,1.8520446924,587
73221,173204,222213,-6.0741801701,7.4428746973,1.8951154991999999,588
73223,173236,222268,-6.1112689204,7.5696942951,2.0003996936,589
73274,173218,222265,-6.0981083961,7.5984081663000005,1.8556339263000001,590
73311,173240,222313,-6.063412468399999,7.5792655855,1.9752750562999999,591
73287,173287,222333,-6.3062839623,7.5517481256,2.069791549,592
73176,173199,222327,-6.1411792029,7.584051230699999,1.9609181207,593
73054,173187,222341,-6.2404813408,7.6043902228,2.0291135648000003,594
72997,173162,222373,-6.101697629999999,7.7144600624,2.0757736055,595
72970,173188,222422,-6.2057854131,7.53739119,1.8915262653,596
72958,173205,222495,-6.0681981136,7.5984081663000005,1.9908284031999999,597
72938,173195,222512,-6.120840210799999,7.4668029232999995,1.962114532,598
72963,173204,222570,-6.216553114800001,7.5517481256,1.8520446924,599
73005,173234,222602,-6.1028940413,7.5409804239,1.9573288867999998,600
73022,173234,222605,-6.0119667825,7.3986074792,1.9238293703999998,601
73014,173239,222647,-6.0693945249,7.5792655855,1.9178473139,602
73005,173247,222623,-6.1028940413,7.4380890521,1.8329021116,603
73016,173256,222671,-6.1316079125,7.6462646183,1.9848463467,604
73015,173296,222693,-6.0406806537,7.5230342544,2.0051853388,605
73043,173196,222743,-6.22133876,7.5338019561000005,1.9369898947,606
73035,173300,222774,-6.0969119848,7.585247642000001,1.8759729184,607
73105,173311,222807,-6.1686966628,7.5696942951,1.8388841681,608
73117,173325,222840,-6.1651074289,7.5900332872,2.0949161863,609
73145,173338,222834,-6.125625856,7.6654071991,1.9956140484,610
73178,173354,222800,-6.0837514605,7.6522466748,1.9190437251999999,611
73194,173354,222904,-6.3338014222,7.514659375300001,1.962114532,612
73211,173379,222875,-6.101697629999999,7.4763742137,2.0662023151,613
73232,173381,222867,-6.107679686499999,7.622336392299999,1.9286150156,614
73254,173433,222960,-6.162714606300001,7.505088084900001,1.9609181207,615
73273,173408,222930,-6.1447684368,7.5804619967999995,1.9716858223999998,616
73293,173311,222975,-6.197410534,7.5804619967999995,1.9525432416,617
73306,173412,222986,-6.0825550492,7.542176835199999,1.8819549749,618
73338,173420,222969,-6.053841177999999,7.6175507471,1.9573288867999998,619
73371,173411,222994,-6.125625856,7.5804619967999995,1.9489540077,620
73400,173420,223036,-6.0442698876,7.6139615132000005,1.962114532,621
73433,173415,222971,-6.1675002515,7.6091758679999995,2.0566310246999997,622
73396,173456,223008,-6.1543397272,7.570890706399999,1.890329854,623
73274,173359,222997,-6.1447684368,7.6761749007999995,2.0805592507,624
73154,173304,222928,-6.0263237181000004,7.465606512,2.0147566292,625
73074,173307,222938,-6.0406806537,7.6654071991,1.9573288867999998,626
73055,173284,223016,-6.2201423487000005,7.6606215538999995,1.962114532,627
73040,173263,223035,-6.1579289611,7.7036923607,2.0434705004000002,628
72987,173238,223051,-6.1316079125,7.5864440533,1.9908284031999999,629
73040,173275,223077,-6.3158552527000005,7.6522466748,1.8999011444,630
73083,173266,223090,-6.1351971464,7.65703232,1.9609181207,631
73092,173295,223109,-6.0646088797,7.6522466748,1.866401628,632
73077,173275,223105,-6.2261244052,7.5326055448,1.8472590472,633
73050,173251,223087,-6.149554082000001,7.473981391100001,1.9190437251999999,634
73051,173272,223084,-6.0442698876,7.5984081663000005,1.9848463467,635
73076,173263,223108,-6.113661743,7.4141608261,2.0003996936,636
73086,173243,223128,-6.0155560164,7.5385876013,1.9716858223999998,637
73111,173276,223142,-6.0442698876,7.5517481256,2.0231315083,638
73140,173295,223133,-6.1591253724,7.6307112714,2.0279171535,639
73162,173283,223141,-6.0490555328,7.585247642000001,1.9334006607999998,640
73182,173269,223182,-6.0119667825,7.5134629639999995,1.91425808,641
73202,173250,223138,-6.101697629999999,7.6187471584,2.0554346134,642
73218,173265,223140,-6.1555361385,7.6031938115,1.962114532,643
73234,173302,223155,-6.1244294447000005,7.5517481256,1.9812571127999998,644
73246,173305,223151,-6.0873406944,7.4943203832,1.9513468303000001,645
73281,173277,223174,-6.244070574699999,7.7228349415,1.8819549749,646
73288,173252,223124,-6.1244294447000005,7.6558359087,2.0195422744,647
73313,173250,223108,-6.1160545656,7.5361947787,1.91425808,648
73325,173265,223148,-6.1531433159,7.7036923607,1.79461695,649
73352,173266,223154,-6.1268222673,7.622336392299999,2.0374884439,650
73388,173278,223126,-6.191428477500001,7.4991060284,1.9669001771999999,651
73411,173256,223097,-6.0598232345,7.5038916736,2.0901305410999997,652
73420,173237,223117,-5.9365928706,7.53739119,1.9573288867999998,653
73311,173197,223096,-6.1268222673,7.5469624804,1.9238293703999998,654
73187,173105,223071,-5.9772708547999995,7.4943203832,1.9477575963999998,655
73125,173112,223054,-6.0873406944,7.6941210703,1.9525432416,656
73103,173086,223029,-6.0729837587999995,7.5026952623000005,2.0673987264,657
73099,173087,223118,-6.125625856,7.6235328036,2.0291135648000003,658
73086,173061,223077,-6.1830535984,7.6414789731,1.9908284031999999,659
73100,173084,223090,-6.1686966628,7.5469624804,1.8771693297,660
73137,173016,223092,-6.0454662989,7.570890706399999,1.91425808,661
73164,173034,223085,-6.2237315826,7.584051230699999,1.9800607015,662
73131,173055,223137,-6.0969119848,7.5134629639999995,2.0757736055,663
73117,173000,223074,-6.0490555328,7.514659375300001,2.0662023151,664
73135,173013,223051,-6.092126339599999,7.612765101899999,1.9429719511999999,665
73124,172989,223067,-6.1686966628,7.4620172781,1.8999011444,666
73154,172973,223108,-6.0693945249,7.561319416,1.8771693297,667
73187,173017,223080,-6.0729837587999995,7.4141608261,2.0327027987,668
73220,173025,223058,-6.0837514605,7.6091758679999995,1.8963119105000001,669
73237,172983,223084,-6.2344992843,7.6474610296,1.9046867896,670
73278,173000,223041,-6.1064832752,7.6701928443,1.9369898947,671
73301,173022,223037,-6.197410534,7.7036923607,1.8759729184,672
73300,173003,223061,-6.101697629999999,7.5182486092000005,1.8999011444,673
73331,172960,223048,-6.2009997679,7.5385876013,1.9800607015,674
73351,172940,222989,-6.021538072899999,7.4428746973,1.9190437251999999,675
73368,172957,223024,-6.173482308,7.679764134699999,1.9908284031999999,676
73404,172962,223015,-5.9078789994,7.485945504099999,1.9992032822999999,677
73490,172936,223031,-6.1603217837,7.5230342544,1.91425808,678
73462,172937,223040,-6.1244294447000005,7.585247642000001,1.9190437251999999,679
73523,172939,222992,-6.2967126719,7.6319076827,2.0985054202,680
73539,172948,223014,-5.970092387,7.5744799403,2.1367905818,681
73544,172934,222976,-6.0586268232,7.5457660691,1.9286150156,682
73569,172935,222979,-6.0873406944,7.561319416,2.0051853388,683
73531,172912,222942,-6.1064832752,7.556533770800001,2.0805592507,684
73411,172864,222888,-5.9928242016999995,7.5469624804,2.0745771942,685
73337,172800,222865,-6.0693945249,7.6366933279,2.0291135648000003,686
73294,172735,222892,-6.1064832752,7.6462646183,1.9094724347999998,687
73268,172726,222830,-6.2392849295,7.5792655855,1.9058832009,688
73144,172727,222860,-6.1220366221,7.679764134699999,2.0327027987,689
73208,172738,222881,-6.2344992843,7.570890706399999,1.8819549749,690
73246,172717,222904,-6.0358950085,7.5242306657,1.938186306,691
73316,172743,222867,-6.0490555328,7.5170521979,2.0279171535,692
73318,172729,222880,-6.0394842424,7.6426753844,2.0279171535,693
73280,172706,222859,-6.0167524277,7.5888368759,1.9202401365000001,694
73282,172688,222838,-6.0598232345,7.6462646183,1.9992032822999999,695
73287,172627,222876,-6.0454662989,7.4512495764,1.9238293703999998,696
73325,172561,222844,-6.0825550492,7.555337359499999,1.8771693297,697
73289,172693,222876,-5.9928242016999995,7.561319416,2.0003996936,698
73345,172664,222833,-6.145964848099999,7.495516794499999,1.9860427579999997,699
73396,172656,222862,-6.0741801701,7.6271220375,2.0901305410999997,700
73438,172683,222866,-6.0885371056999995,7.5278198996,2.0087745727,701
73407,172695,222824,-6.2309100503999995,7.5661050612,1.8484554585000001,702
73472,172659,222849,-6.1399827916000005,7.5134629639999995,1.9716858223999998,703
73501,172677,222826,-6.1686966628,7.465606512,1.9716858223999998,704
73528,172664,222834,-5.9497533949,7.3950182453,1.9525432416,705
73559,172704,222807,-6.2356956956000005,7.5086773188,1.9992032822999999,706
73601,172700,222787,-6.125625856,7.6989067155,1.9334006607999998,707
73622,172661,222769,-6.0598232345,7.5625158273,1.8999011444,708
73647,172674,222844,-6.025127306799999,7.4524459877,1.9956140484,709
73686,172697,222796,-6.2105710583,7.5326055448,2.0757736055,710
73713,172648,222816,-6.1399827916000005,7.6642107878,1.9513468303000001,711
73694,172677,222819,-6.149554082000001,7.5948189324,2.0147566292,712
73594,172630,222794,-6.005984725999999,7.5326055448,1.9573288867999998,713
73594,172664,222788,-6.0311093633,7.6271220375,1.8999011444,714
73523,172598,222695,-6.206981824400001,7.6319076827,1.9334006607999998,715
73395,172560,222734,-6.2105710583,7.5074809075,1.9334006607999998,716
73326,172535,222697,-6.0825550492,7.6271220375,1.8951154991999999,717
73313,172491,222709,-6.0837514605,7.5003024396999995,2.0195422744,718
73273,172476,222666,-6.025127306799999,7.651050263499999,1.9896319919,719
73280,172451,222684,-6.148357670699999,7.6319076827,1.9944176371,720
73301,172460,222712,-6.1304115012,7.5804619967999995,1.9992032822999999,721
73320,172486,222651,-6.1830535984,7.5457660691,1.8628123941,722
73335,172451,222684,-6.1351971464,7.6163543358,1.9944176371,723
73341,172459,222700,-6.1686966628,7.6175507471,1.9573288867999998,724
73336,172447,222684,-6.178267953200001,7.6642107878,1.9046867896,725
73333,172441,222674,-6.107679686499999,7.6606215538999995,1.9345970721,726
73335,172451,222655,-6.206981824400001,7.6462646183,2.0805592507,727
73368,172439,222675,-6.1100725091,7.679764134699999,2.0231315083,728
73384,172416,222679,-6.0406806537,7.5984081663000005,1.9465611851,729
73405,172440,222666,-6.2584275103,7.7659057483,1.8711872732,730
73425,172402,222630,-6.2309100503999995,7.570890706399999,1.9334006607999998,731
73457,172461,222694,-6.244070574699999,7.6187471584,2.0327027987,732
73484,172464,222660,-6.178267953200001,7.5038916736,1.9525432416,733
73506,172451,222641,-6.0358950085,7.5134629639999995,2.045863323,734
73536,172456,222612,-5.9784672661,7.5792655855,1.9429719511999999,735
73527,172473,222652,-6.173482308,7.5661050612,1.9812571127999998,736
73569,172492,222609,-6.272784445899999,7.5744799403,2.0470597343,737
73592,172472,222679,-6.021538072899999,7.5230342544,1.9573288867999998,738
73617,172444,222608,-6.0358950085,7.4380890521,1.8616159827999998,739
73639,172445,222641,-6.0681981136,7.585247642000001,1.9752750562999999,740
73652,172457,222630,-6.1818571871,7.622336392299999,2.0279171535,741
73677,172431,222652,-6.0167524277,7.6989067155,1.938186306,742
73708,172463,222630,-6.2057854131,7.8352976037,2.1475582835,743
73707,172481,222627,-6.0729837587999995,7.6031938115,1.9094724347999998,744
73610,172390,222591,-6.0646088797,7.6905318364,1.8759729184,745
73497,172330,222543,-6.206981824400001,7.7228349415,2.0195422744,746
73442,172343,222527,-5.9928242016999995,7.4847490928,1.9824535241,747
73426,172331,222529,-6.0729837587999995,7.5936225210999995,1.9046867896,748
73375,172190,222567,-6.051448355400001,7.5996045776,2.0745771942,749
73265,172325,222508,-6.0550375893,7.5744799403,2.0147566292,750
73382,172291,222561,-6.1124653317,7.584051230699999,1.9477575963999998,751
73417,172338,222557,-6.0729837587999995,7.737191877099999,2.0853448959,752
73441,172346,222547,-6.206981824400001,7.637889739199999,1.9716858223999998,753
73416,172304,222548,-6.1124653317,7.6079794567,1.962114532,754
73411,172318,222520,-6.0693945249,7.561319416,1.8951154991999999,755
73397,172329,222573,-6.034698597199999,7.4751778024,1.9286150156,756
73416,172302,222583,-6.177071541899999,7.5948189324,2.0039889275,757
73428,172313,222578,-6.077769404,7.6414789731,1.8759729184,758
73454,172335,222630,-5.9880385565,7.5134629639999995,1.9944176371,759
73477,172359,222545,-6.1220366221,7.5314091335,1.9094724347999998,760
73508,172366,222534,-6.0550375893,7.585247642000001,1.9716858223999998,761
73517,172402,222601,-6.0119667825,7.4237321165,2.0757736055,762
73594,172383,222598,-6.0969119848,7.5517481256,1.9609181207,763
73563,172393,222586,-6.1304115012,7.6462646183,1.9860427579999997,764
73593,172360,222618,-6.1830535984,7.5182486092000005,1.91425808,765
73598,172410,222627,-6.1160545656,7.6175507471,1.9106688461,766
73624,172422,222632,-6.092126339599999,7.6235328036,1.9477575963999998,767
73649,172430,222665,-6.1351971464,7.6989067155,1.938186306,768
73663,172445,222647,-5.8504512570000005,7.6606215538999995,1.938186306,769
73691,172486,222681,-6.0586268232,7.5792655855,2.0183458631,770
73732,172440,222722,-6.0406806537,7.6091758679999995,1.9190437251999999,771
73720,172444,222730,-6.149554082000001,7.5230342544,1.9944176371,772
73575,172453,222674,-5.9449677497,7.5290163108999995,2.0386848552,773
73473,172422,222658,-6.053841177999999,7.5577301821,1.9190437251999999,774
73416,172417,222651,-6.2404813408,7.5744799403,1.9573288867999998,775
73393,172396,222635,-6.034698597199999,7.6031938115,2.0183458631,776
73381,172380,222690,-6.025127306799999,7.4943203832,2.0470597343,777
73371,172429,222687,-6.1304115012,7.5984081663000005,2.057827436,778
73381,172456,222755,-6.1399827916000005,7.5326055448,2.0327027987,779
73415,172467,222828,-6.0311093633,7.53739119,2.0243279196,780
73412,172498,222839,-6.1531433159,7.53739119,1.9764714676,781
73391,172510,222808,-6.1304115012,7.6043902228,1.938186306,782
73387,172528,222891,-6.117250976899999,7.5517481256,2.009970984,783
73385,172563,222873,-6.120840210799999,7.4715885685,1.9752750562999999,784
73405,172573,222856,-6.1435720255,7.5326055448,1.962114532,785
73409,172599,222885,-6.174678719299999,7.5804619967999995,1.9669001771999999,786
73441,172684,222952,-6.095715573500001,7.637889739199999,2.0374884439,787
73458,172639,222976,-6.1926248888,7.6175507471,2.0482561456,788
73482,172696,223019,-6.0275201294,7.5038916736,1.8616159827999998,789
73514,172695,223044,-6.101697629999999,7.5182486092000005,1.91425808,790
73528,172754,223053,-6.0406806537,7.5948189324,2.0757736055,791
73540,172740,223101,-6.092126339599999,7.556533770800001,1.8568303376,792
73567,172778,223090,-6.053841177999999,7.6713892556,2.0614166699,793
73636,172805,223091,-6.0203416616,7.489534738000001,1.9848463467,794
73626,172824,223123,-6.077769404,7.6271220375,1.8999011444,795
73588,172873,223111,-6.2392849295,7.5326055448,1.9429719511999999,796
73487,172839,223141,-6.025127306799999,7.6701928443,1.9764714676,797
73373,172784,223137,-6.0681981136,7.4368926408,1.9956140484,798
73281,172799,223120,-6.0442698876,7.584051230699999,1.9944176371,799
73229,172816,223185,-6.1351971464,7.5984081663000005,1.9944176371,800
73209,172844,223206,-5.968895975700001,7.5756763516,1.962114532,801
73176,172857,223141,-6.0969119848,7.5756763516,1.9704894111,802
73176,172892,223276,-6.2309100503999995,7.5888368759,1.9573288867999998,803
73193,172941,223277,-6.1112689204,7.561319416,1.9334006607999998,804
73147,172962,223269,-6.1304115012,7.5038916736,2.0231315083,805
73198,172957,223280,-6.149554082000001,7.708478005899999,2.0231315083,806
73177,172971,223331,-6.0933227509000005,7.6462646183,1.9334006607999998,807
73164,172979,223347,-6.077769404,7.5409804239,1.9106688461,808
73180,173045,223373,-6.2117674696,7.53739119,1.9334006607999998,809
73199,173056,223385,-6.0394842424,7.585247642000001,1.9609181207,810
73234,173116,223439,-6.0981083961,7.633104094,1.938186306,811
73253,173117,223422,-5.9976098469000005,7.6905318364,1.91425808,812
73287,173131,223395,-6.1052868639,7.5996045776,1.938186306,813
73295,173156,223489,-6.050251944099999,7.5469624804,1.8711872732,814
73343,173204,223453,-6.216553114800001,7.633104094,1.8951154991999999,815
73343,173221,223500,-5.9988062582,7.4512495764,1.9896319919,816
73372,173250,223510,-6.3110696074999995,7.5469624804,1.9046867896,817
73390,173298,223512,-6.0981083961,7.6187471584,1.890329854,818
73403,173301,223529,-6.050251944099999,7.5326055448,2.0039889275,819
73416,173337,223582,-6.095715573500001,7.6905318364,2.0422740890999997,820
73353,173301,223525,-6.1304115012,7.4237321165,2.0039889275,821
73238,173299,223557,-6.1686966628,7.7228349415,1.9812571127999998,822
73153,173262,223545,-6.2261244052,7.489534738000001,1.9298114269,823
73104,173271,223553,-5.9976098469000005,7.4548388103,1.9369898947,824
73073,173281,223532,-6.1866428323,7.53739119,1.8759729184,825
73037,173281,223578,-6.1579289611,7.460820866800001,2.0709879603,826
73034,173326,223594,-6.0550375893,7.5469624804,2.0039889275,827
73050,173367,223604,-6.1160545656,7.561319416,1.9573288867999998,828
73106,173391,223624,-6.2356956956000005,7.5673014725,1.9669001771999999,829
73086,173393,223636,-6.1686966628,7.6103722793,1.9010975557,830
73094,173388,223648,-6.0729837587999995,7.5936225210999995,1.9190437251999999,831
73088,173426,223626,-6.0741801701,7.6139615132000005,1.9190437251999999,832
73102,173450,223670,-6.053841177999999,7.5026952623000005,1.9561324755,833
73121,173448,223676,-6.22133876,7.570890706399999,1.9477575963999998,834
73163,173455,223651,-6.021538072899999,7.5469624804,1.8951154991999999,835
73192,173481,223666,-6.1160545656,7.5230342544,1.938186306,836
73202,173505,223690,-6.1244294447000005,7.460820866800001,2.0482561456,837
73238,173525,223663,-6.0969119848,7.5696942951,1.866401628,838
73264,173538,223649,-6.1830535984,7.5888368759,1.9956140484,839
73271,173560,223669,-6.0825550492,7.4380890521,2.1128623558,840
73307,173570,223722,-6.1292150899,7.651050263499999,2.0039889275,841
73337,173588,223690,-6.1160545656,7.542176835199999,1.9477575963999998,842
73337,173608,223790,-6.0681981136,7.5984081663000005,2.0135602179,843
73359,173571,223678,-6.021538072899999,7.447660342499999,1.9286150156,844
73410,173593,223678,-6.149554082000001,7.6139615132000005,1.9704894111,845
73429,173650,223657,-6.3302121883,7.5888368759,1.8580267489000002,846
73440,173627,223686,-6.206981824400001,7.5338019561000005,2.1080767106,847
73474,173643,223649,-6.1064832752,7.4991060284,1.938186306,848
73507,173649,223673,-5.9497533949,7.6043902228,2.0003996936,849
73527,173672,223672,-6.1112689204,7.5457660691,1.9058832009,850
73566,173650,223666,-6.1878392436,7.4344998182,1.9046867896,851
73591,173708,223653,-6.0454662989,7.5756763516,1.9896319919,852
73523,173677,223616,-6.245266986000001,7.5792655855,2.0291135648000003,853
73437,173592,223600,-6.1148581543,7.5984081663000005,2.0135602179,854
73369,173605,223577,-6.0825550492,7.5086773188,1.9812571127999998,855
73343,173581,223589,-5.9976098469000005,7.5134629639999995,1.9669001771999999,856
73304,173599,223582,-6.092126339599999,7.5936225210999995,1.9525432416,857
73345,173597,223522,-6.2249279939,7.716852885,1.8951154991999999,858
73291,173589,223482,-6.021538072899999,7.5756763516,2.0662023151,859
73311,173624,223580,-6.1722858967,7.556533770800001,1.962114532,860
73351,173637,223568,-6.162714606300001,7.5290163108999995,1.9944176371,861
73366,173634,223524,-6.0574304119,7.633104094,1.9956140484,862
73352,173626,223497,-6.1064832752,7.5804619967999995,2.0805592507,863
73364,173608,223557,-6.0442698876,7.7515488127,1.9274186043000001,864
73367,173638,223516,-6.0155560164,7.584051230699999,2.0374884439,865
73422,173650,223536,-6.1316079125,7.633104094,1.9992032822999999,866
73406,173648,223468,-6.1435720255,7.6187471584,2.0039889275,867
73438,173627,223541,-6.0837514605,7.5038916736,1.8999011444,868
73457,173677,223537,-5.958128274,7.6366933279,2.0673987264,869
73484,173653,223483,-6.050251944099999,7.5792655855,1.8388841681,870
73506,173657,223411,-6.1818571871,7.585247642000001,1.8951154991999999,871
73537,173673,223454,-6.1507504933,7.721638530200001,2.0626130812,872
73446,173700,223418,-6.077769404,7.5505517143,1.9657037659,873
73537,173714,223488,-6.178267953200001,7.6462646183,2.0279171535,874
73578,173678,223404,-6.1148581543,7.4644101007,1.8759729184,875
73606,173720,223426,-6.1351971464,7.53739119,2.0518453795,876
73672,173714,223396,-6.136393557699999,7.4847490928,1.9752750562999999,877
73678,173690,223414,-5.9353964593,7.584051230699999,1.91425808,878
73684,173684,223398,-6.1124653317,7.633104094,1.9286150156,879
73695,173655,223352,-6.063412468399999,7.5385876013,1.9525432416,880
73737,173707,223341,-6.178267953200001,7.5122665527,2.0135602179,881
73761,173675,223330,-6.2057854131,7.4847490928,1.9764714676,882
73831,173695,223371,-6.2763736798,7.5134629639999995,1.9716858223999998,883
73802,173724,223267,-6.063412468399999,7.570890706399999,1.9429719511999999,884
73834,173714,223344,-6.206981824400001,7.4524459877,2.0566310246999997,885
73857,173680,223226,-6.1926248888,7.5996045776,1.9812571127999998,886
73824,173644,223254,-6.1064832752,7.514659375300001,1.9992032822999999,887
73735,173588,223115,-6.1579289611,7.708478005899999,1.9190437251999999,888
73687,173548,223148,-6.2297136391,7.6654071991,1.9848463467,889
73666,173565,223146,-6.0406806537,7.6414789731,1.8532411037,890
73652,173577,223106,-6.0071811373,7.5984081663000005,2.0039889275,891
73651,173534,223085,-6.0358950085,7.5326055448,1.9764714676,892
73649,173543,223040,-6.1830535984,7.625925626199999,1.9848463467,893
73670,173546,223012,-6.101697629999999,7.622336392299999,1.962114532,894
73696,173550,223001,-6.0873406944,7.625925626199999,2.0051853388,895
73694,173531,222963,-6.0586268232,7.5756763516,1.9812571127999998,896
73713,173512,223018,-6.0263237181000004,7.6462646183,1.9848463467,897
73715,173511,222957,-6.1100725091,7.5936225210999995,1.9800607015,898
73728,173503,223003,-6.1543397272,7.3866433661999995,1.890329854,899
73743,173448,222943,-6.1651074289,7.4093751809,2.009970984,900
73756,173481,222951,-6.2392849295,7.7228349415,2.0841484846,901
73795,173513,222944,-6.0873406944,7.5661050612,1.8759729184,902
73813,173494,222914,-5.968895975700001,7.5326055448,1.8532411037,903
73828,173504,222892,-6.2105710583,7.679764134699999,2.0135602179,904
73846,173510,222884,-6.1387863803,7.6043902228,1.9908284031999999,905
73879,173470,222839,-6.0873406944,7.5086773188,1.9525432416,906
73877,173463,222887,-6.1926248888,7.5278198996,2.0051853388,907
73906,173454,222833,-6.0358950085,7.5649086499,1.8999011444,908
73915,173491,222774,-6.0442698876,7.5230342544,1.91425808,909
73939,173490,222803,-6.120840210799999,7.6462646183,1.9286150156,910
73947,173452,222778,-6.206981824400001,7.6606215538999995,1.9669001771999999,911
73968,173451,222749,-6.0442698876,7.633104094,1.962114532,912
74015,173405,222750,-6.0741801701,7.6283184488,1.9752750562999999,913
74014,173450,222732,-6.1160545656,7.695317481599999,2.0003996936,914
74051,173425,222647,-6.1064832752,7.5936225210999995,2.1140587671,915
74055,173457,222722,-6.0358950085,7.543373246500001,2.0027925162,916
74066,173426,222663,-6.0454662989,7.666603610399999,1.9477575963999998,917
74094,173438,222624,-5.9868421452,7.505088084900001,1.8807585636,918
74117,173380,222639,-6.1028940413,7.4991060284,1.9573288867999998,919
74051,173307,222545,-6.092126339599999,7.6043902228,2.0051853388,920
73946,173323,222532,-6.1268222673,7.5194450205,1.9992032822999999,921
73879,173272,222514,-6.120840210799999,7.561319416,1.9908284031999999,922
73890,173244,222505,-6.021538072899999,7.5242306657,1.9477575963999998,923
73827,173257,222456,-6.0167524277,7.5601230047,1.938186306,924
73796,173203,222469,-6.0311093633,7.6235328036,1.9010975557,925
73769,173213,222384,-6.216553114800001,7.6654071991,1.9525432416,926
73760,173214,222429,-6.0873406944,7.584051230699999,1.9764714676,927
73766,173223,222382,-6.0693945249,7.6079794567,1.9238293703999998,928
73765,173193,222407,-6.0490555328,7.5900332872,1.8759729184,929
73763,173173,222410,-6.1926248888,7.5134629639999995,1.9286150156,930
73735,173173,222328,-6.2488562199,7.637889739199999,1.9190437251999999,931
73720,173186,222315,-6.2297136391,7.6091758679999995,1.8711872732,932
73744,173172,222359,-6.305087551,7.5900332872,1.9190437251999999,933
73756,173169,222299,-6.107679686499999,7.585247642000001,1.9908284031999999,934
73760,173191,222358,-5.9880385565,7.53739119,1.9250257817,935
73766,173122,222279,-6.0311093633,7.5661050612,1.9298114269,936
73778,173184,222316,-6.041877065,7.585247642000001,2.0279171535,937
73760,173137,222305,-6.1830535984,7.542176835199999,1.9238293703999998,938
73794,173174,222276,-6.0598232345,7.5290163108999995,1.9573288867999998,939
73799,173161,222232,-6.1160545656,7.543373246500001,2.0003996936,940
73817,173186,222279,-6.0969119848,7.457231632899999,1.9477575963999998,941
73818,173199,222240,-6.1686966628,7.556533770800001,2.0183458631,942
73834,173168,222299,-6.1531433159,7.5756763516,1.9812571127999998,943
73845,173161,222245,-6.1531433159,7.585247642000001,1.9334006607999998,944
73857,173149,222233,-6.021538072899999,7.666603610399999,1.9716858223999998,945
73880,173149,222240,-6.2249279939,7.6749784895,1.962114532,946
73887,173163,222195,-6.0311093633,7.6235328036,1.9764714676,947
73913,173162,222235,-6.0693945249,7.6043902228,2.0003996936,948
73923,173132,222199,-6.1411792029,7.4524459877,2.0374884439,949
73931,173116,222172,-6.117250976899999,7.5744799403,2.0949161863,950
73902,173157,222202,-6.22133876,7.6043902228,2.0051853388,951
73923,173167,222115,-6.1112689204,7.4907311493,1.91425808,952
73920,173103,222125,-6.078965815299999,7.585247642000001,1.9752750562999999,953
73816,173089,222068,-6.0167524277,7.6091758679999995,2.0374884439,954
73754,173015,222064,-6.206981824400001,7.6941210703,1.9573288867999998,955
73714,173016,222087,-6.1962141227,7.447660342499999,1.9860427579999997,956
73706,173015,221992,-5.9868421452,7.5661050612,1.9369898947,957
73663,173008,222066,-6.0167524277,7.5996045776,1.9573288867999998,958
73647,173037,222003,-6.136393557699999,7.53739119,1.9896319919,959
73632,173045,222015,-6.1591253724,7.4991060284,1.9094724347999998,960
73646,173013,222004,-6.0825550492,7.6749784895,2.0051853388,961
73645,173022,221988,-6.0167524277,7.740781111,2.0243279196,962
73641,173019,221994,-6.1399827916000005,7.666603610399999,1.962114532,963
73631,173035,222012,-6.177071541899999,7.6474610296,2.0673987264,964
73620,173020,222002,-5.970092387,7.53739119,1.9573288867999998,965
73628,173024,222002,-6.0311093633,7.6366933279,1.9848463467,966
73640,173018,221990,-6.0741801701,7.4668029232999995,1.962114532,967
73652,173020,222008,-5.9174502898000005,7.612765101899999,1.9046867896,968
73678,173101,221981,-5.8839507734,7.6366933279,1.962114532,969
73699,173021,221997,-6.101697629999999,7.4811598589,1.9429719511999999,970
73704,173063,221983,-6.1124653317,7.5756763516,1.9573288867999998,971
73733,173033,221980,-6.0358950085,7.5661050612,1.9716858223999998,972
73740,173029,221987,-6.101697629999999,7.6319076827,1.9800607015,973
73757,173081,221995,-6.149554082000001,7.7096744172000005,1.9238293703999998,974
73784,173051,221927,-6.162714606300001,7.5230342544,1.9513468303000001,975
73785,173062,221929,-6.2632131555,7.3710900192999995,1.9573288867999998,976
73808,173054,221987,-6.2536418651,7.6749784895,2.0518453795,977
73814,173074,221927,-6.1244294447000005,7.5230342544,1.9477575963999998,978
73835,173047,221930,-6.0586268232,7.556533770800001,2.0386848552,979
73880,173056,221920,-6.1351971464,7.7324062319,1.9812571127999998,980
73881,173099,221908,-5.9736816209,7.570890706399999,1.938186306,981
73921,173027,221915,-6.134000735100001,7.6606215538999995,1.9477575963999998,982
73892,173052,221853,-6.2021961791999995,7.5409804239,1.9908284031999999,983
73917,173061,221844,-6.0729837587999995,7.5086773188,1.8807585636,984
73947,173053,221881,-6.0825550492,7.5661050612,2.0147566292,985
73918,173049,221866,-5.984449322600001,7.5326055448,1.9585252981,986
73840,173011,221791,-6.191428477500001,7.5230342544,1.9190437251999999,987
73719,172938,221841,-6.1926248888,7.585247642000001,2.1140587671,988
73697,172942,221783,-6.1304115012,7.708478005899999,2.0327027987,989
73670,172938,221769,-6.051448355400001,7.5469624804,1.8340985228999998,990
73647,172976,221781,-6.029912952,7.4368926408,2.0195422744,991
73626,172932,221787,-6.1675002515,7.5182486092000005,1.9286150156,992
73634,172910,221736,-6.0729837587999995,7.4524459877,1.9477575963999998,993
73657,172921,221746,-6.173482308,7.5086773188,1.938186306,994
73653,172920,221734,-6.0358950085,7.5625158273,1.890329854,995
73645,172929,221726,-6.0837514605,7.6654071991,2.0195422744,996
73633,172920,221746,-6.0071811373,7.6701928443,2.0147566292,997
73614,172958,221724,-6.005984725999999,7.6606215538999995,1.91425808,998
73637,172948,221686,-5.968895975700001,7.5361947787,1.91425808,999
73633,172953,221762,-6.0873406944,7.556533770800001,1.9908284031999999,1000
73646,172934,221722,-6.0275201294,7.4668029232999995,1.91425808,1001
73689,172928,221773,-6.1962141227,7.6079794567,2.0147566292,1002
73684,172951,221721,-5.9306108141000005,7.4428746973,1.9573288867999998,1003
73704,172938,221747,-6.0741801701,7.651050263499999,1.9429719511999999,1004
73715,172998,221694,-6.0442698876,7.5649086499,1.8807585636,1005
73731,173026,221730,-6.1112689204,7.561319416,2.0709879603,1006
73732,172947,221688,-5.9629139192,7.5900332872,2.0183458631,1007
73749,172949,221719,-6.1196437994999995,7.542176835199999,1.9764714676,1008
73774,172973,221704,-6.0969119848,7.612765101899999,1.9704894111,1009
73784,172961,221657,-5.9365928706,7.5038916736,2.0518453795,1010
73780,173007,221717,-6.1064832752,7.4847490928,2.0757736055,1011
73828,173006,221672,-6.0358950085,7.5649086499,1.8999011444,1012
73833,173031,221684,-5.9736816209,7.428517761699999,1.9477575963999998,1013
73836,173032,221671,-6.1220366221,7.5278198996,2.0997018315,1014
73863,173017,221684,-6.2297136391,7.5242306657,2.0566310246999997,1015
73875,173017,221655,-6.050251944099999,7.6319076827,1.9525432416,1016
73889,172999,221654,-6.005984725999999,7.5278198996,1.962114532,1017
73848,172974,221632,-6.178267953200001,7.6366933279,2.0374884439,1018
73738,172925,221659,-6.0729837587999995,7.5326055448,1.9956140484,1019
73645,172937,221628,-6.053841177999999,7.4847490928,2.0470597343,1020
73619,172941,221632,-6.0885371056999995,7.6606215538999995,2.0614166699,1021
73594,172953,221606,-6.0873406944,7.572087117700001,1.8999011444,1022
73593,172906,221671,-5.938985693199999,7.6713892556,2.0087745727,1023
73570,172950,221612,-6.0586268232,7.5338019561000005,2.0279171535,1024
73580,172982,221623,-6.1351971464,7.505088084900001,2.0039889275,1025
73591,172977,221627,-6.1878392436,7.441678286,2.0470597343,1026
73590,172956,221693,-5.9820565,7.495516794499999,1.8472590472,1027
73577,172983,221685,-6.0550375893,7.5792655855,1.9860427579999997,1028
73551,173002,221602,-6.149554082000001,7.5086773188,1.9669001771999999,1029
73561,173006,221657,-6.0023954921,7.683353368600001,1.9238293703999998,1030
73545,173045,221684,-6.125625856,7.5661050612,1.890329854,1031
73562,173033,221635,-6.2356956956000005,7.651050263499999,2.0709879603,1032
73574,173038,221618,-6.1112689204,7.5744799403,2.0422740890999997,1033
73615,173039,221685,-5.9018969429000006,7.561319416,1.9441683625,1034
73617,172993,221653,-6.0646088797,7.5912296985,1.9250257817,1035
73617,173070,221671,-6.162714606300001,7.6594251426,1.9178473139,1036
73644,173089,221708,-5.983252911299999,7.645068207,1.9046867896,1037
73656,173127,221710,-6.077769404,7.585247642000001,1.8855442087999998,1038
73659,173139,221742,-6.0969119848,7.5038916736,1.9716858223999998,1039
73676,173149,221753,-6.149554082000001,7.6606215538999995,2.0793628394,1040
73699,173151,221704,-6.1304115012,7.556533770800001,1.8580267489000002,1041
73725,173168,221712,-6.1112689204,7.4907311493,1.9860427579999997,1042
73730,173164,221733,-6.173482308,7.4943203832,2.0901305410999997,1043
73747,173219,221781,-6.1543397272,7.6989067155,1.7958133612999998,1044
73756,173230,221809,-6.0873406944,7.6283184488,2.0183458631,1045
73789,173286,221772,-6.1124653317,7.4273213504,2.03389921,1046
73829,173248,221779,-6.125625856,7.5385876013,2.0087745727,1047
73815,173299,221844,-6.0717873475,7.4703921572,2.0757736055,1048
73748,173258,221772,-6.125625856,7.633104094,2.0853448959,1049
73655,173204,221763,-6.149554082000001,7.5278198996,2.0709879603,1050
73621,173228,221762,-6.101697629999999,7.633104094,2.0087745727,1051
73575,173249,221764,-6.1531433159,7.5948189324,1.9238293703999998,1052
73470,173247,221804,-6.095715573500001,7.5804619967999995,1.9908284031999999,1053
73532,173274,221855,-6.1686966628,7.489534738000001,1.8999011444,1054
73588,173310,221843,-6.173482308,7.585247642000001,1.8616159827999998,1055
73606,173352,221860,-6.0586268232,7.5673014725,1.9334006607999998,1056
73588,173328,221868,-6.0969119848,7.6175507471,1.9956140484,1057
73588,173339,221867,-6.0454662989,7.635496916599999,1.9190437251999999,1058
73588,173313,221897,-6.173482308,7.7072815945999995,1.8867406201,1059
73556,173335,221893,-6.197410534,7.5661050612,1.9226329591,1060
73571,173421,221874,-6.1351971464,7.6366933279,2.0374884439,1061
73647,173426,221897,-6.1639110176,7.570890706399999,1.8628123941,1062
73620,173414,221886,-6.1112689204,7.7096744172000005,2.0147566292,1063
73676,173421,221925,-6.0155560164,7.6462646183,2.0135602179,1064
73657,173443,221950,-6.0406806537,7.5481588917,1.9932212258000002,1065
73691,173487,221989,-6.0442698876,7.5326055448,1.8999011444,1066
73701,173494,221971,-6.0406806537,7.633104094,1.938186306,1067
73718,173526,221961,-6.162714606300001,7.4811598589,1.9010975557,1068
73739,173521,221947,-6.1387863803,7.6091758679999995,1.9238293703999998,1069
73796,173552,222013,-6.1639110176,7.6749784895,1.8568303376,1070
73768,173558,222016,-6.1986069453,7.6893354250999995,2.0183458631,1071
73788,173579,221948,-6.0825550492,7.7132636511,1.9429719511999999,1072
73829,173572,221982,-6.078965815299999,7.429714173,1.9094724347999998,1073
73841,173531,221999,-6.1435720255,7.668996433,2.0614166699,1074
73849,173583,222069,-6.2249279939,7.5481588917,1.9752750562999999,1075
73881,173599,222033,-5.9736816209,7.489534738000001,2.0805592507,1076
73854,173597,222033,-6.125625856,7.5182486092000005,1.8616159827999998,1077
73786,173558,221974,-6.0681981136,7.4715885685,2.0243279196,1078
73678,173528,221952,-6.1100725091,7.447660342499999,1.9561324755,1079
73631,173516,221926,-6.2404813408,7.5038916736,2.0422740890999997,1080
73622,173491,221990,-6.1124653317,7.5517481256,2.0614166699,1081
73530,173536,221977,-6.0837514605,7.6606215538999995,2.0087745727,1082
73568,173530,221950,-6.191428477500001,7.718049296299999,2.0434705004000002,1083
73568,173555,222009,-6.1160545656,7.6091758679999995,2.057827436,1084
73625,173570,221980,-6.0646088797,7.6941210703,1.962114532,1085
73615,173615,221972,-6.1124653317,7.555337359499999,1.9286150156,1086
73589,173588,221989,-6.125625856,7.5517481256,1.8149559420999999,1087
73596,173558,221977,-6.0825550492,7.555337359499999,1.8999011444,1088
73566,173567,222026,-6.1926248888,7.5984081663000005,2.0231315083,1089
73591,173562,221980,-6.0741801701,7.6701928443,1.9848463467,1090
73612,173606,221982,-6.2392849295,7.6271220375,1.9334006607999998,1091
73631,173586,222006,-6.1543397272,7.485945504099999,1.91425808,1092
73649,173599,222012,-6.1399827916000005,7.5900332872,1.890329854,1093
73663,173635,222010,-6.0646088797,7.6366933279,2.0709879603,1094
73685,173636,222000,-6.021538072899999,7.5804619967999995,2.0231315083,1095
73710,173638,222017,-6.1794643645,7.485945504099999,2.0135602179,1096
73731,173628,221980,-6.2309100503999995,7.6857461912,2.0039889275,1097
73727,173652,221971,-6.077769404,7.4703921572,1.91425808,1098
73752,173627,221974,-6.063412468399999,7.570890706399999,1.9669001771999999,1099
73747,173626,221977,-6.2344992843,7.7132636511,1.9202401365000001,1100
73777,173638,221956,-6.0873406944,7.5900332872,1.9190437251999999,1101
73800,173694,221912,-6.0873406944,7.5888368759,1.9477575963999998,1102
73783,173637,221898,-6.0825550492,7.5469624804,1.9908284031999999,1103
73675,173603,221910,-6.1351971464,7.5661050612,1.8939190879,1104
73571,173555,221869,-6.0071811373,7.5278198996,1.9334006607999998,1105
73520,173571,221868,-6.0885371056999995,7.5996045776,1.9812571127999998,1106
73486,173580,221878,-6.1244294447000005,7.6271220375,1.8759729184,1107
73464,173562,221878,-6.0071811373,7.570890706399999,2.0530417908,1108
73461,173537,221858,-6.0071811373,7.5529445369,1.9345970721,1109
73471,173567,221820,-6.0933227509000005,7.5230342544,2.0291135648000003,1110
73478,173540,221875,-6.1543397272,7.5661050612,1.9334006607999998,1111
73490,173584,221858,-5.9030933542,7.5278198996,1.9716858223999998,1112
73476,173561,221809,-6.1351971464,7.5469624804,2.0051853388,1113
73494,173561,221852,-6.0885371056999995,7.5026952623000005,1.9334006607999998,1114
73475,173574,221873,-6.162714606300001,7.6175507471,1.890329854,1115
73485,173571,221771,-6.092126339599999,7.6031938115,1.8915262653,1116
73483,173590,221851,-6.149554082000001,7.6366933279,1.9429719511999999,1117
73499,173591,221840,-6.1591253724,7.6091758679999995,1.9812571127999998,1118
73524,173589,221873,-6.2309100503999995,7.4787670363,1.9609181207,1119
73542,173604,221820,-6.1112689204,7.5649086499,2.0087745727,1120
73555,173617,221847,-6.1543397272,7.6235328036,1.9669001771999999,1121
73589,173615,221832,-6.1794643645,7.5122665527,1.9202401365000001,1122
73587,173595,221852,-6.1447684368,7.4943203832,2.0183458631,1123
73601,173597,221782,-6.0753765814,7.718049296299999,1.8580267489000002,1124
73627,173599,221795,-6.0155560164,7.561319416,1.8951154991999999,1125
73605,173618,221807,-6.0311093633,7.5996045776,1.938186306,1126
73609,173591,221782,-6.2297136391,7.542176835199999,1.9477575963999998,1127
73495,173516,221726,-6.063412468399999,7.5804619967999995,1.8807585636,1128
73390,173538,221656,-6.1220366221,7.4668029232999995,1.9944176371,1129
73359,173495,221669,-6.1962141227,7.6043902228,2.0003996936,1130
73350,173485,221675,-5.9593246853,7.5756763516,1.9764714676,1131
73331,173460,221642,-6.2297136391,7.6283184488,1.9716858223999998,1132
73307,173475,221660,-6.0681981136,7.6558359087,1.9046867896,1133
73308,173441,221619,-6.101697629999999,7.5182486092000005,1.938186306,1134
73352,173479,221665,-6.148357670699999,7.5086773188,1.9286150156,1135
73363,173438,221627,-6.0550375893,7.6031938115,2.057827436,1136
73346,173459,221589,-6.092126339599999,7.5996045776,1.9178473139,1137
73325,173455,221611,-6.2392849295,7.5098737301,1.9094724347999998,1138
73322,173429,221528,-6.125625856,7.6283184488,1.9908284031999999,1139
73342,173432,221584,-6.0693945249,7.6283184488,2.0470597343,1140
73363,173419,221583,-5.9976098469000005,7.6618179652,1.9716858223999998,1141
73386,173400,221570,-6.0885371056999995,7.633104094,1.9860427579999997,1142
73394,173441,221546,-6.0981083961,7.543373246500001,1.9812571127999998,1143
73423,173438,221454,-6.2536418651,7.5948189324,2.0051853388,1144
73433,173397,221473,-6.0155560164,7.764709337,1.9716858223999998,1145
73449,173416,221503,-6.178267953200001,7.4943203832,1.8436698133,1146
73462,173378,221417,-6.0358950085,7.6319076827,1.938186306,1147
73463,173411,221402,-6.0047883147,7.5469624804,1.9094724347999998,1148
73399,173390,221421,-5.8839507734,7.585247642000001,1.8340985228999998,1149
73453,173338,221390,-6.125625856,7.5505517143,1.9896319919,1150
73439,173265,221313,-6.177071541899999,7.6737820782,1.9764714676,1151
73312,173262,221302,-6.2153567034999995,7.612765101899999,1.9896319919,1152
73271,173220,221211,-6.1005012187,7.5900332872,2.0291135648000003,1153
73258,173207,221232,-6.0586268232,7.6462646183,1.7862420709,1154
73241,173204,221225,-6.2021961791999995,7.6307112714,1.8939190879,1155
73237,173205,221208,-6.2775700911,7.666603610399999,1.9286150156,1156
73244,173184,221150,-6.1304115012,7.6091758679999995,1.8999011444,1157
73261,173213,221177,-6.0969119848,7.651050263499999,1.9286150156,1158
73319,173156,221171,-6.0729837587999995,7.5326055448,2.0135602179,1159
73269,173156,221133,-5.9114682333,7.633104094,2.0135602179,1160
73280,173103,221134,-6.120840210799999,7.561319416,2.1224336462,1161
73284,173176,221101,-5.9784672661,7.6043902228,1.8101702968999998,1162
73312,173142,221073,-6.0586268232,7.5756763516,1.8568303376,1163
73303,173130,221080,-6.021538072899999,7.4751778024,2.0039889275,1164
73321,173121,221030,-6.0071811373,7.750352401400001,2.0327027987,1165
73354,173118,221031,-6.1543397272,7.4847490928,1.8580267489000002,1166
73363,173067,220980,-5.9114682333,7.570890706399999,1.9106688461,1167
73389,173082,221000,-6.206981824400001,7.6749784895,1.9764714676,1168
73401,173070,220943,-6.2009997679,7.6079794567,1.8329021116,1169
73412,173108,220947,-6.1926248888,7.6654071991,1.9561324755,1170
73445,173060,220961,-6.1818571871,7.4763742137,1.9286150156,1171
73449,173069,220956,-6.0550375893,7.585247642000001,2.0422740890999997,1172
73410,173022,220855,-6.1064832752,7.5936225210999995,1.9908284031999999,1173
73342,172960,220774,-6.1878392436,7.556533770800001,1.8951154991999999,1174
73277,172960,220839,-6.120840210799999,7.5661050612,1.9286150156,1175
73257,172892,220798,-6.120840210799999,7.5996045776,1.8759729184,1176
73257,172882,220746,-6.0586268232,7.5673014725,1.9334006607999998,1177
73225,172896,220743,-6.077769404,7.5948189324,1.866401628,1178
73221,172871,220674,-6.0909299283,7.5936225210999995,1.9034903783000001,1179
73241,172930,220709,-6.0119667825,7.585247642000001,1.9417755399,1180
73265,172899,220690,-6.134000735100001,7.633104094,2.0327027987,1181
73277,172924,220688,-5.9641103305,7.704888771999999,1.9190437251999999,1182
73210,172853,220659,-6.1160545656,7.5984081663000005,1.8436698133,1183
73267,172873,220656,-6.0442698876,7.7276205867,2.0183458631,1184
73290,172855,220688,-6.0311093633,7.5517481256,1.79461695,1185
73319,172877,220662,-6.0167524277,7.6809605460000006,1.9046867896,1186
73334,172822,220632,-6.1543397272,7.495516794499999,2.0087745727,1187
73345,172876,220641,-6.0825550492,7.6091758679999995,1.9094724347999998,1188
73384,172864,220627,-6.2392849295,7.651050263499999,1.9286150156,1189
73395,172847,220590,-6.0646088797,7.651050263499999,1.8520446924,1190
73417,172874,220572,-6.134000735100001,7.6654071991,1.9238293703999998,1191
73437,172862,220580,-6.0981083961,7.542176835199999,1.8987047331,1192
73458,172854,220557,-5.9880385565,7.5756763516,1.818545176,1193
73496,172864,220566,-6.101697629999999,7.53739119,1.9094724347999998,1194
73494,172837,220543,-6.2679988007,7.612765101899999,2.0135602179,1195
73416,172786,220492,-6.2021961791999995,7.6139615132000005,1.8855442087999998,1196
73331,172801,220505,-6.1399827916000005,7.6043902228,1.9226329591,1197
73305,172717,220479,-6.1866428323,7.5661050612,1.9298114269,1198
73294,172735,220493,-6.0969119848,7.4715885685,1.9286150156,1199
73293,172790,220436,-6.1304115012,7.585247642000001,1.866401628,1200
73327,172714,220442,-6.1112689204,7.6522466748,1.938186306,1201
73297,172759,220414,-6.1531433159,7.542176835199999,1.9489540077,1202
73330,172765,220428,-6.050251944099999,7.6845497799,1.9477575963999998,1203
73355,172762,220440,-5.9892349678,7.5469624804,1.8999011444,1204
73355,172809,220462,-6.0394842424,7.6426753844,1.842473402,1205
73365,172782,220428,-6.197410534,7.6618179652,1.9896319919,1206
73380,172776,220386,-6.2584275103,7.6139615132000005,1.9286150156,1207
73378,172750,220396,-6.2309100503999995,7.6558359087,1.890329854,1208
73392,172745,220358,-5.9365928706,7.4811598589,1.8807585636,1209
73408,172772,220383,-5.970092387,7.572087117700001,1.818545176,1210
73427,172811,220371,-6.1399827916000005,7.53739119,1.8951154991999999,1211
73438,172757,220317,-6.125625856,7.6283184488,1.9716858223999998,1212
73476,172765,220298,-6.0358950085,7.6558359087,2.0087745727,1213
73498,172812,220368,-6.0717873475,7.5792655855,1.9238293703999998,1214
73506,172781,220359,-6.0969119848,7.572087117700001,1.8999011444,1215
73539,172782,220402,-6.0586268232,7.666603610399999,1.8759729184,1216
73568,172827,220352,-6.2823557362999995,7.5457660691,1.9896319919,1217
73581,172793,220326,-5.9880385565,7.556533770800001,2.0506489682,1218
73557,172762,220292,-6.0466627102,7.6618179652,1.8951154991999999,1219
73465,172740,220274,-6.0741801701,7.5948189324,1.9334006607999998,1220
73442,172732,220276,-6.1351971464,7.5469624804,1.9238293703999998,1221
73437,172708,220257,-5.9784672661,7.6941210703,1.938186306,1222
73404,172726,220201,-6.063412468399999,7.651050263499999,1.9704894111,1223
73409,172761,220254,-6.2584275103,7.447660342499999,1.9752750562999999,1224
73399,172722,220198,-6.1878392436,7.585247642000001,2.0757736055,1225
73411,172736,220291,-6.2117674696,7.5948189324,1.9944176371,1226
73445,172757,220199,-6.0394842424,7.6283184488,1.9848463467,1227
73452,172725,220197,-6.149554082000001,7.6893354250999995,2.0243279196,1228
73446,172762,220230,-6.2201423487000005,7.5912296985,1.9477575963999998,1229
73482,172764,220195,-6.1543397272,7.5649086499,1.8759729184,1230
73473,172725,220257,-6.0837514605,7.651050263499999,2.0039889275,1231
73433,172719,220187,-6.1878392436,7.5960153436999995,1.9094724347999998,1232
73492,172751,220188,-6.120840210799999,7.6402825618,2.0386848552,1233
73520,172737,220181,-6.173482308,7.6606215538999995,1.9238293703999998,1234
73543,172779,220179,-6.101697629999999,7.5457660691,1.9106688461,1235
73543,172776,220178,-6.134000735100001,7.5481588917,1.9477575963999998,1236
73565,172762,220137,-6.2356956956000005,7.6091758679999995,1.962114532,1237
73615,172757,220181,-5.996413435599999,7.5756763516,1.9477575963999998,1238
73586,172726,220167,-6.125625856,7.5385876013,1.9429719511999999,1239
73612,172741,220191,-6.191428477500001,7.6235328036,2.0530417908,1240
73615,172763,220142,-6.077769404,7.6749784895,1.9764714676,1241
73643,172797,220147,-6.2787665024,7.6043902228,1.9657037659,1242
73661,172798,220117,-6.0358950085,7.4021967130999995,2.0279171535,1243
73670,172749,220157,-6.0729837587999995,7.6414789731,1.9286150156,1244
73686,172765,220085,-6.1447684368,7.570890706399999,1.9848463467,1245
73704,172785,220134,-6.0825550492,7.5314091335,1.9334006607999998,1246
73732,172830,220160,-6.0681981136,7.692924659,1.9298114269,1247
73703,172784,220068,-5.954539040099999,7.5948189324,1.9334006607999998,1248
73622,172765,220061,-6.2021961791999995,7.5756763516,1.8759729184,1249
73560,172715,220064,-6.1686966628,7.6139615132000005,1.9465611851,1250
73544,172743,220036,-5.9641103305,7.5086773188,1.9764714676,1251
73536,172750,220056,-6.063412468399999,7.5744799403,1.8568303376,1252
73535,172749,220061,-5.9102718219999995,7.5469624804,1.9094724347999998,1253
73575,172760,220033,-6.1268222673,7.6558359087,1.91425808,1254
73523,172794,220095,-6.0263237181000004,7.679764134699999,1.9334006607999998,1255
73546,172810,220054,-6.101697629999999,7.8281191359,1.9657037659,1256
73558,172841,220056,-6.0598232345,7.585247642000001,1.9848463467,1257
73550,172816,220051,-6.1160545656,7.4763742137,1.9477575963999998,1258
73551,172786,220066,-6.0681981136,7.585247642000001,1.9429719511999999,1259
73463,172823,220070,-6.1435720255,7.570890706399999,1.9704894111,1260
73561,172857,220108,-6.0071811373,7.561319416,1.9657037659,1261
73620,172874,220128,-6.1304115012,7.6271220375,1.9669001771999999,1262
73617,172886,220124,-6.0394842424,7.5900332872,1.9429719511999999,1263
73626,172908,220151,-6.173482308,7.53739119,1.8711872732,1264
73641,172913,220141,-6.0741801701,7.53739119,1.8520446924,1265
73660,172945,220128,-6.0586268232,7.6989067155,1.9094724347999998,1266
73687,172949,220217,-6.162714606300001,7.542176835199999,2.1032910654,1267
73698,172951,220187,-6.0729837587999995,7.556533770800001,1.8532411037,1268
73716,172996,220225,-6.1292150899,7.4333034069,2.0279171535,1269
73736,173013,220284,-6.0358950085,7.6187471584,2.0051853388,1270
73735,173039,220294,-5.9880385565,7.6079794567,2.0709879603,1271
73756,173068,220209,-6.287141381500001,7.7312098206,2.0374884439,1272
73777,173087,220303,-6.206981824400001,7.561319416,1.8843477975,1273
73800,173089,220311,-6.148357670699999,7.6989067155,1.9573288867999998,1274
73809,173133,220271,-6.2117674696,7.5086773188,1.9657037659,1275
73819,173153,220358,-6.063412468399999,7.6031938115,1.9896319919,1276
73847,173183,220352,-6.206981824400001,7.5278198996,1.9417755399,1277
73858,173203,220333,-6.025127306799999,7.5278198996,2.0279171535,1278
73885,173213,220341,-6.0969119848,7.6043902228,1.9094724347999998,1279
73900,173241,220388,-6.2488562199,7.4668029232999995,2.0279171535,1280
73868,173224,220356,-6.197410534,7.5888368759,1.91425808,1281
73800,173170,220328,-6.2021961791999995,7.633104094,1.9046867896,1282
73764,173218,220395,-6.092126339599999,7.5409804239,1.8532411037,1283
73755,173236,220341,-6.1866428323,7.6474610296,2.0231315083,1284
73735,173220,220387,-6.1304115012,7.5804619967999995,1.9669001771999999,1285
73717,173214,220424,-6.125625856,7.5756763516,1.9573288867999998,1286
73709,173281,220464,-6.0406806537,7.6474610296,1.9764714676,1287
73718,173277,220437,-6.1268222673,7.7946196195,1.8436698133,1288
73726,173316,220450,-6.0729837587999995,7.7132636511,1.9477575963999998,1289
73726,173340,220438,-6.1268222673,7.6474610296,1.9238293703999998,1290
73742,173347,220453,-6.1280186786,7.5517481256,1.8759729184,1291
73724,173350,220525,-6.136393557699999,7.4763742137,1.9812571127999998,1292
73746,173367,220496,-6.0023954921,7.5361947787,2.0135602179,1293
73739,173367,220444,-6.0825550492,7.637889739199999,1.890329854,1294
73745,173409,220552,-6.1112689204,7.6235328036,1.9704894111,1295
73774,173429,220541,-5.9461641610000004,7.5936225210999995,2.0853448959,1296
73765,173452,220606,-6.0693945249,7.5338019561000005,2.045863323,1297
73829,173481,220548,-6.1351971464,7.53739119,1.7754743692000001,1298
73795,173511,220608,-6.0741801701,7.6558359087,1.9752750562999999,1299
73832,173497,220578,-6.1112689204,7.5038916736,1.91425808,1300
73836,173518,220585,-6.1878392436,7.3758756645,1.9561324755,1301
73841,173538,220603,-6.1686966628,7.6977103042,2.0530417908,1302
73780,173578,220588,-6.0729837587999995,7.5469624804,1.938186306,1303
73849,173563,220618,-6.212963880899999,7.4751778024,1.9812571127999998,1304
73810,173599,220668,-6.034698597199999,7.5661050612,2.0793628394,1305
73869,173604,220653,-5.9748780322,7.5601230047,1.9860427579999997,1306
73932,173611,220604,-6.3373906561,7.612765101899999,1.8149559420999999,1307
73989,173661,220684,-6.125625856,7.5290163108999995,1.8616159827999998,1308
73967,173653,220638,-6.1543397272,7.6606215538999995,1.890329854,1309
73970,173680,220666,-6.1387863803,7.5756763516,1.7479569093,1310
73995,173700,220664,-6.0885371056999995,7.5996045776,1.8951154991999999,1311
74003,173693,220676,-6.0263237181000004,7.4668029232999995,1.8616159827999998,1312
73954,173631,220648,-6.1878392436,7.6091758679999995,1.9286150156,1313
73884,173657,220642,-6.1304115012,7.5517481256,1.9046867896,1314
73884,173638,220609,-6.1064832752,7.418946471299999,1.9944176371,1315
73825,173683,220641,-6.1304115012,7.5696942951,1.8675980393,1316
73821,173690,220597,-6.1591253724,7.5756763516,1.8999011444,1317
73793,173699,220625,-6.1292150899,7.3806613097,1.8771693297,1318
73782,173667,220603,-6.1160545656,7.612765101899999,1.9573288867999998,1319
73817,173726,220707,-6.1818571871,7.6654071991,1.9334006607999998,1320
73806,173721,220597,-6.0023954921,7.4907311493,1.91425808,1321
73807,173704,220696,-6.145964848099999,7.53739119,2.0195422744,1322
73801,173730,220643,-6.2309100503999995,7.5996045776,2.0183458631,1323
73806,173704,220633,-6.1411792029,7.6139615132000005,1.9010975557,1324
73793,173747,220641,-6.173482308,7.485945504099999,1.8855442087999998,1325
73805,173769,220685,-6.1818571871,7.5038916736,1.9286150156,1326
73823,173766,220647,-6.0311093633,7.5038916736,1.8999011444,1327
73830,173796,220633,-5.968895975700001,7.622336392299999,1.9477575963999998,1328
73845,173771,220650,-6.173482308,7.584051230699999,1.8999011444,1329
73897,173792,220704,-6.1351971464,7.5194450205,1.9046867896,1330
73867,173801,220625,-5.9892349678,7.7742806274,1.9465611851,1331
73883,173811,220611,-6.0729837587999995,7.6283184488,1.9238293703999998,1332
73883,173834,220626,-6.0969119848,7.5996045776,1.91425808,1333
73900,173817,220610,-6.1686966628,7.651050263499999,1.9477575963999998,1334
73907,173829,220652,-6.050251944099999,7.622336392299999,1.8855442087999998,1335
73934,173869,220650,-5.9928242016999995,7.6187471584,1.9764714676,1336
73951,173848,220677,-6.0981083961,7.6031938115,1.9573288867999998,1337
73986,173856,220663,-6.0311093633,7.5625158273,1.8616159827999998,1338
73950,173824,220689,-5.9497533949,7.5003024396999995,1.9944176371,1339
73928,173887,220622,-6.1639110176,7.5182486092000005,1.938186306,1340
74018,173874,220634,-6.053841177999999,7.495516794499999,1.91425808,1341
74011,173890,220596,-6.120840210799999,7.477570625,1.9429719511999999,1342
74017,173903,220629,-6.1064832752,7.6187471584,1.9848463467,1343
73994,173852,220555,-6.0263237181000004,7.4907311493,1.9046867896,1344
73903,173849,220561,-6.0837514605,7.570890706399999,1.9429719511999999,1345
73861,173805,220530,-6.0981083961,7.5996045776,1.8951154991999999,1346
73764,173806,220558,-6.149554082000001,7.5086773188,1.9477575963999998,1347
73795,173812,220532,-6.149554082000001,7.6163543358,1.9322042495,1348
73818,173811,220519,-5.9736816209,7.6749784895,2.0003996936,1349
73768,173810,220453,-6.107679686499999,7.5756763516,1.9752750562999999,1350
73804,173779,220538,-6.0023954921,7.5661050612,1.9944176371,1351
73781,173809,220518,-6.1005012187,7.4703921572,1.8616159827999998,1352
73794,173813,220472,-6.0454662989,7.6845497799,1.9669001771999999,1353
73759,173789,220508,-6.0681981136,7.5804619967999995,1.9752750562999999,1354
73755,173811,220495,-6.1268222673,7.556533770800001,1.9238293703999998,1355
73803,173821,220462,-6.050251944099999,7.7276205867,1.8963119105000001,1356
73760,173769,220448,-6.0119667825,7.6749784895,1.8604195715,1357
73785,173810,220463,-6.078965815299999,7.4093751809,2.0231315083,1358
73775,173773,220420,-6.125625856,7.465606512,1.8532411037,1359
73772,173784,220404,-6.1351971464,7.6654071991,2.009970984,1360
73774,173815,220367,-6.2057854131,7.542176835199999,2.0039889275,1361
73796,173753,220430,-6.2344992843,7.6187471584,2.0482561456,1362
73793,173782,220366,-6.0394842424,7.5756763516,1.9190437251999999,1363
73821,173759,220403,-6.005984725999999,7.7706913935,2.0135602179,1364
73811,173770,220309,-6.1878392436,7.6426753844,2.0039889275,1365
73824,173785,220331,-6.1112689204,7.65703232,1.8855442087999998,1366
73838,173756,220253,-6.233302873,7.6307112714,1.9561324755,1367
73849,173724,220296,-6.1160545656,7.4799634476,2.0997018315,1368
73865,173745,220319,-6.1112689204,7.6043902228,1.9704894111,1369
73867,173731,220261,-6.1052868639,7.489534738000001,1.890329854,1370
73884,173751,220199,-6.0598232345,7.584051230699999,1.91425808,1371
73895,173731,220200,-6.2787665024,7.679764134699999,1.9010975557,1372
73907,173741,220208,-6.0741801701,7.5996045776,1.9369898947,1373
73913,173739,220175,-6.1722858967,7.6319076827,2.0039889275,1374
73857,173702,220139,-6.1818571871,7.5649086499,1.9812571127999998,1375
73836,173672,220119,-6.050251944099999,7.570890706399999,1.9334006607999998,1376
73730,173623,220077,-6.0586268232,7.6043902228,1.9286150156,1377
73758,173656,220094,-6.1112689204,7.5385876013,1.8101702968999998,1378
73699,173599,220045,-6.197410534,7.633104094,2.045863323,1379
73686,173586,219997,-6.0119667825,7.6749784895,1.9657037659,1380
73651,173587,219978,-5.8648081926,7.708478005899999,1.9704894111,1381
73684,173584,219947,-6.078965815299999,7.6043902228,1.9585252981,1382
73685,173582,219997,-6.1639110176,7.6654071991,1.9525432416,1383
73664,173546,219977,-6.1435720255,7.570890706399999,1.8963119105000001,1384
73658,173535,219898,-6.0131631938000005,7.6606215538999995,1.962114532,1385
73658,173594,219938,-6.191428477500001,7.6893354250999995,1.8819549749,1386
73659,173423,219932,-6.1351971464,7.5134629639999995,1.890329854,1387
73676,173527,219827,-6.0969119848,7.5756763516,1.9669001771999999,1388
73659,173530,219825,-6.125625856,7.585247642000001,1.8951154991999999,1389
73683,173532,219845,-6.1064832752,7.485945504099999,1.9848463467,1390
73689,173514,219797,-6.0646088797,7.5194450205,1.9286150156,1391
73711,173477,219762,-6.120840210799999,7.637889739199999,1.890329854,1392
73698,173484,219812,-6.2823557362999995,7.556533770800001,2.0003996936,1393
73724,173500,219788,-6.063412468399999,7.570890706399999,1.9525432416,1394
73744,173471,219713,-6.053841177999999,7.6283184488,1.8855442087999998,1395
73750,173491,219688,-6.125625856,7.5696942951,1.962114532,1396
73753,173459,219726,-6.0693945249,7.612765101899999,1.8711872732,1397
73773,173452,219734,-6.0011990808,7.5278198996,1.91425808,1398
73786,173446,219643,-6.0885371056999995,7.6043902228,1.9908284031999999,1399
73785,173436,219661,-6.0598232345,7.6893354250999995,1.9322042495,1400
73807,173403,219640,-6.1351971464,7.570890706399999,2.0231315083,1401
73809,173412,219555,-6.0646088797,7.556533770800001,1.9477575963999998,1402
73819,173445,219559,-6.0681981136,7.6654071991,1.8951154991999999,1403
73844,173400,219596,-6.1304115012,7.5517481256,2.0662023151,1404
73746,173442,219543,-6.0035919034,7.6462646183,2.0075781614,1405
73790,173376,219510,-6.1543397272,7.5984081663000005,1.9334006607999998,1406
73704,173327,219479,-6.2057854131,7.6091758679999995,2.0518453795,1407
73655,173284,219478,-6.1351971464,7.5768727629,1.962114532,1408
73612,173284,219481,-6.092126339599999,7.5948189324,1.8807585636,1409
73602,173292,219408,-6.1830535984,7.5984081663000005,1.9525432416,1410
73577,173269,219381,-6.1399827916000005,7.6989067155,1.9190437251999999,1411
73604,173269,219395,-6.0562340006,7.6414789731,2.0003996936,1412
73584,173263,219378,-6.134000735100001,7.5804619967999995,1.9226329591,1413
73581,173268,219399,-6.148357670699999,7.5804619967999995,1.9094724347999998,1414
73581,173284,219405,-6.107679686499999,7.6175507471,1.9046867896,1415
73547,173259,219319,-6.1064832752,7.5804619967999995,1.9094724347999998,1416
73548,173214,219312,-6.2009997679,7.5888368759,1.9334006607999998,1417
73542,173266,219303,-5.9353964593,7.7898339743,1.9525432416,1418
73551,173216,219275,-6.0490555328,7.5469624804,1.962114532,1419
73550,173198,219314,-6.092126339599999,7.542176835199999,1.9669001771999999,1420
73582,173232,219316,-6.1064832752,7.5804619967999995,1.8711872732,1421
73580,173275,219291,-5.9892349678,7.4141608261,1.9669001771999999,1422
73578,173251,219259,-6.149554082000001,7.555337359499999,1.8472590472,1423
73602,173258,219248,-6.1686966628,7.53739119,1.9094724347999998,1424
73607,173206,219273,-5.9641103305,7.5888368759,1.9046867896,1425
73620,173235,219235,-6.0729837587999995,7.5996045776,1.9226329591,1426
73632,173251,219262,-6.1675002515,7.612765101899999,1.9704894111,1427
73672,173218,219228,-6.0023954921,7.5517481256,1.938186306,1428
73658,173235,219206,-6.0969119848,7.5888368759,1.9322042495,1429
73559,173214,219209,-6.2823557362999995,7.6426753844,1.9908284031999999,1430
73670,173239,219231,-5.9736816209,7.622336392299999,2.009970984,1431
73691,173257,219168,-6.149554082000001,7.6043902228,2.069791549,1432
73702,173223,219112,-6.191428477500001,7.7036923607,2.0662023151,1433
73714,173224,219165,-6.1160545656,7.53739119,1.9082760235,1434
73757,173221,219157,-5.9114682333,7.6701928443,1.9764714676,1435
73740,173211,219199,-6.0837514605,7.6414789731,1.8376877568,1436
73597,173192,219136,-6.259623921599999,7.53739119,2.057827436,1437
73604,173175,219100,-6.0598232345,7.5385876013,1.9704894111,1438
73555,173169,219068,-6.2009997679,7.6462646183,1.962114532,1439
73497,173149,219055,-6.1399827916000005,7.4991060284,1.8675980393,1440
73480,173112,219089,-6.0490555328,7.6654071991,1.9848463467,1441
73439,173153,219067,-6.0586268232,7.6319076827,1.9764714676,1442
73435,173116,219027,-6.1112689204,7.654639497399999,1.9477575963999998,1443
73455,173170,219107,-6.134000735100001,7.6713892556,1.9657037659,1444
73447,173173,219031,-6.078965815299999,7.441678286,1.9956140484,1445
73440,173131,219037,-6.1112689204,7.5936225210999995,2.0039889275,1446
73417,173155,219090,-6.0693945249,7.6043902228,1.9956140484,1447
73412,173148,218986,-6.2392849295,7.4620172781,1.9525432416,1448
73393,173148,219062,-6.0586268232,7.542176835199999,1.9525432416,1449
73407,173156,219039,-6.1591253724,7.633104094,2.0566310246999997,1450
73416,173161,219024,-6.1447684368,7.5278198996,1.9190437251999999,1451
73420,173150,218964,-6.0263237181000004,7.5230342544,1.9334006607999998,1452
73433,173157,219004,-6.0311093633,7.65703232,1.8520446924,1453
73453,173167,219045,-6.0681981136,7.4344998182,2.0853448959,1454
73458,173158,218981,-6.1675002515,7.5649086499,2.0327027987,1455
73472,173162,219003,-6.1926248888,7.5517481256,1.9908284031999999,1456
73492,173178,219008,-6.0622160571,7.5278198996,1.8376877568,1457
73495,173146,218962,-6.177071541899999,7.5948189324,1.938186306,1458
73498,173136,218980,-6.0825550492,7.561319416,1.938186306,1459
73495,173173,218962,-6.1399827916000005,7.5768727629,2.0243279196,1460
73494,173163,218948,-6.1351971464,7.4811598589,1.9046867896,1461
73526,173171,218962,-6.063412468399999,7.5409804239,1.9752750562999999,1462
73556,173177,218875,-6.1112689204,7.556533770800001,1.8855442087999998,1463
73551,173124,218950,-5.9928242016999995,7.5900332872,2.0039889275,1464
73576,173189,218949,-6.0586268232,7.5756763516,2.0243279196,1465
73629,173178,218870,-6.1507504933,7.633104094,1.8855442087999998,1466
73595,173195,218910,-6.0981083961,7.6366933279,2.0231315083,1467
73599,173204,218887,-6.1926248888,7.4799634476,1.8951154991999999,1468
73554,173158,218883,-6.1399827916000005,7.5900332872,2.0793628394,1469
73424,173143,218873,-6.0358950085,7.441678286,1.8855442087999998,1470
73367,173111,218851,-6.148357670699999,7.6462646183,2.0051853388,1471
73348,173130,218811,-6.125625856,7.5230342544,2.0614166699,1472
73323,173159,218827,-6.078965815299999,7.6091758679999995,2.0327027987,1473
73327,173124,218864,-6.1639110176,7.6043902228,2.0195422744,1474
73309,173116,218803,-6.0586268232,7.5661050612,1.9944176371,1475
73318,173109,218822,-6.092126339599999,7.6283184488,1.9908284031999999,1476
73315,173134,218861,-6.1411792029,7.5529445369,1.9286150156,1477
73359,173156,218865,-6.0825550492,7.5326055448,1.9046867896,1478
73312,173130,218833,-6.1304115012,7.6414789731,1.9848463467,1479
73215,173146,218844,-6.0885371056999995,7.6283184488,1.9094724347999998,1480
73263,173146,218800,-6.2201423487000005,7.6235328036,1.9609181207,1481
73303,173142,218846,-6.216553114800001,7.65703232,1.9609181207,1482
73340,173155,218823,-5.9401821045,7.6366933279,1.9429719511999999,1483
73328,173152,218815,-6.125625856,7.4943203832,1.9345970721,1484
73320,173189,218822,-6.1160545656,7.6139615132000005,2.0518453795,1485
73341,173173,218805,-6.063412468399999,7.5517481256,1.9274186043000001,1486
73339,173135,218840,-6.2356956956000005,7.6737820782,2.0195422744,1487
73351,173117,218910,-6.0741801701,7.6139615132000005,2.0374884439,1488
73374,173181,218834,-6.1351971464,7.4847490928,1.9465611851,1489
73413,173198,218828,-6.22133876,7.6235328036,1.8281164664,1490
73395,173179,218837,-6.0741801701,7.5038916736,1.9334006607999998,1491
73406,173181,218865,-6.244070574699999,7.585247642000001,1.962114532,1492
73422,173224,218793,-6.077769404,7.7132636511,1.8628123941,1493
73440,173213,218844,-6.0119667825,7.5182486092000005,1.8329021116,1494
73434,173220,218814,-6.0969119848,7.5278198996,1.9716858223999998,1495
73454,173231,218851,-6.1543397272,7.6606215538999995,2.0327027987,1496
73476,173246,218798,-6.0406806537,7.6031938115,1.9238293703999998,1497
73483,173261,218843,-6.1447684368,7.4799634476,1.9609181207,1498
73427,173228,218810,-6.029912952,7.6139615132000005,1.9417755399,1499
73358,173204,218828,-6.173482308,7.6462646183,1.9429719511999999,1500
73270,173175,218748,-6.0933227509000005,7.6139615132000005,1.9573288867999998,1501
73271,173177,218824,-6.244070574699999,7.4141608261,1.8867406201,1502
73231,173186,218871,-6.077769404,7.5948189324,1.9334006607999998,1503
73218,173182,218816,-6.0490555328,7.495516794499999,1.8388841681,1504
73210,173245,218847,-6.1507504933,7.6701928443,1.9561324755,1505
73208,173265,218883,-6.1579289611,7.692924659,2.009970984,1506
73226,173248,218886,-6.092126339599999,7.5996045776,1.8855442087999998,1507
73229,173248,218916,-6.1435720255,7.637889739199999,1.9477575963999998,1508
73235,173292,218906,-6.0311093633,7.5230342544,2.0327027987,1509
73270,173325,218922,-6.1926248888,7.6618179652,1.9848463467,1510
73219,173294,218956,-5.9736816209,7.6558359087,1.9058832009,1511
73208,173313,218944,-6.1686966628,7.5385876013,1.8807585636,1512
73234,173342,218995,-5.9736816209,7.6713892556,1.9860427579999997,1513
73253,173348,219006,-6.177071541899999,7.6713892556,1.9800607015,1514
73272,173386,219012,-6.2679988007,7.5385876013,1.9286150156,1515
73309,173424,219028,-5.996413435599999,7.6558359087,1.8711872732,1516
73329,173404,219060,-6.1160545656,7.6043902228,2.0997018315,1517
73232,173459,219123,-6.107679686499999,7.6462646183,2.0135602179,1518
