green,red,IR,acc_x,acc_y,acc_z,sample_index
98322,220425,236593,1.7790636031,8.2743805508,4.3453658416,1
98333,220452,236629,1.8412769907000002,8.3832539791,4.2125641873,2
98283,220473,236610,1.7802600144,8.315058535,4.3381873738,3
98382,220482,236603,1.722832272,8.3665042209,4.366901245,4
98459,220400,236593,1.8484554585000001,8.3294154706,4.3776689467,5
98244,220514,236544,1.8281164664,8.4490566006,4.4709890281,6
98320,220504,236611,1.8269200550999998,8.3545401079,4.378865358,7
98010,220504,236688,1.7862420709,8.293523131599999,4.342973019,8
97934,220625,236694,1.9082760235,8.3342011158,4.462614149,9
97611,220576,236730,1.7874384822,8.398807326,4.3633120111,10
97623,220654,236775,1.8257236438,8.3365939384,4.3094735026,11
97667,220616,236735,1.7060825138000002,8.2743805508,4.3334017286,12
97395,220561,236776,1.6929219895,8.2121671632,4.492524431500001,13
97554,220614,236673,1.8520446924,8.446663778,4.4757746733,14
97406,220585,236648,1.7359927963,8.3401831723,4.4362931003999995,15
97433,220623,236710,1.7276179172000001,8.2971123655,4.3980079388,16
97541,220630,236677,1.7874384822,8.281559018600001,4.382454591899999,17
97660,220657,236629,1.6426727149,8.3306118819,4.4099720518000005,18
97551,220644,236671,1.7527425545,8.2863446638,4.4075792292,19
97702,220633,236636,1.8197415872999998,8.3198441802,4.3525443094,20
97573,220593,236594,1.6821542877999998,8.3294154706,4.3716868902,21
97537,220647,236622,1.6689937635,8.4693955927,4.42672181,22
97616,220730,236642,1.7312071511,8.271987728200001,4.4829531411,23
97475,220719,236733,1.7563317884,8.2743805508,4.4614177377,24
97433,220672,236683,1.5876377951,8.3198441802,4.4590249151000005,25
97315,220684,236739,1.7527425545,8.3174513576,4.3944187049,26
97126,220678,236699,1.7048861025,8.2002030502,4.3800617693,27
97194,220671,236648,1.758724611,8.3545401079,4.3776689467,28
97088,220636,236595,1.5816557385999999,8.364111398299999,4.4829531411,29
97248,220677,236637,1.6211373115,8.2995051881,4.4494536247,30
97162,220716,236626,1.5541382787000002,8.243273857,4.4123648744,31
97027,220725,236585,1.6510475939999998,8.3258262367,4.4673997942,32
96869,220314,236326,1.7659030788,8.373682688699999,4.5547378191000005,33
96314,219548,235541,1.9633109433,8.6608214007,4.0941194686,34
95818,219000,235021,1.7862420709,8.410771439,3.9661034595,35
95821,218978,235000,1.8400805794,8.6177505939,4.1934216065,36
96106,219415,235334,1.6929219895,8.4813597057,4.1802610821999995,37
96205,219596,235426,1.7407784414999998,8.4789668831,4.1551364449,38
96282,219727,235535,1.6654045296,8.4574314797,4.1826539048,39
96392,219735,235517,1.6271193679999998,8.4382888989,4.2855452766,40
96325,219667,235533,1.7192430381,8.3246298254,4.4015971727,41
96197,219673,235462,1.5421741657,8.3318082932,4.1300118076,42
96066,219590,235374,1.6127624323999998,8.4921274074,4.2317067681000005,43
95917,219503,235294,1.5828521499000001,8.410771439,4.283152454,44
95801,219422,235230,1.6618152957,8.4670027701,4.258027816699999,45
95729,219320,235175,1.4153545679,8.4131642616,4.2388852359,46
95765,219374,235078,1.6606188843999998,8.4251283746,4.271188340999999,47
95746,219348,235038,1.6283157793,8.4406817215,4.3513478981,48
95802,219340,235042,1.6402798923,8.4335032537,4.1778682596,49
95810,219345,235030,1.543370577,8.3940216808,4.1443687432,50
95857,219346,234989,1.6917255782,8.5938223679,4.1778682596,51
95795,219335,235047,1.6977076347,8.391628858199999,4.2257247116,52
95848,219340,235029,1.6666009409,8.4658063588,4.1359938641000005,53
95762,219352,234990,1.7312071511,8.3282190593,4.151547211,54
95905,219345,234992,1.6725829974,8.4490566006,4.1180476945999995,55
95735,219331,235005,1.6797614652,8.4370924876,4.1814574935,56
95887,219384,235032,1.7324035624,8.5722869645,4.1300118076,57
95645,219356,235049,1.6402798923,8.5280197464,4.0821553556,58
95548,219395,235096,1.7156538042,8.4885381735,4.115654872,59
95300,219322,235024,1.7192430381,8.5375910368,4.1252261624,60
95292,219314,235095,1.7048861025,8.471788415299999,4.115654872,61
95238,219283,235044,1.6941184008,8.4083786164,4.151547211,62
95207,219349,235054,1.7479569093,8.4646099475,4.0749768878,63
95110,219369,235026,1.7335999736999999,8.4370924876,4.2029928969000006,64
95175,219419,235046,1.5816557385999999,8.2420774457,4.2041893082,65
95134,219397,235011,1.6295121905999999,8.5244305125,4.1850467274,66
95160,219394,235073,1.6414763036,8.506484343,4.146761565799999,67
95202,219476,235119,1.5696916256,8.4861453509,4.1730826144,68
95285,219530,235286,1.6091731985,8.4263247859,4.199403663,69
95231,219646,235321,1.663011707,8.3832539791,4.18743955,70
95394,219742,235362,1.6773686425999998,8.4323068424,4.2520457602,71
95307,219772,235362,1.7120645703,8.3892360356,4.2185462438,72
95337,219741,235375,1.6737794087,8.459824302300001,4.2556349941,73
95219,219806,235393,1.5266208188,8.3892360356,4.2053857195,74
94903,219740,235454,1.6247265454,8.5268233351,4.2257247116,75
94701,219751,235432,1.7144573929,8.3294154706,4.18743955,76
94554,219687,235475,1.7455640867,8.4323068424,4.115654872,77
94372,219665,235419,1.663011707,8.5220376899,4.2065821308,78
94350,219714,235343,1.6486547714,8.4789668831,4.2017964856,79
94321,219685,235302,1.6115660211,8.529216157699999,4.146761565799999,80
94218,219659,235300,1.7407784414999998,8.4658063588,4.1778682596,81
94270,219632,235273,1.6893327556000002,8.3677006322,4.151547211,82
94143,219659,235219,1.7527425545,8.5770726097,4.1898323726,83
94169,219592,235232,1.722832272,8.4311104311,4.208974953399999,84
94134,219571,235156,1.6534404165999999,8.5005022865,4.1706897918,85
94126,219573,235201,1.7886348934999998,8.463413536200001,4.1946180178,86
94136,219545,235127,1.6701901747999999,8.4789668831,4.1898323726,87
94164,219552,235181,1.8113667082,8.4681991814,4.2819560427,88
94184,219641,235145,1.5972090855,8.417949906799999,4.1970108404,89
94112,219596,235133,1.7300107398,8.4203427294,4.163511324,90
93887,219550,235220,1.5936198516,8.602197247,4.3274196721000004,91
93567,219507,235181,1.7012968686,8.5794654323,4.1180476945999995,92
93399,219501,235182,1.7192430381,8.4921274074,4.2867416879,93
93232,219456,235147,1.746760498,8.3533436966,4.18743955,94
93027,219468,235139,1.7084753364,8.4155570842,4.199403663,95
93058,219504,235163,1.6977076347,8.4610207136,4.2257247116,96
93059,219498,235091,1.5589239239000001,8.4622171249,4.2939201557,97
93050,219483,235142,1.7491533206,8.4741812379,4.1623149127,98
93139,219370,235139,1.6283157793,8.4837525283,4.1946180178,99
93113,219476,235131,1.7503497318999999,8.3461652288,4.2101713647,100
93126,219529,235119,1.7036896912000001,8.5555372063,4.127618985,101
93117,219485,235132,1.5589239239000001,8.4215391407,4.2161534212,102
93137,219477,235130,1.5146567058,8.3688970435,4.2939201557,103
93142,219463,235123,1.6941184008,8.4012001486,4.2652062845000005,104
93291,219518,235172,1.6677973521999998,8.4837525283,4.2364924133,105
93174,219529,235128,1.6414763036,8.434699665,4.2161534212,106
93249,219550,235118,1.722832272,8.463413536200001,4.2556349941,107
93133,219560,235232,1.6965112234000002,8.529216157699999,4.2329031794,108
92799,219482,235226,1.531406464,8.417949906799999,4.1491543884,109
92508,219493,235227,1.7096717476999999,8.5411802707,4.259224228,110
92188,219493,235238,1.5960126741999998,8.4885381735,4.1922251952,111
92170,219504,235219,1.6737794087,8.484948939599999,4.2843488653,112
92119,219506,235204,1.7288143285,8.5100735769,4.2006000743,113
92177,219510,235201,1.7192430381,8.4646099475,4.1730826144,114
92122,219478,235178,1.710868159,8.463413536200001,4.1826539048,115
92095,219519,235144,1.7623138449,8.410771439,4.2065821308,116
92216,219508,235158,1.7036896912000001,8.3533436966,4.2448672924,117
92134,219473,235202,1.5984054967999999,8.4490566006,4.2795632201,118
92123,219454,235144,1.7120645703,8.405985793800001,4.1252261624,119
92122,219487,235140,1.5649059803999998,8.517252044700001,4.2173498325,120
92160,219413,235127,1.7682959014000001,8.4921274074,4.0941194686,121
92148,219420,235138,1.7718851352999998,8.4490566006,4.175475436999999,122
92065,219435,235106,1.6737794087,8.4909309961,4.2065821308,123
92153,219408,235055,1.639083481,8.4155570842,4.1347974528,124
92133,219421,235095,1.8616159827999998,8.4251283746,4.1001015251,125
92022,219395,235077,1.5720844482,8.398807326,4.1898323726,126
91623,219332,235105,1.7551353771,8.3772719226,4.1802610821999995,127
91332,219271,235077,1.7168502155,8.5124663995,4.2281175342,128
91073,219239,235117,1.6414763036,8.653642932899999,4.3142591478000005,129
91119,219235,235008,1.7407784414999998,8.5244305125,4.1491543884,130
91084,219214,234988,1.603191142,8.3940216808,4.2484565263,131
91075,219195,234978,1.6163516663,8.4215391407,4.1443687432,132
91228,219093,234975,1.7551353771,8.417949906799999,4.2293139454999995,133
91142,219188,235060,1.7072789251,8.4909309961,4.1910287839,134
91169,219152,234997,1.6342978358,8.4801632944,4.1324046302,135
91122,219141,234975,1.7324035624,8.4526458345,4.1431723319,136
91182,219169,234989,1.782652837,8.4538422458,4.1180476945999995,137
91205,219185,235082,1.7527425545,8.4646099475,4.1587256788,138
91274,219209,235051,1.6438691261999998,8.3437724062,4.1814574935,139
91325,219246,235085,1.6043875533,8.4514494232,4.2269211229,140
91458,219206,235053,1.6941184008,8.5016986978,4.1228333398,141
91397,219193,235063,1.7694923127,8.4861453509,4.1503507997,142
91547,219243,235100,1.7324035624,8.5088771656,4.1324046302,143
91223,219278,235243,1.6426727149,8.3437724062,4.1431723319,144
90853,219258,235240,1.5768700934,8.5651084967,4.1706897918,145
90701,219250,235271,1.7958133612999998,8.5926259566,4.0115670889,146
90558,219232,235317,1.5936198516,8.405985793800001,4.115654872,147
90582,219284,235260,1.6618152957,8.4251283746,4.127618985,148
90462,219248,235297,1.6283157793,8.5627156741,4.1910287839,149
90560,219226,235293,1.6331014245,8.4418781328,4.1611185014,150
90746,219271,235283,1.6211373115,8.4933238187,4.1252261624,151
90684,219254,235363,1.6366906583999998,8.427521197199999,4.2281175342,152
90633,219289,235385,1.5445669883000002,8.4323068424,4.1084764042,153
90778,219296,235395,1.6869399330000001,8.5495551498,4.113262049399999,154
90875,219269,235390,1.8005990065,8.3342011158,4.1587256788,155
90849,219350,235388,1.7335999736999999,8.4897345848,4.2029928969000006,156
90985,219392,235468,1.7036896912000001,8.4023965599,4.2173498325,157
91075,219350,235477,1.7180466268,8.391628858199999,4.1491543884,158
91123,219342,235518,1.8029918290999998,8.4538422458,4.1491543884,159
91173,219338,235492,1.5613167465000002,8.434699665,4.1503507997,160
91361,219382,235541,1.6199409001999998,8.434699665,4.1012979364,161
90998,219376,235635,1.5397813431,8.5136628108,4.1922251952,162
90647,219362,235624,1.6558332392,8.4837525283,4.2053857195,163
90481,219361,235686,1.5505490447999999,8.3401831723,4.2137605985999995,164
90476,219396,235711,1.6055839645999999,8.4430745441,4.127618985,165
90385,219415,235734,1.7479569093,8.4670027701,4.2460637037,166
90414,219332,235795,1.6342978358,8.5124663995,4.1072799929,167
90442,219391,235760,1.6378870697,8.4514494232,4.1324046302,168
90602,219425,235777,1.6654045296,8.3557365192,4.18743955,169
90648,219463,235760,1.8017954178,8.364111398299999,4.1144584607,170
90707,219467,235831,1.6378870697,8.5028951091,4.1814574935,171
90744,219498,235806,1.8077774743,8.5794654323,4.1324046302,172
90759,219401,235851,1.6893327556000002,8.3964145034,4.1814574935,173
90951,219510,235860,1.6845471104,8.475377649199999,4.2317067681000005,174
90939,219574,235928,1.7276179172000001,8.4777704718,4.0737804765,175
91080,219601,235919,1.7144573929,8.4789668831,4.2006000743,176
91154,219593,235949,1.6319050132,8.49452023,4.1324046302,177
91236,219551,235962,1.7180466268,8.3581293418,4.2173498325,178
91320,219627,235993,1.6019947307,8.5627156741,4.2173498325,179
91380,219627,236016,1.6187444889,8.3665042209,4.1706897918,180
91114,219661,236067,1.6725829974,8.4012001486,4.2855452766,181
90857,219630,236086,1.6701901747999999,8.5411802707,4.146761565799999,182
90645,219637,236103,1.734796385,8.470592004,4.199403663,183
90630,219626,236175,1.734796385,8.427521197199999,4.199403663,184
90650,219653,236177,1.6869399330000001,8.4861453509,4.2508493489,185
90564,219646,236232,1.7431712641,8.434699665,4.1778682596,186
90753,219683,236221,1.6917255782,8.5603228515,4.2496529376,187
90774,219717,236229,1.6450655375,8.2923267203,4.151547211,188
90901,219707,236257,1.5625131578,8.362914987,4.1742790257,189
90954,219760,236264,1.7539389658,8.4167534955,4.1898323726,190
90982,219725,236263,1.698904046,8.5052879317,4.2508493489,191
91057,219798,236284,1.6498511827,8.4418781328,4.3250268494999995,192
91152,219771,236303,1.6845471104,8.4861453509,4.1922251952,193
91232,219790,236335,1.722832272,8.338986761000001,4.1347974528,194
91342,219805,236307,1.8999011444,8.463413536200001,4.1730826144,195
91360,219798,236349,1.7898313048,8.4323068424,4.1252261624,196
91486,219843,236342,1.8484554585000001,8.3892360356,4.163511324,197
91634,219849,236361,1.6426727149,8.3497544627,4.1826539048,198
91608,219895,236364,1.8161523534,8.463413536200001,4.0857445895,199
91784,219931,236350,1.6582260617999998,8.4789668831,4.237688824599999,200
91713,219904,236370,1.6905291669,8.5866439001,4.2436708811,201
91487,219912,236452,1.5744772707999999,8.574679787100001,4.2987058009,202
91293,219892,236488,1.6642081183,8.4550386571,4.1024943476999995,203
91170,219911,236493,1.6929219895,8.4442709554,4.1587256788,204
91169,219902,236516,1.6438691261999998,8.4311104311,4.1539400336,205
91097,219970,236510,1.6271193679999998,8.4885381735,4.1587256788,206
91105,219967,236546,1.6725829974,8.4430745441,4.1527436223,207
91110,219962,236509,1.7264215058999999,8.471788415299999,4.3178483817,208
91266,219992,236490,1.7383856189,8.3964145034,4.1790646709,209
91387,219989,236496,1.8005990065,8.4538422458,4.1108692268,210
91387,219990,236498,1.663011707,8.4394853102,4.1491543884,211
91364,219988,236455,1.7252250946,8.4358960763,4.1778682596,212
91481,219938,236417,1.6414763036,8.49452023,4.2149570099,213
91600,219948,236443,1.6857435217,8.4574314797,4.1682969692,214
91588,219994,236491,1.5732808595,8.3772719226,4.1898323726,215
91716,219983,236408,1.6223337227999999,8.5148592221,4.1324046302,216
91774,219944,236420,1.5517454561000001,8.4430745441,4.1790646709,217
91889,220003,236412,1.8125631194999998,8.5722869645,4.0689948312999995,218
91984,219995,236409,1.6713865861,8.6010008357,4.0965122912,219
91958,219969,236317,1.7694923127,8.5040915204,4.0881374121,220
92091,219974,236331,1.7312071511,8.5220376899,4.1012979364,221
92194,219961,236313,1.7778671918,8.4681991814,4.0594235409,222
92251,219957,236325,1.6941184008,8.5088771656,4.1910287839,223
92078,219892,236305,1.663011707,8.4203427294,4.0869410008000004,224
91962,219897,236370,1.6307086019,8.4203427294,4.126422573699999,225
91606,219881,236368,1.6701901747999999,8.484948939599999,4.1096728155,226
91576,219845,236280,1.5972090855,8.4777704718,4.1371902754,227
91492,219821,236310,1.8197415872999998,8.484948939599999,4.1503507997,228
91553,219836,236337,1.567298803,8.529216157699999,4.1228333398,229
91620,219857,236262,1.7395820302,8.427521197199999,4.113262049399999,230
91604,219847,236259,1.7312071511,8.4131642616,4.0654055974,231
91672,219845,236321,1.6582260617999998,8.4681991814,4.043870194,232
91794,219836,236287,1.8640088054,8.538787448099999,4.1359938641000005,233
91739,219846,236299,1.6103696098,8.4394853102,4.0845481781999995,234
91873,219842,236368,1.6749758199999998,8.551947972399999,4.0582271296000005,235
91866,219891,236346,1.7156538042,8.3940216808,4.0031922098,236
91912,219928,236404,1.5206387623,8.459824302300001,4.1850467274,237
92044,219923,236364,1.6247265454,8.5686977306,4.1479579771,238
92086,219965,236384,1.6271193679999998,8.5375910368,4.1204405172000005,239
92164,219986,236448,1.6773686425999998,8.518448456,4.1048871703,240
92322,220027,236453,1.7838492483,8.5268233351,4.0175491454,241
92415,220006,236440,1.7324035624,8.4071822051,4.2125641873,242
92404,220037,236450,1.6869399330000001,8.5686977306,4.1288153963,243
92464,220036,236528,1.7132609816000002,8.5052879317,4.1575292675,244
92562,220070,236510,1.5864413838,8.6273218843,4.1108692268,245
92491,220072,236624,1.591227029,8.3700934548,4.1012979364,246
92168,220076,236636,1.6606188843999998,8.4574314797,3.9828532177,247
92051,220071,236658,1.7910277161,8.5675013193,4.0654055974,248
91894,220105,236643,1.8520446924,8.4323068424,4.1096728155,249
91866,220080,236725,1.6833506991,8.463413536200001,4.1336010414999995,250
91962,220123,236669,1.6689937635,8.4394853102,4.1611185014,251
91992,220140,236726,1.6342978358,8.4478601893,4.1730826144,252
92010,220124,236755,1.7479569093,8.6249290617,4.103690759,253
92116,220211,236739,1.7168502155,8.529216157699999,4.0606199522,254
92225,220139,236783,1.8257236438,8.4538422458,4.1060835816,255
92178,220185,236815,1.7694923127,8.5375910368,4.0941194686,256
92325,220168,236795,1.7144573929,8.5531443837,4.1982072517,257
92383,220307,236875,1.7599210223,8.5351982142,4.0630127748,258
92520,220275,236827,1.6378870697,8.554340795,4.1599220901,259
92451,220332,236853,1.7359927963,8.4299140198,4.1659041466,260
92590,220364,236935,1.7670994901,8.4610207136,4.163511324,261
92704,220360,236914,1.5816557385999999,8.6010008357,4.1455651545,262
92756,220389,236981,1.7443676754000002,8.434699665,4.115654872,263
92738,220424,236946,1.6414763036,8.3832539791,4.139583098,264
92970,220409,236968,1.7814564256999998,8.4897345848,4.1886359613,265
93066,220476,236978,1.7276179172000001,8.5651084967,4.1347974528,266
93136,220496,237017,1.6797614652,8.446663778,4.1204405172000005,267
92883,220476,237077,1.5960126741999998,8.4382888989,4.151547211,268
92625,220490,237117,1.5708880369,8.529216157699999,4.0941194686,269
92530,220553,237169,1.6103696098,8.410771439,4.1192441059,270
92329,220519,237128,1.6331014245,8.5088771656,4.0402809601,271
92365,220575,237219,1.6666009409,8.5507515611,4.1623149127,272
92252,220517,237188,1.7156538042,8.5148592221,4.1694933805000005,273
92297,220572,237193,1.639083481,8.5040915204,4.2221354777,274
92427,220604,237185,1.6749758199999998,8.386843213,4.1659041466,275
92459,220654,237200,1.6725829974,8.551947972399999,4.1252261624,276
92418,220599,237252,1.7048861025,8.4490566006,4.0953158799,277
92515,220631,237259,1.663011707,8.4370924876,4.06779842,278
92570,220636,237249,1.6725829974,8.4478601893,4.1527436223,279
92630,220595,237265,1.6893327556000002,8.4562350684,4.0869410008000004,280
92753,220695,237251,1.6965112234000002,8.5040915204,4.2101713647,281
92776,220674,237275,1.7001004573,8.3018980107,4.1120656381,282
92935,220723,237309,1.6354942471,8.3425759949,4.1084764042,283
92942,220731,237235,1.6295121905999999,8.458627890999999,4.1682969692,284
93026,220707,237284,1.6055839645999999,8.4646099475,4.1216369285,285
93128,220674,237333,1.7096717476999999,8.410771439,4.1024943476999995,286
93180,220755,237327,1.6486547714,8.4909309961,4.2161534212,287
93359,220786,237357,1.7156538042,8.4658063588,4.1324046302,288
93483,220827,237314,1.6965112234000002,8.5028951091,4.1862431387,289
93425,220807,237368,1.8604195715,8.4083786164,4.1359938641000005,290
93575,220874,237358,1.6965112234000002,8.422735552,4.1682969692,291
93711,220967,237400,1.8101702968999998,8.4933238187,4.1347974528,292
93856,221109,237597,1.7659030788,8.4670027701,4.1048871703,293
94169,221333,237662,1.663011707,8.475377649199999,4.2209390664,294
94238,221537,237727,1.6809578765,8.1224363157,3.960121403,295
94041,221505,237660,1.6881363443,8.1978102276,4.1252261624,296
93758,221199,237230,1.7647066674999998,8.5076807543,4.3944187049,297
93391,220595,236445,2.1116659445,8.4921274074,4.1778682596,298
93156,219944,235701,1.5828521499000001,8.1427753078,4.5140598349,299
93119,219592,235407,1.9010975557,8.3210405915,4.3992043501,300
93100,219223,234973,1.8783657409999999,8.3222370028,4.3657048337,301
93048,218824,234513,1.7383856189,8.2600236152,4.5391844722,302
93230,218521,234268,1.7288143285,8.243273857,4.6049870937,303
93277,218457,234174,1.9250257817,8.3365939384,4.6480579005,304
93483,218452,234285,1.8329021116,8.3880396243,4.4123648744,305
93700,218671,234494,1.8975083218,8.2337025666,4.353740720699999,306
93829,218941,234718,1.7970097726,8.2229348649,4.4793639072,307
94075,219073,234936,2.1690936869,7.7826555065,4.4219361648,308
94159,219180,234959,1.9010975557,8.3174513576,4.5571306417,309
94488,219348,235312,1.9920248145,8.102097323599999,4.3561335433,310
94670,219722,235586,1.746760498,8.3258262367,4.534398827,311
94919,220178,235917,1.8879370314,8.2983087768,4.522434714,312
95142,220399,236188,1.8029918290999998,8.2851482525,4.4243289874,313
95290,220491,236355,1.770688724,8.350950873999999,4.4997028993,314
95462,220663,236507,1.8723836845000001,8.391628858199999,4.4315074552,315
95513,220836,236669,1.8484554585000001,8.4430745441,4.3142591478000005,316
95478,220912,236829,1.7072789251,8.4646099475,4.1778682596,317
95431,220896,236845,1.6259229567,8.271987728200001,4.2197426551,318
95438,220894,236870,1.8436698133,8.3677006322,4.1682969692,319
95247,220855,236839,1.8041882404,8.405985793800001,4.2412780585,320
95211,220647,236832,1.8305092889999999,8.4251283746,4.1252261624,321
94904,220622,236826,1.8879370314,8.427521197199999,4.1862431387,322
94524,220662,236789,1.7371892076000002,8.4370924876,4.2053857195,323
94355,220595,236820,1.8340985228999998,8.3964145034,4.115654872,324
94162,220584,236820,1.9130616687,8.5148592221,4.1300118076,325
94005,220621,236878,1.7970097726,8.3377903497,4.127618985,326
93960,220600,236877,1.7874384822,8.5770726097,4.079762533,327
93916,220631,236848,1.9094724347999998,8.4873417622,4.2460637037,328
93997,220609,236822,1.818545176,8.5244305125,4.0606199522,329
93920,220622,236824,1.7216358607,8.4538422458,4.1300118076,330
93946,220635,236829,1.8017954178,8.4741812379,4.2173498325,331
93928,220688,236852,1.722832272,8.364111398299999,4.113262049399999,332
93968,220623,236858,1.7922241274,8.4370924876,4.1563328562,333
94131,220631,236877,1.8556339263000001,8.471788415299999,4.1300118076,334
94089,220678,236834,1.7407784414999998,8.3365939384,4.0989051138,335
94134,220753,236934,1.7539389658,8.4299140198,4.091726646,336
94194,220704,236903,1.7383856189,8.4215391407,4.1551364449,337
94284,220748,236896,1.8484554585000001,8.4873417622,4.1443687432,338
94424,220765,236906,1.7766707805,8.3892360356,4.1694933805000005,339
94458,220788,236948,1.7539389658,8.373682688699999,4.1647077353,340
94550,220823,236950,1.6534404165999999,8.3940216808,4.0749768878,341
94582,220804,236979,1.8364913454999998,8.3078800672,4.0701912426,342
94672,220901,236948,1.8041882404,8.518448456,4.0235312019,343
94773,220881,236981,1.8305092889999999,8.4562350684,4.175475436999999,344
94886,220861,236974,1.8448662246,8.554340795,4.1012979364,345
94924,220924,237020,1.758724611,8.5651084967,4.1706897918,346
94864,220962,237018,1.9130616687,8.4729848266,4.0223347905999995,347
94768,220948,237051,1.7994025952000001,8.4861453509,4.0689948312999995,348
94431,220899,237054,1.7850456596,8.4610207136,4.151547211,349
94280,220897,237131,1.7324035624,8.4622171249,4.1922251952,350
94181,220934,237103,1.8867406201,8.458627890999999,4.1431723319,351
94093,220921,237126,1.7563317884,8.3425759949,4.1204405172000005,352
94050,220851,237133,1.8209379986,8.4933238187,4.0809589443,353
93955,220910,237131,1.7850456596,8.450253011900001,4.0582271296000005,354
94043,220919,237102,1.8340985228999998,8.4550386571,4.1898323726,355
94074,220951,237105,1.8149559420999999,8.4562350684,4.0893338234,356
94201,220944,237119,1.8340985228999998,8.4933238187,4.211367776,357
94114,220939,237120,1.8089738856,8.3820575678,4.0618163635,358
94140,221012,237194,1.8604195715,8.475377649199999,4.127618985,359
94225,221036,237152,1.7539389658,8.4251283746,4.1850467274,360
94282,220970,237166,1.7718851352999998,8.4490566006,4.0833517669,361
94390,221015,237221,1.6857435217,8.5028951091,4.1228333398,362
94427,221091,237177,1.7874384822,8.459824302300001,4.2364924133,363
94558,221121,237238,1.6510475939999998,8.475377649199999,4.1443687432,364
94640,221167,237288,1.7192430381,8.3940216808,4.1144584607,365
94639,221192,237302,1.7802600144,8.4801632944,4.1647077353,366
94810,221237,237317,1.8472590472,8.4083786164,4.0522450731,367
94924,221300,237296,1.8041882404,8.4514494232,4.2006000743,368
94946,221213,237361,1.8747765071,8.4131642616,4.0857445895,369
95042,221311,237387,1.7898313048,8.3724862774,4.2652062845000005,370
95087,221344,237391,1.7036896912000001,8.458627890999999,4.2317067681000005,371
95122,221361,237371,1.8999011444,8.422735552,4.2317067681000005,372
95274,221425,237433,1.9740786449999999,8.4670027701,4.0989051138,373
95334,221451,237487,1.9154544913,8.4000037373,4.1886359613,374
95146,221409,237476,1.698904046,8.4813597057,4.2029928969000006,375
94942,221418,237497,1.710868159,8.516055633399999,4.2460637037,376
94731,221418,237541,1.7970097726,8.445467366699999,4.2532421715,377
94499,221415,237466,1.8281164664,8.4610207136,4.1730826144,378
94411,221433,237509,1.9513468303000001,8.4155570842,4.1324046302,379
94351,221335,237542,1.8616159827999998,8.350950873999999,4.1192441059,380
94423,221469,237533,1.7180466268,8.4837525283,4.1060835816,381
94373,221487,237475,1.8029918290999998,8.4287176085,4.0869410008000004,382
94373,221458,237540,1.782652837,8.4155570842,4.1551364449,383
94496,221478,237509,1.8580267489000002,8.427521197199999,4.1443687432,384
94495,221472,237501,1.7922241274,8.434699665,4.0965122912,385
94549,221480,237580,1.7599210223,8.5112699882,4.2675991071,386
94610,221566,237558,1.8017954178,8.4418781328,4.127618985,387
94506,221583,237665,1.8305092889999999,8.3401831723,4.2412780585,388
94692,221605,237660,1.8999011444,8.4323068424,4.2460637037,389
94729,221616,237610,1.7922241274,8.2612200265,4.2747775749,390
94675,221641,237628,1.79461695,8.3724862774,4.1539400336,391
94843,221659,237632,1.7359927963,8.405985793800001,4.2305103568,392
94922,221650,237658,1.8568303376,8.542376681999999,4.1659041466,393
94996,221653,237714,1.8484554585000001,8.419146318100001,4.1862431387,394
95060,221655,237600,1.7694923127,8.4729848266,4.139583098,395
95076,221702,237663,1.8436698133,8.5340018029,4.2795632201,396
95177,221701,237667,1.9166509025999998,8.3581293418,4.1886359613,397
95300,221696,237657,1.8723836845000001,8.3665042209,4.1551364449,398
95443,221729,237654,1.8867406201,8.4394853102,4.055834307,399
95365,221692,237665,1.8137595308,8.470592004,4.1300118076,400
95552,221728,237664,1.8041882404,8.4035929712,4.1012979364,401
95628,221721,237643,1.8951154991999999,8.427521197199999,4.2125641873,402
95305,221664,237647,1.8699908619,8.4526458345,4.007977855,403
95127,221670,237647,1.6965112234000002,8.3174513576,4.1443687432,404
94914,221657,237654,1.746760498,8.4538422458,4.115654872,405
94719,221625,237605,1.9441683625,8.4837525283,4.1252261624,406
94573,221621,237596,1.7742779578999999,8.4215391407,4.0881374121,407
94629,221572,237573,1.6642081183,8.4478601893,4.139583098,408
94500,221567,237511,1.8388841681,8.5603228515,4.139583098,409
94610,221590,237478,1.9513468303000001,8.4658063588,4.0235312019,410
94518,221545,237516,1.8005990065,8.4442709554,4.0725840652,411
94570,221581,237506,1.7635102562,8.5483587385,4.0965122912,412
94547,221504,237483,1.8867406201,8.3952180921,4.0893338234,413
94614,221511,237495,1.8975083218,8.3401831723,4.0223347905999995,414
94646,221494,237470,1.79461695,8.459824302300001,4.0175491454,415
94622,221497,237392,1.7563317884,8.5866439001,4.115654872,416
94683,221472,237448,1.7300107398,8.3940216808,4.140779509300001,417
94690,221480,237454,1.7359927963,8.422735552,4.0498522505,418
94736,221443,237432,1.8137595308,8.4430745441,4.0821553556,419
94820,221398,237378,1.8125631194999998,8.475377649199999,4.0881374121,420
94912,221442,237372,1.8293128776999998,8.4909309961,4.0354953148999995,421
94942,221409,237402,1.7970097726,8.475377649199999,4.0510486617999995,422
95014,221435,237318,1.746760498,8.5986080131,4.091726646,423
95109,221468,237359,1.8987047331,8.5603228515,4.0055850324,424
95119,221368,237375,1.7982061838999999,8.4442709554,4.0965122912,425
95304,221481,237384,1.8209379986,8.506484343,4.0175491454,426
95321,221522,237379,1.9704894111,8.61416136,3.9672998708,427
95319,221476,237387,1.8819549749,8.5100735769,4.031906081,428
95117,221453,237440,1.7611174336,8.4490566006,3.9996029759000002,429
94794,221428,237448,1.722832272,8.3976109147,3.9816568063999997,430
94649,221368,237430,1.7730815466,8.5208412786,4.0127635002,431
94522,221441,237468,1.7790636031,8.4430745441,4.0067814437,432
94528,221461,237448,1.7994025952000001,8.551947972399999,4.0570307183,433
94429,221445,237405,1.818545176,8.4646099475,4.0139599115,434
94438,221432,237425,1.8460626359,8.4143606729,4.1204405172000005,435
94466,221447,237445,1.8484554585000001,8.4155570842,4.0546378957,436
94539,221431,237443,1.7778671918,8.4801632944,4.0175491454,437
94482,221451,237428,1.9034903783000001,8.5280197464,4.0031922098,438
94521,221478,237409,1.7515461432000001,8.4311104311,3.9924245080999996,439
94556,221486,237432,1.7024932798999999,8.4873417622,3.9948173307,440
94611,221505,237461,1.7850456596,8.482556117,4.0510486617999995,441
94635,221515,237523,1.9010975557,8.463413536200001,4.0043886211,442
94717,221549,237538,1.7682959014000001,8.5411802707,3.9900316855,443
94762,221589,237533,1.8005990065,8.3581293418,4.0534414844,444
94773,221561,237548,1.9393827173,8.3234334141,3.9864424516000003,445
94871,221586,237568,1.7910277161,8.525626923799999,4.0630127748,446
94978,221565,237539,1.7730815466,8.484948939599999,4.0606199522,447
95103,221650,237559,1.8699908619,8.373682688699999,4.0701912426,448
95035,221651,237578,1.7527425545,8.5028951091,4.103690759,449
95172,221704,237591,1.8029918290999998,8.405985793800001,4.1072799929,450
95238,221731,237602,1.8628123941,8.3928252695,3.8727833781,451
95238,221708,237619,1.9238293703999998,8.5399838594,4.0534414844,452
95363,221724,237654,1.8257236438,8.4670027701,4.0342989036,453
95091,221667,237673,1.7730815466,8.6333039408,4.0510486617999995,454
94969,221680,237712,1.9298114269,8.4370924876,3.9912280968,455
94720,221704,237667,1.8544375149999999,8.5244305125,4.0881374121,456
94449,221752,237658,1.8867406201,8.529216157699999,4.1108692268,457
94364,221682,237702,1.8975083218,8.3198441802,4.0701912426,458
94290,221688,237696,1.842473402,8.4801632944,4.0857445895,459
94309,221754,237701,1.8257236438,8.5196448673,4.1084764042,460
94294,221701,237694,1.8161523534,8.4394853102,4.1718862031,461
94317,221729,237705,1.8484554585000001,8.5124663995,4.2125641873,462
94391,221759,237734,1.7994025952000001,8.373682688699999,3.9972101532999997,463
94301,221759,237732,1.8472590472,8.482556117,4.055834307,464
94362,221739,237768,1.7635102562,8.517252044700001,4.0630127748,465
94362,221798,237812,1.6474583601,8.3617185757,4.0582271296000005,466
94427,221819,237911,1.8436698133,8.3425759949,4.0654055974,467
94591,221858,237892,1.8819549749,8.4083786164,4.1084764042,468
94618,221872,237927,1.79461695,8.4442709554,4.103690759,469
94683,221887,237979,1.8520446924,8.434699665,4.0881374121,470
94856,221925,237956,1.7898313048,8.484948939599999,4.1012979364,471
94898,221923,237978,1.8687944506,8.4741812379,4.0534414844,472
94941,222006,238004,1.8149559420999999,8.4885381735,4.06779842,473
95030,221955,238032,1.8951154991999999,8.5375910368,4.1347974528,474
95201,221963,238082,1.8580267489000002,8.4418781328,4.1108692268,475
95233,221996,238015,1.6534404165999999,8.4442709554,4.1551364449,476
95267,222053,238036,1.8233308212,8.4921274074,4.1048871703,477
95438,222035,238061,1.8089738856,8.5507515611,4.0989051138,478
95387,222021,238042,1.7551353771,8.4538422458,4.0713876539,479
95145,222016,238099,1.8293128776999998,8.4622171249,4.0989051138,480
94869,221981,238112,1.8556339263000001,8.405985793800001,4.0606199522,481
94726,221984,238104,1.9752750562999999,8.3653078096,4.0701912426,482
94623,221969,238086,1.9585252981,8.4119678503,4.0821553556,483
94432,221986,238099,1.7120645703,8.5076807543,4.1312082188999995,484
94307,221997,238117,1.7371892076000002,8.362914987,4.0845481781999995,485
94389,222016,238040,1.8867406201,8.427521197199999,4.06779842,486
94343,221997,238084,1.8448662246,8.471788415299999,4.1718862031,487
94440,222012,238068,1.7898313048,8.4418781328,4.1300118076,488
94365,222031,238031,1.9633109433,8.4622171249,4.1084764042,489
94444,221944,238107,1.8747765071,8.3772719226,4.1359938641000005,490
94568,222027,238098,1.8161523534,8.3210405915,4.1742790257,491
94562,222023,238089,1.8616159827999998,8.4203427294,4.1419759206,492
94597,222073,238060,1.9166509025999998,8.4035929712,4.0223347905999995,493
94729,222047,238094,1.7718851352999998,8.3940216808,4.140779509300001,494
94744,222049,238091,1.7503497318999999,8.506484343,4.0941194686,495
94893,222078,238102,1.8005990065,8.434699665,4.1718862031,496
94885,222053,238058,1.8257236438,8.3844503904,4.0582271296000005,497
95000,222022,238125,1.7419748528,8.4813597057,4.0654055974,498
95065,222099,238097,1.7850456596,8.4957166413,4.0893338234,499
95110,222084,238064,1.8436698133,8.4119678503,4.1012979364,500
95201,222043,238053,1.8041882404,8.506484343,4.0725840652,501
95319,222056,238024,1.8137595308,8.482556117,4.1228333398,502
95338,222068,238040,1.7802600144,8.4765740605,4.1144584607,503
95474,222087,238070,1.8233308212,8.529216157699999,4.0773697104,504
95628,222071,238061,1.9393827173,8.3892360356,4.0223347905999995,505
95610,222094,238087,1.9417755399,8.5316089803,4.0582271296000005,506
95591,222044,238033,1.9585252981,8.463413536200001,3.9924245080999996,507
95329,222023,238014,1.6821542877999998,8.5818582549,4.1419759206,508
95067,222003,238002,1.782652837,8.3892360356,4.0414773714,509
94780,221956,237998,1.8113667082,8.434699665,4.0713876539,510
94790,221953,237965,1.6618152957,8.4335032537,4.1012979364,511
94549,221876,237923,1.7862420709,8.482556117,4.1240297511,512
94599,221878,237885,1.782652837,8.3365939384,3.9768711611999996,513
94531,221844,237893,1.8687944506,8.4861453509,4.0414773714,514
94585,221839,237928,1.7862420709,8.5244305125,4.019941968,515
94480,221843,237847,1.8269200550999998,8.5722869645,4.0342989036,516
94677,221826,237853,1.7515461432000001,8.556733617599999,4.001995798499999,517
94534,221797,237818,1.7252250946,8.4993058752,3.9625142255999997,518
94766,221839,237786,1.8675980393,8.5579300289,4.0402809601,519
94667,221780,237838,1.9274186043000001,8.542376681999999,3.8943187815,520
94698,221770,237797,1.734796385,8.583054666199999,4.0390845488,521
94734,221793,237808,1.8687944506,8.525626923799999,3.9481572899999997,522
94855,221802,237808,1.8699908619,8.4909309961,3.9720855159999995,523
94893,221826,237774,1.8305092889999999,8.530412569000001,4.0235312019,524
94849,221824,237815,1.8891334427000002,8.6069828922,3.9194434188,525
95026,221819,237783,1.8604195715,8.5447695046,3.9050864832,526
95201,221861,237795,1.7970097726,8.4442709554,4.0223347905999995,527
95140,221863,237829,1.7850456596,8.5627156741,3.9732819273,528
95236,221851,237795,1.9369898947,8.4957166413,4.0366917262,529
95444,221915,237812,1.7982061838999999,8.5603228515,3.9720855159999995,530
95480,221897,237850,1.8005990065,8.4394853102,3.9625142255999997,531
95344,221895,237800,1.842473402,8.5926259566,3.9074793058,532
95495,221903,237857,1.6582260617999998,8.4969130526,3.984049629,533
95286,221915,237830,1.7659030788,8.404789382499999,4.0211383793,534
95037,221796,237796,1.8783657409999999,8.4574314797,4.0211383793,535
94780,221822,237887,1.8831513862,8.5722869645,3.8979080154,536
94735,221826,237797,1.8675980393,8.5316089803,4.019941968,537
94555,221801,237827,1.8269200550999998,8.5136628108,4.0821553556,538
94562,221842,237874,1.8891334427000002,8.5028951091,4.0007993872,539
94520,221914,237853,1.8699908619,8.4562350684,3.996013742,540
94659,221932,237846,1.770688724,8.530412569000001,3.9577285803999995,541
94630,221943,237896,1.9202401365000001,8.4681991814,4.097708702499999,542
94743,221947,237839,1.7395820302,8.484948939599999,4.1180476945999995,543
94674,221988,237864,1.8364913454999998,8.569894141899999,4.0007993872,544
94746,221989,237916,1.8939190879,8.5208412786,4.007977855,545
94780,221980,237902,1.8281164664,8.5770726097,4.0390845488,546
94893,222004,237955,1.782652837,8.5328053916,4.0462630166,547
94888,222079,237947,1.9058832009,8.4957166413,3.9864424516000003,548
95114,222053,237906,1.8891334427000002,8.5112699882,3.9493537012999997,549
95137,222081,237904,1.9046867896,8.5794654323,3.9744783386,550
95102,222088,237908,1.7850456596,8.4514494232,4.007977855,551
95220,221994,237973,1.7922241274,8.5220376899,4.0689948312999995,552
95438,222066,237934,1.8604195715,8.4873417622,4.0845481781999995,553
95346,222205,238011,1.9082760235,8.506484343,4.0055850324,554
95436,222194,238006,1.806581063,8.5136628108,4.0342989036,555
95614,222268,238065,1.7539389658,8.5495551498,3.9996029759000002,556
95766,222425,238125,1.7563317884,8.373682688699999,4.1192441059,557
96002,222495,238201,1.7754743692000001,8.5076807543,4.0007993872,558
96001,222473,238165,1.7814564256999998,8.4801632944,4.055834307,559
95964,222369,238167,1.8556339263000001,8.4287176085,4.0582271296000005,560
95732,222362,238165,1.8352949342,8.4562350684,4.0749768878,561
95430,222373,238122,1.7982061838999999,8.4670027701,4.1742790257,562
95192,222276,238089,1.9070796122,8.4789668831,4.0941194686,563
95024,222289,238091,1.7994025952000001,8.5244305125,4.0582271296000005,564
94899,222313,238127,1.7288143285,8.5220376899,4.115654872,565
94826,222207,238088,1.9214365478,8.3784683339,4.0498522505,566
94839,222285,238092,1.7180466268,8.4418781328,4.1826539048,567
94862,222281,238060,1.8939190879,8.4083786164,4.127618985,568
94875,222328,238090,1.842473402,8.391628858199999,4.0582271296000005,569
94962,222353,238107,1.9776678789,8.463413536200001,4.1108692268,570
94850,222373,238112,1.7874384822,8.5052879317,4.1790646709,571
94957,222420,238151,1.8017954178,8.516055633399999,4.0043886211,572
95045,222418,238107,1.8053846516999998,8.5016986978,4.0749768878,573
95152,222392,238155,1.8376877568,8.5040915204,4.0163527341,574
95132,222409,238116,1.8376877568,8.5340018029,4.0666020087,575
95198,222425,238151,1.8376877568,8.5579300289,4.1718862031,576
95295,222470,238164,1.8053846516999998,8.4741812379,4.1084764042,577
95431,222466,238191,1.6857435217,8.391628858199999,4.1718862031,578
95486,222484,238191,1.8963119105000001,8.4837525283,4.113262049399999,579
95544,222547,238166,1.8281164664,8.463413536200001,4.1144584607,580
95723,222525,238184,1.8951154991999999,8.3832539791,4.1383866867,581
95757,222566,238151,1.8927226765999998,8.4299140198,4.0893338234,582
95839,222606,238185,1.9274186043000001,8.4921274074,4.1108692268,583
95949,222577,238209,1.8999011444,8.2899338977,4.1647077353,584
96038,222602,238221,1.9058832009,8.5005022865,4.0534414844,585
96120,222639,238190,1.9178473139,8.427521197199999,4.126422573699999,586
96062,222656,238184,1.9106688461,8.6010008357,4.0606199522,587
96136,222622,238177,1.8281164664,8.4801632944,4.0893338234,588
95966,222619,238172,1.8137595308,8.529216157699999,4.092923057299999,589
95688,222577,238165,1.7838492483,8.3964145034,4.1503507997,590
95540,222545,238194,1.818545176,8.4287176085,4.1228333398,591
95176,222570,238188,1.8687944506,8.4777704718,4.0989051138,592
95205,222429,238087,1.8029918290999998,8.4071822051,4.0869410008000004,593
95102,222430,238133,1.7515461432000001,8.516055633399999,4.1790646709,594
94968,222486,238059,1.7934205387,8.5196448673,3.996013742,595
94976,222463,238034,1.8089738856,8.4239319633,4.0486558392,596
95004,222511,238074,1.8388841681,8.4897345848,4.001995798499999,597
94987,222482,238061,1.7264215058999999,8.4251283746,4.126422573699999,598
95082,222461,238060,1.8759729184,8.4813597057,4.1144584607,599
95060,222455,238003,1.8687944506,8.3784683339,4.1671005579,600
95148,222463,238035,1.8939190879,8.484948939599999,4.0235312019,601
95092,222384,238023,1.79461695,8.574679787100001,4.0031922098,602
95136,222381,237985,1.8580267489000002,8.4741812379,4.0115670889,603
95304,222418,237989,1.7407784414999998,8.3976109147,4.0701912426,604
95324,222465,237990,1.7060825138000002,8.427521197199999,4.1144584607,605
95276,222427,237968,1.8364913454999998,8.410771439,4.0462630166,606
95399,222408,237995,1.8592231602,8.5040915204,4.0881374121,607
95479,222430,237901,1.9106688461,8.484948939599999,4.0055850324,608
95513,222369,237931,1.8089738856,8.5495551498,4.0486558392,609
95647,222406,237946,1.7766707805,8.4741812379,4.0366917262,610
95786,222440,237876,1.8029918290999998,8.5340018029,4.1060835816,611
95861,222416,237909,1.7647066674999998,8.530412569000001,4.0486558392,612
95783,222433,237898,1.8305092889999999,8.4837525283,4.0785661217,613
95859,222407,237889,1.8400805794,8.458627890999999,4.079762533,614
95920,222434,237845,1.8269200550999998,8.4646099475,4.0342989036,615
95920,222360,237903,1.7276179172000001,8.6727855137,4.092923057299999,616
95800,222358,237877,1.9369898947,8.5196448673,4.007977855,617
95467,222302,237912,1.806581063,8.5124663995,4.0223347905999995,618
95236,222251,237812,1.6797614652,8.4514494232,4.0115670889,619
95201,222229,237810,1.8281164664,8.5136628108,3.984049629,620
95132,222265,237780,1.8364913454999998,8.5028951091,4.0211383793,621
95045,222246,237785,1.8915262653,8.525626923799999,4.1431723319,622
95105,222224,237746,1.8305092889999999,8.518448456,3.984049629,623
95094,222202,237770,1.9166509025999998,8.4490566006,4.0211383793,624
95193,222207,237776,1.7790636031,8.5507515611,4.0354953148999995,625
95089,222242,237758,1.8759729184,8.6010008357,3.9672998708,626
95150,222249,237772,1.7001004573,8.6177505939,3.9194434188,627
95124,222245,237726,1.9417755399,8.352147285300001,3.9780675724999996,628
95250,222258,237760,1.6773686425999998,8.5351982142,3.9409788222,629
95291,222184,237780,1.8209379986,8.525626923799999,3.8512479747,630
95257,222214,237760,1.8317057003,8.6081793035,3.9505501125999998,631
95382,222220,237821,1.8017954178,8.574679787100001,3.9409788222,632
95484,222203,237783,1.8400805794,8.4873417622,3.9170505962,633
95499,222315,237845,1.8041882404,8.5196448673,3.9888352742,634
95749,222351,237831,1.8472590472,8.6608214007,3.9996029759000002,635
95640,222387,237842,1.8747765071,8.4358960763,3.9852460403000003,636
95732,222375,237866,1.866401628,8.4526458345,3.960121403,637
95915,222371,237869,1.9130616687,8.4000037373,3.9696926934,638
95828,222384,237902,1.8137595308,8.4681991814,4.0354953148999995,639
96019,222428,237900,1.8173487647,8.5351982142,3.9338003543999998,640
96103,222477,237907,1.8735800958,8.5854474888,4.0654055974,641
96048,222426,237890,1.8257236438,8.4251283746,4.019941968,642
95876,222506,237944,1.7563317884,8.5220376899,4.0462630166,643
95549,222482,237951,1.7958133612999998,8.3976109147,4.0498522505,644
95492,222496,237899,1.8364913454999998,8.458627890999999,3.9182470075,645
95337,222481,237939,1.8017954178,8.5459659159,3.9649070482,646
95334,222511,237915,1.8771693297,8.5603228515,3.9672998708,647
95192,222565,237953,1.9202401365000001,8.542376681999999,3.9816568063999997,648
95195,222577,237908,1.6917255782,8.5028951091,3.9744783386,649
95203,222578,237928,1.7407784414999998,8.543573093300001,3.9912280968,650
95255,222604,237899,1.8269200550999998,8.4622171249,4.0713876539,651
95315,222604,237944,1.8017954178,8.360522164399999,4.0953158799,652
95302,222623,237972,1.9417755399,8.5986080131,3.9972101532999997,653
95308,222646,237945,1.7635102562,8.419146318100001,4.126422573699999,654
95479,222661,237996,1.7790636031,8.61416136,4.0534414844,655
95438,222695,237945,1.7527425545,8.417949906799999,4.0067814437,656
95650,222723,238015,1.8867406201,8.5914295453,3.9888352742,657
95623,222782,237956,1.7790636031,8.475377649199999,3.9409788222,658
95716,222743,237979,1.6797614652,8.4394853102,3.9984065645999998,659
95809,222785,238024,1.8149559420999999,8.3880396243,4.0773697104,660
95950,222789,238052,1.8699908619,8.463413536200001,4.1240297511,661
95869,222732,237998,1.8508482811000002,8.410771439,4.0881374121,662
96131,222800,238056,1.8041882404,8.566304908,4.007977855,663
96148,222834,238025,1.8305092889999999,8.525626923799999,4.0151563228,664
96213,222854,238078,1.8376877568,8.427521197199999,4.1479579771,665
96225,222933,238069,1.8580267489000002,8.410771439,4.0414773714,666
96363,222915,238095,1.8675980393,8.4681991814,4.0450666053,667
96458,222934,238033,1.8089738856,8.5280197464,4.055834307,668
96378,222823,238106,1.9322042495,8.4263247859,3.9146577735999997,669
96230,222816,238117,1.7443676754000002,8.4538422458,4.113262049399999,670
95984,222819,238051,1.8640088054,8.386843213,4.1647077353,671
95823,222811,238058,1.8269200550999998,8.5351982142,4.1084764042,672
95637,222854,238051,1.8927226765999998,8.4083786164,4.1072799929,673
95513,222856,238016,1.8113667082,8.3234334141,4.019941968,674
95408,222843,237988,1.9369898947,8.4969130526,4.0701912426,675
95349,222850,237981,1.8089738856,8.4801632944,4.0809589443,676
95393,222814,238026,1.8807585636,8.5938223679,3.9900316855,677
95508,222812,237969,1.79461695,8.49452023,4.0773697104,678
95543,222844,238004,1.8472590472,8.4610207136,4.1108692268,679
95488,222839,238024,1.8233308212,8.4251283746,4.0295132584,680
95559,222781,238017,1.8592231602,8.4514494232,4.1288153963,681
95505,222847,238048,1.7479569093,8.4311104311,4.1563328562,682
95624,222867,238012,1.8376877568,8.3760755113,4.1982072517,683
95620,222892,238018,1.806581063,8.417949906799999,4.0749768878,684
95776,222862,238034,1.9286150156,8.3437724062,4.0821553556,685
95963,222896,238019,1.9130616687,8.4167534955,4.1383866867,686
95921,222882,238037,1.842473402,8.4263247859,4.0342989036,687
96048,222851,238081,1.9118652574,8.446663778,4.064209186099999,688
96034,222876,238050,1.8472590472,8.482556117,4.079762533,689
96207,222886,238118,1.9657037659,8.4658063588,4.031906081,690
96254,222940,238075,1.8711872732,8.4323068424,4.0809589443,691
96382,222965,238017,1.7575281996999998,8.5088771656,4.0594235409,692
96437,223009,238118,1.6761722313,8.4681991814,4.126422573699999,693
96517,223018,238066,1.8855442087999998,8.422735552,3.996013742,694
96587,222973,238029,1.9190437251999999,8.427521197199999,4.0845481781999995,695
96691,222988,238073,1.9202401365000001,8.4490566006,3.9936209194,696
96439,222920,238057,1.7395820302,8.475377649199999,4.0761732991,697
96301,222916,238107,1.7563317884,8.475377649199999,4.06779842,698
96052,222916,238061,1.890329854,8.4143606729,4.0486558392,699
96027,222895,238029,1.7635102562,8.5016986978,4.1347974528,700
95806,222752,237946,1.7934205387,8.5136628108,3.9338003543999998,701
95662,222798,237957,1.6713865861,8.386843213,3.9984065645999998,702
95609,222761,238021,1.7659030788,8.4418781328,4.0630127748,703
95632,222769,237932,1.91425808,8.4370924876,4.0881374121,704
95625,222853,237942,1.7730815466,8.5447695046,4.0630127748,705
95628,222803,237893,1.7754743692000001,8.3808611565,4.079762533,706
95813,222826,237969,1.9417755399,8.5232341012,4.0941194686,707
95812,222793,237917,1.7922241274,8.410771439,4.0031922098,708
95785,222811,237906,1.8352949342,8.471788415299999,4.1096728155,709
95831,222816,237910,1.7850456596,8.506484343,3.9338003543999998,710
95972,222837,237924,1.6845471104,8.5627156741,4.0067814437,711
95833,222770,237955,1.7982061838999999,8.4681991814,3.9529429352,712
96048,222767,237935,1.8472590472,8.482556117,4.0654055974,713
96014,222799,237917,1.8999011444,8.5555372063,4.1108692268,714
96142,222839,237885,1.8723836845000001,8.482556117,3.996013742,715
96234,222795,237880,1.91425808,8.5579300289,3.9696926934,716
96278,222825,237881,1.746760498,8.5483587385,4.0007993872,717
96400,222792,237878,1.8209379986,8.5280197464,3.9720855159999995,718
96442,222833,237897,1.8113667082,8.5100735769,3.9433716447999996,719
96444,222816,237858,1.7060825138000002,8.434699665,4.0271204358,720
96463,222787,237812,1.8376877568,8.5459659159,4.0474594279,721
96654,222701,237866,1.8364913454999998,8.5531443837,4.0055850324,722
96641,222734,237867,1.9322042495,8.463413536200001,3.9744783386,723
96568,222762,237844,1.8472590472,8.4394853102,3.9744783386,724
96249,222767,237863,1.8592231602,8.5136628108,3.9888352742,725
96099,222731,237814,1.7850456596,8.5076807543,3.9672998708,726
95962,222668,237828,1.8520446924,8.517252044700001,3.9649070482,727
95828,222693,237824,1.9310078382,8.5651084967,3.9744783386,728
95782,222695,237825,1.8891334427000002,8.373682688699999,3.984049629,729
95718,222650,237839,1.7970097726,8.3569329305,4.0031922098,730
95715,222646,237841,1.8831513862,8.352147285300001,3.984049629,731
95821,222693,237805,1.842473402,8.662017812,3.9804603951,732
95825,222693,237819,1.9357934834,8.4765740605,3.996013742,733
95778,222773,237866,1.7790636031,8.446663778,4.0342989036,734
95794,222745,237807,1.8173487647,8.5447695046,4.0342989036,735
95901,222765,237827,1.8005990065,8.4430745441,4.0342989036,736
95993,222799,237893,1.8867406201,8.5208412786,4.0366917262,737
96007,222784,237894,1.8711872732,8.5627156741,3.9912280968,738
96056,222802,237830,1.8137595308,8.5399838594,4.0833517669,739
96166,222754,237852,1.7886348934999998,8.5579300289,4.0713876539,740
96245,222822,237866,1.818545176,8.5136628108,3.9505501125999998,741
96306,222869,237894,1.7503497318999999,8.518448456,3.9984065645999998,742
96398,222860,237885,1.7874384822,8.3904324469,4.0594235409,743
96422,222792,237951,1.8891334427000002,8.5136628108,3.9110685397,744
96540,222877,237932,1.7635102562,8.5316089803,4.0546378957,745
96599,222912,237958,1.7180466268,8.6165541826,4.126422573699999,746
96677,222953,237924,1.8448662246,8.5196448673,4.055834307,747
96864,222992,237984,1.8233308212,8.4658063588,4.0594235409,748
96860,222955,237980,1.7120645703,8.5722869645,4.0654055974,749
96894,222948,237951,1.8257236438,8.4897345848,4.1455651545,750
96783,222978,238011,1.7192430381,8.458627890999999,4.1096728155,751
96441,222965,237953,1.8412769907000002,8.463413536200001,4.1012979364,752
96297,222927,237976,1.8771693297,8.4538422458,4.1012979364,753
96104,222921,237950,1.9489540077,8.516055633399999,3.9397824109,754
95966,222898,237950,1.7288143285,8.4023965599,4.0785661217,755
95912,222839,237954,1.7036896912000001,8.4981094639,4.1527436223,756
95867,222908,237916,1.9022939669999999,8.4670027701,4.1108692268,757
95813,222903,237940,1.8472590472,8.4442709554,4.0845481781999995,758
95909,222849,237897,1.8867406201,8.410771439,4.1599220901,759
95837,222878,237893,1.9345970721,8.5232341012,4.0893338234,760
95942,222871,237932,1.8400805794,8.4167534955,4.0390845488,761
95960,222944,237948,1.7838492483,8.482556117,4.0785661217,762
96014,222917,237936,1.806581063,8.386843213,4.1216369285,763
96037,222893,237932,1.8281164664,8.4083786164,4.0773697104,764
96119,222934,237944,1.9106688461,8.5016986978,4.019941968,765
96253,222867,238012,1.818545176,8.5052879317,4.151547211,766
96218,223027,238016,1.7814564256999998,8.5268233351,4.115654872,767
96371,223017,237926,1.818545176,8.530412569000001,4.091726646,768
96443,222987,238004,1.8592231602,8.3892360356,4.079762533,769
96414,223029,238001,1.8783657409999999,8.4490566006,4.0989051138,770
96587,223016,237978,1.8675980393,8.5639120854,4.0893338234,771
96602,223059,238015,1.8951154991999999,8.6081793035,4.1934216065,772
96769,223096,238038,1.8771693297,8.4251283746,4.126422573699999,773
96876,223100,238052,1.8149559420999999,8.5112699882,4.0175491454,774
96886,223068,238011,1.7898313048,8.4251283746,4.1694933805000005,775
97051,223086,238036,1.8687944506,8.4873417622,4.1551364449,776
97170,223135,238011,1.8460626359,8.4442709554,4.103690759,777
97154,223077,238053,1.770688724,8.3964145034,4.1144584607,778
96863,223082,238021,1.8580267489000002,8.352147285300001,4.0450666053,779
96719,223115,238011,1.8245272325,8.5052879317,3.9768711611999996,780
96462,222992,238023,1.8819549749,8.470592004,4.1359938641000005,781
96349,223030,238005,1.8041882404,8.5328053916,4.092923057299999,782
96187,223013,237973,1.9250257817,8.5028951091,4.1706897918,783
96048,222974,237962,1.7551353771,8.3485580514,4.0295132584,784
96015,222974,237981,1.7168502155,8.6512501103,4.1084764042,785
96047,222995,237919,1.7862420709,8.4251283746,4.0055850324,786
96158,222982,237997,1.8675980393,8.4670027701,4.0965122912,787
96224,222989,237976,1.7599210223,8.410771439,4.0941194686,788
96149,223014,237958,1.9704894111,8.4203427294,4.1240297511,789
96190,223023,237960,1.7611174336,8.554340795,4.2101713647,790
96204,222938,237932,1.8951154991999999,8.5555372063,4.0055850324,791
96354,223009,237990,1.9058832009,8.4729848266,4.0833517669,792
96398,223047,237974,1.8532411037,8.4299140198,3.9816568063999997,793
96524,223074,237982,1.7934205387,8.4921274074,4.140779509300001,794
96542,223051,238012,1.8640088054,8.475377649199999,4.0713876539,795
96618,223061,237981,1.8843477975,8.4251283746,4.0414773714,796
96738,223019,237963,1.7730815466,8.4323068424,4.0151563228,797
96778,223062,237965,1.8891334427000002,8.475377649199999,4.1084764042,798
96829,223061,237991,1.9118652574,8.4430745441,4.0103706776,799
96907,223046,237978,1.7395820302,8.5375910368,4.0007993872,800
96926,223070,237964,1.8831513862,8.3880396243,3.9625142255999997,801
97066,223072,237991,1.9537396529,8.450253011900001,4.0175491454,802
97133,223084,237951,2.0147566292,8.4622171249,4.0510486617999995,803
97198,223059,237987,1.8376877568,8.4299140198,4.0426737827,804
97280,223072,237974,1.9298114269,8.525626923799999,4.055834307,805
97202,223054,237932,1.8556339263000001,8.4490566006,4.0271204358,806
97017,222953,237919,1.8783657409999999,8.470592004,4.019941968,807
96783,222898,237893,1.8616159827999998,8.4957166413,4.0785661217,808
96662,222947,237864,1.7994025952000001,8.6309111182,3.9888352742,809
96515,222886,237881,1.8448662246,8.458627890999999,4.0271204358,810
96422,222873,237849,1.8209379986,8.4981094639,4.1204405172000005,811
96302,222915,237872,1.8747765071,8.4526458345,4.030709669699999,812
96367,222878,237807,1.7730815466,8.427521197199999,4.0295132584,813
96286,222863,237757,1.7922241274,8.3820575678,4.0654055974,814
96355,222868,237757,1.8317057003,8.475377649199999,3.9864424516000003,815
96356,222836,237791,1.8604195715,8.551947972399999,3.9553357578,816
96356,222836,237754,1.8041882404,8.6775711589,3.8871403137,817
96483,222798,237814,1.722832272,8.5507515611,4.0127635002,818
96429,222780,237782,1.818545176,8.4801632944,3.9170505962,819
96474,222826,237829,1.7156538042,8.4299140198,4.0761732991,820
96512,222887,237753,1.9429719511999999,8.6153577713,4.0426737827,821
96663,222849,237789,1.8137595308,8.3700934548,3.9996029759000002,822
96766,222903,237783,1.8257236438,8.5232341012,4.0414773714,823
96749,222908,237782,1.8556339263000001,8.4873417622,4.0055850324,824
96677,222911,237792,1.8329021116,8.4681991814,4.06779842,825
96799,222916,237771,1.8699908619,8.6225362391,3.9302111204999997,826
96976,222850,237805,1.8711872732,8.434699665,4.0666020087,827
96903,222973,237802,1.9166509025999998,8.506484343,3.9744783386,828
97066,222973,237801,1.9692929998,8.5495551498,3.9481572899999997,829
97148,223014,237836,1.8161523534,8.5328053916,4.0151563228,830
97276,222979,237880,1.8352949342,8.551947972399999,3.996013742,831
97309,223018,237875,1.8209379986,8.4789668831,3.8787654346,832
97102,222928,237830,1.6857435217,8.4837525283,4.055834307,833
96832,222917,237833,1.8448662246,8.3449688175,3.9421752335,834
96699,222907,237812,1.7922241274,8.5124663995,4.06779842,835
96512,222923,237828,1.8364913454999998,8.4251283746,4.0127635002,836
96381,222878,237743,1.8927226765999998,8.518448456,4.0211383793,837
96360,222871,237784,1.9166509025999998,8.4622171249,3.9948173307,838
96245,222912,237765,1.8628123941,8.470592004,3.9936209194,839
96311,222902,237777,1.8783657409999999,8.427521197199999,4.0654055974,840
96328,222926,237797,1.8077774743,8.5591264402,4.0414773714,841
96455,222897,237798,1.6929219895,8.4538422458,4.0630127748,842
96396,222895,237804,1.6821542877999998,8.4299140198,4.0881374121,843
96423,222965,237759,1.938186306,8.4861453509,4.019941968,844
96508,222949,237801,1.8747765071,8.4681991814,4.0486558392,845
96444,222995,237868,1.806581063,8.3808611565,4.0546378957,846
96635,223004,237859,1.7682959014000001,8.4299140198,4.1216369285,847
96712,222965,237815,1.8687944506,8.538787448099999,4.055834307,848
96709,223007,237842,1.8975083218,8.417949906799999,4.0390845488,849
96761,223017,237839,1.7659030788,8.4203427294,4.0701912426,850
96883,223013,237865,1.8101702968999998,8.446663778,4.113262049399999,851
96990,223092,237852,1.7240286833,8.543573093300001,4.146761565799999,852
97091,223089,237888,1.8747765071,8.373682688699999,3.8991044267,853
97097,223123,237930,1.8089738856,8.4394853102,4.1096728155,854
97204,223078,237898,1.8257236438,8.4885381735,4.0582271296000005,855
97340,223136,237941,1.79461695,8.3700934548,4.1647077353,856
97353,223179,237968,1.8161523534,8.4981094639,4.1252261624,857
97343,223187,237911,1.8544375149999999,8.6392859973,4.0139599115,858
97377,223142,237913,1.8508482811000002,8.5028951091,4.1359938641000005,859
97220,223048,237891,1.7682959014000001,8.484948939599999,4.0821553556,860
97020,223082,237900,1.7659030788,8.5148592221,4.1024943476999995,861
96796,223071,237849,1.9561324755,8.404789382499999,4.115654872,862
96566,223098,237861,1.9489540077,8.5208412786,4.1790646709,863
96464,223046,237871,1.9154544913,8.3844503904,4.0462630166,864
96401,223014,237835,1.8209379986,8.427521197199999,4.0582271296000005,865
96291,223068,237856,1.9118652574,8.5316089803,4.1431723319,866
96308,223015,237855,1.806581063,8.5399838594,4.1371902754,867
96360,223008,237865,1.8340985228999998,8.4741812379,4.126422573699999,868
96348,223056,237789,1.8257236438,8.4873417622,4.1024943476999995,869
96365,223060,237853,1.8257236438,8.5411802707,4.1084764042,870
96374,222930,237830,1.8329021116,8.4131642616,4.043870194,871
96420,222979,237855,1.890329854,8.5220376899,4.1359938641000005,872
96460,223038,237853,1.8520446924,8.543573093300001,4.1419759206,873
96481,223077,237819,1.8460626359,8.5507515611,4.140779509300001,874
96582,223103,237883,1.8508482811000002,8.4442709554,4.1455651545,875
96572,223092,237878,1.9010975557,8.5052879317,4.151547211,876
96670,223084,237895,1.8221344098999999,8.463413536200001,4.0725840652,877
96838,223110,237897,1.8855442087999998,8.398807326,4.0845481781999995,878
96891,223144,237852,1.8352949342,8.3425759949,4.0845481781999995,879
96939,223142,237903,1.8915262653,8.4801632944,4.0989051138,880
97039,223181,237924,1.9824535241,8.3425759949,4.0965122912,881
97089,223163,237875,1.8556339263000001,8.4574314797,4.001995798499999,882
97091,223185,237907,1.8245272325,8.417949906799999,4.1862431387,883
97283,223198,237913,1.818545176,8.4909309961,4.0869410008000004,884
97407,223249,237919,1.8053846516999998,8.4490566006,4.1611185014,885
97397,223206,237880,1.8927226765999998,8.3748791,4.0175491454,886
97265,223145,237892,1.8843477975,8.5076807543,4.1001015251,887
97052,223085,237879,1.8735800958,8.4323068424,4.127618985,888
96757,223123,237854,1.7443676754000002,8.4251283746,4.0749768878,889
96562,223050,237857,1.7611174336,8.3796647452,4.1108692268,890
96311,223060,237820,2.0207386857,8.427521197199999,4.1443687432,891
96327,223020,237795,1.734796385,8.5220376899,4.019941968,892
96325,222992,237804,1.8233308212,8.4550386571,4.1671005579,893
96174,223042,237813,1.7192430381,8.5722869645,4.113262049399999,894
96397,222999,237799,1.8041882404,8.596215190499999,4.0893338234,895
96309,222997,237736,1.9597217094,8.4562350684,4.1539400336,896
96379,223025,237804,1.7312071511,8.4394853102,3.9397824109,897
96311,223026,237766,1.8209379986,8.5100735769,4.0295132584,898
96413,223025,237801,1.9465611851,8.4670027701,3.996013742,899
96503,223005,237756,1.9992032822999999,8.434699665,4.0941194686,900
96425,223020,237768,1.8843477975,8.4299140198,4.0414773714,901
96521,223010,237753,1.7156538042,8.4358960763,4.007977855,902
96722,223011,237799,1.8233308212,8.5088771656,4.0510486617999995,903
96687,223051,237709,1.938186306,8.4741812379,4.0749768878,904
96766,223006,237787,1.8927226765999998,8.5136628108,3.9984065645999998,905
96827,223023,237750,1.8520446924,8.3138621237,4.019941968,906
97034,223006,237741,1.8113667082,8.3940216808,3.9780675724999996,907
96994,223032,237799,1.7431712641,8.446663778,4.0402809601,908
97134,223036,237750,1.9154544913,8.578269021,4.0666020087,909
97153,223063,237754,1.8520446924,8.446663778,4.007977855,910
97152,223057,237728,1.8173487647,8.3593257531,4.019941968,911
97205,223012,237728,1.758724611,8.5818582549,4.0007993872,912
97224,223000,237771,1.9178473139,8.5375910368,3.996013742,913
97099,222942,237738,1.7168502155,8.482556117,3.9852460403000003,914
96857,222940,237709,1.9513468303000001,8.5268233351,3.9996029759000002,915
96679,222933,237689,1.8771693297,8.530412569000001,4.0247276132000005,916
96508,222813,237670,1.8017954178,8.4741812379,4.0654055974,917
96450,222841,237646,1.7874384822,8.5686977306,4.0809589443,918
96344,222849,237666,1.8783657409999999,8.3976109147,4.0390845488,919
96353,222872,237653,1.8496518698,8.5866439001,3.9266218866,920
96410,222860,237627,1.8951154991999999,8.4370924876,3.9038900719000003,921
96476,222848,237609,1.8173487647,8.49452023,4.0701912426,922
96394,222858,237612,1.7264215058999999,8.471788415299999,4.007977855,923
96451,222884,237644,1.7754743692000001,8.4478601893,3.9385859996,924
96478,222881,237644,1.7910277161,8.518448456,3.9948173307,925
96557,222910,237662,1.8975083218,8.4442709554,3.960121403,926
96643,222892,237648,1.7359927963,8.5280197464,4.0462630166,927
96603,222847,237639,1.8747765071,8.5399838594,4.019941968,928
96801,222886,237685,1.7371892076000002,8.471788415299999,4.1216369285,929
96694,222889,237705,1.8699908619,8.5555372063,4.0905302347,930
96868,222934,237672,1.8556339263000001,8.446663778,4.0857445895,931
96914,222941,237683,1.9022939669999999,8.4394853102,4.0414773714,932
97002,222913,237709,1.7659030788,8.584251077500001,4.1216369285,933
97022,222980,237711,1.9310078382,8.4562350684,4.0450666053,934
97222,223026,237716,1.782652837,8.4323068424,3.9589249917,935
97302,223047,237781,1.7970097726,8.5794654323,4.0953158799,936
97313,223014,237780,1.8652052167000002,8.5016986978,4.0546378957,937
97315,223068,237768,1.7324035624,8.4131642616,3.9637106368999997,938
97139,223054,237776,1.7970097726,8.4562350684,3.9936209194,939
96994,222907,237751,1.8197415872999998,8.475377649199999,4.0486558392,940
96697,223003,237745,1.7766707805,8.4442709554,4.0582271296000005,941
96578,223006,237709,1.9633109433,8.5124663995,4.0007993872,942
96542,222950,237676,1.770688724,8.6081793035,3.9672998708,943
96428,222951,237720,1.8340985228999998,8.569894141899999,4.0749768878,944
96493,222987,237733,1.7982061838999999,8.482556117,4.019941968,945
96356,222961,237711,1.8831513862,8.3892360356,4.0606199522,946
96497,223003,237725,1.7335999736999999,8.4215391407,4.0390845488,947
96452,222954,237710,1.7874384822,8.5591264402,4.0701912426,948
96492,222933,237708,1.8963119105000001,8.518448456,4.0570307183,949
96617,222948,237749,1.746760498,8.4442709554,3.936193177,950
96673,222990,237788,1.7754743692000001,8.49452023,4.001995798499999,951
96630,222930,237771,1.8735800958,8.3497544627,4.091726646,952
96779,223039,237739,1.9226329591,8.4729848266,4.0342989036,953
96757,223073,237760,1.8305092889999999,8.5100735769,4.0378881375,954
96907,223048,237812,1.770688724,8.5124663995,4.031906081,955
96885,223084,237790,1.7264215058999999,8.4155570842,4.0031922098,956
97048,223077,237794,1.7922241274,8.5483587385,4.0295132584,957
97069,223076,237773,1.8783657409999999,8.482556117,4.0773697104,958
97150,223120,237865,1.8113667082,8.475377649199999,4.0486558392,959
97227,223159,237864,1.8305092889999999,8.4012001486,4.0666020087,960
97347,223164,237829,1.8675980393,8.5088771656,4.0462630166,961
97529,223080,237874,1.8233308212,8.4610207136,4.0869410008000004,962
97500,223197,237820,1.8975083218,8.470592004,4.0247276132000005,963
97482,223177,237864,1.7551353771,8.3964145034,4.1431723319,964
97283,223136,237825,1.7635102562,8.3653078096,4.0749768878,965
97136,223039,237834,1.8819549749,8.5316089803,4.113262049399999,966
96828,223069,237789,1.7443676754000002,8.4969130526,4.0869410008000004,967
96757,223066,237803,1.8867406201,8.3677006322,4.1240297511,968
96614,223081,237776,1.8616159827999998,8.5196448673,4.208974953399999,969
96582,223004,237776,1.8747765071,8.4203427294,4.1324046302,970
96489,223008,237748,1.8161523534,8.4741812379,4.0881374121,971
96485,223064,237726,1.7838492483,8.3844503904,4.0869410008000004,972
96486,223028,237781,1.8592231602,8.4131642616,4.140779509300001,973
96667,223106,237836,1.8113667082,8.475377649199999,4.0869410008000004,974
96579,223070,237805,1.7539389658,8.3880396243,4.1527436223,975
96658,223076,237785,1.9070796122,8.5196448673,4.0654055974,976
96687,223018,237781,1.9010975557,8.4323068424,4.1192441059,977
96844,223041,237790,1.734796385,8.4670027701,4.2041893082,978
96802,223148,237843,1.8723836845000001,8.5316089803,4.0283168471,979
96893,223083,237840,1.8209379986,8.4921274074,4.0390845488,980
96970,223040,237777,1.9130616687,8.578269021,4.1479579771,981
97000,223152,237784,1.7431712641,8.4729848266,4.0869410008000004,982
97208,223090,237850,1.8305092889999999,8.4442709554,4.0474594279,983
97281,223156,237813,1.9669001771999999,8.463413536200001,4.139583098,984
97308,223149,237801,1.8161523534,8.5531443837,4.097708702499999,985
97389,223157,237784,1.8915262653,8.4885381735,4.1766718483,986
97443,223081,237856,1.8592231602,8.347361640099999,4.1599220901,987
97565,223119,237788,1.8975083218,8.4000037373,4.1144584607,988
97622,223180,237836,1.8400805794,8.4897345848,4.2101713647,989
97604,223162,237817,1.8640088054,8.5675013193,4.0486558392,990
97454,223040,237784,1.8317057003,8.4765740605,4.0893338234,991
97126,223049,237724,1.8293128776999998,8.4777704718,4.0462630166,992
96954,223051,237780,1.8723836845000001,8.4215391407,4.1611185014,993
96841,223019,237752,1.9298114269,8.463413536200001,3.984049629,994
96726,222959,237693,1.8783657409999999,8.5112699882,4.0630127748,995
96631,223046,237693,1.7802600144,8.5818582549,4.0462630166,996
96654,222969,237694,1.8388841681,8.4658063588,4.0881374121,997
96678,222940,237669,1.8508482811000002,8.4418781328,3.9589249917,998
96586,222914,237692,1.7670994901,8.5148592221,4.0175491454,999
96678,222928,237619,1.8783657409999999,8.5579300289,4.0630127748,1000
96723,222911,237650,1.8520446924,8.5411802707,3.9936209194,1001
96673,222928,237633,1.9334006607999998,8.5148592221,4.0498522505,1002
96814,222951,237646,1.8807585636,8.596215190499999,4.0007993872,1003
96915,222910,237641,1.8484554585000001,8.5005022865,4.0546378957,1004
96846,222940,237653,1.8257236438,8.4490566006,4.1216369285,1005
97004,222814,237627,1.7443676754000002,8.458627890999999,4.0414773714,1006
97046,222882,237665,1.8604195715,8.475377649199999,4.0785661217,1007
97123,222958,237689,1.7694923127,8.4981094639,4.0271204358,1008
97102,222956,237614,1.8484554585000001,8.463413536200001,4.1443687432,1009
97243,222958,237618,1.8975083218,8.4538422458,4.1814574935,1010
97249,222980,237629,1.7922241274,8.5926259566,4.0055850324,1011
97352,223006,237653,1.818545176,8.471788415299999,4.030709669699999,1012
97566,222939,237606,1.8089738856,8.422735552,3.8991044267,1013
97541,222871,237601,1.7778671918,8.5351982142,3.9792639838,1014
97579,222881,237631,1.710868159,8.4969130526,4.1312082188999995,1015
97539,222820,237646,1.9441683625,8.4813597057,4.0594235409,1016
97335,222840,237582,1.866401628,8.5124663995,3.9457644674,1017
96982,222858,237554,1.8951154991999999,8.5100735769,3.9780675724999996,1018
96926,222846,237538,1.8472590472,8.4287176085,3.9409788222,1019
96858,222833,237593,1.8640088054,8.4801632944,4.0342989036,1020
96703,222831,237558,1.818545176,8.5005022865,4.0271204358,1021
96701,222859,237529,1.7730815466,8.4119678503,3.9912280968,1022
96725,222833,237560,1.866401628,8.4299140198,4.0103706776,1023
96817,222793,237570,1.7096717476999999,8.4083786164,4.0259240245,1024
96854,222818,237556,1.9070796122,8.4993058752,4.1479579771,1025
96763,222798,237555,1.9106688461,8.434699665,4.0366917262,1026
96856,222806,237608,1.8532411037,8.7326060787,4.0187455567,1027
96903,222885,237586,1.7084753364,8.4382888989,4.043870194,1028
97005,222949,237590,1.7240286833,8.482556117,4.1084764042,1029
97088,222889,237643,1.7443676754000002,8.475377649199999,3.9888352742,1030
97046,222904,237627,1.8939190879,8.463413536200001,4.0055850324,1031
97246,222922,237643,1.842473402,8.4681991814,4.0869410008000004,1032
97279,222992,237623,1.9489540077,8.5016986978,3.9816568063999997,1033
97325,222975,237628,1.8293128776999998,8.5016986978,4.0486558392,1034
97446,223046,237688,1.9920248145,8.4550386571,4.0785661217,1035
97518,223005,237681,1.6773686425999998,8.4777704718,4.0893338234,1036
97559,223039,237700,1.8460626359,8.530412569000001,4.007977855,1037
97696,222969,237711,1.7754743692000001,8.3892360356,4.0366917262,1038
97736,223011,237700,1.7324035624,8.5818582549,4.0091742663,1039
97649,223051,237763,1.8604195715,8.4526458345,4.1623149127,1040
97547,223002,237731,1.8484554585000001,8.4885381735,4.1012979364,1041
97258,223005,237667,1.8687944506,8.4119678503,4.0247276132000005,1042
96999,222997,237712,1.8233308212,8.5148592221,4.1694933805000005,1043
96847,222975,237709,1.8592231602,8.405985793800001,4.1120656381,1044
96804,222973,237711,1.8484554585000001,8.4538422458,4.0510486617999995,1045
96668,222970,237690,1.7599210223,8.3545401079,4.0893338234,1046
96600,223015,237626,1.8891334427000002,8.4957166413,4.0761732991,1047
96663,223014,237666,1.9118652574,8.4382888989,4.092923057299999,1048
96746,223001,237689,1.8735800958,8.350950873999999,4.0749768878,1049
96750,222998,237690,1.7766707805,8.4909309961,4.1419759206,1050
96685,222989,237688,1.8592231602,8.4681991814,4.1491543884,1051
96848,223026,237642,1.9393827173,8.5196448673,4.0654055974,1052
96797,223002,237637,1.7766707805,8.5040915204,4.126422573699999,1053
96903,223071,237712,1.9393827173,8.458627890999999,4.092923057299999,1054
97076,223067,237702,1.9657037659,8.4012001486,4.1982072517,1055
97060,223100,237740,1.9046867896,8.4299140198,4.1012979364,1056
97156,223076,237673,1.8352949342,8.5220376899,4.0486558392,1057
97204,223150,237697,1.8496518698,8.4873417622,4.1682969692,1058
97317,223124,237732,1.9058832009,8.3688970435,4.2017964856,1059
97357,223160,237736,1.8759729184,8.3796647452,4.103690759,1060
97456,223171,237734,1.9058832009,8.4981094639,4.1324046302,1061
97552,223203,237784,1.8448662246,8.3449688175,4.0869410008000004,1062
97651,223203,237781,1.8077774743,8.5040915204,4.1443687432,1063
97752,223226,237792,1.8640088054,8.3210405915,4.1108692268,1064
97696,223210,237801,1.9453647738,8.4837525283,4.113262049399999,1065
97756,223197,237760,1.8496518698,8.3294154706,4.1623149127,1066
97548,223163,237810,1.698904046,8.362914987,4.043870194,1067
97319,223100,237748,1.9525432416,8.4083786164,4.0845481781999995,1068
97064,223084,237745,1.8496518698,8.3234334141,4.1563328562,1069
96844,223068,237730,1.8855442087999998,8.4035929712,4.113262049399999,1070
96733,223067,237720,1.7670994901,8.3497544627,4.1623149127,1071
96556,222994,237740,1.7312071511,8.4299140198,4.2137605985999995,1072
96545,223003,237693,1.8795621523000001,8.5208412786,4.1599220901,1073
96561,223043,237670,1.8472590472,8.463413536200001,4.06779842,1074
96670,223043,237652,1.8520446924,8.5005022865,4.1886359613,1075
96636,223060,237658,1.9393827173,8.445467366699999,4.1491543884,1076
96793,223054,237701,1.9034903783000001,8.419146318100001,4.031906081,1077
96759,223145,237735,1.7994025952000001,8.446663778,4.1706897918,1078
96777,223101,237668,1.8999011444,8.3677006322,4.0510486617999995,1079
96836,223080,237749,1.8520446924,8.4167534955,4.1371902754,1080
96891,223154,237680,1.8041882404,8.3724862774,3.9924245080999996,1081
96997,223101,237693,1.9070796122,8.4299140198,4.091726646,1082
97038,223106,237737,1.7324035624,8.364111398299999,4.055834307,1083
97093,223125,237685,1.9465611851,8.450253011900001,4.1252261624,1084
97160,223069,237763,1.8089738856,8.4143606729,4.0055850324,1085
97299,223085,237715,1.8987047331,8.4981094639,4.0701912426,1086
97331,223119,237728,1.8149559420999999,8.4012001486,4.0737804765,1087
97516,223091,237756,1.9489540077,8.538787448099999,4.06779842,1088
97399,223109,237676,1.9669001771999999,8.5280197464,4.103690759,1089
97480,223165,237717,1.8017954178,8.4514494232,4.091726646,1090
97576,223137,237745,1.7730815466,8.4239319633,4.1252261624,1091
97732,223170,237713,1.7994025952000001,8.3365939384,4.1120656381,1092
97808,223197,237727,1.91425808,8.5100735769,4.1551364449,1093
97701,223144,237693,1.8448662246,8.4813597057,4.0390845488,1094
97591,223117,237661,1.8592231602,8.4801632944,4.0546378957,1095
97245,223072,237640,1.8795621523000001,8.3557365192,4.0127635002,1096
96946,223046,237651,1.9692929998,8.427521197199999,4.1060835816,1097
96893,222998,237602,1.9214365478,8.5627156741,4.1862431387,1098
96819,222865,237627,1.7850456596,8.5651084967,4.0893338234,1099
96689,222910,237581,1.7718851352999998,8.3964145034,4.0486558392,1100
96721,222939,237581,1.9453647738,8.5340018029,3.9888352742,1101
96698,222973,237572,1.9010975557,8.5112699882,4.091726646,1102
96703,222940,237512,1.7970097726,8.5447695046,4.0247276132000005,1103
96726,222873,237523,1.8293128776999998,8.5734833758,4.1192441059,1104
96712,222897,237510,1.7168502155,8.4777704718,4.0606199522,1105
96812,222945,237495,1.8209379986,8.4562350684,4.007977855,1106
96764,222902,237532,1.8400805794,8.5028951091,4.0175491454,1107
96889,222875,237493,1.8257236438,8.475377649199999,4.0247276132000005,1108
96952,222908,237548,1.7874384822,8.5495551498,4.0462630166,1109
97053,222936,237506,1.7862420709,8.4861453509,4.079762533,1110
97025,222937,237545,1.7216358607,8.4622171249,4.0031922098,1111
97160,222893,237535,1.9334006607999998,8.525626923799999,4.0474594279,1112
97322,222976,237573,1.8652052167000002,8.4681991814,4.0785661217,1113
97411,222998,237512,1.8795621523000001,8.4777704718,4.097708702499999,1114
97419,223002,237576,1.7682959014000001,8.6225362391,4.0486558392,1115
97512,223043,237564,1.7778671918,8.4394853102,4.0809589443,1116
97619,223060,237624,1.7730815466,8.352147285300001,4.1216369285,1117
97656,223095,237593,1.8257236438,8.538787448099999,3.9445680561,1118
97723,223047,237637,1.8436698133,8.5076807543,4.007977855,1119
97792,223050,237669,1.7144573929,8.3425759949,3.9864424516000003,1120
97698,223056,237636,1.7001004573,8.506484343,4.0414773714,1121
97546,223096,237605,1.8819549749,8.6524465216,3.9888352742,1122
97347,223013,237612,1.7635102562,8.49452023,4.043870194,1123
97136,223026,237583,1.9669001771999999,8.4993058752,4.1503507997,1124
97113,223025,237602,1.8675980393,8.422735552,4.055834307,1125
97019,222991,237593,1.8711872732,8.4957166413,4.1144584607,1126
96785,223047,237590,1.866401628,8.4813597057,4.0881374121,1127
96980,223034,237583,1.7180466268,8.391628858199999,4.064209186099999,1128
96902,223040,237560,1.9250257817,8.5028951091,4.103690759,1129
97079,222998,237601,1.9441683625,8.4514494232,4.0366917262,1130
97020,223067,237595,1.8963119105000001,8.5950187792,4.1120656381,1131
97095,223089,237563,2.0207386857,8.459824302300001,4.146761565799999,1132
97172,223086,237668,1.806581063,8.5016986978,4.0402809601,1133
97266,223160,237639,1.8628123941,8.463413536200001,4.1108692268,1134
97329,223151,237607,1.8831513862,8.463413536200001,4.0510486617999995,1135
97440,223155,237649,1.770688724,8.475377649199999,4.1324046302,1136
97390,223196,237668,1.8400805794,8.4729848266,4.1001015251,1137
97498,223179,237678,1.8987047331,8.6189470052,4.1778682596,1138
97542,223177,237674,1.8556339263000001,8.3581293418,3.9505501125999998,1139
97675,223258,237703,1.8329021116,8.3796647452,4.1060835816,1140
97683,223291,237695,1.9513468303000001,8.4442709554,4.2077785421,1141
97873,223265,237749,1.9106688461,8.3820575678,3.9984065645999998,1142
97831,223307,237704,1.8029918290999998,8.530412569000001,4.079762533,1143
97896,223329,237735,1.9920248145,8.4035929712,4.1060835816,1144
98116,223357,237730,1.9393827173,8.4215391407,4.1060835816,1145
98067,223368,237750,1.6881363443,8.5722869645,4.126422573699999,1146
98039,223369,237754,1.782652837,8.404789382499999,4.0869410008000004,1147
98001,223318,237691,1.8460626359,8.3844503904,4.0725840652,1148
97666,223321,237723,1.8831513862,8.4131642616,4.0821553556,1149
97409,223293,237704,1.9322042495,8.3928252695,4.113262049399999,1150
97317,223298,237672,1.7635102562,8.4681991814,4.019941968,1151
97198,223288,237675,1.8161523534,8.3808611565,4.1838503161,1152
97057,223296,237689,1.8723836845000001,8.4131642616,4.1647077353,1153
97165,223365,237694,1.7922241274,8.4981094639,4.1288153963,1154
97062,223338,237668,1.8628123941,8.5363946255,4.127618985,1155
97131,223375,237686,1.8472590472,8.4430745441,4.1563328562,1156
97179,223313,237694,1.8987047331,8.4155570842,4.18743955,1157
97244,223352,237711,1.8879370314,8.5124663995,4.2053857195,1158
97287,223349,237680,1.7623138449,8.4418781328,4.1336010414999995,1159
97259,223415,237707,1.8436698133,8.3844503904,4.1108692268,1160
97397,223418,237687,1.8687944506,8.3365939384,4.2149570099,1161
97449,223471,237685,1.9130616687,8.5340018029,4.151547211,1162
97521,223486,237732,2.0315063874,8.4741812379,4.1108692268,1163
97604,223501,237723,1.8795621523000001,8.471788415299999,4.1491543884,1164
97605,223468,237751,1.8448662246,8.4610207136,4.1790646709,1165
97684,223572,237765,1.7443676754000002,8.3437724062,4.1539400336,1166
97760,223555,237776,1.8520446924,8.4143606729,4.1419759206,1167
97967,223573,237774,1.8723836845000001,8.5340018029,4.1910287839,1168
97910,223664,237809,1.8783657409999999,8.3856468017,4.1742790257,1169
98063,223629,237792,1.7623138449,8.386843213,4.2041893082,1170
98099,223648,237805,1.91425808,8.506484343,4.2508493489,1171
98290,223671,237809,1.8340985228999998,8.360522164399999,4.0965122912,1172
98239,223690,237833,1.9357934834,8.3677006322,4.127618985,1173
98244,223656,237795,1.7970097726,8.3964145034,4.1718862031,1174
98091,223644,237791,1.8245272325,8.3413795836,4.2245283003,1175
97880,223611,237732,1.8927226765999998,8.3677006322,4.2652062845000005,1176
97684,223612,237742,2.0410776778,8.360522164399999,4.0941194686,1177
97581,223549,237704,1.8675980393,8.4478601893,4.1312082188999995,1178
97393,223534,237717,1.8855442087999998,8.5328053916,4.1060835816,1179
97293,223524,237693,1.8400805794,8.3964145034,4.0773697104,1180
97336,223538,237700,1.8233308212,8.49452023,4.1300118076,1181
97277,223554,237679,1.8616159827999998,8.252845147399999,4.0630127748,1182
97361,223505,237678,1.8388841681,8.4538422458,4.113262049399999,1183
97344,223497,237633,1.818545176,8.4335032537,4.1443687432,1184
97386,223574,237661,1.8233308212,8.450253011900001,4.0067814437,1185
97354,223530,237633,1.9178473139,8.4478601893,4.0606199522,1186
97495,223424,237641,2.0111673952999998,8.4993058752,3.9984065645999998,1187
97485,223502,237611,1.8041882404,8.3964145034,4.043870194,1188
97580,223496,237677,1.8568303376,8.4514494232,4.079762533,1189
97508,223511,237617,1.9501504189999999,8.5483587385,4.055834307,1190
97657,223508,237646,1.8472590472,8.4789668831,4.1671005579,1191
97685,223502,237624,1.8340985228999998,8.4693955927,4.0893338234,1192
97860,223530,237639,1.7766707805,8.5316089803,4.0247276132000005,1193
97853,223537,237636,1.9118652574,8.4299140198,4.0390845488,1194
97995,223545,237633,1.8257236438,8.5471623272,4.1970108404,1195
97934,223453,237639,1.6965112234000002,8.5459659159,4.0989051138,1196
98075,223522,237644,1.8687944506,8.3940216808,4.1120656381,1197
98128,223567,237634,1.9609181207,8.5603228515,4.019941968,1198
98173,223582,237599,1.9441683625,8.4215391407,4.0462630166,1199
98275,223532,237605,1.7563317884,8.4981094639,4.0271204358,1200
98190,223497,237594,1.8592231602,8.4538422458,3.9732819273,1201
97960,223485,237619,1.8520446924,8.538787448099999,4.0462630166,1202
97768,223488,237572,1.938186306,8.4562350684,3.9278182979,1203
97642,223422,237539,1.9645073545999998,8.3796647452,3.9409788222,1204
97459,223443,237529,1.9716858223999998,8.4000037373,4.0486558392,1205
97439,223301,237559,1.7635102562,8.484948939599999,3.9936209194,1206
97320,223363,237540,1.8161523534,8.458627890999999,4.0486558392,1207
97318,223401,237521,1.8352949342,8.5651084967,4.0594235409,1208
97339,223408,237520,1.7647066674999998,8.516055633399999,4.1958144290999995,1209
97375,223466,237480,1.6450655375,8.551947972399999,4.1383866867,1210
97338,223424,237474,1.8568303376,8.4574314797,4.0055850324,1211
97384,223376,237501,1.7754743692000001,8.4131642616,4.0606199522,1212
97451,223440,237525,1.8017954178,8.3796647452,4.0749768878,1213
97475,223462,237568,1.8005990065,8.5112699882,3.9936209194,1214
97496,223478,237529,1.8987047331,8.3928252695,4.0342989036,1215
97559,223508,237501,1.9250257817,8.3772719226,4.0821553556,1216
97741,223471,237563,1.8257236438,8.459824302300001,4.055834307,1217
97717,223481,237615,1.7264215058999999,8.3940216808,4.1623149127,1218
97884,223578,237594,1.8915262653,8.6177505939,4.0725840652,1219
97985,223613,237604,1.7922241274,8.4957166413,4.0498522505,1220
98107,223593,237582,1.7491533206,8.4155570842,4.1168512833,1221
98111,223646,237617,1.8687944506,8.4526458345,4.1060835816,1222
98112,223659,237638,1.7240286833,8.4801632944,4.0821553556,1223
98293,223651,237610,1.7515461432000001,8.482556117,4.0701912426,1224
98315,223698,237665,1.8735800958,8.3796647452,4.055834307,1225
98235,223706,237639,1.8987047331,8.417949906799999,4.0953158799,1226
97990,223652,237609,1.7970097726,8.4897345848,4.0223347905999995,1227
97747,223606,237573,1.9010975557,8.4323068424,4.1012979364,1228
97535,223576,237629,1.7982061838999999,8.4514494232,4.115654872,1229
97345,223593,237559,1.8376877568,8.470592004,4.0821553556,1230
97260,223597,237516,2.0015961049,8.5148592221,4.127618985,1231
97270,223529,237557,1.7994025952000001,8.4526458345,4.1671005579,1232
97119,223616,237575,1.734796385,8.3210405915,4.1718862031,1233
97214,223570,237576,1.8448662246,8.3928252695,4.1084764042,1234
97195,223587,237584,1.8113667082,8.3533436966,4.0606199522,1235
97221,223612,237598,1.7682959014000001,8.4969130526,4.1371902754,1236
97232,223612,237598,1.8388841681,8.4538422458,4.1180476945999995,1237
97193,223598,237603,1.79461695,8.434699665,4.1575292675,1238
97286,223628,237628,1.7874384822,8.3772719226,3.9900316855,1239
97411,223627,237578,1.9334006607999998,8.471788415299999,4.151547211,1240
97335,223660,237604,1.7922241274,8.4083786164,4.1838503161,1241
97561,223706,237624,1.7623138449,8.4670027701,4.199403663,1242
97582,223686,237644,1.8831513862,8.4131642616,4.103690759,1243
97595,223739,237654,1.818545176,8.4693955927,4.139583098,1244
97801,223749,237637,1.9154544913,8.4897345848,4.139583098,1245
97742,223736,237673,1.7910277161,8.459824302300001,4.1730826144,1246
97810,223764,237648,1.8759729184,8.4681991814,4.1443687432,1247
98045,223739,237723,1.7084753364,8.422735552,4.2747775749,1248
98114,223806,237694,1.9058832009,8.636893174699999,4.1204405172000005,1249
98060,223839,237691,1.8652052167000002,8.4909309961,4.1060835816,1250
98138,223792,237682,1.8508482811000002,8.5639120854,4.1694933805000005,1251
98218,223793,237726,1.9070796122,8.4299140198,4.0989051138,1252
98007,223780,237710,1.806581063,8.4251283746,4.1659041466,1253
97794,223760,237654,1.7072789251,8.4526458345,4.1599220901,1254
97471,223714,237671,1.8197415872999998,8.5124663995,4.055834307,1255
97356,223694,237647,1.8400805794,8.4574314797,4.0893338234,1256
97054,223702,237629,1.7383856189,8.4681991814,4.1216369285,1257
96974,223643,237584,1.8975083218,8.3796647452,4.146761565799999,1258
96977,223639,237634,1.9274186043000001,8.3461652288,4.1898323726,1259
97111,223676,237623,1.8077774743,8.529216157699999,4.2017964856,1260
97010,223636,237603,1.8137595308,8.4478601893,4.1252261624,1261
97146,223668,237580,1.9441683625,8.315058535,4.2269211229,1262
97101,223666,237634,1.7491533206,8.4299140198,4.2675991071,1263
97019,223677,237600,1.8089738856,8.4777704718,4.199403663,1264
97247,223689,237601,1.8999011444,8.5316089803,4.2436708811,1265
97239,223749,237664,1.9226329591,8.4646099475,4.1371902754,1266
97420,223702,237596,1.8855442087999998,8.4957166413,4.1742790257,1267
97279,223698,237614,1.8783657409999999,8.293523131599999,4.0725840652,1268
97408,223726,237571,1.8604195715,8.3533436966,4.1826539048,1269
97475,223716,237676,1.9202401365000001,8.4370924876,4.1108692268,1270
97734,223749,237632,1.9166509025999998,8.4299140198,4.2077785421,1271
97779,223761,237607,1.9776678789,8.4670027701,4.1862431387,1272
97722,223781,237623,1.842473402,8.4012001486,4.146761565799999,1273
97873,223769,237685,1.8975083218,8.5196448673,4.1826539048,1274
97825,223756,237668,1.8317057003,8.4765740605,4.1300118076,1275
98023,223758,237649,1.8233308212,8.3700934548,4.0953158799,1276
98079,223801,237641,1.7742779578999999,8.3306118819,4.1431723319,1277
98267,223842,237678,1.9082760235,8.5316089803,4.223331889,1278
98132,223751,237701,1.8879370314,8.3210405915,4.1252261624,1279
97845,223729,237648,1.7958133612999998,8.4299140198,4.0654055974,1280
97671,223662,237605,1.7120645703,8.3246298254,4.0414773714,1281
97509,223641,237539,1.9561324755,8.3665042209,4.1204405172000005,1282
97387,223599,237551,1.770688724,8.516055633399999,4.0845481781999995,1283
97276,223610,237526,1.8376877568,8.419146318100001,4.1419759206,1284
97059,223612,237531,1.7754743692000001,8.3246298254,4.163511324,1285
97080,223569,237508,2.0075781614,8.4131642616,4.2077785421,1286
97059,223581,237515,1.8352949342,8.4873417622,4.06779842,1287
97185,223533,237519,1.8329021116,8.4777704718,4.1383866867,1288
97106,223555,237488,1.938186306,8.4418781328,4.0055850324,1289
97198,223605,237470,1.9130616687,8.4741812379,4.0354953148999995,1290
97169,223563,237492,1.8005990065,8.4012001486,4.0893338234,1291
97166,223532,237453,1.7563317884,8.5136628108,4.091726646,1292
97214,223558,237465,1.9357934834,8.3413795836,4.001995798499999,1293
97292,223487,237441,1.842473402,8.5316089803,4.0103706776,1294
97403,223492,237476,1.8496518698,8.6727855137,4.0773697104,1295
97434,223617,237489,1.7802600144,8.3808611565,4.1671005579,1296
97567,223553,237464,1.8783657409999999,8.4418781328,4.055834307,1297
97529,223558,237495,1.8197415872999998,8.484948939599999,4.0378881375,1298
97635,223572,237463,1.8173487647,8.4693955927,4.1886359613,1299
97731,223530,237499,1.7503497318999999,8.3353975271,3.9218362414,1300
97858,223501,237497,1.8305092889999999,8.4394853102,3.9852460403000003,1301
97900,223580,237497,1.7419748528,8.4430745441,4.1012979364,1302
98042,223594,237568,1.8472590472,8.3330047045,4.0103706776,1303
98041,223593,237536,1.8508482811000002,8.4610207136,4.0869410008000004,1304
97943,223593,237508,1.8975083218,8.516055633399999,4.1503507997,1305
97752,223534,237491,1.8125631194999998,8.4083786164,4.0689948312999995,1306
97530,223507,237461,1.9262221929999999,8.4969130526,4.06779842,1307
97285,223464,237472,1.8293128776999998,8.422735552,4.031906081,1308
97217,223561,237433,1.8029918290999998,8.4550386571,4.0570307183,1309
97134,223501,237472,1.8053846516999998,8.6356967634,4.0785661217,1310
97028,223535,237376,1.8209379986,8.5411802707,4.1312082188999995,1311
97112,223556,237452,1.9082760235,8.405985793800001,4.0833517669,1312
97170,223551,237446,1.7910277161,8.5220376899,4.1048871703,1313
97115,223524,237448,1.8257236438,8.3724862774,3.9864424516000003,1314
97158,223524,237466,1.9130616687,8.543573093300001,4.0773697104,1315
97225,223535,237495,1.8759729184,8.4538422458,4.1312082188999995,1316
97267,223485,237516,1.8209379986,8.4789668831,4.1359938641000005,1317
97328,223544,237485,1.8113667082,8.3485580514,4.113262049399999,1318
97347,223542,237484,1.8999011444,8.4239319633,4.1072799929,1319
97429,223578,237489,1.7156538042,8.5076807543,4.1611185014,1320
97563,223641,237511,1.7898313048,8.4741812379,4.043870194,1321
97681,223679,237501,1.9585252981,8.5040915204,4.0055850324,1322
97678,223636,237508,1.9860427579999997,8.529216157699999,4.1252261624,1323
97784,223699,237583,1.8412769907000002,8.4131642616,4.1012979364,1324
97833,223696,237546,1.8783657409999999,8.3844503904,4.2221354777,1325
97983,223671,237534,1.9010975557,8.4095750277,4.1563328562,1326
97953,223743,237572,1.9776678789,8.427521197199999,4.1252261624,1327
98077,223723,237572,1.8652052167000002,8.4837525283,4.1204405172000005,1328
98203,223748,237639,1.9465611851,8.4861453509,4.1730826144,1329
98173,223752,237611,1.7001004573,8.4574314797,4.1862431387,1330
97977,223683,237572,1.7850456596,8.391628858199999,4.1168512833,1331
97592,223726,237525,1.8017954178,8.391628858199999,4.2017964856,1332
97519,223528,237492,1.8089738856,8.2959159542,4.1192441059,1333
97222,223559,237517,1.8448662246,8.3880396243,4.2460637037,1334
97217,223599,237467,1.7970097726,8.434699665,4.2125641873,1335
97134,223589,237531,1.9549360641999998,8.4430745441,4.0965122912,1336
96983,223581,237434,1.758724611,8.5148592221,4.2388852359,1337
96994,223576,237441,1.7766707805,8.445467366699999,4.139583098,1338
97098,223615,237483,1.8412769907000002,8.4418781328,4.208974953399999,1339
97060,223602,237454,1.8915262653,8.4394853102,4.1324046302,1340
97128,223630,237480,1.9118652574,8.4203427294,4.0498522505,1341
97198,223655,237485,1.8592231602,8.4251283746,4.2221354777,1342
97133,223636,237458,1.9034903783000001,8.291130309,4.1659041466,1343
97283,223616,237521,1.7694923127,8.3210405915,4.1886359613,1344
97283,223653,237515,1.818545176,8.350950873999999,4.1300118076,1345
97401,223675,237544,1.8855442087999998,8.2636128491,4.1240297511,1346
97570,223675,237515,1.9034903783000001,8.4538422458,4.1826539048,1347
97540,223658,237514,1.8113667082,8.4490566006,4.1647077353,1348
97677,223673,237526,1.9357934834,8.4299140198,4.2281175342,1349
97674,223774,237538,1.7982061838999999,8.4012001486,4.2125641873,1350
97768,223735,237576,1.8687944506,8.4323068424,4.2125641873,1351
97868,223739,237541,1.782652837,8.4167534955,4.1898323726,1352
97897,223716,237601,1.8711872732,8.3234334141,4.2161534212,1353
98054,223752,237565,1.9094724347999998,8.422735552,4.1419759206,1354
98032,223773,237556,1.8484554585000001,8.3677006322,4.151547211,1355
98046,223786,237480,1.8041882404,8.4000037373,4.1886359613,1356
97992,223732,237565,1.9800607015,8.2779697847,4.113262049399999,1357
97736,223652,237495,1.8652052167000002,8.360522164399999,4.2041893082,1358
97395,223613,237500,1.8891334427000002,8.303094422,4.0989051138,1359
97239,223572,237456,1.8173487647,8.4873417622,4.1563328562,1360
97083,223580,237448,1.7060825138000002,8.4681991814,4.0941194686,1361
96876,223628,237410,1.8089738856,8.405985793800001,4.1946180178,1362
96922,223588,237423,1.8807585636,8.4071822051,4.1060835816,1363
96925,223554,237407,1.8711872732,8.4131642616,4.113262049399999,1364
96926,223555,237458,1.8807585636,8.4335032537,4.103690759,1365
97006,223523,237366,1.8843477975,8.3485580514,4.0869410008000004,1366
96845,223511,237373,1.7276179172000001,8.4203427294,4.2269211229,1367
96950,223492,237383,1.9058832009,8.5005022865,4.0821553556,1368
96897,223455,237431,1.8077774743,8.398807326,4.0354953148999995,1369
96972,223494,237394,1.8460626359,8.4693955927,4.1060835816,1370
97005,223523,237411,1.9202401365000001,8.3306118819,4.1228333398,1371
97127,223558,237380,1.8544375149999999,8.4550386571,4.1778682596,1372
97108,223521,237387,1.8125631194999998,8.3844503904,4.031906081,1373
97288,223512,237430,1.7132609816000002,8.445467366699999,4.115654872,1374
97299,223455,237423,1.9046867896,8.5220376899,4.1144584607,1375
97425,223529,237417,1.9322042495,8.405985793800001,4.0725840652,1376
97433,223587,237432,1.9226329591,8.398807326,4.079762533,1377
97526,223562,237422,1.9477575963999998,8.4323068424,4.1288153963,1378
97604,223545,237413,1.7659030788,8.5028951091,4.0989051138,1379
97632,223553,237377,1.9010975557,8.3760755113,4.055834307,1380
97816,223532,237426,1.8999011444,8.4562350684,4.1587256788,1381
97707,223484,237389,1.7551353771,8.4311104311,4.1024943476999995,1382
97526,223460,237388,1.8484554585000001,8.417949906799999,4.0701912426,1383
97263,223408,237341,1.9824535241,8.3545401079,3.9720855159999995,1384
97019,223394,237296,1.8329021116,8.4442709554,4.0534414844,1385
96905,223362,237280,1.7730815466,8.5579300289,4.1001015251,1386
96758,223372,237316,1.8735800958,8.4741812379,4.0941194686,1387
96657,223341,237295,1.9262221929999999,8.4861453509,4.0582271296000005,1388
96735,223300,237259,1.7144573929,8.4981094639,4.0175491454,1389
96738,223308,237250,1.9800607015,8.4909309961,4.1084764042,1390
96748,223371,237269,1.8580267489000002,8.4897345848,4.1096728155,1391
96789,223364,237300,1.8257236438,8.5220376899,4.0091742663,1392
96715,223344,237267,1.866401628,8.482556117,4.0821553556,1393
96804,223308,237248,1.8915262653,8.4741812379,4.1443687432,1394
96889,223331,237307,1.9226329591,8.5459659159,4.1336010414999995,1395
96964,223348,237306,1.9992032822999999,8.4562350684,3.9876388629,1396
96804,223343,237341,1.7670994901,8.543573093300001,4.097708702499999,1397
97006,223390,237310,1.8616159827999998,8.398807326,4.1838503161,1398
97196,223424,237328,1.8149559420999999,8.3748791,4.1587256788,1399
97050,223404,237351,1.7790636031,8.5268233351,4.0486558392,1400
97186,223432,237346,1.8113667082,8.5794654323,4.0953158799,1401
97307,223468,237386,1.8735800958,8.5340018029,4.0821553556,1402
97378,223524,237385,1.8759729184,8.4358960763,4.091726646,1403
97382,223504,237371,1.866401628,8.4693955927,4.06779842,1404
97669,223485,237381,1.9322042495,8.4155570842,4.1431723319,1405
97503,223526,237389,1.8281164664,8.6333039408,4.0761732991,1406
97539,223495,237400,1.8939190879,8.350950873999999,4.1431723319,1407
97328,223394,237382,1.8628123941,8.3425759949,4.0773697104,1408
97066,223375,237345,1.8125631194999998,8.3820575678,4.0965122912,1409
96791,223364,237287,1.7443676754000002,8.4131642616,4.1012979364,1410
96655,223362,237304,1.8783657409999999,8.4490566006,4.0606199522,1411
96600,223367,237312,1.8137595308,8.3964145034,4.0845481781999995,1412
96426,223361,237311,1.7670994901,8.4035929712,4.1300118076,1413
96482,223327,237320,1.7156538042,8.4741812379,4.1084764042,1414
96469,223333,237344,1.8089738856,8.3892360356,4.1300118076,1415
96623,223352,237333,1.8245272325,8.3964145034,4.1587256788,1416
96422,223362,237327,1.8496518698,8.5507515611,4.1958144290999995,1417
96577,223376,237319,1.9214365478,8.4813597057,4.1551364449,1418
96557,223373,237355,1.7838492483,8.3772719226,4.1814574935,1419
96558,223341,237353,1.8795621523000001,8.3940216808,4.2388852359,1420
96780,223377,237315,1.7168502155,8.4083786164,4.2388852359,1421
96838,223420,237400,1.8783657409999999,8.3964145034,4.1443687432,1422
96965,223335,237413,1.8843477975,8.463413536200001,4.1431723319,1423
97038,223405,237374,1.7551353771,8.450253011900001,4.2317067681000005,1424
97040,223369,237391,1.7611174336,8.3856468017,4.151547211,1425
97256,223423,237432,1.8831513862,8.4155570842,4.1647077353,1426
97279,223460,237427,1.7371892076000002,8.3892360356,4.2017964856,1427
97344,223520,237439,1.8508482811000002,8.417949906799999,4.1551364449,1428
97422,223548,237435,1.8939190879,8.3246298254,4.2017964856,1429
97442,223452,237490,1.8137595308,8.4622171249,4.2161534212,1430
97548,223535,237486,1.8472590472,8.2767733734,4.1300118076,1431
97496,223474,237418,1.8999011444,8.4131642616,4.2161534212,1432
97261,223410,237380,1.8257236438,8.3485580514,4.1886359613,1433
96956,223394,237410,1.8329021116,8.3832539791,4.1718862031,1434
96782,223354,237437,1.9597217094,8.574679787100001,4.2125641873,1435
96571,223254,237347,1.9106688461,8.3856468017,4.1778682596,1436
96506,223334,237383,1.7563317884,8.419146318100001,4.2400816472,1437
96427,223325,237358,1.8592231602,8.3557365192,4.2508493489,1438
96398,223293,237313,1.8795621523000001,8.517252044700001,4.1970108404,1439
96459,223378,237382,1.782652837,8.3545401079,4.235296002,1440
96444,223370,237372,1.9609181207,8.4370924876,4.2125641873,1441
96483,223341,237337,1.8317057003,8.5148592221,4.2687955184,1442
96485,223381,237399,1.8137595308,8.5076807543,4.2496529376,1443
96607,223312,237416,1.8029918290999998,8.419146318100001,4.2795632201,1444
96688,223375,237424,1.8915262653,8.4370924876,4.2400816472,1445
96784,223382,237390,1.7527425545,8.4981094639,4.1766718483,1446
96798,223397,237390,1.7515461432000001,8.4610207136,4.1300118076,1447
96871,223399,237397,1.9752750562999999,8.484948939599999,4.1730826144,1448
96957,223369,237415,1.8855442087999998,8.3844503904,4.2161534212,1449
97012,223411,237419,1.7635102562,8.3784683339,4.1730826144,1450
97152,223382,237407,1.8329021116,8.2588272039,4.1563328562,1451
97216,223398,237376,1.8963119105000001,8.3557365192,4.1647077353,1452
97212,223370,237403,1.7551353771,8.417949906799999,4.127618985,1453
97418,223420,237403,1.8759729184,8.3724862774,4.2556349941,1454
97416,223360,237430,1.8783657409999999,8.3581293418,4.2017964856,1455
97594,223353,237385,1.8759729184,8.427521197199999,4.1790646709,1456
97510,223348,237400,1.8376877568,8.4681991814,4.0534414844,1457
97594,223339,237377,2.0027925162,8.3533436966,4.1443687432,1458
97407,223267,237385,1.7300107398,8.410771439,4.115654872,1459
97084,223279,237345,1.9178473139,8.3760755113,4.1491543884,1460
96841,223214,237336,1.8317057003,8.3353975271,4.1563328562,1461
96814,223190,237285,1.79461695,8.4658063588,4.1228333398,1462
96606,223155,237287,1.9058832009,8.4670027701,4.2149570099,1463
96534,223186,237226,1.8209379986,8.3007015994,4.1587256788,1464
96631,223165,237274,1.8329021116,8.5028951091,4.1336010414999995,1465
96668,223078,237197,1.938186306,8.3940216808,4.0510486617999995,1466
96646,223121,237274,1.8209379986,8.4670027701,4.1982072517,1467
96793,223064,237225,1.9082760235,8.516055633399999,4.2281175342,1468
96733,223137,237293,1.8448662246,8.398807326,4.0606199522,1469
96791,223106,237280,1.9046867896,8.3330047045,4.0869410008000004,1470
96920,223139,237241,1.9740786449999999,8.4299140198,4.0450666053,1471
96867,223168,237290,1.79461695,8.3748791,4.06779842,1472
96980,223161,237281,1.7635102562,8.525626923799999,4.0941194686,1473
97022,223152,237269,1.8711872732,8.4777704718,4.0821553556,1474
97134,223230,237294,1.9776678789,8.5471623272,4.030709669699999,1475
97217,223226,237299,1.7970097726,8.445467366699999,4.1671005579,1476
97313,223248,237328,1.8257236438,8.4418781328,4.1766718483,1477
97450,223222,237365,1.8604195715,8.5040915204,4.1742790257,1478
97561,223141,237337,1.8735800958,8.4478601893,4.1718862031,1479
97580,223213,237315,1.8711872732,8.315058535,4.1312082188999995,1480
97650,223273,237400,1.9465611851,8.4442709554,4.1766718483,1481
97785,223288,237379,1.7527425545,8.5208412786,4.1623149127,1482
97844,223268,237390,2.0015961049,8.405985793800001,4.1766718483,1483
97737,223233,237377,1.8173487647,8.4155570842,4.2939201557,1484
97390,223267,237341,1.782652837,8.2971123655,4.1300118076,1485
97323,223164,237312,1.806581063,8.4813597057,4.0773697104,1486
97115,223174,237326,1.9214365478,8.3042908333,4.0175491454,1487
96947,223180,237272,1.8496518698,8.4526458345,4.1778682596,1488
96972,223101,237250,1.782652837,8.386843213,4.1443687432,1489
96905,223185,237274,1.8340985228999998,8.5136628108,4.2101713647,1490
96945,223160,237268,1.770688724,8.405985793800001,4.1204405172000005,1491
97067,223212,237290,1.8089738856,8.3246298254,4.1934216065,1492
97038,223191,237341,1.8843477975,8.4430745441,4.097708702499999,1493
97057,223177,237305,1.8831513862,8.4251283746,4.1850467274,1494
97123,223192,237361,1.7994025952000001,8.4323068424,4.1910287839,1495
97247,223218,237331,1.8041882404,8.4861453509,4.0534414844,1496
97234,223257,237360,1.8604195715,8.4251283746,4.1443687432,1497
97296,223261,237361,1.8735800958,8.4693955927,4.031906081,1498
97334,223334,237346,1.7910277161,8.3677006322,4.06779842,1499
97520,223269,237366,1.6965112234000002,8.5028951091,4.1001015251,1500
97526,223283,237407,1.9238293703999998,8.3485580514,4.1898323726,1501
97604,223297,237430,1.9609181207,8.303094422,4.1682969692,1502
97773,223335,237406,1.8305092889999999,8.360522164399999,4.139583098,1503
97804,223390,237432,1.842473402,8.3964145034,4.2568314054,1504
97828,223410,237444,1.8675980393,8.350950873999999,4.1228333398,1505
98067,223421,237446,1.7970097726,8.434699665,4.2221354777,1506
98067,223389,237477,1.8592231602,8.3700934548,4.2041893082,1507
98191,223455,237466,1.9154544913,8.4394853102,4.2556349941,1508
98183,223422,237481,1.8604195715,8.398807326,4.115654872,1509
98146,223346,237443,1.7575281996999998,8.417949906799999,4.2257247116,1510
97936,223334,237468,1.8867406201,8.315058535,4.1060835816,1511
97512,223311,237425,1.7874384822,8.373682688699999,4.2771703975,1512
97553,223273,237365,1.8257236438,8.4251283746,4.1168512833,1513
97187,223267,237362,1.818545176,8.2839518412,4.2305103568,1514
97209,223269,237341,1.9214365478,8.4263247859,4.1300118076,1515
97036,223235,237357,1.8460626359,8.3617185757,4.242474469799999,1516
97110,223230,237364,1.8640088054,8.5651084967,4.18743955,1517
97121,223280,237375,1.9226329591,8.3653078096,4.2604206393,1518
