green,red,IR,acc_x,acc_y,acc_z,sample_index
88277,161043,216686,-0.5371886737,-9.056833541,3.6658042232,1
88228,160990,216674,-0.5814558918,-9.041280194099999,3.7028929734999996,2
88389,161086,216701,-0.6532405698,-9.0939222913,3.7387853125,3
88623,161136,216734,-0.6173482308,-9.0723868879,3.601198013,4
88793,161137,216767,-0.6149554081999999,-9.0352981376,3.6191441825000004,5
89125,161180,216772,-0.5587240770999999,-9.1549392676,3.5545379723,6
89208,161141,216780,-0.6245266986,-9.1154576947,3.6107693033999997,7
89268,161173,216809,-0.5790630692000001,-8.9671026935,3.6610185779999997,8
89525,161192,216815,-0.7274180704000001,-9.1034935817,3.6418759972,9
89655,161236,216811,-0.5706881900999999,-9.0711904766,3.6634114006,10
89908,161281,216850,-0.6245266986,-8.9910309195,3.6909288605,11
90100,161298,216864,-0.7453642399,-9.1154576947,3.6885360378999996,12
90299,161331,216912,-0.5503491979999999,-9.0125663229,3.6466616424,13
90488,161227,216929,-0.7070790783,-9.1118684608,3.6107693033999997,14
90311,161333,216896,-0.4450650036,-9.041280194099999,3.6514472876,15
89757,161225,216834,-0.43429730190000004,-8.9599242257,3.732803256,16
89081,161141,216795,-0.5802594805,-9.0245304359,3.684946804,17
88631,161111,216767,-0.5108676251000001,-8.9718883387,3.6658042232,18
88351,161079,216777,-0.6891329087999999,-9.0580299523,3.6059836581999996,19
88369,161116,216746,-0.6089733517,-9.0723868879,3.5641092626999997,20
88506,161122,216829,-0.6053841178,-8.9814596291,3.6885360378999996,21
88716,161174,216851,-0.7944171031999999,-9.0747797105,3.5796626096,22
89055,161204,216843,-0.6364908116,-8.9575314031,3.6179477712,23
89293,161223,216865,-0.7118647235000001,-8.9814596291,3.5856446661000003,24
89438,161243,216890,-0.7094719009,-9.050851484499999,3.6610185779999997,25
89707,161274,216921,-0.5395814963,-9.0341017263,3.7603207159,26
89818,161286,216929,-0.6664010940999999,-9.0771725331,3.6909288605,27
90085,161351,216949,-0.4570291166,-9.1836531388,3.684946804,28
90246,161374,217009,-0.5048855686,-8.931210354500001,3.6059836581999996,29
90475,161406,217039,-0.5276173833,-9.131011041599999,3.7196427317,30
90715,161426,217039,-0.6364908116,-9.080761767,3.7244283769,31
90927,161399,217082,-0.6317051664,-8.983852451699999,3.7411781350999997,32
90944,161432,217063,-0.6340979889999999,-9.1022971704,3.7722848289,33
90488,161391,217007,-0.6340979889999999,-9.1357966868,3.7579278933,34
89905,161316,216971,-0.5682953675,-9.010173500299999,3.6681970457999995,35
89431,161238,216947,-0.6352944003,-9.0496550732,3.7100714413,36
89173,161132,216890,-0.6532405698,-9.128618219,3.7292140221,37
89198,161261,216860,-0.5670989562,-8.9826560404,3.5988051904000002,38
89228,161252,216917,-0.7010970218,-8.9575314031,3.6729826909999996,39
89463,161293,216927,-0.7860422241,-9.064012008799999,3.6957145057000003,40
89739,161362,216942,-0.6305087550999999,-9.068797654,3.684946804,41
89973,161273,216984,-0.4845465765,-9.09272588,3.7052857961,42
90113,161344,216983,-0.5970092387,-9.0125663229,3.5437702705999996,43
90348,161372,216989,-0.6687939167,-9.0053878551,3.7555350706999997,44
90478,161379,216994,-0.6197410534,-8.9802632178,3.6873396266,45
90632,161403,217023,-0.7573283529,-9.0185483794,3.7232319655999997,46
90794,161381,217029,-0.6771687957999999,-9.032905315,3.7387853125,47
90999,161444,217062,-0.693918554,-9.0664048314,3.7184463204,48
91186,161450,217086,-0.6867400861999999,-9.0903330574,3.7256247882,49
91363,161483,217085,-0.5371886737,-9.117850517299999,3.6777683362,50
91265,161439,217035,-0.5934200048,-9.008977089,3.6000016017000003,51
90751,161431,216995,-0.5515456093,-8.9778703952,3.6753755136,52
90122,161304,216910,-0.6855436748999999,-9.116654106,3.6813575701,53
89641,161250,216910,-0.5252245607,-9.0855474122,3.649054465,54
89367,161259,216880,-0.6125625856,-9.0029950325,3.6681970457999995,55
89270,161229,216905,-0.693918554,-8.9814596291,3.6885360378999996,56
89407,161225,216880,-0.5790630692000001,-9.042476605400001,3.6394831745999996,57
89630,161280,216910,-0.5790630692000001,-9.0125663229,3.5952159565,58
89854,161151,216915,-0.6173482308,-9.0699940653,3.6203405937999995,59
90056,161349,216946,-0.574277424,-8.9790668065,3.6634114006,60
90200,161345,216921,-0.6664010940999999,-9.056833541,3.6729826909999996,61
90295,161289,216947,-0.48933222169999996,-9.140582332,3.6837503927,62
90501,161340,216946,-0.6592226263,-9.0628155975,3.637090352,63
90633,161350,216969,-0.5802594805,-8.9120677737,3.7100714413,64
90722,161375,216974,-0.5587240770999999,-9.042476605400001,3.5593236175,65
91023,161424,217016,-0.6460621019999999,-8.9898345082,3.6514472876,66
91175,161385,217022,-0.7956135145,-9.0269232585,3.6634114006,67
91255,161405,217007,-0.6113661743,-9.081958178299999,3.6957145057000003,68
90968,161355,216948,-0.5276173833,-9.0149591455,3.6323047068,69
90291,161317,216887,-0.5228317381,-9.1298146303,3.6059836581999996,70
89648,161216,216816,-0.6891329087999999,-9.1190469286,3.7411781350999997,71
89172,161163,216798,-0.6329015777,-8.9359959997,3.6873396266,72
88923,161146,216804,-0.729810893,-8.9647098709,3.6681970457999995,73
88848,161121,216763,-0.6604190376,-9.0161555568,3.6885360378999996,74
89033,161185,216762,-0.6257231099,-9.131011041599999,3.6945180944,75
89143,161156,216809,-0.574277424,-9.0400837828,3.7028929734999996,76
89460,161232,216777,-0.5539384319,-9.0185483794,3.6729826909999996,77
89558,161218,216819,-0.7202396026000001,-9.0664048314,3.6083764808,78
89688,161193,216826,-0.6771687957999999,-9.140582332,3.6227334164,79
89791,161221,216800,-0.5814558918,-8.9802632178,3.6777683362,80
89866,161238,216853,-0.5886343596,-9.008977089,3.7591243046000002,81
90052,161261,216863,-0.5491527867,-9.0652084201,3.6801611588,82
90178,161319,216833,-0.7393821834000001,-8.998209387300001,3.6897324492,83
90308,161288,216849,-0.6412764568,-9.1262253964,3.613162126,84
90544,161322,216900,-0.7453642399,-8.9958165647,3.6634114006,85
90360,161274,216864,-0.6149554081999999,-9.0867438235,3.5916267225999996,86
89750,161180,216774,-0.5216353268,-9.0592263636,3.601198013,87
88873,161077,216735,-0.5575276658,-8.9898345082,3.6634114006,88
88278,161046,216650,-0.7812565789,-9.019744790699999,3.6107693033999997,89
87856,160990,216640,-0.4677968183,-9.0472622506,3.649054465,90
87715,160958,216613,-0.6556333924,-9.064012008799999,3.649054465,91
87757,160981,216635,-0.5431707302,-8.8845503138,3.6813575701,92
87970,161004,216651,-0.48933222169999996,-9.1393859207,3.6693934571,93
88225,161027,216663,-0.5096712138,-9.0759761218,3.6670006345,94
88444,161060,216706,-0.6364908116,-9.008977089,3.6538401101999995,95
88640,161015,216715,-0.5754738353000001,-8.9503529353,3.6275190616,96
88785,161067,216753,-0.6245266986,-9.0161555568,3.6885360378999996,97
88945,161141,216729,-0.5288137946,-9.0520478958,3.5988051904000002,98
89095,161119,216743,-0.5347958510999999,-9.0999043478,3.6442688197999997,99
89293,161158,216781,-0.6544369810999999,-9.038887371500001,3.6323047068,100
89466,161172,216787,-0.7345965382,-9.1034935817,3.5581272062,101
89689,161188,216834,-0.5623133109999999,-9.0759761218,3.6729826909999996,102
89813,161207,216817,-0.6975077879,-9.0735832992,3.6466616424,103
89546,161170,216766,-0.6053841178,-9.0233340246,3.6801611588,104
88812,161079,216727,-0.6245266986,-9.0305124924,3.6275190616,105
88107,161041,216654,-0.5527420206,-8.944370878800001,3.6251262389999996,106
87549,160967,216680,-0.6149554081999999,-9.068797654,3.6610185779999997,107
87244,160950,216667,-0.622133876,-8.961120637,3.6323047068,108
87339,160967,216653,-0.6173482308,-9.0735832992,3.6753755136,109
87508,160973,216638,-0.7525427077,-9.09272588,3.6502508763,110
87799,161020,216666,-0.7704888772,-8.901300072,3.6071800695,111
88094,161049,216732,-0.5347958510999999,-9.1142612834,3.6466616424,112
88356,161058,216758,-0.6484549246,-8.9096749511,3.7196427317,113
88556,161150,216780,-0.5252245607,-8.8845503138,3.6299118841999998,114
88727,161095,216782,-0.5970092387,-8.8558364426,3.5820554322,115
88880,161027,216807,-0.6987041992,-8.937192411,3.6801611588,116
89104,161144,216825,-0.5922235935,-9.055637129700001,3.613162126,117
89292,161180,216864,-0.5168496816,-8.998209387300001,3.6681970457999995,118
89550,161234,216879,-0.4582255279,-9.0281196698,3.6251262389999996,119
89713,161208,216900,-0.6209374647,-9.1836531388,3.7387853125,120
89930,161287,216941,-0.5659025448999999,-8.9718883387,3.6873396266,121
89700,161242,216897,-0.5156532703,-9.068797654,3.6586257553999997,122
89044,161171,216850,-0.382851616,-8.9898345082,3.6179477712,123
88380,161107,216805,-0.586241537,-9.0771725331,3.6335011181000003,124
87956,161062,216763,-0.6771687957999999,-9.037690960199999,3.6323047068,125
87775,161036,216751,-0.5706881900999999,-9.0520478958,3.5940195452,126
87801,161092,216771,-0.6532405698,-9.1130648721,3.637090352,127
87987,161086,216793,-0.514456859,-9.0173519681,3.5892339,128
88365,161166,216838,-0.7070790783,-9.178867493599999,3.6897324492,129
88646,161157,216813,-0.7130611348,-9.050851484499999,3.7363924898999996,130
88880,161210,216825,-0.5814558918,-8.9898345082,3.6765719249,131
89091,161164,216882,-0.4534398827,-9.1070828156,3.6358939407,132
89275,161149,216898,-0.5587240770999999,-8.8666041443,3.7639099498,133
89476,161255,216924,-0.6580262149999999,-9.1154576947,3.6873396266,134
89708,161296,216912,-0.5467599640999999,-9.1070828156,3.5856446661000003,135
89884,161357,216994,-0.7142575461,-9.010173500299999,3.6394831745999996,136
90063,161309,216999,-0.47736810869999996,-8.9766739839,3.5605200288,137
90401,161356,217005,-0.6185446421,-9.080761767,3.5892339,138
90548,161370,217012,-0.6867400861999999,-9.0783689444,3.6945180944,139
90626,161441,217058,-0.6592226263,-9.044869428,3.6562329328,140
90132,161330,216982,-0.4749752861,-9.0125663229,3.6059836581999996,141
89674,161265,216918,-0.6556333924,-8.9324067658,3.5437702705999996,142
89219,161287,216916,-0.4390829471,-9.1992064857,3.6837503927,143
88982,161189,216923,-0.5060819799,-9.019744790699999,3.6586257553999997,144
88989,161227,216923,-0.7322037156,-9.1357966868,3.6801611588,145
89116,161270,216942,-0.6987041992,-9.0520478958,3.637090352,146
89400,161299,217007,-0.6771687957999999,-9.042476605400001,3.7435709577,147
89626,161309,217004,-0.5670989562,-9.1070828156,3.5976087790999998,148
89968,161348,217015,-0.5180460929,-9.0999043478,3.6179477712,149
90194,161378,217071,-0.6329015777,-9.080761767,3.6107693033999997,150
90400,161356,217073,-0.574277424,-9.1609213241,3.553341561,151
90602,161431,217112,-0.538385085,-9.1322074529,3.6705898684,152
90807,161462,217076,-0.3565305674,-9.0341017263,3.6562329328,153
91040,161460,217142,-0.6867400861999999,-9.0831545896,3.6514472876,154
91280,161494,217193,-0.6257231099,-8.9276211206,3.7052857961,155
91486,161539,217177,-0.7573283529,-9.1118684608,3.6550365215,156
91619,161573,217234,-0.7477570625,-9.1728854371,3.6346975294,157
91894,161588,217220,-0.6161518195,-9.121439751199999,3.6538401101999995,158
91702,161593,217198,-0.5647061336,-8.9682991048,3.7651063610999995,159
91460,161564,217174,-0.5395814963,-9.0783689444,3.7172499091,160
91031,161465,217170,-0.5898307709,-9.0723868879,3.6299118841999998,161
90880,161451,217141,-0.5635097223,-8.9910309195,3.6921252718,162
90833,161434,217144,-0.6987041992,-9.152546445,3.6753755136,163
90930,161473,217186,-0.6400800455,-9.0245304359,3.7435709577,164
91140,161532,217171,-0.729810893,-9.104689993,3.6538401101999995,165
91332,161543,217194,-0.6269195211999999,-9.0257268472,3.6801611588,166
91520,161567,217217,-0.6628118601999999,-9.0664048314,3.649054465,167
91706,161584,217214,-0.6233302873,-8.952745757899999,3.6538401101999995,168
91870,161599,217214,-0.49292145559999995,-9.037690960199999,3.6275190616,169
92001,161585,217213,-0.6819544409999999,-8.9934237421,3.6586257553999997,170
92182,161604,217260,-0.6831508522999999,-9.0185483794,3.6969109170000003,171
92322,161672,217252,-0.6005984726,-8.9718883387,3.6275190616,172
92477,161672,217276,-0.6807580296999999,-9.0735832992,3.7005001509,173
92653,161673,217292,-0.6771687957999999,-9.0999043478,3.7399817238,174
92825,161673,217342,-0.6580262149999999,-9.1070828156,3.7016965622000004,175
92963,161721,217300,-0.6412764568,-9.080761767,3.6514472876,176
92902,161757,217297,-0.6831508522999999,-8.9635134596,3.6107693033999997,177
92607,161579,217273,-0.5826523031,-9.0041914438,3.6789647475,178
92294,161641,217220,-0.5276173833,-9.0221376133,3.6562329328,179
91991,161557,217198,-0.6807580296999999,-9.1142612834,3.6442688197999997,180
91860,161548,217208,-0.5922235935,-9.0281196698,3.6586257553999997,181
91771,161594,217238,-0.610169763,-9.0592263636,3.5473595045,182
91971,161587,217220,-0.4630111731,-9.041280194099999,3.7112678526000002,183
92143,161615,217262,-0.6017948839,-9.042476605400001,3.8273197486999995,184
92203,161629,217257,-0.6771687957999999,-9.0975115252,3.6897324492,185
92431,161666,217298,-0.6520441585,-8.9647098709,3.6323047068,186
92563,161665,217245,-0.6891329087999999,-9.1142612834,3.6191441825000004,187
92674,161665,217290,-0.6209374647,-9.019744790699999,3.7591243046000002,188
92826,161703,217292,-0.6640082715,-9.0664048314,3.6897324492,189
92886,161669,217258,-0.5814558918,-8.9048893059,3.6323047068,190
92943,161696,217312,-0.6580262149999999,-9.1692962032,3.6191441825000004,191
93193,161745,217324,-0.610169763,-8.885746725099999,3.6765719249,192
93286,161724,217296,-0.7393821834000001,-8.9156570076,3.7507494254999996,193
93374,161717,217309,-0.5455635528,-9.0221376133,3.7674991837,194
93179,161721,217298,-0.6053841178,-8.952745757899999,3.6861432153,195
92647,161657,217265,-0.5347958510999999,-9.0664048314,3.6586257553999997,196
92249,161627,217262,-0.7764709337,-9.0855474122,3.6550365215,197
91813,161570,217165,-0.526420972,-8.9718883387,3.6442688197999997,198
91502,161530,217151,-0.5754738353000001,-8.926424709299999,3.6634114006,199
91472,161585,217127,-0.5407779076,-9.1836531388,3.6251262389999996,200
91414,161558,217116,-0.6999006105000001,-9.0939222913,3.7088750299999997,201
91600,161557,217174,-0.7130611348,-9.006584266399999,3.7016965622000004,202
91748,161567,217164,-0.6053841178,-8.9467637014,3.7148570865,203
91845,161571,217173,-0.7405785947,-9.0233340246,3.5581272062,204
91921,161612,217180,-0.6699903279999999,-8.9539421692,3.6406795858999996,205
91980,161573,217089,-0.7142575461,-9.0472622506,3.6059836581999996,206
92062,161569,217100,-0.7214360139,-8.9503529353,3.7184463204,207
92132,161636,217198,-0.47377887479999997,-8.9826560404,3.6311082955,208
92158,161618,217175,-0.5575276658,-9.0472622506,3.6227334164,209
92343,161613,217165,-0.6628118601999999,-9.0795653557,3.7268211995,210
92459,161662,217187,-0.7788637562999999,-9.1357966868,3.5892339,211
92461,161659,217175,-0.6675975054,-8.8965144268,3.6059836581999996,212
92090,161581,217090,-0.5491527867,-8.8618184991,3.6538401101999995,213
91359,161523,217082,-0.6077769404,-9.095118702599999,3.6526436989,214
90785,161473,217015,-0.5778666579,-9.0245304359,3.601198013,215
90264,161426,216994,-0.5790630692000001,-9.1022971704,3.6514472876,216
90038,161397,216969,-0.48933222169999996,-8.9192462415,3.6514472876,217
89993,161402,216968,-0.6867400861999999,-9.0879402348,3.6418759972,218
90053,161396,216964,-0.5359922624,-9.1154576947,3.6191441825000004,219
90302,161463,216999,-0.6412764568,-9.0699940653,3.7160534978000004,220
90444,161431,216972,-0.586241537,-9.0795653557,3.6299118841999998,221
90545,161420,217007,-0.5180460929,-9.0460658393,3.6107693033999997,222
90625,161337,217027,-0.6388836341999999,-9.0879402348,3.6418759972,223
90728,161405,216981,-0.47138605219999996,-8.952745757899999,3.6418759972,224
90867,161472,216999,-0.5180460929,-9.1716890258,3.6299118841999998,225
90856,161459,217001,-0.6448656907,-8.9240318867,3.6981073283,226
91063,161513,217061,-0.586241537,-8.9742811613,3.649054465,227
91163,161484,217041,-0.6532405698,-9.0125663229,3.6394831745999996,228
91350,161557,217005,-0.9224331123,-9.0460658393,3.6550365215,229
91224,161512,217010,-0.6113661743,-9.1956172518,3.7040893848,230
90648,161445,217021,-0.5108676251000001,-9.0281196698,3.6203405937999995,231
89866,161377,216914,-0.4534398827,-9.064012008799999,3.5796626096,232
89361,161358,216867,-0.6855436748999999,-9.0831545896,3.7627135385,233
88989,161299,216874,-0.5754738353000001,-9.1549392676,3.6550365215,234
88886,161269,216860,-0.5790630692000001,-9.1298146303,3.5629128513999997,235
88968,161283,216825,-0.6604190376,-8.998209387300001,3.5700913192,236
89166,161301,216872,-0.5431707302,-9.0125663229,3.6394831745999996,237
89401,161318,216868,-0.5874379483000001,-9.0783689444,3.684946804,238
89612,161372,216894,-0.5659025448999999,-9.041280194099999,3.6969109170000003,239
89745,161390,216908,-0.5060819799,-8.9826560404,3.7052857961,240
89781,161354,216913,-0.5670989562,-9.0987079365,3.6346975294,241
89992,161432,216891,-0.5527420206,-9.0520478958,3.5952159565,242
90108,161377,216928,-0.5479563754,-9.1058864043,3.6610185779999997,243
90276,161414,216967,-0.6317051664,-9.176474671,3.6335011181000003,244
90436,161444,217003,-0.6364908116,-9.0221376133,3.5593236175,245
90624,161438,216954,-0.5898307709,-8.9922273308,3.6323047068,246
90787,161486,217002,-0.7154539574000001,-8.9910309195,3.7100714413,247
90609,161469,216971,-0.5766702466,-9.0281196698,3.7698920062999997,248
89970,161405,216899,-0.5718846014,-9.0783689444,3.6394831745999996,249
89293,161358,216858,-0.5730810127,-9.220741889100001,3.6394831745999996,250
88801,161274,216829,-0.6999006105000001,-9.0472622506,3.6729826909999996,251
88550,161243,216817,-0.5694917788,-8.9718883387,3.6610185779999997,252
88538,161265,216829,-0.4881358104,-9.081958178299999,3.6622149893000002,253
88704,161271,216852,-0.5611168997,-9.1992064857,3.5676984966,254
88963,161322,216863,-0.6173482308,-9.000602209899998,3.6442688197999997,255
89217,161311,216910,-0.6807580296999999,-9.032905315,3.7280176108,256
89403,161418,216900,-0.6125625856,-9.0903330574,3.6693934571,257
89584,161368,216884,-0.5635097223,-9.006584266399999,3.5700913192,258
89684,161371,216891,-0.6723831506,-9.0137627342,3.7387853125,259
89832,161398,216921,-0.6556333924,-9.0939222913,3.5988051904000002,260
89938,161411,216972,-0.5659025448999999,-9.1070828156,3.6634114006,261
90141,161428,216974,-0.6819544409999999,-9.121439751199999,3.6179477712,262
90323,161443,216954,-0.6963113766000001,-9.0975115252,3.6083764808,263
90534,161473,217017,-0.5324030285,-9.1142612834,3.6957145057000003,264
90645,161526,216965,-0.6592226263,-9.0592263636,3.7962130549,265
90359,161454,216938,-0.4701896409,-8.944370878800001,3.6873396266,266
89704,161387,216935,-0.5132604477,-8.8809610799,3.6059836581999996,267
89075,161375,216872,-0.7573283529,-9.1501536224,3.6418759972,268
88669,161291,216827,-0.514456859,-9.1238325738,3.6801611588,269
88530,161272,216846,-0.48933222169999996,-8.9694955161,3.6418759972,270
88593,161287,216876,-0.5431707302,-8.952745757899999,3.649054465,271
88851,161346,216888,-0.6305087550999999,-8.9802632178,3.5988051904000002,272
89131,161379,216923,-0.5300102059,-9.0795653557,3.7256247882,273
89412,161384,216987,-0.5826523031,-9.081958178299999,3.6203405937999995,274
89617,161392,216981,-0.6711867393,-8.9958165647,3.7016965622000004,275
89796,161417,216975,-0.4570291166,-9.0149591455,3.6466616424,276
89984,161446,217019,-0.5826523031,-9.0628155975,3.6705898684,277
90163,161478,216998,-0.5491527867,-9.055637129700001,3.7698920062999997,278
90336,161394,217005,-0.7166503687,-8.9563349918,3.6897324492,279
90549,161536,217115,-0.49172504429999997,-9.0735832992,3.6705898684,280
90757,161521,217146,-0.5395814963,-9.0975115252,3.6514472876,281
91010,161556,217161,-0.7680960546,-9.178867493599999,3.7112678526000002,282
91047,161600,217111,-0.514456859,-9.1142612834,3.6203405937999995,283
90862,161545,217077,-0.6963113766000001,-9.0711904766,3.6981073283,284
90278,161478,217033,-0.6197410534,-9.0783689444,3.6000016017000003,285
89723,161399,216963,-0.5850451257,-9.0855474122,3.6957145057000003,286
89367,161384,216981,-0.7262216591,-9.1704926145,3.7005001509,287
89239,161410,216969,-0.6819544409999999,-9.044869428,3.6945180944,288
89320,161379,216945,-0.7393821834000001,-8.9347995884,3.7112678526000002,289
89533,161395,216949,-0.49651068949999994,-9.131011041599999,3.6634114006,290
89794,161455,216994,-0.7453642399,-8.9778703952,3.6622149893000002,291
90052,161437,217030,-0.6269195211999999,-9.152546445,3.7005001509,292
90243,161465,216986,-0.5754738353000001,-9.0795653557,3.7483566029,293
90336,161498,217055,-0.6819544409999999,-9.140582332,3.637090352,294
90555,161515,217064,-0.4941178669,-9.019744790699999,3.5988051904000002,295
90710,161529,217092,-0.7130611348,-8.9934237421,3.7040893848,296
90870,161526,217052,-0.5970092387,-8.9551385805,3.601198013,297
91048,161627,217131,-0.7453642399,-8.8869431364,3.6251262389999996,298
91246,161633,217127,-0.574277424,-8.9347995884,3.7232319655999997,299
91467,161602,217156,-0.6424728680999999,-9.064012008799999,3.7088750299999997,300
91547,161607,217180,-0.5826523031,-9.019744790699999,3.6777683362,301
91158,161571,217103,-0.5204389155,-9.1453679772,3.7543386594,302
90574,161508,217027,-0.6723831506,-9.041280194099999,3.6167513599,303
89985,161435,217024,-0.6975077879,-9.1477607998,3.6945180944,304
89611,161391,216954,-0.6436692794,-8.961120637,3.6993037396,305
89442,161426,216989,-0.514456859,-9.0759761218,3.7100714413,306
89463,161370,216989,-0.6293123438,-9.0652084201,3.5700913192,307
89633,161393,217007,-0.6604190376,-9.0137627342,3.6825539814000003,308
89878,161385,217007,-0.6005984726,-9.1573320902,3.6705898684,309
90102,161445,216991,-0.48095734259999995,-9.056833541,3.637090352,310
90246,161443,217030,-0.6364908116,-9.0496550732,3.6993037396,311
90398,161455,216996,-0.7250252478,-9.0616191862,3.6705898684,312
90524,161458,217007,-0.5778666579,-9.104689993,3.6634114006,313
90567,161511,217042,-0.6843472636,-9.042476605400001,3.6681970457999995,314
90780,161497,217031,-0.6197410534,-9.0520478958,3.6753755136,315
90972,161497,217126,-0.6867400861999999,-8.9671026935,3.6801611588,316
91127,161527,217113,-0.6532405698,-9.0747797105,3.6729826909999996,317
91303,161537,217075,-0.5946164161,-9.1274218077,3.6837503927,318
91280,161596,217060,-0.4570291166,-8.9671026935,3.6059836581999996,319
90759,161467,216967,-0.6388836341999999,-9.1250289851,3.6993037396,320
89974,161361,216908,-0.5048855686,-9.0053878551,3.6442688197999997,321
89326,161297,216872,-0.7860422241,-9.116654106,3.6203405937999995,322
88858,161273,216850,-0.6412764568,-9.0484586619,3.6466616424,323
88653,161198,216841,-0.7322037156,-8.930013943199999,3.7184463204,324
88696,161262,216825,-0.6628118601999999,-8.9910309195,3.7244283769,325
88806,161251,216851,-0.5527420206,-9.0855474122,3.6909288605,326
89052,161272,216876,-0.6053841178,-8.9563349918,3.7555350706999997,327
89238,161276,216871,-0.6532405698,-9.0305124924,3.7124642639,328
89365,161300,216839,-0.5599204884,-8.9216390641,3.6275190616,329
89492,161309,216869,-0.5132604477,-9.0185483794,3.7292140221,330
89614,161331,216875,-0.5072783912000001,-8.9108713624,3.6825539814000003,331
89719,161254,216898,-0.6077769404,-9.0185483794,3.6873396266,332
89901,161350,216921,-0.6831508522999999,-9.1022971704,3.6394831745999996,333
90039,161365,216960,-0.6795616184,-8.961120637,3.8548372086000002,334
90254,161385,216937,-0.7525427077,-9.1334038642,3.7005001509,335
90354,161380,216916,-0.610169763,-9.0735832992,3.7040893848,336
90191,161369,216930,-0.6448656907,-9.010173500299999,3.7411781350999997,337
89615,161266,216833,-0.5479563754,-9.1776710823,3.8416766843000003,338
88793,161191,216794,-0.49770710079999997,-9.0652084201,3.6634114006,339
88099,161118,216700,-0.5659025448999999,-9.1334038642,3.6705898684,340
87764,161104,216680,-0.6616154488999999,-9.1357966868,3.6526436989,341
87568,161083,216693,-0.5228317381,-9.0520478958,3.7052857961,342
87626,161077,216682,-0.6352944003,-9.1022971704,3.7016965622000004,343
87867,161051,216711,-0.6412764568,-9.1357966868,3.7483566029,344
88171,161124,216695,-0.6771687957999999,-9.095118702599999,3.7148570865,345
88299,161110,216743,-0.6065805291,-9.1872423727,3.6646078119,346
88533,161120,216765,-0.6448656907,-8.9479601127,3.6825539814000003,347
88654,161159,216761,-0.5132604477,-9.0903330574,3.613162126,348
88735,161160,216779,-0.6005984726,-9.0496550732,3.6442688197999997,349
88961,161186,216830,-0.6975077879,-9.042476605400001,3.7005001509,350
89170,161226,216839,-0.5419743189,-8.926424709299999,3.6514472876,351
89322,161252,216891,-0.6293123438,-9.0664048314,3.6514472876,352
89627,161271,216853,-0.6687939167,-9.1920280179,3.6466616424,353
89850,161347,216943,-0.6687939167,-8.983852451699999,3.7519458368,354
90090,161283,216936,-0.7800601676,-9.0975115252,3.613162126,355
90308,161319,216989,-0.5060819799,-9.0520478958,3.6538401101999995,356
90547,161404,216956,-0.6005984726,-9.109475638200001,3.6466616424,357
90741,161389,216986,-0.610169763,-9.140582332,3.6885360378999996,358
90649,161378,216972,-0.574277424,-9.0257268472,3.5988051904000002,359
90031,161329,216898,-0.6460621019999999,-9.0221376133,3.6203405937999995,360
89197,161192,216844,-0.6508477471999999,-9.200402897,3.637090352,361
88505,161147,216813,-0.610169763,-9.1417787433,3.7363924898999996,362
88158,161146,216786,-0.6065805291,-9.080761767,3.6753755136,363
87975,161123,216779,-0.6388836341999999,-8.9503529353,3.6514472876,364
88040,161124,216745,-0.6305087550999999,-9.121439751199999,3.6406795858999996,365
88255,161127,216804,-0.6305087550999999,-9.0257268472,3.6550365215,366
88507,161217,216782,-0.6580262149999999,-9.1417787433,3.6586257553999997,367
88742,161209,216846,-0.5324030285,-9.0915294687,3.6945180944,368
88885,161213,216846,-0.4821537539,-8.9563349918,3.6801611588,369
88993,161202,216845,-0.6652046827999999,-9.0460658393,3.637090352,370
89155,161278,216858,-0.6137589969,-9.0699940653,3.637090352,371
89298,161202,216887,-0.5479563754,-9.1549392676,3.649054465,372
89525,161290,216886,-0.4390829471,-9.0520478958,3.6059836581999996,373
89681,161289,216931,-0.6077769404,-8.9814596291,3.6885360378999996,374
89901,161340,216972,-0.5036891573,-9.050851484499999,3.6981073283,375
90103,161357,216967,-0.5371886737,-9.0735832992,3.6191441825000004,376
90315,161375,217006,-0.7274180704000001,-9.0771725331,3.6598221666999997,377
90414,161389,217022,-0.5084748025,-9.1716890258,3.6693934571,378
90125,161374,216927,-0.47736810869999996,-9.0496550732,3.7148570865,379
89457,161276,216869,-0.6556333924,-9.0233340246,3.6921252718,380
88723,161219,216844,-0.5958128274,-9.008977089,3.5784661983,381
88371,161210,216851,-0.5156532703,-9.148957211099999,3.6394831745999996,382
88075,161157,216787,-0.586241537,-8.9802632178,3.6382867633,383
88185,161175,216786,-0.5252245607,-9.0233340246,3.6825539814000003,384
88281,161182,216854,-0.6508477471999999,-9.0723868879,3.6071800695,385
88644,161239,216843,-0.6436692794,-8.952745757899999,3.6562329328,386
88825,161233,216869,-0.5300102059,-9.0879402348,3.637090352,387
89074,161279,216848,-0.5922235935,-8.937192411,3.7280176108,388
89228,161262,216883,-0.514456859,-9.0041914438,3.6299118841999998,389
89360,161276,216912,-0.7070790783,-9.0664048314,3.6346975294,390
89522,161327,216930,-0.5922235935,-9.1118684608,3.6478580537000003,391
89675,161304,216987,-0.7274180704000001,-9.1381895094,3.6179477712,392
89894,161373,216958,-0.4749752861,-9.055637129700001,3.6681970457999995,393
90095,161383,216973,-0.5599204884,-9.095118702599999,3.6897324492,394
90230,161423,217049,-0.5347958510999999,-9.0735832992,3.6442688197999997,395
90493,161433,217028,-0.6472585133,-8.9682991048,3.7435709577,396
90737,161487,217057,-0.6173482308,-9.0891366461,3.6969109170000003,397
90648,161437,217077,-0.47377887479999997,-9.0125663229,3.6179477712,398
90154,161394,217013,-0.6592226263,-9.0592263636,3.6418759972,399
89488,161354,216976,-0.6185446421,-9.1106720495,3.613162126,400
88991,161298,216940,-0.6652046827999999,-9.020941202,3.6610185779999997,401
88742,161233,216943,-0.4761716974,-8.9228354754,3.6753755136,402
88696,161274,216914,-0.6556333924,-9.0616191862,3.6562329328,403
88846,161224,216907,-0.6807580296999999,-9.0735832992,3.6921252718,404
89120,161309,217005,-0.502492746,-9.0221376133,3.6323047068,405
89385,161335,217034,-0.6484549246,-9.1070828156,3.6598221666999997,406
89588,161369,217001,-0.8709874264,-8.975477572600001,3.6777683362,407
89789,161461,217028,-0.4522434714,-8.9958165647,3.637090352,408
89958,161349,217014,-0.6640082715,-9.1680997919,3.7567314819999997,409
90114,161417,217075,-0.5886343596,-9.0616191862,3.6418759972,410
90271,161452,217094,-0.4821537539,-9.0317089037,3.7531422481,411
90469,161470,217093,-0.7010970218,-8.9024964833,3.6634114006,412
90636,161480,217147,-0.7190431913,-8.9934237421,3.6203405937999995,413
90921,161533,217200,-0.6903293201,-9.0400837828,3.6801611588,414
91077,161508,217131,-0.7286144817,-9.1728854371,3.7651063610999995,415
91297,161557,217138,-0.5300102059,-9.0580299523,3.6993037396,416
91263,161522,217129,-0.5874379483000001,-9.1334038642,3.6933216830999998,417
90736,161475,217101,-0.6747759731999999,-9.0699940653,3.6945180944,418
90207,161438,217023,-0.6580262149999999,-9.0113699116,3.7088750299999997,419
89707,161387,217024,-0.6556333924,-9.0053878551,3.6693934571,420
89445,161301,216990,-0.6795616184,-9.0903330574,3.6969109170000003,421
89411,161357,216994,-0.6053841178,-9.068797654,3.684946804,422
89429,161346,217026,-0.705882667,-9.0317089037,3.7842489418999996,423
89712,161374,217037,-0.5850451257,-9.0017986212,3.6179477712,424
89852,161380,217025,-0.6329015777,-9.0532443071,3.6801611588,425
90121,161401,217036,-0.6448656907,-9.0185483794,3.7746776515,426
90301,161425,217047,-0.6795616184,-9.1022971704,3.7531422481,427
90442,161425,217027,-0.4725824635,-9.1453679772,3.6681970457999995,428
90578,161449,217054,-0.6125625856,-8.9922273308,3.6191441825000004,429
90727,161468,217080,-0.6245266986,-9.0257268472,3.6873396266,430
90886,161482,217126,-0.693918554,-9.020941202,3.6418759972,431
91063,161514,217126,-0.5599204884,-9.0305124924,3.7459637803,432
91247,161464,217133,-0.5180460929,-8.9886380969,3.7124642639,433
91458,161549,217203,-0.6029912952,-9.041280194099999,3.7100714413,434
91583,161550,217110,-0.7262216591,-9.0759761218,3.6179477712,435
91295,161510,217110,-0.5156532703,-8.9994057986,3.5844482548,436
90668,161408,217062,-0.5910271822000001,-8.943174467499999,3.6658042232,437
90049,161390,217002,-0.6759723845,-8.998209387300001,3.5868410774,438
89610,161293,216992,-0.5910271822000001,-8.9898345082,3.6897324492,439
89392,161298,216963,-0.4749752861,-9.037690960199999,3.6634114006,440
89354,161302,216967,-0.6735795618999999,-8.9072821285,3.6047872469,441
89519,161319,216971,-0.7010970218,-9.0281196698,3.6789647475,442
89747,161341,216995,-0.7668996433,-8.8953180155,3.6514472876,443
89894,161349,217000,-0.6652046827999999,-9.020941202,3.6394831745999996,444
90137,161392,216960,-0.4845465765,-9.0137627342,3.6323047068,445
90114,161370,216982,-0.6520441585,-9.0161555568,3.6251262389999996,446
90341,161377,216995,-0.6376872229,-9.1381895094,3.6658042232,447
90469,161402,217030,-0.6197410534,-8.9682991048,3.6323047068,448
90576,161420,217019,-0.7668996433,-8.970691927399999,3.6753755136,449
90781,161441,217053,-0.5180460929,-9.037690960199999,3.7088750299999997,450
90966,161481,217081,-0.7118647235000001,-9.0975115252,3.6275190616,451
91135,161466,217049,-0.5946164161,-8.931210354500001,3.6658042232,452
91183,161435,217040,-0.6628118601999999,-9.1262253964,3.6777683362,453
90670,161377,216986,-0.622133876,-9.0879402348,3.6705898684,454
89989,161338,216973,-0.5335994398,-9.1573320902,3.6945180944,455
89331,161242,216844,-0.6340979889999999,-9.2039921309,3.6586257553999997,456
88785,161191,216834,-0.6245266986,-9.000602209899998,3.7232319655999997,457
88597,161191,216816,-0.6843472636,-9.0149591455,3.7064822074,458
88555,161166,216839,-0.5455635528,-8.9742811613,3.7016965622000004,459
88682,161141,216823,-0.7010970218,-8.983852451699999,3.6203405937999995,460
88890,161168,216796,-0.7118647235000001,-9.042476605400001,3.6897324492,461
89091,161169,216830,-0.5802594805,-8.9682991048,3.6586257553999997,462
89232,161191,216805,-0.705882667,-9.064012008799999,3.6717862797,463
89324,161190,216788,-0.7393821834000001,-8.9886380969,3.637090352,464
89420,161185,216841,-0.5288137946,-9.008977089,3.6801611588,465
89514,161203,216826,-0.693918554,-8.9766739839,3.6729826909999996,466
89668,161231,216859,-0.37567314820000003,-8.97308475,3.6203405937999995,467
89861,161231,216867,-0.5838487144,-9.095118702599999,3.7088750299999997,468
89974,161276,216855,-0.7322037156,-9.2183490665,3.6287154729,469
90175,161289,216858,-0.6317051664,-9.1573320902,3.5844482548,470
89742,161208,216833,-0.5252245607,-9.0580299523,3.613162126,471
89063,161105,216757,-0.5694917788,-8.9814596291,3.6670006345,472
88273,161024,216686,-0.7106683122,-9.0783689444,3.7890345870999997,473
87727,161004,216572,-0.5563312545,-9.044869428,3.7160534978000004,474
87360,160965,216641,-0.5515456093,-9.0364945489,3.7770704741,475
87253,160853,216589,-0.6029912952,-9.104689993,3.6885360378999996,476
87402,160936,216592,-0.5718846014,-9.0077806777,3.7986058774999996,477
87596,160957,216638,-0.5515456093,-8.9240318867,3.7100714413,478
87897,160997,216620,-0.5335994398,-8.9718883387,3.7387853125,479
88031,160999,216680,-0.6029912952,-9.0735832992,3.7387853125,480
88253,161001,216684,-0.4725824635,-8.8977108381,3.6717862797,481
88403,161033,216698,-0.6352944003,-9.0293160811,3.5892339,482
88548,161016,216721,-0.7621139981,-8.9994057986,3.5784661983,483
88721,161062,216731,-0.5563312545,-9.0652084201,3.6478580537000003,484
88934,161108,216759,-0.6819544409999999,-8.8929251929,3.7100714413,485
89145,161091,216767,-0.5563312545,-9.037690960199999,3.6346975294,486
89359,161117,216787,-0.729810893,-9.1513500337,3.6167513599,487
89431,161131,216773,-0.7549355303,-9.1381895094,3.6263226502999997,488
88923,161058,216758,-0.5503491979999999,-9.037690960199999,3.5700913192,489
88115,160974,216683,-0.4677968183,-9.1860459614,3.7160534978000004,490
87375,160916,216613,-0.4402793584,-9.0532443071,3.684946804,491
86934,160850,216581,-0.5850451257,-8.9910309195,3.6670006345,492
86729,160854,216545,-0.7022934331,-9.0999043478,3.6179477712,493
86740,160815,216567,-0.6412764568,-9.1274218077,3.6227334164,494
86963,160867,216571,-0.6484549246,-9.0592263636,3.6921252718,495
87251,160894,216597,-0.5443671415,-9.0484586619,3.7507494254999996,496
87543,160945,216664,-0.4725824635,-9.050851484499999,3.6275190616,497
87754,160939,216641,-0.6412764568,-9.1226361625,3.6634114006,498
87928,160935,216710,-0.5994020613,-9.037690960199999,3.7387853125,499
88122,160989,216723,-0.6520441585,-8.9108713624,3.6323047068,500
88251,161008,216735,-0.5802594805,-9.0987079365,3.6777683362,501
88473,161043,216765,-0.6029912952,-8.997012975999999,3.6586257553999997,502
88636,161059,216754,-0.59820565,-9.0903330574,3.6777683362,503
88955,161101,216800,-0.6065805291,-9.095118702599999,3.6514472876,504
89074,161122,216855,-0.765703232,-9.096315113900001,3.7196427317,505
89274,161147,216850,-0.7609175868,-8.9910309195,3.7088750299999997,506
88853,161136,216798,-0.586241537,-9.068797654,3.6765719249,507
88049,160970,216753,-0.5599204884,-9.0759761218,3.6825539814000003,508
87341,160946,216671,-0.6017948839,-9.0364945489,3.6227334164,509
86859,160882,216667,-0.5898307709,-9.019744790699999,3.6179477712,510
86659,160897,216597,-0.5335994398,-9.1011007591,3.601198013,511
86701,160871,216670,-0.49172504429999997,-9.038887371500001,3.6586257553999997,512
86913,160915,216642,-0.7238288365000001,-9.1800639049,3.7411781350999997,513
87247,160929,216671,-0.8123632727,-9.080761767,3.6203405937999995,514
87600,161006,216747,-0.3960121403,-9.0125663229,3.6346975294,515
87791,160996,216754,-0.6424728680999999,-9.1585285015,3.7292140221,516
87873,160980,216741,-0.5347958510999999,-9.0843510009,3.6789647475,517
88065,161045,216794,-0.7501498851,-8.944370878800001,3.7136606752,518
88314,161080,216818,-0.6675975054,-9.1692962032,3.6729826909999996,519
88540,161084,216852,-0.6999006105000001,-9.0592263636,3.6825539814000003,520
88780,161109,216837,-0.4606183505,-9.0592263636,3.6239298277,521
89039,161158,216884,-0.538385085,-9.042476605400001,3.6179477712,522
89318,161197,216959,-0.7645068207,-8.9994057986,3.613162126,523
89565,161238,216958,-0.6317051664,-9.019744790699999,3.6921252718,524
89481,161223,216925,-0.538385085,-9.006584266399999,3.6466616424,525
88929,161154,216907,-0.6711867393,-8.9647098709,3.6598221666999997,526
88261,161090,216888,-0.5108676251000001,-9.108279226899999,3.6155549486,527
87773,161094,216832,-0.6173482308,-9.0867438235,3.6406795858999996,528
87568,161014,216838,-0.5766702466,-9.0867438235,3.6227334164,529
87468,161030,216835,-0.4845465765,-8.9718883387,3.5988051904000002,530
87782,161054,216889,-0.7190431913,-9.128618219,3.6981073283,531
88118,161144,216939,-0.6017948839,-9.096315113900001,3.6394831745999996,532
88388,161110,216924,-0.5802594805,-9.019744790699999,3.6945180944,533
88819,161188,216958,-0.5898307709,-9.09272588,3.6346975294,534
89015,161203,216976,-0.6723831506,-9.0472622506,3.6215370051,535
89233,161165,217005,-0.6472585133,-9.0352981376,3.5964123677999997,536
89472,161250,217028,-0.5850451257,-9.0484586619,3.7627135385,537
89700,161269,217009,-0.5922235935,-8.9587278144,3.7866417645,538
89942,161274,217061,-0.7381857721,-9.0245304359,3.601198013,539
90198,161318,217123,-0.5455635528,-9.109475638200001,3.6394831745999996,540
90467,161410,217137,-0.6484549246,-9.0185483794,3.6945180944,541
90730,161330,217167,-0.6819544409999999,-9.0879402348,3.6430724085,542
90890,161410,217125,-0.49651068949999994,-9.116654106,3.6311082955,543
90680,161405,217109,-0.4845465765,-8.9336031771,3.7339996673,544
90207,161307,217069,-0.6460621019999999,-9.0233340246,3.6107693033999997,545
89784,161258,217033,-0.5419743189,-9.0855474122,3.6969109170000003,546
89534,161242,217016,-0.6352944003,-8.9790668065,3.6681970457999995,547
89455,161230,217036,-0.59820565,-9.0281196698,3.7746776515,548
89526,161232,217054,-0.5407779076,-9.0903330574,3.5928231339,549
89777,161259,217025,-0.6675975054,-8.997012975999999,3.7232319655999997,550
90021,161303,217052,-0.7345965382,-8.9958165647,3.6765719249,551
90335,161327,217105,-0.4677968183,-9.1393859207,3.6323047068,552
90514,161314,217121,-0.5682953675,-8.9994057986,3.7052857961,553
90599,161375,217131,-0.5084748025,-9.104689993,3.6394831745999996,554
90815,161376,217127,-0.6903293201,-9.037690960199999,3.5808590209,555
91049,161383,217148,-0.49770710079999997,-9.0041914438,3.5581272062,556
91219,161420,217165,-0.7250252478,-8.9718883387,3.6634114006,557
91439,161467,217181,-0.5635097223,-8.998209387300001,3.6382867633,558
91664,161471,217195,-0.6640082715,-9.0711904766,3.6538401101999995,559
91885,161494,217245,-0.8063812161999999,-9.1453679772,3.7495530142,560
92051,161489,217240,-0.6616154488999999,-9.1142612834,3.7914274097,561
91950,161476,217199,-0.5970092387,-8.9934237421,3.6514472876,562
91616,161432,217180,-0.5096712138,-9.0436730167,3.6658042232,563
91162,161390,217147,-0.7106683122,-9.1381895094,3.7746776515,564
90969,161350,217117,-0.5455635528,-9.2303131795,3.6598221666999997,565
90888,161345,217093,-0.6388836341999999,-9.0532443071,3.7172499091,566
90932,161362,217128,-0.5467599640999999,-8.9479601127,3.6574293441,567
91029,161376,217167,-0.5659025448999999,-8.9694955161,3.7100714413,568
91228,161398,217142,-0.6783652070999999,-8.9694955161,3.6382867633,569
91425,161387,217159,-0.5455635528,-9.1142612834,3.7160534978000004,570
91560,161449,217138,-0.5718846014,-9.1106720495,3.7124642639,571
91709,161497,217147,-0.5407779076,-9.1477607998,3.6179477712,572
91813,161483,217163,-0.6293123438,-9.0855474122,3.7040893848,573
91951,161437,217166,-0.5730810127,-9.000602209899998,3.6514472876,574
92064,161479,217207,-0.6508477471999999,-8.983852451699999,3.7615171272,575
92214,161519,217217,-0.5371886737,-9.0616191862,3.6394831745999996,576
92367,161510,217172,-0.574277424,-9.064012008799999,3.7268211995,577
92516,161534,217188,-0.7525427077,-9.0233340246,3.6299118841999998,578
92643,161570,217184,-0.5479563754,-9.0173519681,3.6945180944,579
92512,161481,217154,-0.6257231099,-9.0173519681,3.7172499091,580
92043,161433,217132,-0.6041877065,-9.1022971704,3.601198013,581
91638,161403,217076,-0.6149554081999999,-9.054440718399999,3.6801611588,582
91070,161346,217059,-0.622133876,-9.0783689444,3.5988051904000002,583
90907,161329,217020,-0.6795616184,-9.200402897,3.6885360378999996,584
90818,161337,217044,-0.6065805291,-9.008977089,3.6873396266,585
90827,161262,217031,-0.6161518195,-9.1441715659,3.5629128513999997,586
90977,161325,217030,-0.6664010940999999,-9.1322074529,3.6705898684,587
91000,161359,217032,-0.5946164161,-9.054440718399999,3.6909288605,588
91220,161431,217087,-0.7429714173,-9.0723868879,3.6885360378999996,589
91210,161402,217074,-0.4450650036,-8.9048893059,3.6873396266,590
91403,161429,217033,-0.6005984726,-9.0041914438,3.6538401101999995,591
91410,161390,217083,-0.6317051664,-9.0053878551,3.7052857961,592
91619,161445,217058,-0.41754754369999997,-9.1477607998,3.6275190616,593
91700,161432,217098,-0.5970092387,-8.9742811613,3.7136606752,594
91845,161441,217100,-0.6664010940999999,-8.9694955161,3.6466616424,595
91976,161456,217107,-0.6604190376,-9.0173519681,3.6921252718,596
92115,161472,217115,-0.5790630692000001,-9.109475638200001,3.6945180944,597
92106,161470,217103,-0.5910271822000001,-9.0592263636,3.6634114006,598
91698,161446,217040,-0.3732803256,-8.9503529353,3.6861432153,599
91019,161362,216993,-0.6699903279999999,-9.054440718399999,3.5712877305000004,600
90398,161303,216955,-0.6975077879,-9.0999043478,3.649054465,601
89960,161199,216938,-0.5587240770999999,-9.0352981376,3.7375889012,602
89731,161244,216940,-0.47138605219999996,-9.1058864043,3.6275190616,603
89688,161259,216914,-0.6281159325,-9.0879402348,3.7124642639,604
89705,161286,216970,-0.6400800455,-9.0077806777,3.6909288605,605
89952,161285,216957,-0.5934200048,-9.0472622506,3.6897324492,606
90099,161315,216932,-0.5551348432,-9.121439751199999,3.7232319655999997,607
90211,161322,216971,-0.6819544409999999,-9.117850517299999,3.6705898684,608
90281,161343,216959,-0.6664010940999999,-9.0999043478,3.6981073283,609
90382,161349,216959,-0.6508477471999999,-9.0939222913,3.6418759972,610
90476,161330,216960,-0.7680960546,-9.0759761218,3.6346975294,611
90590,161357,217010,-0.5850451257,-9.0185483794,3.6466616424,612
90742,161343,217013,-0.6508477471999999,-9.0699940653,3.6825539814000003,613
90910,161424,217043,-0.7274180704000001,-9.0113699116,3.6921252718,614
91069,161493,217034,-0.5826523031,-9.095118702599999,3.6634114006,615
91160,161448,217051,-0.6233302873,-8.9204426528,3.6442688197999997,616
91423,161506,217055,-0.6317051664,-9.1633141467,3.7172499091,617
91602,161478,217091,-0.6771687957999999,-9.054440718399999,3.6658042232,618
91766,161497,217130,-0.6245266986,-9.1322074529,3.6586257553999997,619
91884,161545,217138,-0.5395814963,-9.104689993,3.6179477712,620
91670,161535,217119,-0.6233302873,-9.044869428,3.6323047068,621
90966,161445,217011,-0.6352944003,-8.9347995884,3.649054465,622
90267,161400,216990,-0.6017948839,-8.983852451699999,3.5796626096,623
89699,161344,216934,-0.5898307709,-9.0628155975,3.6155549486,624
89412,161320,216887,-0.5467599640999999,-8.931210354500001,3.5700913192,625
89315,161350,216940,-0.586241537,-9.0245304359,3.6466616424,626
89372,161289,216928,-0.6484549246,-9.1022971704,3.7172499091,627
89567,161341,217003,-0.6412764568,-9.0029950325,3.7136606752,628
89751,161360,216943,-0.4989035121,-9.0735832992,3.6741791022999997,629
89914,161389,216965,-0.5886343596,-9.2087777761,3.5868410774,630
90021,161386,216997,-0.3098705267,-9.0233340246,3.5964123677999997,631
90115,161410,216988,-0.6173482308,-9.0341017263,3.6765719249,632
90214,161317,216977,-0.729810893,-9.055637129700001,3.7088750299999997,633
90372,161440,217018,-0.7441678286,-9.010173500299999,3.7112678526000002,634
90464,161448,217029,-0.4618147618,-8.9359959997,3.6957145057000003,635
90562,161463,217034,-0.5072783912000001,-8.9682991048,3.5916267225999996,636
90801,161491,217093,-0.6388836341999999,-9.1118684608,3.7435709577,637
90996,161505,217081,-0.7381857721,-9.0831545896,3.6203405937999995,638
91145,161518,217042,-0.6891329087999999,-9.0149591455,3.7184463204,639
90982,161507,217031,-0.5659025448999999,-8.9347995884,3.6765719249,640
90376,161445,217008,-0.6556333924,-9.0173519681,3.6466616424,641
89733,161400,216963,-0.6340979889999999,-9.0077806777,3.6394831745999996,642
89248,161390,216940,-0.6795616184,-9.0747797105,3.613162126,643
88988,161322,216909,-0.7334001269,-9.0173519681,3.6442688197999997,644
88929,161304,216945,-0.6149554081999999,-9.1058864043,3.6610185779999997,645
89005,161352,216907,-0.44386859230000003,-9.131011041599999,3.5820554322,646
89267,161360,216911,-0.6448656907,-9.095118702599999,3.6837503927,647
89485,161366,216947,-0.6795616184,-8.9001036607,3.6323047068,648
89686,161428,216971,-0.6484549246,-9.1417787433,3.5796626096,649
89860,161420,216981,-0.7513462964000001,-8.9934237421,3.6035908356,650
90013,161459,217033,-0.42233318890000004,-9.0664048314,3.684946804,651
90156,161464,217040,-0.7501498851,-9.0293160811,3.6251262389999996,652
90333,161456,217051,-0.5479563754,-9.0711904766,3.6681970457999995,653
90501,161512,217095,-0.6484549246,-9.020941202,3.6658042232,654
90736,161577,217107,-0.6484549246,-9.0185483794,3.5988051904000002,655
90915,161576,217111,-0.7274180704000001,-8.9910309195,3.6514472876,656
91138,161605,217151,-0.48693939909999995,-9.0484586619,3.7005001509,657
91288,161631,217127,-0.5324030285,-9.044869428,3.6538401101999995,658
91035,161594,217071,-0.6065805291,-9.0053878551,3.5868410774,659
90378,161508,217112,-0.4630111731,-9.0017986212,3.6502508763,660
89891,161455,217008,-0.5910271822000001,-9.0999043478,3.7387853125,661
89526,161431,217040,-0.7202396026000001,-9.0783689444,3.5676984966,662
89353,161448,216997,-0.6293123438,-9.0532443071,3.6777683362,663
89385,161413,216985,-0.6065805291,-8.9623170483,3.732803256,664
89621,161468,217033,-0.7034898444000001,-9.1429751546,3.6466616424,665
89819,161468,217036,-0.4989035121,-9.0149591455,3.6921252718,666
89989,161508,217053,-0.5659025448999999,-9.1776710823,3.637090352,667
90333,161523,217022,-0.5252245607,-9.0831545896,3.684946804,668
90453,161562,217121,-0.6388836341999999,-9.0759761218,3.6897324492,669
90616,161544,217093,-0.6472585133,-9.1190469286,3.6574293441,670
90813,161564,217122,-0.5922235935,-9.068797654,3.7268211995,671
90919,161562,217159,-0.6891329087999999,-8.9324067658,3.684946804,672
91093,161597,217139,-0.741775006,-8.9072821285,3.7603207159,673
91265,161615,217145,-0.6795616184,-9.010173500299999,3.6921252718,674
91479,161620,217200,-0.6508477471999999,-9.0281196698,3.7016965622000004,675
91619,161552,217168,-0.7154539574000001,-8.9455672901,3.7962130549,676
91480,161640,217115,-0.46540399569999996,-9.0221376133,3.7100714413,677
90813,161562,217074,-0.6508477471999999,-9.2398844699,3.6861432153,678
90283,161478,217049,-0.574277424,-8.9958165647,3.7160534978000004,679
89852,161448,217047,-0.5898307709,-9.0999043478,3.6586257553999997,680
89625,161420,216978,-0.5682953675,-8.9766739839,3.6346975294,681
89525,161422,216993,-0.7202396026000001,-8.9635134596,3.5940195452,682
89717,161456,217032,-0.5718846014,-9.0436730167,3.7172499091,683
89947,161432,217038,-0.693918554,-9.2051885422,3.5940195452,684
90192,161505,217057,-0.5898307709,-9.056833541,3.6861432153,685
90372,161481,217044,-0.6209374647,-9.0281196698,3.6610185779999997,686
90534,161488,217057,-0.7597211755,-9.0017986212,3.6251262389999996,687
90641,161523,217069,-0.6520441585,-9.1680997919,3.7842489418999996,688
90795,161501,217073,-0.502492746,-9.0233340246,3.6921252718,689
90819,161540,217100,-0.6484549246,-9.0759761218,3.6789647475,690
91123,161613,217110,-0.4677968183,-8.9718883387,3.6538401101999995,691
91260,161575,217087,-0.8566304908000001,-9.0975115252,3.6562329328,692
91396,161584,217129,-0.6687939167,-9.220741889100001,3.6514472876,693
91501,161609,217137,-0.5958128274,-9.0616191862,3.7112678526000002,694
91188,161550,217081,-0.5539384319,-8.8977108381,3.7722848289,695
90487,161503,217010,-0.514456859,-9.0484586619,3.5940195452,696
89841,161418,216998,-0.6329015777,-9.152546445,3.6825539814000003,697
89390,161355,216946,-0.5850451257,-9.019744790699999,3.6442688197999997,698
89226,161352,216906,-0.5838487144,-9.108279226899999,3.6610185779999997,699
89190,161385,216936,-0.6927221427000001,-9.080761767,3.7160534978000004,700
89320,161350,216943,-0.693918554,-9.09272588,3.7052857961,701
89557,161375,216950,-0.5754738353000001,-9.0520478958,3.6562329328,702
89823,161404,216956,-0.5276173833,-9.0245304359,3.7339996673,703
89910,161406,216927,-0.5886343596,-9.0699940653,3.7016965622000004,704
90037,161390,216941,-0.7190431913,-8.9551385805,3.684946804,705
90154,161435,216959,-0.5874379483000001,-9.0843510009,3.6418759972,706
90227,161428,216991,-0.454636294,-9.0592263636,3.6705898684,707
90315,161439,216986,-0.6089733517,-9.0747797105,3.7280176108,708
90559,161455,217003,-0.6987041992,-9.2410808812,3.6550365215,709
90705,161487,217027,-0.71784678,-9.0185483794,3.6969109170000003,710
90849,161482,217009,-0.6687939167,-9.0041914438,3.649054465,711
90646,161437,216972,-0.6197410534,-8.997012975999999,3.6179477712,712
90087,161364,216880,-0.5790630692000001,-9.010173500299999,3.565305674,713
89373,161248,216842,-0.5766702466,-8.9898345082,3.7028929734999996,714
88792,161223,216781,-0.610169763,-9.056833541,3.6179477712,715
88377,161185,216740,-0.6161518195,-8.9659062822,3.6562329328,716
88186,161192,216715,-0.5874379483000001,-9.0341017263,3.6981073283,717
88256,161122,216704,-0.6257231099,-9.175278259699999,3.7375889012,718
88396,161150,216763,-0.6735795618999999,-9.064012008799999,3.7148570865,719
88658,161169,216765,-0.5838487144,-8.9419780562,3.6658042232,720
88874,161204,216780,-0.5503491979999999,-9.0041914438,3.6227334164,721
89023,161190,216771,-0.47976093129999997,-9.006584266399999,3.5641092626999997,722
89115,161206,216754,-0.5347958510999999,-9.0628155975,3.5617164401,723
89300,161210,216797,-0.7692924659,-9.0305124924,3.6705898684,724
89434,161116,216796,-0.6412764568,-9.0293160811,3.6346975294,725
89608,161242,216811,-0.705882667,-9.056833541,3.6610185779999997,726
89788,161263,216864,-0.6149554081999999,-9.0496550732,3.7674991837,727
89995,161285,216853,-0.5682953675,-9.044869428,3.6071800695,728
90179,161336,216851,-0.5084748025,-9.0891366461,3.6586257553999997,729
90038,161257,216822,-0.7322037156,-9.0029950325,3.6203405937999995,730
89393,161189,216766,-0.6173482308,-9.0113699116,3.6921252718,731
88635,161095,216715,-0.5659025448999999,-8.997012975999999,3.7674991837,732
88044,161047,216647,-0.7106683122,-9.0903330574,3.5916267225999996,733
87694,160988,216613,-0.6652046827999999,-9.0628155975,3.7184463204,734
87544,160978,216565,-0.6053841178,-9.148957211099999,3.5820554322,735
87695,161002,216622,-0.6424728680999999,-9.1034935817,3.7028929734999996,736
87976,161035,216653,-0.5407779076,-9.054440718399999,3.6275190616,737
88204,161061,216668,-0.5419743189,-9.0484586619,3.601198013,738
88417,161085,216686,-0.6412764568,-9.044869428,3.7220355542999997,739
88549,161097,216689,-0.753739119,-9.0233340246,3.637090352,740
88789,161100,216694,-0.5766702466,-9.2398844699,3.6251262389999996,741
88907,161151,216757,-0.5012963347,-9.1956172518,3.6514472876,742
89011,161142,216711,-0.693918554,-9.0245304359,3.7292140221,743
89179,161165,216788,-0.5108676251000001,-9.0711904766,3.5641092626999997,744
89494,161193,216777,-0.5084748025,-8.9802632178,3.5940195452,745
89743,161248,216801,-0.5766702466,-9.1238325738,3.6693934571,746
89915,161242,216830,-0.6065805291,-8.9910309195,3.6610185779999997,747
89902,161234,216832,-0.6113661743,-8.9467637014,3.5641092626999997,748
89384,161179,216762,-0.47976093129999997,-9.0125663229,3.6346975294,749
88752,161107,216699,-0.6388836341999999,-9.0664048314,3.6059836581999996,750
88159,161054,216637,-0.6520441585,-8.9898345082,3.7483566029,751
87766,160994,216603,-0.6364908116,-9.0664048314,3.7136606752,752
87625,160991,216606,-0.6317051664,-9.044869428,3.5796626096,753
87701,160986,216633,-0.5682953675,-9.153742856300001,3.6442688197999997,754
87985,161031,216643,-0.7740781111,-9.056833541,3.6658042232,755
88233,161067,216650,-0.5647061336,-9.152546445,3.6753755136,756
88499,161109,216728,-0.6484549246,-9.1453679772,3.6394831745999996,757
88686,161089,216702,-0.5647061336,-8.9742811613,3.7339996673,758
88817,161105,216733,-0.6113661743,-9.044869428,3.6442688197999997,759
89015,161124,216730,-0.7154539574000001,-9.020941202,3.6933216830999998,760
89246,161170,216759,-0.7106683122,-9.0053878551,3.6466616424,761
89412,161186,216814,-0.6496513358999999,-9.0077806777,3.684946804,762
89626,161214,216851,-0.5132604477,-9.0999043478,3.6227334164,763
89888,161248,216835,-0.6675975054,-8.9455672901,3.7016965622000004,764
90049,161278,216877,-0.5300102059,-9.1022971704,3.6777683362,765
90375,161317,216892,-0.6843472636,-9.1585285015,3.6466616424,766
90547,161336,216953,-0.48574298779999997,-9.037690960199999,3.6394831745999996,767
90808,161352,216944,-0.6580262149999999,-9.080761767,3.7076786186999997,768
91054,161386,216992,-0.6963113766000001,-9.0041914438,3.7698920062999997,769
91144,161406,216981,-0.6436692794,-9.008977089,3.7064822074,770
90913,161346,216936,-0.6723831506,-9.0699940653,3.732803256,771
90319,161233,216899,-0.6436692794,-9.0221376133,3.6705898684,772
89685,161239,216839,-0.5826523031,-9.1142612834,3.6346975294,773
89264,161181,216815,-0.6580262149999999,-9.178867493599999,3.6610185779999997,774
89038,161170,216795,-0.6340979889999999,-9.1669033806,3.7770704741,775
89060,161193,216789,-0.7202396026000001,-9.056833541,3.6586257553999997,776
89253,161232,216849,-0.6185446421,-9.056833541,3.6418759972,777
89419,161285,216830,-0.4043870194,-9.0496550732,3.7268211995,778
89608,161246,216840,-0.6711867393,-9.081958178299999,3.6418759972,779
89848,161281,216817,-0.5060819799,-8.9575314031,3.7280176108,780
89971,161275,216838,-0.6807580296999999,-8.998209387300001,3.6346975294,781
90118,161290,216876,-0.4989035121,-9.1142612834,3.6969109170000003,782
90263,161317,216854,-0.4941178669,-9.1669033806,3.6418759972,783
90432,161329,216911,-0.6795616184,-9.140582332,3.601198013,784
90616,161370,216975,-0.394815729,-9.0939222913,3.6729826909999996,785
90822,161407,216982,-0.4749752861,-9.0364945489,3.6035908356,786
91037,161424,217004,-0.5288137946,-8.9766739839,3.6323047068,787
91286,161448,217014,-0.5491527867,-9.0245304359,3.7064822074,788
91485,161457,217041,-0.6484549246,-9.0664048314,3.6921252718,789
91466,161475,217033,-0.7154539574000001,-9.1561356789,3.7005001509,790
91147,161437,216989,-0.6281159325,-8.9994057986,3.6023944243,791
90684,161390,216928,-0.6245266986,-9.0269232585,3.6227334164,792
90382,161348,216961,-0.5347958510999999,-9.0580299523,3.601198013,793
90271,161322,216954,-0.622133876,-9.081958178299999,3.8033915226999997,794
90292,161336,216966,-0.49531427819999996,-9.095118702599999,3.7112678526000002,795
90445,161355,216966,-0.6233302873,-8.9192462415,3.7411781350999997,796
90657,161362,216995,-0.5587240770999999,-9.006584266399999,3.6801611588,797
90943,161420,217009,-0.6233302873,-8.985048863000001,3.7124642639,798
91128,161433,217017,-0.6664010940999999,-9.080761767,3.7651063610999995,799
91291,161439,217018,-0.5228317381,-9.0173519681,3.6634114006,800
91463,161449,217041,-0.514456859,-8.961120637,3.7232319655999997,801
91653,161455,217057,-0.5491527867,-9.0616191862,3.6837503927,802
91781,161512,217062,-0.5288137946,-8.9718883387,3.7160534978000004,803
91985,161505,217102,-0.6376872229,-9.0628155975,3.6753755136,804
92040,161539,217109,-0.5347958510999999,-8.9946201534,3.8009987001,805
92347,161595,217140,-0.47856452,-8.9503529353,3.7112678526000002,806
92466,161592,217155,-0.5072783912000001,-9.0352981376,3.7064822074,807
92677,161566,217168,-0.6951149653,-9.0496550732,3.6275190616,808
92570,161579,217090,-0.6149554081999999,-8.9024964833,3.6095728921,809
92162,161488,217047,-0.6568298037,-8.985048863000001,3.6059836581999996,810
91883,161448,217021,-0.6699903279999999,-9.164510558,3.6035908356,811
91638,161401,217022,-0.7345965382,-9.1190469286,3.6921252718,812
91544,161407,217019,-0.6364908116,-9.1680997919,3.6346975294,813
91588,161430,217005,-0.5814558918,-8.916853418899999,3.6693934571,814
91710,161415,217026,-0.6867400861999999,-9.0628155975,3.6789647475,815
91845,161437,217071,-0.5371886737,-9.0592263636,3.6562329328,816
91983,161436,217076,-0.6807580296999999,-9.0771725331,3.6801611588,817
92201,161496,217064,-0.6340979889999999,-8.9958165647,3.6346975294,818
92289,161524,217083,-0.610169763,-8.9946201534,3.6466616424,819
92397,161481,217061,-0.48095734259999995,-9.0783689444,3.6933216830999998,820
92509,161492,217144,-0.7310073043,-9.1106720495,3.7124642639,821
92686,161544,217054,-0.6053841178,-9.080761767,3.6442688197999997,822
92753,161538,217133,-0.6436692794,-9.1238325738,3.6753755136,823
92913,161538,217154,-0.7716852885,-9.006584266399999,3.6741791022999997,824
93069,161584,217163,-0.693918554,-9.0352981376,3.7076786186999997,825
93112,161576,217201,-0.6879364975,-9.0975115252,3.6562329328,826
93112,161575,217099,-0.3960121403,-9.0759761218,3.6777683362,827
92680,161489,217060,-0.5946164161,-9.0317089037,3.6538401101999995,828
92268,161425,217043,-0.7477570625,-9.162117735399999,3.6466616424,829
91931,161385,216968,-0.7154539574000001,-9.0711904766,3.649054465,830
91695,161339,216969,-0.6771687957999999,-8.970691927399999,3.6107693033999997,831
91662,161283,216968,-0.6065805291,-8.931210354500001,3.6191441825000004,832
91765,161402,216992,-0.5347958510999999,-9.0257268472,3.7244283769,833
91871,161408,216990,-0.5754738353000001,-9.054440718399999,3.6071800695,834
92009,161415,217019,-0.610169763,-9.1465643885,3.6670006345,835
92127,161440,216979,-0.6783652070999999,-9.0341017263,3.5928231339,836
92190,161463,216988,-0.5539384319,-9.0580299523,3.613162126,837
92284,161481,217007,-0.5443671415,-9.0520478958,3.5832518435,838
92339,161423,217036,-0.5395814963,-9.0616191862,3.6801611588,839
92427,161443,217014,-0.6616154488999999,-9.0472622506,3.6083764808,840
92578,161511,217023,-0.5670989562,-9.0041914438,3.6885360378999996,841
92623,161473,217022,-0.6795616184,-9.056833541,3.684946804,842
92749,161451,217051,-0.7154539574000001,-8.9216390641,3.6873396266,843
92762,161467,217047,-0.5838487144,-8.9910309195,3.613162126,844
92431,161391,216975,-0.59820565,-9.0400837828,3.6897324492,845
91829,161336,216932,-0.5455635528,-9.121439751199999,3.6203405937999995,846
91237,161247,216846,-0.6053841178,-9.1250289851,3.6179477712,847
90775,161208,216817,-0.5802594805,-9.080761767,3.6071800695,848
90499,161186,216786,-0.6436692794,-9.1381895094,3.7220355542999997,849
90346,161172,216822,-0.6807580296999999,-9.1022971704,3.6681970457999995,850
90402,161196,216763,-0.5419743189,-8.8953180155,3.6394831745999996,851
90541,161204,216756,-0.5910271822000001,-8.9575314031,3.7268211995,852
90646,161245,216768,-0.6963113766000001,-9.1262253964,3.6562329328,853
90721,161221,216840,-0.5886343596,-9.0077806777,3.7459637803,854
90776,161190,216833,-0.6436692794,-8.9910309195,3.7435709577,855
90900,161217,216816,-0.5395814963,-9.000602209899998,3.5916267225999996,856
90983,161219,216827,-0.6568298037,-9.0664048314,3.6981073283,857
91031,161240,216841,-0.5060819799,-9.1728854371,3.684946804,858
91205,161280,216832,-0.7130611348,-8.9790668065,3.7555350706999997,859
91339,161289,216891,-0.6340979889999999,-9.0017986212,3.6837503927,860
91490,161289,216868,-0.5886343596,-9.104689993,3.6538401101999995,861
91440,161272,216864,-0.6735795618999999,-9.1142612834,3.7782668854000003,862
90952,161219,216734,-0.6233302873,-8.8881395477,3.6191441825000004,863
90240,161124,216699,-0.5635097223,-9.1800639049,3.6299118841999998,864
89606,161024,216654,-0.6269195211999999,-9.054440718399999,3.6442688197999997,865
89202,161039,216653,-0.5682953675,-9.09272588,3.6179477712,866
88996,161008,216603,-0.6388836341999999,-9.109475638200001,3.5234312785000004,867
88930,160980,216606,-0.6711867393,-8.9575314031,3.6035908356,868
89075,161029,216634,-0.5898307709,-9.000602209899998,3.6729826909999996,869
89286,161001,216643,-0.6747759731999999,-9.064012008799999,3.6586257553999997,870
89481,161081,216672,-0.6364908116,-9.008977089,3.6873396266,871
89630,161104,216653,-0.5084748025,-8.9407816449,3.732803256,872
89725,161133,216673,-0.442672181,-9.0783689444,3.637090352,873
89829,161126,216725,-0.5718846014,-9.0735832992,3.649054465,874
89931,161127,216685,-0.5814558918,-9.1716890258,3.7674991837,875
90111,161169,216747,-0.6628118601999999,-9.041280194099999,3.6586257553999997,876
90303,161187,216759,-0.7286144817,-9.0137627342,3.7292140221,877
90428,161184,216784,-0.5635097223,-9.0137627342,3.6586257553999997,878
90670,161228,216837,-0.6628118601999999,-9.0460658393,3.7124642639,879
90863,161274,216810,-0.6029912952,-9.0903330574,3.7016965622000004,880
90616,161261,216790,-0.4881358104,-9.1058864043,3.6765719249,881
89974,161145,216714,-0.5012963347,-8.943174467499999,3.6610185779999997,882
89260,161058,216653,-0.5324030285,-9.0903330574,3.6825539814000003,883
88678,160992,216629,-0.5539384319,-9.0628155975,3.5820554322,884
88532,160987,216649,-0.6891329087999999,-9.0137627342,3.6514472876,885
88430,160967,216587,-0.5922235935,-9.0592263636,3.7339996673,886
88547,161024,216577,-0.5060819799,-9.0664048314,3.6729826909999996,887
88769,161036,216629,-0.7310073043,-9.0269232585,3.7316068447,888
89014,161067,216655,-0.622133876,-8.9359959997,3.6693934571,889
89208,161008,216696,-0.5682953675,-8.97308475,3.6741791022999997,890
89392,161087,216677,-0.6819544409999999,-9.081958178299999,3.565305674,891
89480,161092,216728,-0.5120640364,-9.0173519681,3.6035908356,892
89632,161111,216678,-0.6472585133,-9.019744790699999,3.6526436989,893
89773,161085,216736,-0.6388836341999999,-9.1357966868,3.6897324492,894
89974,161177,216754,-0.6364908116,-9.0771725331,3.720839143,895
90156,161203,216794,-0.6687939167,-9.1860459614,3.5880374887,896
90366,161222,216791,-0.6460621019999999,-9.1130648721,3.7459637803,897
90576,161280,216789,-0.6807580296999999,-9.020941202,3.6478580537000003,898
90796,161259,216854,-0.5946164161,-9.0999043478,3.5724841418,899
91009,161254,216905,-0.5778666579,-9.0999043478,3.6418759972,900
91254,161333,216856,-0.48933222169999996,-9.108279226899999,3.6873396266,901
91416,161363,216947,-0.48574298779999997,-8.983852451699999,3.613162126,902
91484,161367,216898,-0.48095734259999995,-9.1513500337,3.6957145057000003,903
91090,161258,216899,-0.514456859,-9.0053878551,3.7495530142,904
90414,161235,216835,-0.6831508522999999,-9.064012008799999,3.6466616424,905
89835,161201,216795,-0.6819544409999999,-9.0472622506,3.6251262389999996,906
89355,161148,216746,-0.5252245607,-9.0592263636,3.6155549486,907
89193,161133,216745,-0.6017948839,-9.042476605400001,3.6801611588,908
89172,161135,216724,-0.5994020613,-9.0041914438,3.6765719249,909
89220,161155,216773,-0.5958128274,-8.9623170483,3.6658042232,910
89552,161221,216784,-0.705882667,-9.0628155975,3.6035908356,911
89723,161210,216841,-0.6317051664,-9.1154576947,3.6418759972,912
89889,161282,216821,-0.6424728680999999,-9.0149591455,3.6323047068,913
90034,161243,216863,-0.7154539574000001,-9.0041914438,3.5485559157999997,914
90183,161280,216855,-0.5958128274,-9.1322074529,3.7040893848,915
90332,161203,216895,-0.6987041992,-9.1357966868,3.6586257553999997,916
90509,161359,216895,-0.6412764568,-9.1669033806,3.6658042232,917
90656,161421,216989,-0.6556333924,-8.9742811613,3.6059836581999996,918
90854,161424,216977,-0.5766702466,-8.9886380969,3.601198013,919
91071,161425,217000,-0.6999006105000001,-9.010173500299999,3.7316068447,920
91273,161404,216987,-0.7812565789,-9.1238325738,3.6203405937999995,921
91403,161460,217044,-0.6652046827999999,-9.042476605400001,3.7220355542999997,922
91203,161439,217010,-0.5647061336,-9.055637129700001,3.6442688197999997,923
90572,161357,216934,-0.5395814963,-8.9671026935,3.6311082955,924
90026,161318,216857,-0.7441678286,-9.1393859207,3.6179477712,925
89657,161293,216838,-0.5850451257,-8.9898345082,3.6442688197999997,926
89499,161257,216847,-0.526420972,-8.9994057986,3.6801611588,927
89529,161259,216854,-0.7118647235000001,-8.9120677737,3.6251262389999996,928
89696,161283,216895,-0.5922235935,-9.0125663229,3.6705898684,929
89950,161310,216922,-0.753739119,-8.9671026935,3.5988051904000002,930
90174,161332,216905,-0.6699903279999999,-9.0460658393,3.7304104334000003,931
90349,161332,216916,-0.7046862557000001,-9.054440718399999,3.6251262389999996,932
90449,161354,216939,-0.5898307709,-9.0161555568,3.6670006345,933
90651,161394,216995,-0.4331008906,-9.0711904766,3.7172499091,934
90796,161399,216965,-0.7310073043,-9.1441715659,3.8153556357,935
90962,161449,216983,-0.6185446421,-9.0759761218,3.7962130549,936
91106,161418,217033,-0.5072783912000001,-8.873782612100001,3.7112678526000002,937
91309,161460,217011,-0.5886343596,-9.042476605400001,3.7244283769,938
91467,161488,217020,-0.6257231099,-9.044869428,3.6418759972,939
91567,161500,217026,-0.6675975054,-9.054440718399999,3.7316068447,940
91673,161515,217042,-0.4821537539,-8.9826560404,3.6514472876,941
91106,161423,216946,-0.6005984726,-9.0173519681,3.7005001509,942
90444,161350,216919,-0.7262216591,-8.9742811613,3.7244283769,943
89966,161302,216922,-0.7561319416,-9.006584266399999,3.6299118841999998,944
89660,161213,216849,-0.693918554,-9.1920280179,3.6466616424,945
89568,161277,216875,-0.6987041992,-9.0496550732,3.6586257553999997,946
89631,161306,216877,-0.49651068949999994,-9.064012008799999,3.6681970457999995,947
89818,161281,216881,-0.6460621019999999,-9.1142612834,3.6000016017000003,948
90000,161301,216866,-0.5395814963,-9.0400837828,3.6346975294,949
90228,161321,216915,-0.6340979889999999,-8.983852451699999,3.6107693033999997,950
90405,161358,216908,-0.6364908116,-9.006584266399999,3.6502508763,951
90527,161354,216931,-0.6149554081999999,-9.010173500299999,3.6023944243,952
90659,161346,216934,-0.7238288365000001,-8.9599242257,3.7926238210000003,953
90798,161381,216935,-0.5802594805,-9.0783689444,3.7256247882,954
90946,161466,216944,-0.7716852885,-9.000602209899998,3.6562329328,955
91073,161442,216985,-0.586241537,-9.020941202,3.6837503927,956
91189,161446,216979,-0.5814558918,-9.037690960199999,3.6897324492,957
91455,161447,217018,-0.7106683122,-9.0855474122,3.6406795858999996,958
91542,161442,217003,-0.6891329087999999,-9.0496550732,3.7351960786,959
91218,161434,216946,-0.6448656907,-9.0305124924,3.6658042232,960
90472,161321,216866,-0.7310073043,-9.000602209899998,3.5976087790999998,961
89771,161255,216839,-0.6472585133,-9.0436730167,3.6323047068,962
89378,161198,216789,-0.6508477471999999,-9.055637129700001,3.6251262389999996,963
89167,161212,216759,-0.6879364975,-9.0472622506,3.6825539814000003,964
89090,161175,216735,-0.5216353268,-9.056833541,3.6693934571,965
89164,161179,216778,-0.6807580296999999,-9.037690960199999,3.7268211995,966
89449,161210,216808,-0.6556333924,-9.0125663229,3.7005001509,967
89621,161267,216803,-0.6987041992,-9.1357966868,3.7160534978000004,968
89776,161228,216778,-0.5766702466,-9.006584266399999,3.6203405937999995,969
89872,161240,216805,-0.6149554081999999,-9.1740818484,3.6323047068,970
89971,161244,216786,-0.6771687957999999,-9.055637129700001,3.6777683362,971
90082,161251,216809,-0.5682953675,-9.008977089,3.6753755136,972
90156,161258,216834,-0.6317051664,-9.037690960199999,3.6909288605,973
90401,161286,216855,-0.6245266986,-8.9515493466,3.7040893848,974
90531,161332,216881,-0.4510470601,-9.1190469286,3.5796626096,975
90723,161341,216886,-0.6699903279999999,-8.949156524,3.6945180944,976
90829,161320,216831,-0.5874379483000001,-9.1513500337,3.5868410774,977
90458,161288,216812,-0.6317051664,-9.152546445,3.5916267225999996,978
89872,161212,216733,-0.5455635528,-8.9766739839,3.6646078119,979
89076,161119,216680,-0.5922235935,-9.1692962032,3.5868410774,980
88536,161045,216641,-0.7142575461,-9.0580299523,3.6646078119,981
88205,161026,216617,-0.5000999234,-8.998209387300001,3.6801611588,982
88092,161027,216579,-0.5204389155,-9.1860459614,3.6586257553999997,983
88164,160992,216596,-0.5443671415,-8.943174467499999,3.6394831745999996,984
88399,161050,216625,-0.7645068207,-9.1381895094,3.6933216830999998,985
88650,161093,216648,-0.6352944003,-9.0293160811,3.6681970457999995,986
88813,161057,216632,-0.5371886737,-9.0436730167,3.6681970457999995,987
88999,161053,216652,-0.5347958510999999,-9.0795653557,3.6753755136,988
89142,161133,216665,-0.5479563754,-9.0077806777,3.6705898684,989
89274,161089,216690,-0.6687939167,-9.0628155975,3.6311082955,990
89425,161133,216671,-0.5527420206,-9.0616191862,3.637090352,991
89595,161121,216707,-0.4594219392,-9.038887371500001,3.5330025689,992
89797,161137,216762,-0.6568298037,-9.1130648721,3.5665020853000002,993
90003,161166,216750,-0.6436692794,-9.0999043478,3.6681970457999995,994
90221,161169,216772,-0.47976093129999997,-9.0879402348,3.6059836581999996,995
90237,161212,216758,-0.6735795618999999,-9.0915294687,3.6981073283,996
89771,161162,216708,-0.5240281494,-9.000602209899998,3.6729826909999996,997
89001,161037,216634,-0.6915257314000001,-9.0939222913,3.6155549486,998
88294,160963,216574,-0.7238288365000001,-9.0699940653,3.5892339,999
87899,160918,216551,-0.5276173833,-9.0747797105,3.6035908356,1000
87696,160883,216527,-0.6424728680999999,-9.044869428,3.6801611588,1001
87706,160893,216515,-0.6628118601999999,-9.0293160811,3.6203405937999995,1002
87846,160948,216530,-0.5718846014,-9.054440718399999,3.6346975294,1003
88236,160990,216572,-0.7489534738,-8.9694955161,3.7040893848,1004
88453,160976,216620,-0.5048855686,-9.050851484499999,3.5976087790999998,1005
88645,160997,216588,-0.574277424,-9.064012008799999,3.7160534978000004,1006
88836,161063,216619,-0.6005984726,-9.064012008799999,3.6442688197999997,1007
88990,161035,216601,-0.5587240770999999,-8.998209387300001,3.6586257553999997,1008
89159,161025,216680,-0.7884350467,-9.0221376133,3.5940195452,1009
89361,161095,216700,-0.7190431913,-8.931210354500001,3.6023944243,1010
89581,161102,216713,-0.6317051664,-9.0759761218,3.6442688197999997,1011
89781,161150,216765,-0.6173482308,-9.1070828156,3.6658042232,1012
90034,161175,216772,-0.6329015777,-9.0125663229,3.7244283769,1013
90264,161247,216812,-0.5228317381,-9.044869428,3.6466616424,1014
90434,161236,216813,-0.693918554,-9.0484586619,3.7375889012,1015
90732,161319,216857,-0.6568298037,-9.1776710823,3.6861432153,1016
90853,161279,216900,-0.7489534738,-9.1716890258,3.6658042232,1017
91117,161301,216871,-0.6556333924,-9.1154576947,3.684946804,1018
90977,161297,216865,-0.5132604477,-9.206384953499999,3.6514472876,1019
90366,161190,216777,-0.5228317381,-9.0484586619,3.8009987001,1020
89667,161103,216784,-0.6412764568,-9.0269232585,3.7351960786,1021
89045,161069,216667,-0.47856452,-8.9886380969,3.6299118841999998,1022
88744,161026,216647,-0.71784678,-9.09272588,3.5700913192,1023
88686,161018,216678,-0.7369893608,-9.1477607998,3.6753755136,1024
88772,161035,216637,-0.6687939167,-9.0041914438,3.7292140221,1025
88953,161055,216706,-0.5946164161,-9.1441715659,3.6083764808,1026
89210,161071,216722,-0.7357929495000001,-9.0915294687,3.6801611588,1027
89354,161097,216696,-0.6616154488999999,-9.0843510009,3.6610185779999997,1028
89538,161135,216722,-0.6376872229,-8.9874416856,3.6203405937999995,1029
89610,161145,216772,-0.6580262149999999,-8.970691927399999,3.6717862797,1030
89802,161190,216775,-0.6125625856,-9.0735832992,3.6538401101999995,1031
89967,161154,216752,-0.6855436748999999,-9.1011007591,3.7435709577,1032
90121,161171,216786,-0.5766702466,-8.9826560404,3.6729826909999996,1033
90324,161142,216845,-0.6077769404,-8.9694955161,3.7483566029,1034
90510,161233,216845,-0.502492746,-9.0125663229,3.6346975294,1035
90741,161291,216868,-0.6269195211999999,-9.2255275343,3.6753755136,1036
90944,161312,216888,-0.6771687957999999,-9.0975115252,3.6406795858999996,1037
91130,161271,216887,-0.6831508522999999,-9.1190469286,3.6729826909999996,1038
91093,161338,216888,-0.6376872229,-9.1022971704,3.6466616424,1039
90543,161213,216840,-0.6149554081999999,-9.0628155975,3.6789647475,1040
89988,161153,216788,-0.5826523031,-9.0903330574,3.7531422481,1041
89554,161121,216760,-0.6568298037,-8.9539421692,3.6945180944,1042
89313,161125,216725,-0.5515456093,-8.9192462415,3.6957145057000003,1043
89252,161079,216754,-0.6412764568,-9.1058864043,3.637090352,1044
89398,161152,216763,-0.5802594805,-9.1118684608,3.5509487384000002,1045
89585,161133,216779,-0.6795616184,-9.0472622506,3.6622149893000002,1046
89937,161227,216805,-0.5670989562,-9.0867438235,3.6095728921,1047
90108,161207,216804,-0.5635097223,-9.0879402348,3.6586257553999997,1048
90306,161217,216830,-0.5778666579,-8.975477572600001,3.6789647475,1049
90469,161234,216845,-0.5682953675,-9.175278259699999,3.6681970457999995,1050
90658,161263,216851,-0.6807580296999999,-9.109475638200001,3.7016965622000004,1051
90832,161281,216902,-0.5527420206,-8.9001036607,3.5964123677999997,1052
91009,161317,216893,-0.574277424,-9.037690960199999,3.7339996673,1053
91201,161383,216968,-0.5300102059,-9.0017986212,3.6753755136,1054
91400,161326,216942,-0.7345965382,-9.0257268472,3.7339996673,1055
91672,161409,216996,-0.6843472636,-8.9814596291,3.7375889012,1056
91658,161410,216986,-0.6305087550999999,-9.0532443071,3.7244283769,1057
91597,161354,216943,-0.5886343596,-9.116654106,3.7794632967,1058
91132,161267,216862,-0.5371886737,-9.0233340246,3.6083764808,1059
90536,161222,216822,-0.6723831506,-9.1501536224,3.8009987001,1060
90250,161179,216877,-0.5946164161,-9.0532443071,3.6107693033999997,1061
90107,161154,216876,-0.6640082715,-9.0735832992,3.684946804,1062
90094,161175,216793,-0.6245266986,-8.916853418899999,3.6299118841999998,1063
90223,161200,216798,-0.5395814963,-9.121439751199999,3.5916267225999996,1064
90458,161242,216835,-0.6915257314000001,-9.121439751199999,3.7722848289,1065
90599,161236,216866,-0.5611168997,-9.1968136631,3.6586257553999997,1066
90789,161249,216893,-0.6185446421,-9.0029950325,3.7627135385,1067
90928,161265,216877,-0.6855436748999999,-8.9671026935,3.7268211995,1068
91067,161263,216891,-0.5886343596,-9.0987079365,3.6083764808,1069
91218,161293,216895,-0.5443671415,-9.117850517299999,3.6837503927,1070
91327,161304,216879,-0.6831508522999999,-8.9001036607,3.6107693033999997,1071
91484,161321,216949,-0.5587240770999999,-9.041280194099999,3.6418759972,1072
91648,161350,216931,-0.6999006105000001,-9.0400837828,3.7136606752,1073
91828,161409,216957,-0.8051848049,-9.1716890258,3.6825539814000003,1074
91926,161364,216964,-0.5802594805,-8.9778703952,3.7256247882,1075
91730,161340,216912,-0.5563312545,-9.0759761218,3.6083764808,1076
91225,161250,216835,-0.5718846014,-9.0759761218,3.6562329328,1077
90700,161135,216799,-0.5958128274,-8.9910309195,3.7375889012,1078
90322,161159,216770,-0.5694917788,-9.121439751199999,3.6251262389999996,1079
90120,161168,216773,-0.610169763,-8.9898345082,3.6634114006,1080
90064,161135,216768,-0.610169763,-8.9874416856,3.6227334164,1081
90205,161136,216783,-0.6951149653,-9.09272588,3.7184463204,1082
90393,161183,216779,-0.6173482308,-8.983852451699999,3.6897324492,1083
90568,161167,216776,-0.6113661743,-8.9790668065,3.6634114006,1084
90731,161243,216802,-0.6388836341999999,-9.0400837828,3.7256247882,1085
90793,161182,216815,-0.4821537539,-9.140582332,3.7280176108,1086
90992,161247,216846,-0.5970092387,-8.9886380969,3.6753755136,1087
91094,161219,216843,-0.6281159325,-9.042476605400001,3.6466616424,1088
91193,161228,216830,-0.5659025448999999,-8.9575314031,3.6526436989,1089
91362,161321,216844,-0.5563312545,-8.9802632178,3.6801611588,1090
91483,161258,216859,-0.5958128274,-9.0149591455,3.7962130549,1091
91642,161225,216855,-0.7513462964000001,-9.0735832992,3.7531422481,1092
91676,161301,216830,-0.5790630692000001,-9.1022971704,3.6203405937999995,1093
91337,161233,216802,-0.5790630692000001,-9.0137627342,3.7663027724,1094
90597,161127,216738,-0.5228317381,-8.9910309195,3.6610185779999997,1095
90044,161058,216674,-0.5036891573,-9.1334038642,3.720839143,1096
89539,161024,216671,-0.5204389155,-9.054440718399999,3.6035908356,1097
89311,161005,216639,-0.5994020613,-8.8606220878,3.7304104334000003,1098
89232,160998,216636,-0.6891329087999999,-9.0592263636,3.649054465,1099
89331,160997,216638,-0.6197410534,-9.1322074529,3.6777683362,1100
89551,161041,216649,-0.6484549246,-8.9934237421,3.6729826909999996,1101
89681,161052,216660,-0.5455635528,-8.9575314031,3.7064822074,1102
89826,161049,216680,-0.5814558918,-9.0628155975,3.7040893848,1103
89930,161054,216718,-0.6077769404,-9.2374916473,3.6717862797,1104
90024,161079,216683,-0.5312066172,-9.121439751199999,3.6418759972,1105
90134,161074,216679,-0.6747759731999999,-8.9419780562,3.6921252718,1106
90284,161098,216719,-0.4941178669,-8.9790668065,3.6813575701,1107
90424,161128,216773,-0.5563312545,-9.037690960199999,3.6909288605,1108
90566,161127,216738,-0.6065805291,-9.224331123,3.6634114006,1109
90718,161143,216737,-0.765703232,-9.0891366461,3.732803256,1110
90506,161103,216717,-0.5012963347,-8.9766739839,3.6275190616,1111
89964,161028,216663,-0.7106683122,-9.0975115252,3.6442688197999997,1112
89211,160954,216606,-0.6640082715,-9.096315113900001,3.7435709577,1113
88627,160881,216532,-0.6604190376,-9.0137627342,3.6562329328,1114
88265,160905,216534,-0.5778666579,-8.983852451699999,3.6083764808,1115
88097,160814,216526,-0.6951149653,-9.0628155975,3.6681970457999995,1116
88165,160860,216531,-0.7609175868,-9.0269232585,3.6681970457999995,1117
88387,160903,216555,-0.6759723845,-9.038887371500001,3.5162528107,1118
88612,160901,216591,-0.526420972,-9.0616191862,3.601198013,1119
88833,160947,216578,-0.5096712138,-9.0903330574,3.6658042232,1120
88975,160932,216573,-0.4390829471,-8.9934237421,3.6107693033999997,1121
89135,160974,216594,-0.4941178669,-9.0400837828,3.6873396266,1122
89270,160996,216644,-0.5515456093,-9.1597249128,3.7244283769,1123
89419,160992,216653,-0.6496513358999999,-9.1860459614,3.6179477712,1124
89580,161019,216650,-0.6400800455,-9.0233340246,3.6586257553999997,1125
89811,161066,216671,-0.7274180704000001,-9.0113699116,3.7112678526000002,1126
89956,161083,216707,-0.526420972,-9.128618219,3.6969109170000003,1127
90168,161105,216780,-0.6460621019999999,-9.140582332,3.6801611588,1128
90146,161087,216749,-0.610169763,-9.0664048314,3.649054465,1129
89582,161049,216720,-0.4821537539,-9.0843510009,3.649054465,1130
88919,160976,216623,-0.5814558918,-9.0137627342,3.6394831745999996,1131
88259,160914,216595,-0.6161518195,-9.038887371500001,3.6083764808,1132
87918,160899,216605,-0.574277424,-9.019744790699999,3.5437702705999996,1133
87794,160828,216547,-0.5814558918,-9.0747797105,3.6933216830999998,1134
87876,160871,216587,-0.6089733517,-9.020941202,3.5593236175,1135
88107,160948,216582,-0.7034898444000001,-9.0113699116,3.5892339,1136
88405,160859,216610,-0.6783652070999999,-9.0735832992,3.6873396266,1137
88677,160956,216679,-0.6352944003,-9.1118684608,3.7028929734999996,1138
88880,160978,216668,-0.48933222169999996,-8.985048863000001,3.5940195452,1139
89051,161045,216730,-0.5778666579,-9.056833541,3.6562329328,1140
89215,161054,216712,-0.5802594805,-9.128618219,3.6155549486,1141
89308,161050,216747,-0.5288137946,-9.1022971704,3.6897324492,1142
89563,161056,216766,-0.5276173833,-9.0592263636,3.6634114006,1143
89807,161110,216770,-0.5288137946,-9.0831545896,3.6323047068,1144
90020,161110,216843,-0.7130611348,-8.8809610799,3.6323047068,1145
90265,161162,216810,-0.7070790783,-8.9503529353,3.6035908356,1146
90500,161182,216872,-0.514456859,-9.038887371500001,3.6466616424,1147
90716,161223,216926,-0.6029912952,-9.1776710823,3.7052857961,1148
90955,161258,216901,-0.6987041992,-9.0305124924,3.6610185779999997,1149
91080,161268,216950,-0.6340979889999999,-9.0891366461,3.8105699905,1150
91355,161231,216945,-0.514456859,-9.108279226899999,3.6299118841999998,1151
91290,161339,216940,-0.6173482308,-9.0855474122,3.6753755136,1152
90760,161288,216868,-0.6927221427000001,-9.0879402348,3.6203405937999995,1153
90082,161201,216879,-0.6149554081999999,-9.0053878551,3.6825539814000003,1154
89613,161144,216841,-0.5575276658,-9.0735832992,3.5437702705999996,1155
89372,161139,216827,-0.6436692794,-8.9790668065,3.6681970457999995,1156
89303,161052,216857,-0.7238288365000001,-9.0173519681,3.8105699905,1157
89469,161175,216863,-0.5000999234,-9.0903330574,3.6442688197999997,1158
89663,161245,216870,-0.5802594805,-8.9826560404,3.7172499091,1159
89886,161224,216922,-0.5563312545,-9.109475638200001,3.6765719249,1160
90153,161245,216928,-0.5551348432,-9.032905315,3.601198013,1161
90310,161340,216950,-0.5946164161,-8.9910309195,3.7651063610999995,1162
90484,161303,216990,-0.6771687957999999,-9.042476605400001,3.6729826909999996,1163
90679,161300,217026,-0.6484549246,-9.044869428,3.6945180944,1164
90852,161345,217015,-0.7022934331,-9.1740818484,3.6825539814000003,1165
91021,161348,217060,-0.6927221427000001,-9.038887371500001,3.7459637803,1166
91227,161372,217075,-0.6173482308,-9.0831545896,3.6789647475,1167
91454,161437,217112,-0.5838487144,-8.9563349918,3.6729826909999996,1168
91677,161478,217133,-0.5156532703,-9.1142612834,3.6873396266,1169
91918,161528,217156,-0.6879364975,-9.0580299523,3.6825539814000003,1170
92003,161523,217161,-0.6460621019999999,-9.1429751546,3.7112678526000002,1171
91793,161386,217108,-0.5359922624,-8.9898345082,3.6143585373000002,1172
91422,161434,217047,-0.5934200048,-8.9036928946,3.5868410774,1173
91018,161426,217032,-0.49292145559999995,-8.970691927399999,3.6969109170000003,1174
90803,161428,217068,-0.5635097223,-8.997012975999999,3.7591243046000002,1175
90753,161414,217063,-0.5407779076,-8.9910309195,3.7316068447,1176
90755,161413,217078,-0.5886343596,-9.0987079365,3.7220355542999997,1177
91022,161510,217108,-0.6520441585,-9.0400837828,3.6083764808,1178
91253,161389,217134,-0.6747759731999999,-9.2087777761,3.6873396266,1179
91481,161511,217111,-0.6640082715,-9.095118702599999,3.601198013,1180
91662,161530,217162,-0.6927221427000001,-9.1142612834,3.6586257553999997,1181
91828,161474,217147,-0.6125625856,-9.0137627342,3.7064822074,1182
92031,161605,217157,-0.7130611348,-8.9671026935,3.6275190616,1183
92132,161574,217196,-0.705882667,-9.0400837828,3.6059836581999996,1184
92306,161594,217230,-0.4474578262,-9.0161555568,3.6765719249,1185
92457,161620,217229,-0.5922235935,-9.0352981376,3.6921252718,1186
92634,161656,217256,-0.622133876,-9.140582332,3.7615171272,1187
92856,161681,217240,-0.693918554,-9.131011041599999,3.6059836581999996,1188
92977,161668,217258,-0.5670989562,-9.0520478958,3.6921252718,1189
93034,161665,217246,-0.6161518195,-9.1034935817,3.7028929734999996,1190
92794,161618,217250,-0.49172504429999997,-9.008977089,3.6227334164,1191
92411,161625,217207,-0.5443671415,-9.109475638200001,3.6179477712,1192
92052,161561,217173,-0.6185446421,-9.1190469286,3.613162126,1193
91762,161548,217152,-0.6400800455,-8.9515493466,3.7555350706999997,1194
91739,161472,217163,-0.5419743189,-9.0783689444,3.6586257553999997,1195
91793,161585,217230,-0.6137589969,-9.0711904766,3.7064822074,1196
91918,161589,217191,-0.5946164161,-9.0077806777,3.7136606752,1197
92012,161581,217212,-0.6472585133,-8.9886380969,3.7040893848,1198
92283,161666,217219,-0.5754738353000001,-9.1680997919,3.637090352,1199
92373,161641,217222,-0.6436692794,-9.0125663229,3.6945180944,1200
92492,161664,217200,-0.6293123438,-9.055637129700001,3.6586257553999997,1201
92613,161689,217226,-0.5563312545,-9.1716890258,3.6538401101999995,1202
92712,161641,217247,-0.5659025448999999,-9.0711904766,3.637090352,1203
92843,161661,217275,-0.5036891573,-8.939585233599999,3.6394831745999996,1204
93000,161708,217239,-0.6065805291,-9.032905315,3.7280176108,1205
93084,161694,217254,-0.741775006,-9.054440718399999,3.6418759972,1206
93238,161736,217249,-0.6305087550999999,-9.0723868879,3.6921252718,1207
93362,161720,217237,-0.466600407,-9.1680997919,3.5605200288,1208
93341,161677,217207,-0.6819544409999999,-8.9946201534,3.7459637803,1209
93029,161710,217230,-0.7501498851,-8.9946201534,3.6658042232,1210
92493,161632,217196,-0.6293123438,-9.0771725331,3.6107693033999997,1211
92029,161598,217137,-0.5407779076,-8.9383888223,3.6969109170000003,1212
91714,161545,217138,-0.6508477471999999,-9.0891366461,3.6837503927,1213
91525,161547,217131,-0.5766702466,-9.0664048314,3.6909288605,1214
91471,161560,217100,-0.6412764568,-8.9694955161,3.6251262389999996,1215
91514,161571,217096,-0.7202396026000001,-9.0269232585,3.6418759972,1216
91684,161588,217115,-0.7848458128,-9.1298146303,3.6813575701,1217
91795,161565,217104,-0.4941178669,-9.1334038642,3.6382867633,1218
91795,161579,217105,-0.6795616184,-9.128618219,3.613162126,1219
91898,161564,217101,-0.5252245607,-9.006584266399999,3.6729826909999996,1220
92028,161564,217112,-0.5395814963,-9.220741889100001,3.5796626096,1221
92067,161559,217117,-0.7549355303,-9.0735832992,3.5509487384000002,1222
92153,161613,217089,-0.47736810869999996,-9.0053878551,3.6418759972,1223
92236,161578,217097,-0.622133876,-8.997012975999999,3.7005001509,1224
92360,161551,217110,-0.6795616184,-9.0233340246,3.6693934571,1225
92530,161601,217126,-0.7405785947,-9.1322074529,3.7040893848,1226
92559,161605,217106,-0.6699903279999999,-9.096315113900001,3.6670006345,1227
92327,161629,217109,-0.586241537,-8.998209387300001,3.5832518435,1228
91857,161558,217047,-0.5551348432,-9.081958178299999,3.6107693033999997,1229
91117,161458,216974,-0.5706881900999999,-9.104689993,3.7064822074,1230
90477,161437,216932,-0.59820565,-9.010173500299999,3.6897324492,1231
90143,161325,216924,-0.5048855686,-8.9647098709,3.6610185779999997,1232
89958,161367,216870,-0.6496513358999999,-9.010173500299999,3.7040893848,1233
89926,161384,216889,-0.5910271822000001,-9.0496550732,3.6335011181000003,1234
90054,161443,216891,-0.6699903279999999,-8.9958165647,3.6538401101999995,1235
90202,161382,216911,-0.5886343596,-9.041280194099999,3.6107693033999997,1236
90277,161415,216891,-0.5132604477,-9.0759761218,3.6562329328,1237
90439,161454,216923,-0.6580262149999999,-9.042476605400001,3.720839143,1238
90501,161432,216914,-0.6005984726,-8.9503529353,3.7040893848,1239
90587,161405,216914,-0.5347958510999999,-9.2279203569,3.7160534978000004,1240
90680,161336,216936,-0.5335994398,-8.985048863000001,3.7710884175999997,1241
90813,161471,216943,-0.4749752861,-9.176474671,3.7040893848,1242
90994,161487,216953,-0.5132604477,-9.0472622506,3.7579278933,1243
91108,161518,216973,-0.6795616184,-9.1022971704,3.6658042232,1244
91205,161461,216985,-0.6843472636,-9.0855474122,3.6107693033999997,1245
91093,161501,216942,-0.5838487144,-9.0472622506,3.7543386594,1246
90708,161442,216930,-0.48335016519999996,-8.926424709299999,3.6753755136,1247
89926,161340,216842,-0.5754738353000001,-8.9647098709,3.6083764808,1248
89384,161324,216792,-0.5060819799,-9.0472622506,3.6179477712,1249
89054,161305,216784,-0.6616154488999999,-9.0999043478,3.7196427317,1250
88860,161263,216767,-0.5587240770999999,-9.0735832992,3.7411781350999997,1251
88914,161282,216782,-0.5000999234,-9.042476605400001,3.6897324492,1252
89064,161341,216796,-0.5766702466,-9.0173519681,3.637090352,1253
89303,161268,216804,-0.5790630692000001,-9.0903330574,3.6035908356,1254
89516,161285,216782,-0.538385085,-8.9359959997,3.7316068447,1255
89674,161288,216851,-0.6197410534,-9.056833541,3.7651063610999995,1256
89798,161337,216829,-0.5910271822000001,-8.8689969669,3.7339996673,1257
89950,161330,216870,-0.6843472636,-8.9802632178,3.6239298277,1258
90095,161380,216874,-0.6951149653,-9.0472622506,3.6993037396,1259
90277,161404,216861,-0.5072783912000001,-9.042476605400001,3.6538401101999995,1260
90418,161458,216894,-0.6245266986,-9.0436730167,3.6394831745999996,1261
90618,161419,216877,-0.6257231099,-9.037690960199999,3.6466616424,1262
90794,161440,216946,-0.6388836341999999,-9.1549392676,3.6323047068,1263
91018,161475,216942,-0.5048855686,-8.9898345082,3.637090352,1264
91219,161478,216987,-0.586241537,-9.055637129700001,3.6705898684,1265
91490,161504,216972,-0.43429730190000004,-9.1992064857,3.6346975294,1266
91581,161504,216974,-0.6352944003,-9.056833541,3.6945180944,1267
91787,161533,217023,-0.7094719009,-9.019744790699999,3.6933216830999998,1268
91685,161556,217018,-0.5491527867,-9.1274218077,3.6287154729,1269
91168,161507,216941,-0.5252245607,-9.056833541,3.6586257553999997,1270
90375,161404,216952,-0.6640082715,-8.9778703952,3.6394831745999996,1271
89925,161354,216897,-0.6783652070999999,-9.09272588,3.6275190616,1272
89473,161321,216868,-0.6568298037,-9.038887371500001,3.6538401101999995,1273
89428,161340,216800,-0.5012963347,-9.0747797105,3.5868410774,1274
89380,161338,216825,-0.6460621019999999,-9.056833541,3.7627135385,1275
89660,161319,216831,-0.48574298779999997,-9.164510558,3.649054465,1276
89850,161373,216830,-0.7106683122,-9.037690960199999,3.7160534978000004,1277
90019,161392,216887,-0.6125625856,-9.054440718399999,3.6227334164,1278
90148,161391,216920,-0.5407779076,-9.0041914438,3.7148570865,1279
90232,161378,216870,-0.6388836341999999,-9.068797654,3.6107693033999997,1280
90378,161418,216900,-0.5778666579,-9.1561356789,3.565305674,1281
90486,161377,216901,-0.6173482308,-9.041280194099999,3.5988051904000002,1282
90636,161404,216906,-0.6173482308,-9.0185483794,3.6155549486,1283
90779,161367,216927,-0.5587240770999999,-9.020941202,3.6239298277,1284
90941,161487,216950,-0.4989035121,-9.0771725331,3.6466616424,1285
91140,161470,217001,-0.6891329087999999,-9.1202433399,3.7507494254999996,1286
91332,161499,217023,-0.7274180704000001,-9.0400837828,3.5724841418,1287
91393,161546,216941,-0.7274180704000001,-9.0293160811,3.6909288605,1288
91089,161503,216984,-0.622133876,-9.006584266399999,3.6047872469,1289
90494,161456,216891,-0.6628118601999999,-9.0137627342,3.6514472876,1290
89930,161370,216857,-0.6580262149999999,-8.9635134596,3.6825539814000003,1291
89544,161349,216875,-0.5180460929,-9.1142612834,3.6502508763,1292
89330,161329,216880,-0.6412764568,-9.0305124924,3.7220355542999997,1293
89395,161352,216846,-0.5766702466,-9.0352981376,3.6550365215,1294
89550,161369,216845,-0.6544369810999999,-8.9001036607,3.6466616424,1295
89755,161382,216901,-0.6436692794,-9.0783689444,3.6323047068,1296
90082,161417,216927,-0.6652046827999999,-9.0041914438,3.601198013,1297
90313,161464,216877,-0.6317051664,-9.037690960199999,3.7016965622000004,1298
90434,161461,216928,-0.5539384319,-9.0520478958,3.5629128513999997,1299
90592,161485,216990,-0.71784678,-9.0855474122,3.6107693033999997,1300
90748,161493,216976,-0.6963113766000001,-9.0257268472,3.6897324492,1301
90934,161570,217058,-0.7274180704000001,-9.0221376133,3.6729826909999996,1302
91018,161542,217036,-0.5228317381,-8.961120637,3.6514472876,1303
91292,161567,217048,-0.6245266986,-9.0173519681,3.7100714413,1304
91515,161576,217067,-0.6424728680999999,-9.044869428,3.7280176108,1305
91674,161621,217058,-0.454636294,-8.9336031771,3.6251262389999996,1306
91595,161580,217058,-0.5072783912000001,-9.1034935817,3.7184463204,1307
91139,161507,217010,-0.6592226263,-8.9096749511,3.7375889012,1308
90580,161385,216956,-0.6711867393,-9.0795653557,3.7555350706999997,1309
90143,161403,216958,-0.6927221427000001,-8.9216390641,3.5844482548,1310
89929,161444,216938,-0.6041877065,-9.081958178299999,3.6035908356,1311
89887,161430,216954,-0.5659025448999999,-9.0077806777,3.6203405937999995,1312
89990,161378,216973,-0.7022934331,-8.9551385805,3.7866417645,1313
90212,161451,216950,-0.6209374647,-9.0029950325,3.7040893848,1314
90452,161453,216964,-0.6711867393,-8.9647098709,3.7316068447,1315
90639,161436,216985,-0.43429730190000004,-8.9563349918,3.6670006345,1316
90797,161436,216981,-0.5228317381,-9.152546445,3.6574293441,1317
90943,161514,216962,-0.5587240770999999,-8.9862452743,3.6562329328,1318
91096,161540,217013,-0.7334001269,-9.0939222913,3.6801611588,1319
91218,161570,217032,-0.5838487144,-9.0400837828,3.6394831745999996,1320
91355,161581,217040,-0.5706881900999999,-8.9156570076,3.7351960786,1321
91516,161559,217089,-0.5802594805,-9.0137627342,3.7363924898999996,1322
91704,161538,217110,-0.7082754896000001,-9.0628155975,3.6562329328,1323
91877,161621,217126,-0.7334001269,-9.1070828156,3.7172499091,1324
91902,161622,217066,-0.5838487144,-9.0891366461,3.5820554322,1325
91447,161567,217027,-0.5479563754,-8.9563349918,3.6957145057000003,1326
90849,161492,216958,-0.6819544409999999,-9.0029950325,3.7519458368,1327
90270,161421,216910,-0.6831508522999999,-9.000602209899998,3.7172499091,1328
89924,161386,216936,-0.5611168997,-9.008977089,3.6933216830999998,1329
89821,161386,216948,-0.6652046827999999,-9.0747797105,3.7220355542999997,1330
89852,161388,216910,-0.59820565,-8.9288175319,3.6287154729,1331
90024,161411,216908,-0.6747759731999999,-8.949156524,3.7052857961,1332
90247,161404,216910,-0.6831508522999999,-9.054440718399999,3.7651063610999995,1333
90440,161434,216933,-0.5754738353000001,-9.0616191862,3.6107693033999997,1334
90599,161456,216912,-0.7716852885,-9.0161555568,3.5772697869999996,1335
90710,161492,216928,-0.8003991597,-9.0460658393,3.6299118841999998,1336
90834,161443,216957,-0.4941178669,-9.1836531388,3.7172499091,1337
90963,161445,216969,-0.6556333924,-9.056833541,3.7064822074,1338
91096,161511,216971,-0.6664010940999999,-9.0520478958,3.6945180944,1339
91244,161456,216956,-0.6460621019999999,-9.0233340246,3.7651063610999995,1340
91443,161535,217034,-0.6149554081999999,-9.056833541,3.7064822074,1341
91592,161567,216999,-0.7322037156,-9.0580299523,3.6059836581999996,1342
91482,161574,216977,-0.622133876,-9.0173519681,3.6203405937999995,1343
90904,161427,216917,-0.7034898444000001,-8.952745757899999,3.6681970457999995,1344
90191,161366,216881,-0.7166503687,-9.0903330574,3.6251262389999996,1345
89582,161345,216810,-0.6149554081999999,-9.152546445,3.6873396266,1346
89213,161282,216792,-0.7645068207,-9.0783689444,3.7579278933,1347
89041,161257,216779,-0.5814558918,-8.9503529353,3.6825539814000003,1348
89065,161266,216817,-0.5288137946,-9.0400837828,3.6705898684,1349
89187,161262,216765,-0.7764709337,-9.0735832992,3.7172499091,1350
89405,161281,216780,-0.7645068207,-9.1453679772,3.7232319655999997,1351
89574,161270,216797,-0.4845465765,-9.165706969299999,3.6442688197999997,1352
89739,161293,216799,-0.6771687957999999,-9.1381895094,3.7232319655999997,1353
89870,161266,216843,-0.5587240770999999,-9.0305124924,3.6861432153,1354
89927,161304,216793,-0.6580262149999999,-8.9826560404,3.7016965622000004,1355
89964,161304,216817,-0.5874379483000001,-9.0173519681,3.6287154729,1356
90176,161260,216843,-0.6484549246,-8.8558364426,3.6909288605,1357
90349,161327,216847,-0.5276173833,-8.9563349918,3.6586257553999997,1358
90519,161393,216848,-0.6927221427000001,-9.0472622506,3.6658042232,1359
90576,161358,216892,-0.5395814963,-9.1142612834,3.7005001509,1360
90484,161352,216844,-0.59820565,-9.0783689444,3.6035908356,1361
89823,161264,216770,-0.6125625856,-9.0185483794,3.5306097463,1362
89042,161166,216720,-0.5503491979999999,-9.0604227749,3.6777683362,1363
88416,161146,216643,-0.5814558918,-9.0735832992,3.6442688197999997,1364
88027,161032,216579,-0.6125625856,-9.050851484499999,3.7160534978000004,1365
87905,160945,216607,-0.6125625856,-9.0676012427,3.6035908356,1366
87993,161057,216618,-0.6747759731999999,-8.9647098709,3.7088750299999997,1367
88210,161120,216631,-0.6987041992,-9.006584266399999,3.6502508763,1368
88434,161087,216650,-0.6281159325,-8.9479601127,3.6466616424,1369
88699,161102,216670,-0.7094719009,-9.0616191862,3.6251262389999996,1370
88865,161064,216670,-0.5335994398,-9.1022971704,3.6299118841999998,1371
89013,161126,216667,-0.7202396026000001,-9.080761767,3.7052857961,1372
89196,161191,216710,-0.5479563754,-8.9635134596,3.6430724085,1373
89301,161163,216734,-0.6197410534,-9.0831545896,3.6705898684,1374
89432,161184,216730,-0.6807580296999999,-9.0759761218,3.7292140221,1375
89709,161230,216793,-0.5898307709,-9.0077806777,3.6514472876,1376
89946,161232,216783,-0.6137589969,-8.9994057986,3.6586257553999997,1377
90144,161259,216801,-0.6149554081999999,-9.0616191862,3.6346975294,1378
90316,161282,216803,-0.4821537539,-9.0125663229,3.5892339,1379
90610,161329,216854,-0.7202396026000001,-9.0975115252,3.7555350706999997,1380
90783,161315,216862,-0.6209374647,-9.0903330574,3.6658042232,1381
90993,161371,216923,-0.5276173833,-9.1920280179,3.6311082955,1382
90913,161351,216897,-0.5563312545,-8.9551385805,3.5916267225999996,1383
90248,161248,216787,-0.4390829471,-9.0652084201,3.5976087790999998,1384
89378,161171,216743,-0.610169763,-8.983852451699999,3.6622149893000002,1385
88825,161171,216671,-0.5838487144,-9.0616191862,3.7842489418999996,1386
88416,161086,216653,-0.6041877065,-9.0173519681,3.6538401101999995,1387
88270,161074,216644,-0.5084748025,-9.0903330574,3.5952159565,1388
88302,161099,216621,-0.6508477471999999,-9.0053878551,3.6275190616,1389
88497,161083,216667,-0.6508477471999999,-9.09272588,3.6777683362,1390
88726,161031,216687,-0.6580262149999999,-9.1322074529,3.6215370051,1391
88927,161151,216729,-0.5611168997,-9.207581364800001,3.6059836581999996,1392
89098,161131,216676,-0.6352944003,-9.1190469286,3.7268211995,1393
89220,161145,216717,-0.6771687957999999,-9.1429751546,3.7005001509,1394
89356,161180,216728,-0.6891329087999999,-9.080761767,3.7124642639,1395
89498,161203,216770,-0.4845465765,-9.09272588,3.6251262389999996,1396
89673,161208,216763,-0.5371886737,-8.9647098709,3.7040893848,1397
89854,161290,216797,-0.610169763,-9.0664048314,3.6945180944,1398
90060,161218,216811,-0.6915257314000001,-8.9120677737,3.6275190616,1399
90291,161280,216865,-0.6197410534,-9.0616191862,3.6610185779999997,1400
90502,161308,216879,-0.6305087550999999,-9.1477607998,3.7016965622000004,1401
90552,161295,216861,-0.5838487144,-9.095118702599999,3.6251262389999996,1402
90184,161253,216790,-0.4486542375,-8.9084785398,3.6933216830999998,1403
89560,161154,216739,-0.5192425042,-8.937192411,3.6454652310999998,1404
88950,161131,216694,-0.6628118601999999,-9.1812603162,3.6945180944,1405
88643,161075,216664,-0.5754738353000001,-9.068797654,3.6227334164,1406
88516,161121,216679,-0.6652046827999999,-9.0364945489,3.6083764808,1407
88545,161095,216686,-0.5467599640999999,-9.0400837828,3.6418759972,1408
88739,161102,216698,-0.7118647235000001,-9.0364945489,3.5916267225999996,1409
89010,161137,216723,-0.574277424,-8.8953180155,3.5605200288,1410
89222,161162,216754,-0.5228317381,-9.104689993,3.6681970457999995,1411
89357,161183,216732,-0.6819544409999999,-9.0999043478,3.7064822074,1412
89583,161176,216715,-0.6915257314000001,-9.0735832992,3.7028929734999996,1413
89730,161228,216778,-0.6400800455,-8.8666041443,3.7100714413,1414
89889,161288,216837,-0.610169763,-8.961120637,3.6346975294,1415
90013,161228,216832,-0.7166503687,-9.0029950325,3.6933216830999998,1416
90266,161286,216855,-0.6831508522999999,-9.0364945489,3.6705898684,1417
90475,161304,216893,-0.5814558918,-9.1896351953,3.5940195452,1418
90629,161319,216897,-0.7357929495000001,-8.9718883387,3.7292140221,1419
90914,161376,216911,-0.5180460929,-8.9623170483,3.6586257553999997,1420
91113,161450,216917,-0.5910271822000001,-9.037690960199999,3.6346975294,1421
91272,161387,216948,-0.6293123438,-9.0855474122,3.7531422481,1422
91537,161429,216986,-0.7226324252,-9.09272588,3.6981073283,1423
91662,161442,216985,-0.5300102059,-9.2315095908,3.6191441825000004,1424
91580,161463,216954,-0.5886343596,-8.8953180155,3.7232319655999997,1425
91006,161368,216929,-0.6269195211999999,-8.949156524,3.6981073283,1426
90451,161296,216863,-0.6029912952,-9.2494557603,3.5593236175,1427
90039,161166,216852,-0.6173482308,-9.080761767,3.6634114006,1428
89820,161307,216838,-0.6065805291,-9.09272588,3.6514472876,1429
89799,161266,216816,-0.7549355303,-9.0185483794,3.6777683362,1430
89917,161302,216850,-0.7226324252,-9.1022971704,3.7890345870999997,1431
90113,161271,216878,-0.526420972,-9.080761767,3.6418759972,1432
90307,161282,216907,-0.5347958510999999,-9.162117735399999,3.7256247882,1433
90527,161378,216896,-0.6448656907,-9.054440718399999,3.601198013,1434
90679,161377,216932,-0.4845465765,-9.0293160811,3.6658042232,1435
90804,161408,216899,-0.6628118601999999,-9.0077806777,3.720839143,1436
90989,161398,216991,-0.4414757697,-9.0592263636,3.6418759972,1437
91136,161468,217009,-0.6735795618999999,-9.0137627342,3.6514472876,1438
91319,161487,217021,-0.6245266986,-8.9874416856,3.6729826909999996,1439
91550,161509,217024,-0.6783652070999999,-8.8905323703,3.7005001509,1440
91714,161531,217077,-0.6233302873,-9.019744790699999,3.7100714413,1441
91928,161587,217089,-0.71784678,-9.0711904766,3.6717862797,1442
92053,161535,217057,-0.7094719009,-9.128618219,3.684946804,1443
91832,161526,217097,-0.7202396026000001,-9.0185483794,3.5964123677999997,1444
91443,161444,217015,-0.7345965382,-9.0436730167,3.6275190616,1445
91028,161427,216956,-0.6999006105000001,-9.1190469286,3.7100714413,1446
90781,161426,216987,-0.5539384319,-9.148957211099999,3.6981073283,1447
90601,161385,216937,-0.6065805291,-9.032905315,3.6442688197999997,1448
90641,161389,216991,-0.7154539574000001,-8.926424709299999,3.6430724085,1449
90792,161412,217004,-0.6759723845,-9.0795653557,3.6634114006,1450
91006,161449,217014,-0.6173482308,-8.97308475,3.7148570865,1451
91214,161482,217041,-0.6664010940999999,-9.0616191862,3.720839143,1452
91364,161524,216989,-0.6927221427000001,-9.121439751199999,3.7028929734999996,1453
91505,161489,217007,-0.7740781111,-9.1034935817,3.6933216830999998,1454
91627,161487,217051,-0.7621139981,-9.006584266399999,3.6394831745999996,1455
91772,161497,217033,-0.5539384319,-9.095118702599999,3.7184463204,1456
91914,161517,217079,-0.6197410534,-9.0281196698,3.7232319655999997,1457
92079,161554,217090,-0.5635097223,-8.9647098709,3.6801611588,1458
92223,161584,217127,-0.6496513358999999,-9.044869428,3.6095728921,1459
92424,161578,217104,-0.5730810127,-9.032905315,3.6801611588,1460
92590,161542,217153,-0.6520441585,-9.0245304359,3.7136606752,1461
92511,161607,217074,-0.6412764568,-9.0699940653,3.7040893848,1462
92138,161522,217038,-0.47856452,-8.9994057986,3.6191441825000004,1463
91546,161448,216979,-0.6580262149999999,-8.9742811613,3.7674991837,1464
91121,161422,216954,-0.6999006105000001,-9.056833541,3.6933216830999998,1465
90871,161450,216952,-0.5898307709,-9.0747797105,3.601198013,1466
90745,161360,216947,-0.7405785947,-9.044869428,3.6921252718,1467
90810,161410,216966,-0.6173482308,-8.9503529353,3.6179477712,1468
90990,161424,216954,-0.6113661743,-9.044869428,3.6693934571,1469
91148,161414,216939,-0.6915257314000001,-9.000602209899998,3.6777683362,1470
91301,161481,217003,-0.49531427819999996,-9.1250289851,3.6897324492,1471
91420,161457,216993,-0.5718846014,-9.109475638200001,3.6921252718,1472
91515,161391,216981,-0.5515456093,-9.0903330574,3.6861432153,1473
91641,161487,216997,-0.5324030285,-8.961120637,3.6897324492,1474
91730,161514,217014,-0.7345965382,-9.0400837828,3.6670006345,1475
91879,161492,217023,-0.7142575461,-8.8689969669,3.5820554322,1476
92009,161417,217099,-0.5216353268,-9.1609213241,3.7519458368,1477
92181,161579,217047,-0.7645068207,-9.1728854371,3.7304104334000003,1478
92356,161591,217078,-0.6388836341999999,-9.176474671,3.5964123677999997,1479
92257,161523,217043,-0.5910271822000001,-8.930013943199999,3.5940195452,1480
91810,161459,217000,-0.6161518195,-8.9551385805,3.6430724085,1481
91183,161442,216907,-0.6580262149999999,-9.0664048314,3.6658042232,1482
90694,161387,216924,-0.7621139981,-9.042476605400001,3.649054465,1483
90324,161321,216907,-0.6699903279999999,-9.1142612834,3.7100714413,1484
90161,161322,216871,-0.6855436748999999,-8.9718883387,3.6658042232,1485
90180,161333,216838,-0.6293123438,-9.0269232585,3.6346975294,1486
90334,161372,216859,-0.59820565,-9.042476605400001,3.6418759972,1487
90464,161344,216873,-0.5300102059,-9.080761767,3.6203405937999995,1488
90697,161386,216913,-0.6436692794,-8.9718883387,3.6514472876,1489
90806,161414,216873,-0.6628118601999999,-9.095118702599999,3.6227334164,1490
90916,161353,216866,-0.6496513358999999,-9.038887371500001,3.7064822074,1491
91022,161379,216892,-0.693918554,-8.997012975999999,3.6777683362,1492
91113,161421,216922,-0.5180460929,-9.0496550732,3.6969109170000003,1493
91236,161428,216932,-0.4295116567,-9.0137627342,3.6227334164,1494
91366,161438,216930,-0.7405785947,-9.0077806777,3.7770704741,1495
91501,161452,217003,-0.6652046827999999,-9.032905315,3.6801611588,1496
91634,161468,216940,-0.6281159325,-9.0484586619,3.7148570865,1497
91258,161375,216902,-0.6005984726,-9.068797654,3.6897324492,1498
90593,161286,216833,-0.6185446421,-8.975477572600001,3.6873396266,1499
89891,161246,216768,-0.7489534738,-9.1070828156,3.6143585373000002,1500
89354,161191,216685,-0.6604190376,-9.080761767,3.7651063610999995,1501
89060,161158,216699,-0.622133876,-9.0664048314,3.6813575701,1502
88907,161172,216656,-0.610169763,-9.044869428,3.7076786186999997,1503
88972,161135,216662,-0.6173482308,-9.0520478958,3.7495530142,1504
89066,161163,216674,-0.729810893,-9.0029950325,3.6933216830999998,1505
89408,161156,216715,-0.49172504429999997,-8.9898345082,3.7471601916,1506
89477,161183,216673,-0.5371886737,-9.042476605400001,3.7124642639,1507
89653,161180,216727,-0.6460621019999999,-9.0149591455,3.6107693033999997,1508
89748,161185,216707,-0.5635097223,-9.0903330574,3.7268211995,1509
89862,161186,216744,-0.6197410534,-8.9575314031,3.6634114006,1510
89924,161228,216732,-0.6556333924,-9.056833541,3.6251262389999996,1511
90176,161256,216763,-0.5611168997,-8.9898345082,3.6634114006,1512
90293,161231,216742,-0.5802594805,-8.9910309195,3.7220355542999997,1513
90473,161273,216774,-0.6795616184,-9.0305124924,3.7016965622000004,1514
90303,161262,216789,-0.5204389155,-9.0472622506,3.5988051904000002,1515
89634,161142,216679,-0.5706881900999999,-9.0317089037,3.5928231339,1516
88909,161094,216606,-0.5539384319,-8.9742811613,3.7052857961,1517
88322,161013,216515,-0.5132604477,-8.918049830200001,3.6430724085,1518
