green,red,IR,acc_x,acc_y,acc_z,sample_index
89013,176602,231157,-3.0927232105,-8.2636128491,4.42672181,1
89197,176647,231153,-3.2350961552,-8.231309744,4.2783668087999995,2
89335,176670,231185,-3.1549365981,-8.1032937349,4.4015971727,3
89422,176693,231201,-3.0903303879,-8.102097323599999,4.3357945512,4
89504,176684,231181,-3.1298119607999997,-8.2983087768,4.1838503161,5
89571,176683,231194,-3.158525832,-8.1978102276,4.2867416879,6
89697,176703,231227,-3.1728827676,-8.2743805508,4.3022950348,7
89762,176746,231226,-3.0963124444,-8.0506516377,4.3776689467,8
89858,176730,231195,-3.3439695835000003,-8.2636128491,4.3214376156,9
89947,176742,231230,-3.2482566795000003,-8.2839518412,4.354937132,10
89981,176733,231159,-3.0951160330999996,-8.1547394208,4.235296002,11
89399,176587,231125,-3.1118657913,-8.1786676468,4.3298124947,12
88317,176420,231080,-3.0771698636,-8.306683655899999,4.2987058009,13
87457,176284,231086,-3.1788648241,-8.240881034400001,4.331008906,14
87113,176261,231087,-3.0305098229,-8.2169528084,4.3250268494999995,15
87011,176258,231131,-3.0831519201,-8.2456666796,4.235296002,16
87034,176303,231180,-2.9395825641,-8.1978102276,4.3250268494999995,17
87182,176222,231197,-3.0747770410000004,-8.1547394208,4.331008906,18
87457,176336,231265,-3.2099715178999997,-8.303094422,4.3022950348,19
87660,176386,231265,-3.0879375653000003,-8.254041558700001,4.354937132,20
87775,176357,231309,-3.1740791789,-8.1320076061,4.3118663252,21
87751,176367,231306,-3.0831519201,-8.1451681304,4.3728833015,22
87681,176320,231304,-2.9922246613000003,-8.169096356399999,4.3680976563,23
87650,176332,231334,-3.2494530908,-8.2025958728,4.3118663252,24
87598,176367,231287,-3.1537401868,-8.084151154099999,4.3262232608,25
87769,176431,231325,-3.1214370817,-8.1032937349,4.3441694303,26
87925,176394,231360,-3.2159535744,-8.2648092604,4.2640098732,27
88126,176403,231355,-3.1728827676,-8.0937224445,4.235296002,28
88243,176426,231377,-3.1621150658999997,-8.231309744,4.3453658416,29
88395,176442,231423,-3.11066938,-8.075776275,4.2652062845000005,30
88554,176465,231372,-3.1860432919,-8.1786676468,4.320241204299999,31
88745,176479,231423,-3.1334011947,-8.1403824852,4.3633120111,32
88819,176509,231435,-3.2626136151000003,-8.2887374864,4.30708068,33
88930,176490,231437,-3.2207392196,-8.254041558700001,4.2879380992,34
89025,176565,231416,-3.1441688964,-8.13559684,4.2496529376,35
89107,176552,231445,-3.1920253483999996,-8.102097323599999,4.2843488653,36
89181,176523,231434,-3.0831519201,-8.231309744,4.320241204299999,37
89292,176576,231452,-3.0400811133000003,-8.0697942185,4.3920258823,38
89400,176599,231426,-3.1776684127999997,-8.1308111948,4.378865358,39
89550,176595,231457,-3.1501509529,-8.3401831723,4.331008906,40
89597,176627,231431,-3.1214370817,-8.1523465982,4.3058842687,41
89191,176477,231402,-3.2338997439000003,-8.1511501869,4.2257247116,42
88188,176311,231279,-3.1441688964,-8.0590265168,4.5499521739,43
87355,176176,231289,-3.1262227269,-8.2971123655,4.2496529376,44
87039,176108,231292,-3.182454058,-8.2217384536,4.3118663252,45
86966,176164,231300,-3.1645078885,-8.1403824852,4.3597227772,46
87045,176194,231357,-3.1118657913,-8.2456666796,4.2783668087999995,47
87247,176168,231347,-3.1190442591,-8.1415788965,4.3106699139,48
87519,176187,231415,-3.1836504693,-8.1930245824,4.3214376156,49
87785,176266,231458,-3.1202406704,-8.226524098799999,4.283152454,50
87943,176272,231477,-3.1070801461,-8.2827554299,4.2652062845000005,51
87979,176248,231480,-3.1597222433,-8.2971123655,4.3968115275,52
87967,176210,231452,-3.1441688964,-8.0458659925,4.3022950348,53
87971,176256,231487,-3.0544380489000003,-8.2827554299,4.235296002,54
88050,176255,231511,-3.2542387359999996,-8.240881034400001,4.2687955184,55
88138,176262,231507,-3.0125636533999995,-8.2217384536,4.2544385828,56
88306,176271,231525,-3.0819555088,-8.111668614,4.2891345105,57
88493,176358,231533,-3.0975088557,-8.1499537756,4.4446679795,58
88677,176347,231520,-3.0209385325,-8.231309744,4.3453658416,59
88878,176365,231558,-3.1058837348,-8.1511501869,4.2496529376,60
88974,176380,231576,-3.1728827676,-8.0937224445,4.3106699139,61
89231,176427,231580,-3.2626136151000003,-8.450253011900001,4.1982072517,62
89398,176438,231592,-3.1788648241,-8.0973116784,4.4590249151000005,63
89503,176385,231540,-3.0675985732,-8.116454259200001,4.30708068,64
89634,176438,231594,-2.9635107901000004,-8.2121671632,4.4111684631,65
89745,176510,231581,-3.1489545415999998,-8.0781690976,4.2783668087999995,66
89876,176496,231632,-3.0221349438,-8.169096356399999,4.1790646709,67
90028,176550,231621,-3.2195428083000004,-8.0697942185,4.3920258823,68
90162,176564,231573,-3.2015966388,-8.3401831723,4.3250268494999995,69
90271,176534,231622,-3.1154550251999997,-8.2743805508,4.2735811636,70
89969,176491,231579,-3.0293134116,-8.063812162,4.3501514868,71
89227,176325,231489,-3.1860432919,-8.2121671632,4.4171505196,72
88445,176163,231414,-3.206382284,-8.25523797,4.2077785421,73
88118,176148,231469,-3.0783662749,-8.3353975271,4.3453658416,74
88045,176169,231515,-3.0640093393,-8.2025958728,4.353740720699999,75
88128,176146,231558,-3.1680971224,-8.1308111948,4.331008906,76
88275,176176,231539,-3.0891339766000003,-8.2588272039,4.3884366484,77
88493,176233,231546,-3.1154550251999997,-8.2839518412,4.354937132,78
88789,176286,231584,-3.1764720014999996,-8.1272219609,4.3597227772,79
88923,176318,231567,-3.2207392196,-8.2456666796,4.3692940676,80
88976,176258,231532,-3.2446674455999998,-8.2456666796,4.3022950348,81
88987,176264,231573,-3.1298119607999997,-8.3485580514,4.3166519704,82
88955,176294,231564,-3.2446674455999998,-8.1320076061,4.3585263658999995,83
89006,176309,231592,-3.1968109935999998,-8.2588272039,4.3345981399,84
89109,176286,231604,-3.1286155494999996,-8.2217384536,4.3369909625,85
89228,176302,231640,-3.1453653077,-8.2456666796,4.3585263658999995,86
89429,176264,231624,-2.9874390161,-8.1655071225,4.3357945512,87
89606,176355,231658,-3.1166514365,-8.254041558700001,4.3166519704,88
89789,176409,231632,-3.0352954681,-8.0937224445,4.2173498325,89
89942,176437,231630,-3.0735806297,-8.2887374864,4.3357945512,90
90109,176486,231641,-3.0592236941,-8.1882389372,4.4398823343,91
90282,176480,231668,-3.0029923629999997,-8.074579863699999,4.353740720699999,92
90342,176514,231656,-3.1776684127999997,-8.074579863699999,4.2544385828,93
90557,176504,231676,-3.1501509529,-8.25523797,4.2939201557,94
90623,176496,231646,-3.2111679291999997,-8.1930245824,4.2448672924,95
90748,176555,231643,-3.2685956716,-8.0697942185,4.450650036,96
90873,176636,231650,-3.2207392196,-8.1260255496,4.3166519704,97
91034,176624,231625,-3.2027930501,-8.123632727,4.3214376156,98
91114,176560,231601,-3.2434710343,-8.3174513576,4.3405801963999995,99
91079,176555,231615,-3.158525832,-8.1260255496,4.2209390664,100
90504,176381,231529,-3.2291140987,-8.1367932513,4.3453658416,101
89529,176204,231491,-2.9264220398,-8.1032937349,4.387240237099999,102
89117,176183,231426,-3.1166514365,-8.1272219609,4.3214376156,103
88969,176146,231460,-3.182454058,-8.1990066389,4.259224228,104
88980,176145,231461,-3.23031051,-8.1415788965,4.3393837851,105
89087,176158,231505,-3.1334011947,-8.0985080897,4.2927237444,106
89235,176227,231494,-3.1118657913,-8.0697942185,4.3597227772,107
89464,176191,231512,-3.1453653077,-8.2648092604,4.211367776,108
89653,176244,231517,-3.1920253483999996,-8.3688970435,4.3585263658999995,109
89731,176258,231542,-3.2099715178999997,-8.1068829688,4.3680976563,110
89742,176212,231532,-3.2494530908,-8.0410803473,4.3357945512,111
89701,176230,231502,-3.0879375653000003,-8.0793655089,4.3453658416,112
89774,176238,231536,-3.1154550251999997,-8.1930245824,4.2879380992,113
89798,176246,231532,-3.1728827676,-8.0087772422,4.3250268494999995,114
89924,176228,231593,-3.2913274863,-8.1930245824,4.3633120111,115
90114,176329,231541,-3.0496524037,-8.1930245824,4.2161534212,116
90287,176366,231580,-3.1118657913,-8.1978102276,4.259224228,117
90384,176378,231571,-3.2973095428,-8.2025958728,4.3441694303,118
90599,176413,231587,-3.2626136151000003,-8.2875410751,4.283152454,119
90686,176441,231565,-3.1453653077,-8.3365939384,4.3166519704,120
90962,176465,231652,-3.1022945009000003,-8.0937224445,4.3166519704,121
91022,176455,231626,-3.1776684127999997,-8.3114693011,4.283152454,122
91152,176496,231635,-3.1022945009000003,-8.2983087768,4.387240237099999,123
91235,176527,231648,-3.1680971224,-8.0650085733,4.331008906,124
91337,176516,231626,-3.1453653077,-8.1260255496,4.3250268494999995,125
91559,176559,231657,-3.0915267992,-8.227720510100001,4.1539400336,126
91625,176594,231623,-3.2638100264,-8.303094422,4.3776689467,127
91746,176571,231633,-3.0448667585,-8.0793655089,4.1539400336,128
91515,176553,231590,-3.2004002275,-8.0889367993,4.331008906,129
90737,176340,231488,-3.2434710343,-8.159525066,4.3453658416,130
89989,176216,231505,-3.278166962,-8.1882389372,4.2783668087999995,131
89685,176160,231481,-3.1441688964,-8.1750784129,4.2819560427,132
89581,176163,231457,-3.1202406704,-8.1511501869,4.2927237444,133
89615,176206,231526,-3.1956145822999997,-8.1403824852,4.2448672924,134
89747,176215,231511,-3.1070801461,-8.239684623099999,4.3585263658999995,135
89943,176313,231563,-3.1525437755,-8.1308111948,4.2640098732,136
90189,176324,231599,-3.2494530908,-8.2456666796,4.1443687432,137
90287,176319,231532,-3.1262227269,-8.1643107112,4.2257247116,138
90280,176301,231587,-3.2685956716,-8.2169528084,4.2963129783,139
90290,176317,231602,-3.1836504693,-8.1176506705,4.2161534212,140
90233,176328,231598,-3.1788648241,-8.1320076061,4.1778682596,141
90230,176309,231583,-3.0963124444,-8.2695949056,4.2544385828,142
90317,176321,231582,-3.1920253483999996,-8.2456666796,4.3058842687,143
90445,176392,231633,-3.158525832,-8.231309744,4.2687955184,144
90608,176400,231631,-3.1872397032,-8.236095389199999,4.1359938641000005,145
90779,176457,231662,-3.2841490185,-8.1511501869,4.3238304382,146
90942,176498,231643,-3.2590243811999997,-8.226524098799999,4.3345981399,147
91093,176552,231690,-3.1202406704,-8.1260255496,4.2867416879,148
91238,176604,231740,-3.2147571631,-8.3365939384,4.1682969692,149
91355,176602,231764,-3.1118657913,-8.316254946299999,4.2735811636,150
91449,176632,231715,-2.979064137,-8.240881034400001,4.2735811636,151
91535,176630,231745,-3.0963124444,-8.1643107112,4.1970108404,152
91557,176697,231722,-3.2554351473,-8.2995051881,4.2927237444,153
91765,176677,231746,-3.1154550251999997,-8.1176506705,4.2400816472,154
91832,176711,231730,-3.1872397032,-8.2564343813,4.259224228,155
91962,176689,231720,-3.0532416376,-8.160721477300001,4.115654872,156
91857,176660,231698,-3.182454058,-8.2456666796,4.3106699139,157
91212,176484,231561,-3.3571301077999998,-8.2983087768,4.2209390664,158
90307,176287,231486,-2.99102825,-8.1320076061,4.2927237444,159
89726,176215,231415,-3.2673992603000004,-8.3078800672,4.126422573699999,160
89508,176171,231398,-3.1357940173,-8.236095389199999,4.2975093896,161
89396,176190,231337,-3.1692935337,-8.226524098799999,4.092923057299999,162
89504,176162,231393,-3.2111679291999997,-8.1930245824,4.259224228,163
89579,176217,231371,-3.0532416376,-8.207381518,4.1826539048,164
89793,176246,231360,-3.3583265191000002,-8.2695949056,4.1910287839,165
89908,176257,231324,-3.2542387359999996,-8.169096356399999,4.0869410008000004,166
89885,176227,231330,-3.2446674455999998,-8.137989662599999,4.2340995907,167
89765,176217,231281,-3.0448667585,-8.2887374864,4.2161534212,168
89713,176180,231262,-3.1968109935999998,-8.1320076061,4.1922251952,169
89652,176239,231247,-3.2350961552,-8.2839518412,4.2017964856,170
89661,176179,231283,-3.1298119607999997,-8.3210405915,4.1778682596,171
89753,176236,231281,-3.0496524037,-8.2456666796,4.1682969692,172
89875,176299,231307,-3.1310083721,-8.3078800672,4.18743955,173
90018,176263,231283,-3.337987527,-8.3282190593,4.2771703975,174
90153,176290,231312,-3.1621150658999997,-8.173882001600001,4.211367776,175
90270,176333,231312,-3.3487552287,-8.3545401079,4.3154555591,176
90402,176320,231277,-3.0771698636,-8.169096356399999,4.1922251952,177
90496,176369,231302,-3.2530423247,-8.1320076061,4.3022950348,178
90510,176394,231276,-3.2051858726999995,-8.1978102276,4.2915273330999995,179
90567,176387,231253,-2.9431717980000003,-8.0470624038,4.2496529376,180
90662,176400,231262,-3.1070801461,-8.231309744,4.1599220901,181
90682,176422,231253,-3.158525832,-8.087740388,4.3250268494999995,182
90869,176461,231220,-3.2255248647999997,-8.2648092604,4.235296002,183
90920,176410,231190,-3.2925238975999997,-8.226524098799999,4.2400816472,184
90559,176332,231162,-3.1202406704,-8.2743805508,4.2879380992,185
89651,176148,231026,-3.1202406704,-8.0793655089,4.2269211229,186
88718,175971,230919,-3.1058837348,-8.1403824852,4.2400816472,187
88227,175903,230910,-3.2769705507,-8.1320076061,4.1742790257,188
88000,175866,230872,-3.1118657913,-8.2025958728,4.353740720699999,189
87936,175868,230845,-3.0915267992,-8.1786676468,4.259224228,190
87905,175861,230888,-3.1812576466999998,-8.2133635745,4.2305103568,191
88074,175935,230899,-3.2027930501,-8.3976109147,4.2508493489,192
88219,175971,230868,-3.1549365981,-8.2839518412,4.211367776,193
88336,175895,230885,-3.2542387359999996,-8.0781690976,4.30708068,194
88338,175999,230905,-3.1573294206999996,-8.3078800672,4.2975093896,195
88272,175994,230876,-3.0963124444,-8.231309744,4.2484565263,196
88204,175978,230908,-3.0400811133000003,-8.1906317598,4.30708068,197
88214,175964,230902,-3.1645078885,-8.1128650253,4.2496529376,198
88267,175964,230865,-3.1262227269,-8.1750784129,4.283152454,199
88388,175998,230868,-3.1501509529,-8.1176506705,4.2735811636,200
88550,176035,230881,-3.1298119607999997,-8.2420774457,4.1539400336,201
88675,176091,230863,-3.1549365981,-8.1212399044,4.4063828179,202
88845,176114,230884,-3.2877382523999996,-8.0949188558,4.1922251952,203
88969,176104,230869,-3.1908289370999996,-8.1930245824,4.2197426551,204
89076,176155,230878,-3.1645078885,-8.1320076061,4.2496529376,205
89186,176162,230861,-3.3391839383,-8.2504523248,4.2927237444,206
89306,176162,230864,-3.1740791789,-8.2229348649,4.2496529376,207
89401,176193,230894,-3.1118657913,-8.1643107112,4.3154555591,208
89475,176184,230840,-3.1441688964,-8.2169528084,4.2628134618999995,209
89566,176203,230858,-3.1250263156,-8.306683655899999,4.2915273330999995,210
89638,176254,230836,-3.1166514365,-8.2025958728,4.235296002,211
89790,176264,230836,-3.2877382523999996,-8.044669581199999,4.3345981399,212
89879,176299,230818,-3.2506495021,-8.2648092604,4.1922251952,213
89941,176294,230812,-3.1920253483999996,-8.3078800672,4.235296002,214
89998,176250,230830,-3.0640093393,-8.1894353485,4.258027816699999,215
89308,176055,230686,-3.1692935337,-8.061419339399999,4.3357945512,216
88249,175899,230540,-3.2159535744,-8.1260255496,4.353740720699999,217
87609,175805,230529,-3.182454058,-8.170292767700001,4.2927237444,218
87430,175784,230470,-3.134597606,-8.1786676468,4.2628134618999995,219
87375,175793,230458,-3.2350961552,-8.4358960763,4.3345981399,220
87434,175794,230485,-3.3152557123,-8.1212399044,4.3680976563,221
87567,175782,230507,-3.206382284,-8.13559684,4.2448672924,222
87772,175844,230488,-3.2973095428,-8.303094422,4.1922251952,223
87982,175920,230527,-3.0675985732,-8.074579863699999,4.2975093896,224
88072,175893,230513,-3.3726834547,-8.2504523248,4.3525443094,225
88054,175907,230490,-3.1680971224,-8.2887374864,4.2257247116,226
88034,175891,230543,-3.1537401868,-8.0685978072,4.2305103568,227
88089,175959,230510,-3.0484559924,-8.1655071225,4.2400816472,228
88179,175928,230543,-3.2578279699,-8.1260255496,4.3154555591,229
88264,175983,230518,-3.1776684127999997,-8.1499537756,4.1587256788,230
88419,176018,230574,-3.2350961552,-8.0949188558,4.2400816472,231
88620,176071,230568,-3.2578279699,-8.183453292,4.235296002,232
88777,176116,230603,-3.2458638569,-8.1367932513,4.3154555591,233
88963,176159,230593,-3.2829526072,-8.3401831723,4.2735811636,234
89112,176185,230628,-3.1968109935999998,-8.0602229281,4.259224228,235
89240,176211,230596,-3.2291140987,-8.1308111948,4.1970108404,236
89342,176221,230623,-3.3583265191000002,-8.226524098799999,4.3214376156,237
89514,176256,230622,-3.1740791789,-8.2636128491,4.2317067681000005,238
89621,176339,230648,-3.2075786953,-8.1846497033,4.2915273330999995,239
89699,176294,230606,-3.3332018818,-8.1882389372,4.2640098732,240
89789,176334,230636,-3.0544380489000003,-8.2169528084,4.2400816472,241
89894,176398,230661,-3.0699913958000002,-8.1882389372,4.3118663252,242
90091,176461,230682,-3.1166514365,-8.1786676468,4.2544385828,243
90203,176446,230643,-3.2004002275,-8.231309744,4.2161534212,244
90376,176452,230657,-3.11066938,-8.2121671632,4.2496529376,245
90286,176453,230670,-3.1692935337,-8.2420774457,4.3022950348,246
89589,176311,230579,-3.206382284,-8.1726855903,4.2412780585,247
88681,176151,230459,-3.2338997439000003,-8.169096356399999,4.2496529376,248
88217,176085,230426,-3.0209385325,-8.0985080897,4.1551364449,249
88008,176067,230424,-3.158525832,-8.1894353485,4.2149570099,250
88052,176181,230422,-3.206382284,-8.2648092604,4.2209390664,251
88148,176139,230483,-3.0975088557,-8.236095389199999,4.3345981399,252
88335,176164,230491,-3.0687949845,-8.1750784129,4.4291146326,253
88646,176250,230495,-3.0831519201,-8.1930245824,4.2209390664,254
88837,176261,230566,-3.0975088557,-8.1272219609,4.2065821308,255
88879,176324,230558,-3.3104700671000002,-8.3461652288,4.2783668087999995,256
88879,176311,230586,-3.23031051,-8.1367932513,4.342973019,257
88874,176326,230613,-3.3284162366,-8.084151154099999,4.2173498325,258
88903,176350,230617,-3.1118657913,-8.3401831723,4.0689948312999995,259
88995,176385,230633,-3.2446674455999998,-8.2025958728,4.1838503161,260
89148,176409,230655,-3.2075786953,-8.279166196,4.1922251952,261
89339,176448,230703,-3.1250263156,-8.1798640581,4.2771703975,262
89550,176488,230707,-3.206382284,-8.1846497033,4.258027816699999,263
89741,176554,230746,-3.1250263156,-8.293523131599999,4.2963129783,264
89912,176544,230728,-3.1932217597,-8.1260255496,4.1826539048,265
90075,176620,230762,-3.2685956716,-8.207381518,4.2161534212,266
90241,176652,230822,-3.1920253483999996,-8.1367932513,4.2771703975,267
90411,176711,230823,-3.2530423247,-8.3078800672,4.3010986235,268
90488,176729,230816,-3.1022945009000003,-8.13559684,4.2400816472,269
90552,176760,230832,-3.2542387359999996,-8.0985080897,4.2735811636,270
90697,176804,230872,-3.3164521235999995,-8.170292767700001,4.3010986235,271
90839,176816,230833,-3.0927232105,-8.2971123655,4.18743955,272
90953,176790,230810,-3.2207392196,-8.1930245824,4.2448672924,273
91049,176838,230795,-3.1525437755,-8.1224363157,4.1623149127,274
91062,176846,230768,-2.9730820805000002,-8.1320076061,4.2065821308,275
90619,176631,230665,-3.1776684127999997,-8.2504523248,4.2628134618999995,276
89720,176461,230509,-3.3427731722,-8.160721477300001,4.2017964856,277
89063,176370,230400,-3.0915267992,-8.170292767700001,4.0785661217,278
88747,176331,230327,-3.3152557123,-8.271987728200001,4.2065821308,279
88695,176287,230302,-3.1776684127999997,-8.185846114599999,4.1730826144,280
88757,176286,230263,-2.9970103065,-8.1655071225,4.0725840652,281
88876,176340,230304,-3.2817561959000003,-8.1750784129,4.1742790257,282
89117,176301,230274,-3.1070801461,-8.3174513576,4.1336010414999995,283
89284,176341,230270,-3.1166514365,-8.2887374864,4.1539400336,284
89352,176317,230173,-3.1633114771999997,-8.25523797,4.1527436223,285
89331,176290,230210,-3.182454058,-8.2181492197,4.2484565263,286
89278,176283,230200,-3.1968109935999998,-8.3784683339,4.1012979364,287
89248,176276,230179,-3.2243284535,-8.2648092604,4.1060835816,288
89226,176237,230122,-3.1202406704,-8.3365939384,4.1120656381,289
89419,176260,230120,-3.1034909122000003,-8.4119678503,4.1730826144,290
89564,176375,230150,-3.2638100264,-8.2899338977,4.2197426551,291
89737,176329,230134,-3.1453653077,-8.3318082932,4.1778682596,292
89922,176316,230141,-3.1633114771999997,-8.2504523248,4.1778682596,293
90059,176442,230121,-3.0963124444,-8.2420774457,4.1778682596,294
90219,176396,230141,-3.1405796625,-8.3174513576,4.0211383793,295
90342,176469,230177,-3.1968109935999998,-8.2648092604,4.1922251952,296
90419,176467,230149,-3.0448667585,-8.3497544627,4.1958144290999995,297
90580,176462,230147,-3.1154550251999997,-8.2169528084,4.1491543884,298
90694,176489,230137,-3.158525832,-8.2600236152,4.2340995907,299
90768,176558,230177,-3.1956145822999997,-8.039883936,4.1790646709,300
90953,176573,230206,-3.134597606,-8.25523797,4.3393837851,301
91040,176603,230163,-3.182454058,-8.2169528084,4.1539400336,302
90968,176517,230125,-3.1501509529,-8.2600236152,4.1060835816,303
90326,176358,229990,-3.3104700671000002,-8.2683984943,4.2723847523,304
89439,176247,229837,-3.2638100264,-8.3449688175,4.3740797127999995,305
88847,176139,229796,-3.2267212761,-8.1990066389,4.2065821308,306
88613,176119,229760,-3.0412775246,-8.116454259200001,4.2783668087999995,307
88598,176130,229789,-3.2398818003999996,-8.2133635745,4.1491543884,308
88651,176142,229802,-3.2470602682000003,-8.3126657124,4.2257247116,309
88775,176167,229802,-3.2769705507,-8.1786676468,4.4339002778,310
88946,176223,229812,-3.2650064377,-8.1260255496,4.2532421715,311
89177,176214,229841,-3.086741154,-8.155935832099999,4.1970108404,312
89307,176240,229825,-2.9682964353,-8.1463645417,4.18743955,313
89319,176244,229835,-3.1645078885,-8.2229348649,4.3154555591,314
89325,176274,229793,-3.2111679291999997,-8.2887374864,4.2927237444,315
89321,176253,229756,-3.1070801461,-8.3976109147,4.1539400336,316
89365,176259,229806,-3.2350961552,-8.0470624038,4.2675991071,317
89497,176275,229751,-3.2925238975999997,-8.254041558700001,4.2867416879,318
89666,176292,229791,-3.2542387359999996,-8.1511501869,4.2161534212,319
89825,176311,229776,-3.2542387359999996,-8.1308111948,4.18743955,320
90004,176355,229792,-3.2482566795000003,-8.280362607299999,4.2305103568,321
90188,176373,229777,-3.098705267,-8.3940216808,4.1120656381,322
90366,176384,229790,-3.2147571631,-8.2456666796,4.1551364449,323
90429,176405,229786,-3.1884361145,-8.2839518412,4.3022950348,324
90546,176377,229813,-3.2386853891,-8.2133635745,4.1826539048,325
90585,176427,229800,-3.1920253483999996,-8.155935832099999,4.1730826144,326
90796,176463,229806,-3.1298119607999997,-8.1511501869,4.2532421715,327
90930,176520,229791,-3.2638100264,-8.3928252695,4.3585263658999995,328
91041,176505,229763,-3.3678978095,-8.13559684,4.3298124947,329
91006,176451,229757,-3.1214370817,-8.316254946299999,4.1587256788,330
90398,176337,229617,-3.1884361145,-8.236095389199999,4.3920258823,331
89505,176185,229588,-3.0735806297,-8.2456666796,4.3010986235,332
88901,176168,229496,-3.1920253483999996,-8.2121671632,4.1359938641000005,333
88682,176061,229444,-3.2219356309,-8.183453292,4.2305103568,334
88663,176083,229510,-3.2255248647999997,-8.3078800672,4.2687955184,335
88723,176178,229503,-3.0783662749,-8.239684623099999,4.2508493489,336
88855,176172,229556,-3.1310083721,-8.2372918005,4.2640098732,337
89083,176216,229550,-3.2434710343,-8.2085779293,4.3106699139,338
89300,176252,229597,-3.2602207924999997,-8.226524098799999,4.2017964856,339
89446,176280,229623,-3.1728827676,-8.2348989779,4.3154555591,340
89466,176338,229644,-3.2482566795000003,-8.1415788965,4.1300118076,341
89427,176262,229647,-3.2350961552,-8.207381518,4.2544385828,342
89436,176286,229627,-3.337987527,-8.2456666796,4.1252261624,343
89543,176316,229621,-3.2015966388,-8.2695949056,4.2819560427,344
89628,176331,229633,-3.2865418411,-8.1894353485,4.3345981399,345
89790,176389,229685,-3.2877382523999996,-8.169096356399999,4.2640098732,346
89962,176411,229706,-3.2877382523999996,-8.1308111948,4.3166519704,347
90055,176456,229733,-3.1776684127999997,-8.231309744,4.2640098732,348
90315,176498,229725,-3.1788648241,-8.1272219609,4.3621155998,349
90492,176499,229742,-3.3343982931,-8.25523797,4.3920258823,350
90620,176566,229795,-3.1836504693,-8.2169528084,4.2879380992,351
90727,176597,229871,-3.1633114771999997,-8.2923267203,4.1922251952,352
90877,176640,229843,-3.0209385325,-8.1128650253,4.3345981399,353
91030,176689,229877,-3.2350961552,-8.2025958728,4.3453658416,354
91151,176690,229893,-3.2793633733,-8.173882001600001,4.2400816472,355
91233,176710,229963,-3.0556344602,-8.2229348649,4.1922251952,356
91053,176673,229854,-3.1920253483999996,-8.2444702683,4.3298124947,357
90176,176471,229749,-3.2602207924999997,-8.160721477300001,4.1730826144,358
89325,176361,229683,-3.1908289370999996,-8.2121671632,4.2735811636,359
88894,176354,229704,-3.2015966388,-8.2875410751,4.092923057299999,360
88754,176392,229713,-3.2745777280999997,-8.2420774457,4.3262232608,361
88723,176423,229727,-3.182454058,-8.207381518,4.2161534212,362
88892,176438,229784,-3.2829526072,-8.3964145034,4.3058842687,363
89066,176510,229833,-3.2446674455999998,-8.173882001600001,4.2173498325,364
89312,176555,229883,-3.1776684127999997,-8.2468630909,4.1168512833,365
89458,176644,229915,-3.2123643404999997,-8.2037922841,4.259224228,366
89444,176631,229888,-3.3355947043999996,-8.240881034400001,4.1359938641000005,367
89333,176617,229879,-3.182454058,-8.1930245824,4.1539400336,368
89254,176630,229892,-3.0735806297,-8.293523131599999,4.1682969692,369
89219,176634,229932,-3.23031051,-8.2899338977,4.3106699139,370
89260,176685,229917,-3.3164521235999995,-8.3222370028,4.259224228,371
89323,176670,229936,-3.3822547451,-8.3114693011,4.126422573699999,372
89473,176738,229976,-3.23031051,-8.2827554299,4.2209390664,373
89612,176807,230008,-3.1453653077,-8.1894353485,4.1730826144,374
89720,176778,230000,-3.1908289370999996,-8.1966138163,4.2723847523,375
89798,176814,229979,-3.3116664784,-8.2037922841,4.1730826144,376
89866,176800,229989,-3.2398818003999996,-8.2755769621,4.097708702499999,377
89835,176817,229954,-3.2123643404999997,-8.2648092604,4.2687955184,378
89977,176817,229967,-3.1154550251999997,-8.2600236152,4.1970108404,379
90025,176862,229930,-3.2446674455999998,-8.445467366699999,4.1479579771,380
90072,176826,229913,-3.1070801461,-8.1463645417,4.1108692268,381
90014,176801,229852,-3.1920253483999996,-8.1212399044,4.1730826144,382
89426,176715,229791,-3.2111679291999997,-8.1894353485,4.2400816472,383
88423,176595,229652,-3.2398818003999996,-8.1990066389,4.2675991071,384
87685,176450,229627,-3.1501509529,-8.236095389199999,4.1934216065,385
87297,176463,229612,-3.11066938,-8.2648092604,4.2017964856,386
87237,176476,229618,-3.1633114771999997,-8.240881034400001,4.2400816472,387
87316,176491,229619,-3.11066938,-8.25523797,4.1814574935,388
87477,176495,229650,-3.1537401868,-8.2755769621,4.2257247116,389
87595,176586,229675,-3.0556344602,-8.3174513576,4.2209390664,390
87893,176604,229719,-3.1166514365,-8.2648092604,4.1647077353,391
87982,176640,229672,-3.2255248647999997,-8.3485580514,4.2532421715,392
87932,176622,229649,-3.182454058,-8.4442709554,4.1060835816,393
87867,176619,229648,-3.134597606,-8.2229348649,4.1826539048,394
87851,176633,229619,-3.2386853891,-8.2181492197,4.2735811636,395
87873,176613,229652,-3.1872397032,-8.1894353485,4.2400816472,396
87999,176671,229644,-3.0975088557,-8.2731841395,4.2400816472,397
88168,176674,229622,-3.0783662749,-8.1882389372,4.2963129783,398
88349,176697,229694,-3.1680971224,-8.2600236152,4.2400816472,399
88527,176711,229693,-3.3152557123,-8.1212399044,4.1682969692,400
88668,176770,229671,-3.0831519201,-8.303094422,4.2388852359,401
88820,176785,229674,-3.0448667585,-8.1511501869,4.2448672924,402
88969,176786,229681,-3.2111679291999997,-8.1750784129,4.2305103568,403
89078,176825,229664,-3.4002009146,-8.1894353485,4.3250268494999995,404
89217,176880,229720,-3.2159535744,-8.2217384536,4.3393837851,405
89381,176904,229702,-3.1154550251999997,-8.074579863699999,4.3585263658999995,406
89522,176925,229704,-3.3248270027,-8.243273857,4.2867416879,407
89437,176848,229654,-3.0305098229,-8.2325061553,4.1599220901,408
88788,176736,229607,-3.0927232105,-8.3018980107,4.2496529376,409
87879,176649,229533,-3.2769705507,-8.2600236152,4.3118663252,410
87315,176595,229494,-3.3571301077999998,-8.2887374864,4.211367776,411
87095,176630,229512,-3.1680971224,-8.2468630909,4.2915273330999995,412
87126,176640,229482,-3.1968109935999998,-8.123632727,4.1970108404,413
87134,176631,229520,-3.1202406704,-8.350950873999999,4.3010986235,414
87317,176679,229559,-3.1357940173,-8.207381518,4.2017964856,415
87699,176683,229553,-3.2015966388,-8.315058535,4.2340995907,416
87931,176781,229587,-3.2291140987,-8.2600236152,4.1826539048,417
88079,176818,229598,-3.4002009146,-8.2456666796,4.1922251952,418
88122,176777,229606,-3.1262227269,-8.3126657124,4.1790646709,419
88187,176819,229616,-3.2542387359999996,-8.2325061553,4.283152454,420
88213,176808,229586,-3.3020951879999996,-8.2229348649,4.2735811636,421
88356,176835,229610,-3.2626136151000003,-8.1798640581,4.2675991071,422
88496,176890,229654,-3.1633114771999997,-8.1846497033,4.2209390664,423
88690,176885,229662,-3.182454058,-8.1367932513,4.2544385828,424
88917,176889,229658,-3.1549365981,-8.240881034400001,4.2687955184,425
89139,176946,229680,-3.170489945,-8.4023965599,4.1922251952,426
89300,177000,229671,-3.134597606,-8.231309744,4.3393837851,427
89469,177024,229707,-3.2673992603000004,-8.2983087768,4.2975093896,428
89662,177088,229722,-3.134597606,-8.1451681304,4.2915273330999995,429
89789,177058,229711,-3.1202406704,-8.170292767700001,4.211367776,430
89897,177095,229720,-3.2913274863,-8.3174513576,4.1455651545,431
90019,177105,229741,-3.2159535744,-8.2971123655,4.320241204299999,432
90194,177122,229705,-3.1669007111,-8.0470624038,4.1587256788,433
90380,177173,229746,-3.0257241777000004,-8.2456666796,4.2257247116,434
90529,177171,229764,-3.3020951879999996,-8.3688970435,4.3118663252,435
90606,177196,229746,-3.158525832,-8.2372918005,4.1647077353,436
90420,177132,229673,-3.1549365981,-8.25523797,4.1826539048,437
89644,177042,229600,-3.2111679291999997,-8.0470624038,4.2879380992,438
88977,176901,229602,-3.3104700671000002,-8.155935832099999,4.3262232608,439
88683,176931,229554,-3.182454058,-8.2600236152,4.2161534212,440
88589,176978,229595,-3.1202406704,-8.2217384536,4.259224228,441
88666,176984,229635,-3.0783662749,-8.0985080897,4.2400816472,442
88777,176991,229612,-3.278166962,-8.1894353485,4.2460637037,443
89058,177046,229626,-3.0448667585,-8.227720510100001,4.2879380992,444
89266,177086,229657,-3.1250263156,-8.1308111948,4.354937132,445
89474,177129,229667,-3.2099715178999997,-8.3258262367,4.1587256788,446
89571,177095,229650,-3.2099715178999997,-8.2181492197,4.2161534212,447
89650,177119,229661,-3.0161528873,-8.1978102276,4.2735811636,448
89645,177133,229672,-3.1920253483999996,-8.327022648,4.2687955184,449
89809,177152,229680,-3.1441688964,-8.2516487361,4.259224228,450
89917,177168,229717,-3.1010980895999998,-8.3545401079,4.3298124947,451
90115,177202,229696,-3.1154550251999997,-8.0422767586,4.2735811636,452
90340,177229,229717,-3.134597606,-8.303094422,4.2544385828,453
90532,177313,229757,-3.0963124444,-8.169096356399999,4.2448672924,454
90761,177324,229790,-3.0927232105,-8.25523797,4.2723847523,455
90941,177329,229753,-3.2015966388,-8.2683984943,4.387240237099999,456
91122,177358,229799,-3.2111679291999997,-8.0925260332,4.353740720699999,457
91318,177403,229809,-3.1920253483999996,-8.1930245824,4.2915273330999995,458
91467,177419,229803,-3.1680971224,-8.2157563971,4.283152454,459
91555,177418,229844,-3.0891339766000003,-8.1272219609,4.2017964856,460
91813,177482,229848,-3.2494530908,-8.2983087768,4.1922251952,461
91984,177477,229867,-3.0831519201,-8.116454259200001,4.3489550755,462
92117,177499,229861,-3.2578279699,-8.1463645417,4.283152454,463
92310,177527,229905,-3.1202406704,-7.9238320399,4.3298124947,464
92470,177568,229873,-3.1728827676,-8.1882389372,4.2496529376,465
92623,177592,229939,-3.1633114771999997,-8.1655071225,4.2245283003,466
92800,177581,229946,-3.1680971224,-8.1260255496,4.3010986235,467
92962,177628,229950,-3.1070801461,-8.1272219609,4.3334017286,468
93135,177665,229972,-3.1968109935999998,-8.170292767700001,4.18743955,469
93295,177691,229992,-3.1680971224,-8.1583286547,4.259224228,470
93483,177744,229961,-3.2769705507,-8.1655071225,4.3166519704,471
93645,177749,229998,-3.0687949845,-8.2971123655,4.235296002,472
93805,177779,230027,-3.0352954681,-8.1655071225,4.3298124947,473
93981,177803,230090,-3.062812928,-8.0697942185,4.2915273330999995,474
94116,177816,230050,-3.2961131315000003,-8.240881034400001,4.3250268494999995,475
94266,177779,230054,-3.170489945,-8.2325061553,4.2161534212,476
94468,177864,230053,-3.0723842184,-8.3677006322,4.1682969692,477
94601,177883,230079,-3.1872397032,-8.303094422,4.1730826144,478
94754,177968,230121,-3.1357940173,-8.155935832099999,4.259224228,479
94908,177987,230129,-3.0963124444,-8.1798640581,4.1108692268,480
95091,177994,230164,-3.3822547451,-8.3114693011,4.2161534212,481
95204,178026,230188,-3.2913274863,-8.2971123655,4.2687955184,482
95293,178011,230149,-3.1441688964,-8.169096356399999,4.1539400336,483
95496,178045,230151,-3.2207392196,-8.2983087768,4.235296002,484
95632,178092,230147,-3.2255248647999997,-8.1786676468,4.3298124947,485
95728,178093,230183,-3.3595229304,-8.2899338977,4.3010986235,486
95919,178127,230211,-2.9982067177999996,-8.2169528084,4.1012979364,487
95909,178091,230162,-3.1214370817,-8.0602229281,4.3022950348,488
95508,177991,230155,-3.1920253483999996,-8.1224363157,4.3453658416,489
94862,177890,230097,-3.1393832512,-8.240881034400001,4.2053857195,490
94311,177859,230068,-3.1537401868,-8.293523131599999,4.2006000743,491
94032,177868,230048,-3.0783662749,-8.2648092604,4.1216369285,492
93927,177900,230026,-3.2255248647999997,-8.1451681304,4.1826539048,493
93919,177935,230068,-3.1597222433,-8.0889367993,4.3106699139,494
94010,177927,230078,-3.2590243811999997,-8.3377903497,4.259224228,495
94156,177939,230109,-3.1501509529,-8.2695949056,4.1778682596,496
94237,177944,230131,-3.206382284,-8.25523797,4.3058842687,497
94286,177922,230076,-3.0448667585,-8.2121671632,4.2448672924,498
94252,177856,230035,-3.1298119607999997,-8.240881034400001,4.1730826144,499
94127,177837,230020,-3.1908289370999996,-8.3126657124,4.2209390664,500
94066,177837,230002,-3.0771698636,-8.2887374864,4.2017964856,501
94073,177827,230013,-3.1788648241,-8.207381518,4.2161534212,502
94078,177814,229986,-3.1393832512,-8.2731841395,4.2161534212,503
94184,177822,230001,-3.2015966388,-8.236095389199999,4.259224228,504
94312,177831,229970,-3.1633114771999997,-8.2037922841,4.2723847523,505
94384,177833,230003,-3.0975088557,-8.25523797,4.2029928969000006,506
94581,177857,229957,-3.1250263156,-8.2648092604,4.092923057299999,507
94689,177846,229971,-3.0879375653000003,-8.155935832099999,4.1970108404,508
94855,177877,230008,-3.0209385325,-8.2133635745,4.2125641873,509
94970,177874,229959,-3.0496524037,-8.2839518412,4.2245283003,510
95071,177854,230013,-3.0675985732,-8.0410803473,4.1778682596,511
95148,177862,229981,-2.9970103065,-8.226524098799999,4.2209390664,512
95224,177774,229970,-3.3678978095,-8.2121671632,4.3166519704,513
95311,177864,229960,-3.0975088557,-8.207381518,4.2448672924,514
95393,177906,229905,-3.1597222433,-8.1966138163,4.2065821308,515
95513,177873,229974,-3.134597606,-8.129614783500001,4.2065821308,516
95642,177846,229958,-3.206382284,-8.173882001600001,4.2257247116,517
95677,177868,229941,-3.0735806297,-8.4035929712,4.2340995907,518
95541,177775,229911,-3.1920253483999996,-8.25523797,4.1503507997,519
94879,177665,229827,-3.1980074049,-8.0805619202,4.2687955184,520
94173,177555,229792,-3.2195428083000004,-8.2420774457,4.1599220901,521
93711,177568,229758,-3.0448667585,-8.160721477300001,4.2687955184,522
93485,177488,229755,-3.2243284535,-8.183453292,4.3106699139,523
93418,177564,229804,-3.0879375653000003,-8.231309744,4.1491543884,524
93443,177567,229806,-3.2638100264,-8.327022648,4.2496529376,525
93531,177575,229875,-3.2004002275,-8.173882001600001,4.2963129783,526
93666,177586,229897,-2.9730820805000002,-8.3593257531,4.1730826144,527
93779,177602,229904,-3.1202406704,-8.2887374864,4.2209390664,528
93817,177574,229904,-3.2099715178999997,-8.169096356399999,4.2400816472,529
93781,177518,229936,-3.1286155494999996,-8.2887374864,4.3250268494999995,530
93702,177518,229910,-3.206382284,-8.236095389199999,4.2161534212,531
93796,177515,229957,-2.9120651042,-8.254041558700001,4.2161534212,532
93821,177545,229912,-3.2386853891,-8.2875410751,4.2879380992,533
93897,177553,229969,-3.0352954681,-8.207381518,4.2675991071,534
94012,177546,230014,-3.1968109935999998,-8.1894353485,4.2448672924,535
94054,177562,229967,-2.9826533709,-8.279166196,4.1934216065,536
94358,177569,230027,-3.1477581302999997,-8.2217384536,4.259224228,537
94442,177584,230023,-3.2482566795000003,-8.1846497033,4.2400816472,538
94583,177624,230057,-3.1872397032,-8.2229348649,4.1778682596,539
94697,177587,230062,-3.2721849055,-8.1320076061,4.2628134618999995,540
94782,177583,230048,-3.2482566795000003,-8.1786676468,4.2017964856,541
94822,177597,230067,-3.1262227269,-8.236095389199999,4.1587256788,542
94958,177612,230108,-3.2075786953,-8.1415788965,4.2783668087999995,543
95062,177639,230105,-3.3200413575,-8.170292767700001,4.2257247116,544
95137,177652,230089,-3.1022945009000003,-8.207381518,4.1922251952,545
95210,177617,230106,-3.1022945009000003,-8.2504523248,4.2257247116,546
95072,177588,230019,-3.1884361145,-8.1092757914,4.3381873738,547
94464,177437,230005,-3.1537401868,-8.1032937349,4.3441694303,548
93609,177355,229937,-3.0592236941,-8.1786676468,4.2400816472,549
92983,177320,229957,-2.9551359109999997,-8.2887374864,4.0881374121,550
92629,177268,229941,-3.1980074049,-8.1882389372,4.3262232608,551
92476,177286,230002,-3.0317062341999996,-8.226524098799999,4.235296002,552
92405,177284,230000,-3.3248270027,-8.3688970435,4.3298124947,553
92420,177290,230034,-3.0173492985999997,-8.2217384536,4.2496529376,554
92519,177340,230057,-3.0544380489000003,-8.0985080897,4.1682969692,555
92585,177364,230110,-3.2291140987,-8.160721477300001,4.259224228,556
92549,177324,230108,-3.2111679291999997,-8.1655071225,4.2783668087999995,557
92506,177308,230088,-3.3583265191000002,-8.2504523248,4.259224228,558
92409,177307,230142,-3.0400811133000003,-8.2731841395,4.2209390664,559
92282,177316,230117,-3.1549365981,-8.240881034400001,4.2879380992,560
92296,177307,230142,-3.0783662749,-8.1547394208,4.258027816699999,561
92312,177300,230167,-3.0879375653000003,-8.2887374864,4.3393837851,562
92339,177330,230199,-3.1154550251999997,-8.3401831723,4.3166519704,563
92427,177412,230182,-3.1441688964,-8.1846497033,4.2975093896,564
92515,177389,230177,-3.2446674455999998,-8.303094422,4.2197426551,565
92572,177428,230210,-3.1357940173,-8.2827554299,4.2496529376,566
92655,177414,230258,-3.2769705507,-8.2061851067,4.211367776,567
92710,177476,230283,-3.0556344602,-8.2157563971,4.2257247116,568
92721,177476,230272,-3.3164521235999995,-8.2217384536,4.1982072517,569
92697,177505,230247,-3.1393832512,-8.254041558700001,4.211367776,570
92772,177534,230276,-3.0640093393,-8.3485580514,4.387240237099999,571
92779,177526,230277,-3.0975088557,-7.998009540499999,4.2640098732,572
92826,177581,230328,-3.2255248647999997,-8.084151154099999,4.2173498325,573
92867,177605,230317,-3.158525832,-8.227720510100001,4.283152454,574
92915,177558,230308,-3.2482566795000003,-8.2839518412,4.1826539048,575
92572,177514,230289,-3.158525832,-8.0793655089,4.259224228,576
91719,177403,230215,-3.2446674455999998,-8.236095389199999,4.259224228,577
90750,177300,230148,-3.2446674455999998,-8.2325061553,4.2305103568,578
90167,177301,230160,-3.1381868399,-8.1870425259,4.3058842687,579
89846,177285,230196,-3.2817561959000003,-8.3880396243,4.3166519704,580
89731,177272,230201,-3.1202406704,-8.1308111948,4.2257247116,581
89623,177277,230212,-3.158525832,-8.386843213,4.2305103568,582
89807,177364,230210,-3.1920253483999996,-8.226524098799999,4.211367776,583
89913,177368,230251,-3.2111679291999997,-8.1786676468,4.2149570099,584
90108,177388,230257,-3.134597606,-8.1655071225,4.2783668087999995,585
90036,177388,230298,-3.2590243811999997,-8.2887374864,4.1886359613,586
89941,177293,230292,-3.1776684127999997,-8.1128650253,4.1503507997,587
89905,177351,230278,-3.1154550251999997,-8.3401831723,4.2125641873,588
89841,177345,230248,-3.2733813167999997,-8.1643107112,4.2209390664,589
89853,177425,230326,-2.9730820805000002,-8.170292767700001,4.3250268494999995,590
89955,177402,230369,-3.1968109935999998,-8.1894353485,4.353740720699999,591
90050,177439,230351,-3.2015966388,-8.1786676468,4.2017964856,592
90180,177496,230314,-3.1537401868,-8.2121671632,4.1682969692,593
90305,177454,230360,-3.134597606,-8.25523797,4.1922251952,594
90432,177495,230375,-3.1489545415999998,-8.1451681304,4.2640098732,595
90567,177516,230375,-3.1812576466999998,-8.2564343813,4.2065821308,596
90592,177504,230437,-3.0831519201,-8.1176506705,4.2759739861999995,597
90761,177573,230400,-3.2255248647999997,-8.25523797,4.2293139454999995,598
90828,177572,230399,-3.2638100264,-8.2468630909,4.2065821308,599
90929,177571,230426,-3.3200413575,-8.2169528084,4.2400816472,600
90927,177591,230409,-3.1645078885,-8.3353975271,4.3106699139,601
91127,177666,230457,-3.0305098229,-8.1032937349,4.1359938641000005,602
91205,177625,230407,-3.2590243811999997,-8.2468630909,4.2496529376,603
91292,177643,230421,-3.2769705507,-8.360522164399999,4.1120656381,604
91303,177601,230413,-3.1441688964,-8.2025958728,4.1970108404,605
90828,177526,230303,-3.1968109935999998,-8.1176506705,4.3489550755,606
89964,177422,230228,-3.1860432919,-8.2133635745,4.2400816472,607
89316,177316,230170,-3.23031051,-8.207381518,4.2675991071,608
89028,177309,230224,-2.9635107901000004,-8.279166196,4.140779509300001,609
88928,177330,230173,-3.086741154,-8.2564343813,4.2640098732,610
88880,177271,230173,-3.1166514365,-8.2217384536,4.1455651545,611
89120,177301,230220,-3.1429724850999996,-8.3748791,4.2065821308,612
89306,177306,230190,-3.2638100264,-8.160721477300001,4.2687955184,613
89456,177315,230176,-3.1549365981,-8.25523797,4.2149570099,614
89485,177316,230188,-3.1381868399,-8.2169528084,4.2963129783,615
89473,177305,230173,-2.8929225234,-8.2037922841,4.0881374121,616
89404,177297,230093,-3.1310083721,-8.2600236152,4.2484565263,617
89437,177272,230130,-3.1633114771999997,-8.2037922841,4.091726646,618
89459,177268,230156,-3.0125636533999995,-8.293523131599999,4.2867416879,619
89576,177274,230184,-3.0819555088,-8.0985080897,4.2173498325,620
89706,177303,230161,-3.206382284,-8.2169528084,4.2065821308,621
89868,177340,230167,-3.0592236941,-8.236095389199999,4.1826539048,622
90005,177357,230181,-3.1968109935999998,-8.1176506705,4.211367776,623
90155,177325,230205,-3.2207392196,-8.2420774457,4.2783668087999995,624
90299,177385,230168,-3.1298119607999997,-8.1188470818,4.2305103568,625
90398,177360,230181,-3.0592236941,-8.3593257531,4.2400816472,626
90555,177404,230171,-3.1537401868,-8.1990066389,4.2017964856,627
90655,177384,230212,-3.2817561959000003,-8.1032937349,4.1766718483,628
90748,177400,230209,-3.0496524037,-8.1643107112,4.2305103568,629
90837,177449,230216,-3.086741154,-8.1224363157,4.3058842687,630
90951,177428,230218,-3.1154550251999997,-8.279166196,4.3166519704,631
91056,177459,230253,-3.1118657913,-8.1894353485,4.3728833015,632
91188,177425,230233,-3.2913274863,-8.13559684,4.258027816699999,633
91353,177509,230248,-3.2865418411,-8.3700934548,4.259224228,634
91468,177497,230199,-3.0269205889999995,-8.3222370028,4.2257247116,635
91436,177460,230204,-3.1250263156,-8.240881034400001,4.1647077353,636
90909,177365,230122,-3.1920253483999996,-8.13559684,4.3345981399,637
90157,177265,230072,-3.1250263156,-8.0602229281,4.3022950348,638
89581,177222,230064,-3.1537401868,-8.1678999451,4.1682969692,639
89308,177181,230092,-3.1022945009000003,-8.1846497033,4.1168512833,640
89267,177165,230112,-3.1453653077,-8.236095389199999,4.2017964856,641
89317,177205,230121,-3.2446674455999998,-8.2648092604,4.2305103568,642
89431,177240,230160,-3.2207392196,-8.1930245824,4.3106699139,643
89612,177256,230152,-3.2243284535,-8.279166196,4.258027816699999,644
89803,177291,230226,-3.1872397032,-8.155935832099999,4.3298124947,645
89913,177246,230180,-3.3726834547,-8.2229348649,4.1922251952,646
89906,177166,230183,-3.182454058,-8.1643107112,4.2496529376,647
89945,177274,230155,-3.1250263156,-8.160721477300001,4.353740720699999,648
89977,177230,230214,-3.1154550251999997,-8.1798640581,4.3118663252,649
90050,177240,230224,-3.2685956716,-8.2037922841,4.1778682596,650
90185,177247,230223,-2.9922246613000003,-8.1978102276,4.30708068,651
90345,177317,230286,-3.1788648241,-8.074579863699999,4.3393837851,652
90526,177332,230269,-2.9359933301999996,-8.1224363157,4.2017964856,653
90685,177323,230294,-3.0436703472,-8.2348989779,4.2867416879,654
90862,177353,230300,-3.1525437755,-8.1320076061,4.2771703975,655
91023,177246,230382,-3.1633114771999997,-8.2923267203,4.2687955184,656
91160,177354,230308,-3.0257241777000004,-8.2169528084,4.3022950348,657
91306,177369,230348,-3.0484559924,-8.458627890999999,4.2209390664,658
91415,177370,230352,-3.0532416376,-8.3078800672,4.3154555591,659
91547,177381,230321,-3.2159535744,-8.170292767700001,4.3585263658999995,660
91665,177382,230362,-3.2159535744,-8.1367932513,4.259224228,661
91779,177476,230367,-3.1010980895999998,-8.2971123655,4.2879380992,662
91831,177410,230385,-3.0640093393,-8.160721477300001,4.1922251952,663
92029,177463,230371,-3.2147571631,-8.160721477300001,4.2305103568,664
92148,177449,230386,-3.2398818003999996,-8.207381518,4.235296002,665
92289,177488,230388,-3.1202406704,-8.2923267203,4.2532421715,666
92394,177446,230407,-3.0065815969000003,-8.1367932513,4.2017964856,667
92588,177516,230371,-3.2578279699,-8.3497544627,4.3633120111,668
92693,177489,230421,-3.2542387359999996,-8.0793655089,4.3633120111,669
92814,177525,230389,-3.1357940173,-8.2636128491,4.4015971727,670
92977,177518,230403,-3.1393832512,-8.173882001600001,4.2017964856,671
93065,177540,230425,-3.1010980895999998,-8.2600236152,4.2448672924,672
93199,177537,230411,-3.014956476,-8.2157563971,4.2544385828,673
93236,177576,230383,-3.1872397032,-8.1451681304,4.2771703975,674
93459,177569,230423,-3.1692935337,-8.207381518,4.2400816472,675
93549,177589,230438,-3.158525832,-8.2085779293,4.2448672924,676
93661,177619,230434,-3.1010980895999998,-8.1415788965,4.1216369285,677
93790,177627,230452,-3.1214370817,-8.1415788965,4.2783668087999995,678
93904,177611,230489,-3.2111679291999997,-8.123632727,4.1970108404,679
94023,177635,230466,-3.0879375653000003,-8.1882389372,4.2209390664,680
94074,177604,230485,-3.0448667585,-8.254041558700001,4.3022950348,681
94225,177606,230467,-3.0915267992,-8.3114693011,4.1539400336,682
94300,177655,230492,-3.1788648241,-8.2169528084,4.3166519704,683
94405,177704,230465,-3.1298119607999997,-8.0207413552,4.3298124947,684
94525,177702,230484,-3.1920253483999996,-8.1810604694,4.2927237444,685
94638,177680,230504,-3.1501509529,-8.2181492197,4.3106699139,686
94625,177670,230469,-3.1070801461,-8.2504523248,4.2065821308,687
94225,177538,230369,-3.0927232105,-8.236095389199999,4.3441694303,688
93426,177417,230374,-3.0723842184,-8.1786676468,4.235296002,689
92687,177342,230381,-3.1537401868,-8.2121671632,4.2628134618999995,690
92272,177318,230381,-3.0652057506,-8.240881034400001,4.1826539048,691
92019,177281,230417,-3.134597606,-8.2612200265,4.2771703975,692
91956,177382,230430,-3.2195428083000004,-8.1547394208,4.2735811636,693
91996,177331,230453,-3.3152557123,-8.2695949056,4.2269211229,694
92118,177360,230521,-3.158525832,-8.2121671632,4.235296002,695
92259,177354,230532,-3.1489545415999998,-8.293523131599999,4.0881374121,696
92358,177359,230537,-3.182454058,-8.249255913499999,4.2963129783,697
92403,177348,230518,-3.2638100264,-8.364111398299999,4.1886359613,698
92379,177335,230573,-3.0448667585,-8.3078800672,4.2867416879,699
92359,177334,230583,-3.2291140987,-8.1930245824,4.2257247116,700
92391,177289,230603,-3.0699913958000002,-8.2899338977,4.1814574935,701
92472,177277,230624,-3.0209385325,-8.1798640581,4.2065821308,702
92575,177315,230633,-3.0496524037,-8.1403824852,4.2735811636,703
92745,177348,230686,-3.0831519201,-8.294719542900001,4.2400816472,704
92900,177374,230709,-3.206382284,-8.303094422,4.3956151162,705
93081,177384,230748,-3.2434710343,-8.1403824852,4.1970108404,706
93222,177399,230744,-3.0927232105,-8.1092757914,4.2544385828,707
93366,177467,230740,-3.0592236941,-8.231309744,4.2855452766,708
93475,177421,230795,-3.2685956716,-8.1176506705,4.1443687432,709
93665,177432,230806,-3.206382284,-8.1930245824,4.2867416879,710
93760,177442,230836,-3.1262227269,-8.1463645417,4.2723847523,711
93868,177470,230865,-3.0927232105,-8.254041558700001,4.2723847523,712
93995,177453,230866,-3.0400811133000003,-8.0937224445,4.18743955,713
94157,177475,230906,-3.3104700671000002,-8.3976109147,4.2735811636,714
94227,177524,230915,-3.0783662749,-8.373682688699999,4.259224228,715
94330,177534,230917,-3.1405796625,-8.0566336942,4.3633120111,716
94447,177529,230894,-3.0735806297,-8.227720510100001,4.1970108404,717
94550,177534,230953,-3.134597606,-8.231309744,4.18743955,718
94653,177572,230929,-3.0053851856000002,-8.2025958728,4.283152454,719
94802,177593,231009,-3.0879375653000003,-8.2456666796,4.2783668087999995,720
94932,177592,230961,-3.2051858726999995,-8.2516487361,4.2400816472,721
95026,177615,231009,-3.1680971224,-8.0985080897,4.1922251952,722
94842,177539,230999,-3.0544380489000003,-8.159525066,4.3441694303,723
94268,177424,230917,-3.158525832,-8.170292767700001,4.2544385828,724
93515,177271,230937,-3.2004002275,-7.9896346614,4.211367776,725
92967,177235,230913,-3.0065815969000003,-8.183453292,4.1587256788,726
92679,177201,230935,-3.0915267992,-8.3413795836,4.2544385828,727
92605,177229,231001,-3.0675985732,-8.2217384536,4.2496529376,728
92653,177189,231025,-3.3631121643,-8.2731841395,4.1826539048,729
92764,177252,231048,-3.2255248647999997,-8.2181492197,4.259224228,730
92844,177265,231117,-3.2494530908,-8.1810604694,4.259224228,731
93096,177274,231147,-3.0448667585,-8.240881034400001,4.2783668087999995,732
93104,177261,231168,-3.0675985732,-8.2348989779,4.2065821308,733
93062,177204,231202,-3.206382284,-8.25523797,4.2448672924,734
92989,177196,231193,-3.1872397032,-8.226524098799999,4.3022950348,735
92897,177251,231236,-3.1154550251999997,-8.2372918005,4.2388852359,736
92945,177227,231272,-3.1441688964,-8.1942209937,4.235296002,737
92989,177221,231321,-3.1537401868,-8.2779697847,4.2017964856,738
93105,177216,231344,-3.0604201053999995,-8.1894353485,4.2065821308,739
93244,177264,231331,-3.0029923629999997,-8.2205420423,4.1742790257,740
93377,177257,231392,-3.1920253483999996,-8.3784683339,4.320241204299999,741
93475,177269,231407,-3.1250263156,-8.1894353485,4.2161534212,742
93576,177251,231368,-3.2147571631,-8.227720510100001,4.1730826144,743
93653,177278,231417,-3.0675985732,-8.1547394208,4.2544385828,744
93723,177252,231385,-3.1908289370999996,-8.3114693011,4.2448672924,745
93795,177241,231377,-3.1680971224,-8.3449688175,4.258027816699999,746
93820,177240,231392,-3.1956145822999997,-8.231309744,4.1958144290999995,747
93900,177246,231397,-3.0209385325,-8.2181492197,4.2867416879,748
93912,177213,231387,-3.1022945009000003,-8.1655071225,4.1108692268,749
93964,177222,231370,-3.1920253483999996,-8.207381518,4.1491543884,750
94024,177254,231382,-3.2147571631,-8.1882389372,4.1922251952,751
94109,177268,231390,-3.0975088557,-8.2755769621,4.0450666053,752
94168,177275,231412,-3.2650064377,-8.3413795836,4.2017964856,753
94074,177242,231393,-3.1393832512,-8.183453292,4.1778682596,754
93460,177061,231346,-3.2386853891,-8.2169528084,4.2161534212,755
92509,176849,231236,-3.1680971224,-8.1463645417,4.163511324,756
91808,176819,231274,-3.2398818003999996,-8.236095389199999,4.1778682596,757
91440,176710,231284,-3.2004002275,-8.293523131599999,4.0737804765,758
91269,176707,231298,-3.2350961552,-8.2600236152,4.2735811636,759
91245,176755,231357,-3.1202406704,-8.1942209937,4.163511324,760
91261,176746,231380,-3.2159535744,-8.2600236152,4.1922251952,761
91393,176808,231406,-3.1118657913,-8.236095389199999,4.2209390664,762
91510,176811,231429,-3.1956145822999997,-8.183453292,4.2161534212,763
91530,176780,231433,-3.3678978095,-8.3126657124,4.283152454,764
91456,176788,231501,-3.0963124444,-8.1032937349,4.2675991071,765
91353,176770,231511,-2.9264220398,-8.2707913169,4.1216369285,766
91214,176765,231502,-3.0640093393,-8.2600236152,4.2771703975,767
91282,176792,231528,-3.1441688964,-8.3222370028,4.1778682596,768
91295,176792,231542,-3.182454058,-8.1415788965,4.2197426551,769
91368,176790,231558,-3.1968109935999998,-8.306683655899999,4.2544385828,770
91495,176786,231569,-3.1202406704,-8.1846497033,4.2400816472,771
91607,176861,231614,-3.1489545415999998,-8.362914987,4.2305103568,772
91732,176881,231635,-3.2350961552,-8.2504523248,4.1455651545,773
91860,176883,231627,-3.0687949845,-8.450253011900001,4.2783668087999995,774
91917,176868,231655,-3.1393832512,-8.1176506705,4.2867416879,775
92012,176874,231684,-3.1501509529,-8.1750784129,4.1491543884,776
92095,176893,231717,-3.1968109935999998,-8.169096356399999,4.2161534212,777
92125,176889,231715,-3.1166514365,-8.25523797,4.1970108404,778
92235,176927,231736,-3.2530423247,-8.185846114599999,4.2879380992,779
92265,176905,231693,-3.1920253483999996,-8.226524098799999,4.2963129783,780
92353,176929,231688,-3.1716863562999995,-8.084151154099999,4.2675991071,781
92366,176966,231726,-3.0580272828,-8.2157563971,4.2077785421,782
92599,176998,231722,-3.2865418411,-8.306683655899999,4.2305103568,783
92570,176954,231734,-3.2243284535,-8.2995051881,4.258027816699999,784
92175,176884,231731,-2.9982067177999996,-8.1511501869,4.2209390664,785
91181,176622,231609,-3.1549365981,-8.1990066389,4.2448672924,786
90245,176509,231566,-3.0448667585,-8.173882001600001,4.2687955184,787
89696,176420,231596,-3.1322047834,-8.0937224445,4.2640098732,788
89470,176365,231639,-3.182454058,-8.2169528084,4.2496529376,789
89426,176391,231665,-3.1908289370999996,-8.4167534955,4.2532421715,790
89421,176384,231698,-3.1968109935999998,-8.1451681304,4.2879380992,791
89523,176432,231698,-3.1250263156,-8.1176506705,4.387240237099999,792
89636,176453,231757,-3.1250263156,-8.231309744,4.2915273330999995,793
89771,176460,231780,-3.1489545415999998,-8.207381518,4.2544385828,794
89777,176509,231829,-3.1968109935999998,-8.173882001600001,4.3393837851,795
89697,176476,231775,-3.134597606,-8.1080793801,4.2305103568,796
89665,176437,231815,-3.1393832512,-8.1212399044,4.126422573699999,797
89636,176443,231814,-3.0687949845,-8.226524098799999,4.320241204299999,798
89690,176436,231877,-3.1776684127999997,-8.1308111948,4.3262232608,799
89763,176492,231899,-3.0340990568,-8.2456666796,4.211367776,800
89934,176506,231889,-3.1968109935999998,-8.2217384536,4.1922251952,801
90082,176510,231905,-3.1728827676,-8.1894353485,4.1778682596,802
90227,176528,231902,-3.1393832512,-8.25523797,4.2209390664,803
90339,176541,231936,-3.1884361145,-8.2743805508,4.2161534212,804
90497,176570,231987,-3.158525832,-8.1786676468,4.2496529376,805
90527,176612,231965,-3.1429724850999996,-8.2695949056,4.3298124947,806
90691,176598,231981,-3.3391839383,-8.2648092604,4.2293139454999995,807
90788,176641,231988,-3.1405796625,-8.1463645417,4.3345981399,808
90877,176661,231992,-3.206382284,-8.1930245824,4.283152454,809
90941,176677,231976,-3.1214370817,-8.1367932513,4.2161534212,810
91047,176707,232007,-3.0963124444,-8.2564343813,4.1455651545,811
91124,176723,232038,-3.0436703472,-8.0805619202,4.18743955,812
91246,176702,232006,-3.361915753,-8.1774712355,4.2675991071,813
91318,176740,232031,-3.1393832512,-8.236095389199999,4.2496529376,814
91403,176759,231982,-3.3343982931,-8.1894353485,4.2006000743,815
91483,176802,232075,-3.158525832,-8.1930245824,4.2209390664,816
91642,176813,232022,-3.1920253483999996,-8.1882389372,4.342973019,817
91761,176825,232097,-3.1549365981,-8.2085779293,4.1742790257,818
91834,176835,231998,-3.1262227269,-8.3365939384,4.211367776,819
91691,176800,232032,-3.2446674455999998,-8.0602229281,4.1778682596,820
90854,176608,231917,-3.2291140987,-8.3449688175,4.3680976563,821
89737,176411,231874,-3.1262227269,-8.1032937349,4.283152454,822
89202,176340,231869,-3.1920253483999996,-8.316254946299999,4.1443687432,823
88967,176329,231846,-3.0364918793999998,-8.3365939384,4.2065821308,824
88918,176321,231852,-3.0400811133000003,-8.2325061553,4.1312082188999995,825
88999,176345,231904,-3.1597222433,-8.160721477300001,4.2532421715,826
89102,176385,231878,-3.2255248647999997,-8.227720510100001,4.353740720699999,827
89280,176404,231917,-3.2243284535,-8.160721477300001,4.3010986235,828
89369,176457,231951,-3.1980074049,-8.0458659925,4.235296002,829
89529,176469,231997,-3.2398818003999996,-8.249255913499999,4.2400816472,830
89454,176419,231987,-3.2530423247,-8.170292767700001,4.2544385828,831
89395,176424,231981,-3.1429724850999996,-8.2217384536,4.211367776,832
89407,176421,231989,-3.1393832512,-8.1176506705,4.1970108404,833
89430,176443,231961,-3.182454058,-8.1320076061,4.2400816472,834
89519,176469,232012,-3.2015966388,-8.293523131599999,4.1886359613,835
89716,176468,232019,-3.1441688964,-8.1367932513,4.259224228,836
89854,176525,232000,-3.158525832,-8.2325061553,4.211367776,837
89951,176591,232045,-3.2255248647999997,-8.2695949056,4.2065821308,838
90173,176580,232097,-3.1680971224,-8.160721477300001,4.2687955184,839
90300,176574,232088,-3.2398818003999996,-8.2695949056,4.18743955,840
90444,176633,232093,-3.2542387359999996,-8.155935832099999,4.2448672924,841
90575,176631,232081,-3.086741154,-8.293523131599999,4.3106699139,842
90703,176640,232075,-3.0652057506,-8.169096356399999,4.211367776,843
90837,176698,232076,-3.2673992603000004,-8.4131642616,4.2065821308,844
90907,176731,232073,-3.2386853891,-8.240881034400001,4.353740720699999,845
91028,176688,232086,-3.0065815969000003,-8.2504523248,4.2436708811,846
91138,176768,232114,-3.182454058,-8.0901332106,4.2257247116,847
91269,176776,232144,-3.2482566795000003,-8.2600236152,4.2675991071,848
91393,176766,232143,-3.2159535744,-8.1643107112,4.2687955184,849
91419,176785,232140,-3.3116664784,-8.25523797,4.2161534212,850
91634,176833,232170,-2.9587251449000003,-8.1846497033,4.1730826144,851
91767,176829,232173,-3.1214370817,-8.1415788965,4.331008906,852
91911,176869,232183,-3.086741154,-8.254041558700001,4.2628134618999995,853
92034,176887,232205,-3.1441688964,-8.3748791,4.2006000743,854
92178,176878,232177,-3.0029923629999997,-8.2971123655,4.1778682596,855
92134,176858,232151,-3.2769705507,-8.026723411699999,4.2209390664,856
91403,176709,232096,-3.2530423247,-8.1846497033,4.3357945512,857
90506,176547,232020,-3.2207392196,-8.1978102276,4.259224228,858
89963,176460,232066,-3.1788648241,-8.102097323599999,4.1539400336,859
89761,176469,232043,-3.3200413575,-8.1463645417,4.1491543884,860
89742,176484,232065,-3.2386853891,-8.293523131599999,4.2448672924,861
89872,176527,232070,-3.0448667585,-8.170292767700001,4.1970108404,862
90034,176515,232101,-3.2338997439000003,-8.3928252695,4.1503507997,863
90273,176575,232132,-3.1680971224,-8.1978102276,4.3118663252,864
90481,176617,232184,-3.0544380489000003,-8.2025958728,4.2496529376,865
90558,176577,232158,-3.1070801461,-8.2456666796,4.1108692268,866
90552,176597,232132,-3.1501509529,-8.1930245824,4.1922251952,867
90505,176545,232138,-3.2207392196,-8.1463645417,4.3010986235,868
90432,176545,232141,-3.1920253483999996,-8.3545401079,4.06779842,869
90514,176549,232130,-3.0448667585,-8.2636128491,4.1826539048,870
90617,176552,232137,-3.0113672421,-8.2971123655,4.1599220901,871
90731,176560,232146,-3.2482566795000003,-8.2923267203,4.2496529376,872
90938,176601,232128,-3.2638100264,-8.279166196,4.211367776,873
91039,176593,232141,-3.1633114771999997,-8.1990066389,4.2293139454999995,874
91163,176615,232121,-3.1776684127999997,-8.1463645417,4.1682969692,875
91328,176592,232130,-3.0209385325,-8.3018980107,4.1443687432,876
91461,176615,232089,-3.2578279699,-8.303094422,4.1730826144,877
91624,176632,232108,-2.9826533709,-8.0949188558,4.211367776,878
91688,176666,232131,-3.1956145822999997,-8.2779697847,4.3680976563,879
91795,176698,232077,-3.0687949845,-8.3844503904,4.092923057299999,880
91905,176671,232088,-3.0915267992,-8.1080793801,4.18743955,881
91997,176675,232099,-2.9874390161,-8.240881034400001,4.2532421715,882
92097,176675,232123,-2.9886354273999998,-8.303094422,4.2006000743,883
92187,176662,232101,-3.2769705507,-8.1367932513,4.1694933805000005,884
92322,176729,232137,-3.014956476,-8.2121671632,4.2305103568,885
92462,176770,232149,-3.1489545415999998,-8.3653078096,4.2640098732,886
92583,176786,232108,-3.0723842184,-8.240881034400001,4.2544385828,887
92588,176720,232137,-3.0687949845,-8.2085779293,4.1922251952,888
92164,176594,232058,-3.1788648241,-8.364111398299999,4.3022950348,889
91325,176433,232007,-3.1094729686999996,-8.1846497033,4.382454591899999,890
90662,176323,231934,-3.1357940173,-8.2887374864,4.211367776,891
90373,176288,231965,-3.0675985732,-8.1176506705,4.1204405172000005,892
90289,176265,232009,-3.3308090592,-8.3114693011,4.3776689467,893
90422,176314,232000,-3.086741154,-8.0602229281,4.1539400336,894
90649,176354,232032,-3.134597606,-8.2504523248,4.2975093896,895
90836,176368,232081,-3.0065815969000003,-8.0123664761,4.1970108404,896
91008,176400,232069,-3.1250263156,-8.2743805508,4.2305103568,897
91252,176431,232071,-3.1633114771999997,-8.1726855903,4.2927237444,898
91300,176401,232109,-3.0819555088,-8.2037922841,4.18743955,899
91309,176429,232093,-3.2721849055,-8.2887374864,4.2400816472,900
91412,176446,232116,-2.9730820805000002,-8.3449688175,4.1682969692,901
91417,176402,232121,-3.1740791789,-8.1451681304,4.2927237444,902
91540,176427,232107,-3.0448667585,-8.0973116784,4.2723847523,903
91613,176485,232174,-3.1968109935999998,-8.0697942185,4.2687955184,904
91839,176472,232145,-3.2673992603000004,-8.1894353485,4.1120656381,905
92040,176541,232228,-3.1118657913,-8.0973116784,4.2532421715,906
92123,176533,232195,-3.0963124444,-8.226524098799999,4.2448672924,907
92361,176585,232166,-3.0723842184,-8.2169528084,4.2065821308,908
92540,176615,232199,-3.0544380489000003,-8.2743805508,4.1503507997,909
92656,176602,232236,-3.1728827676,-8.231309744,4.2723847523,910
92808,176627,232217,-3.1872397032,-8.207381518,4.2771703975,911
92935,176627,232246,-3.1860432919,-8.0458659925,4.3345981399,912
93028,176640,232245,-3.1692935337,-8.2648092604,4.259224228,913
93155,176658,232256,-3.2159535744,-8.2468630909,4.2496529376,914
93250,176705,232267,-3.2482566795000003,-8.1750784129,4.259224228,915
93380,176730,232268,-3.2434710343,-8.2444702683,4.2209390664,916
93546,176750,232300,-3.1549365981,-8.2695949056,4.2735811636,917
93664,176750,232292,-3.1920253483999996,-8.137989662599999,4.258027816699999,918
93728,176730,232279,-3.1154550251999997,-8.236095389199999,4.2867416879,919
93371,176525,232206,-3.2530423247,-8.2648092604,4.320241204299999,920
92579,176446,232184,-3.0317062341999996,-8.316254946299999,4.30708068,921
91891,176341,232142,-3.23031051,-8.0985080897,4.2305103568,922
91529,176274,232185,-3.0257241777000004,-8.1930245824,4.2448672924,923
91472,176264,232173,-3.2350961552,-8.4646099475,4.2544385828,924
91489,176299,232193,-2.9874390161,-8.1882389372,4.3154555591,925
91614,176306,232227,-3.0819555088,-8.1547394208,4.3022950348,926
91792,176353,232253,-3.1226334930000004,-8.1882389372,4.2496529376,927
92007,176377,232235,-3.0544380489000003,-8.2468630909,4.1742790257,928
92119,176412,232243,-3.1298119607999997,-8.3210405915,4.3393837851,929
92157,176363,232259,-3.2015966388,-8.170292767700001,4.2819560427,930
92171,176398,232287,-3.3248270027,-8.1942209937,4.2245283003,931
92159,176382,232314,-3.1202406704,-8.240881034400001,4.2640098732,932
92182,176380,232306,-3.182454058,-8.2504523248,4.1216369285,933
92262,176420,232272,-3.1441688964,-8.231309744,4.414757697,934
92402,176420,232314,-3.11066938,-8.1224363157,4.2209390664,935
92564,176473,232305,-3.1597222433,-8.1080793801,4.258027816699999,936
92718,176484,232335,-3.1262227269,-8.1403824852,4.3585263658999995,937
92890,176501,232322,-3.1058837348,-8.227720510100001,4.2675991071,938
93015,176544,232365,-3.0305098229,-8.3306118819,4.30708068,939
93190,176554,232412,-3.0448667585,-8.1212399044,4.2053857195,940
93202,176616,232367,-3.182454058,-8.1451681304,4.1587256788,941
93411,176628,232402,-3.3296126479000003,-8.2037922841,4.1970108404,942
93529,176628,232404,-3.2015966388,-8.116454259200001,4.2819560427,943
93496,176611,232397,-3.0783662749,-8.2971123655,4.30708068,944
93715,176632,232402,-3.134597606,-8.306683655899999,4.2161534212,945
93802,176669,232417,-3.2075786953,-8.350950873999999,4.2640098732,946
93945,176670,232414,-3.0687949845,-8.0554372829,4.2975093896,947
94039,176679,232417,-3.0939196218,-8.169096356399999,4.1886359613,948
94168,176714,232411,-3.1010980895999998,-8.4646099475,4.18743955,949
94016,176646,232400,-3.0831519201,-8.226524098799999,4.235296002,950
93588,176508,232321,-3.1441688964,-8.2588272039,4.2879380992,951
92725,176346,232270,-3.0687949845,-8.240881034400001,4.2975093896,952
92019,176242,232211,-3.2685956716,-8.075776275,4.2388852359,953
91882,176233,232218,-3.2362925665,-8.2169528084,4.2436708811,954
91825,176266,232294,-3.1968109935999998,-8.1882389372,4.1730826144,955
91861,176260,232274,-2.9874390161,-8.2779697847,4.2640098732,956
91951,176298,232325,-3.1872397032,-8.2205420423,4.2364924133,957
92150,176311,232349,-3.1453653077,-8.2504523248,4.2209390664,958
92261,176386,232362,-3.2219356309,-8.1930245824,4.2017964856,959
92332,176324,232383,-3.1920253483999996,-8.25523797,4.235296002,960
92321,176355,232409,-3.3056844219,-8.2444702683,4.2496529376,961
92251,176349,232339,-3.2159535744,-8.1930245824,4.235296002,962
92219,176360,232371,-3.0927232105,-8.1990066389,4.3058842687,963
92233,176336,232356,-3.0317062341999996,-8.0937224445,4.2388852359,964
92302,176362,232409,-3.1633114771999997,-8.3078800672,4.2305103568,965
92419,176362,232401,-3.2865418411,-8.1942209937,4.1886359613,966
92534,176446,232402,-3.3200413575,-8.2169528084,4.2305103568,967
92595,176407,232388,-3.1022945009000003,-8.2217384536,4.2963129783,968
92827,176462,232400,-3.0879375653000003,-8.160721477300001,4.2687955184,969
92949,176507,232446,-3.0580272828,-8.2205420423,4.1503507997,970
93077,176492,232461,-3.3296126479000003,-8.2983087768,4.3106699139,971
93185,176489,232435,-3.1298119607999997,-8.1415788965,4.2305103568,972
93253,176527,232440,-3.1202406704,-8.1798640581,4.1216369285,973
93337,176570,232403,-3.3152557123,-8.182256880699999,4.3010986235,974
93409,176565,232485,-3.1860432919,-8.1032937349,4.2293139454999995,975
93498,176651,232450,-3.1262227269,-8.1092757914,4.2065821308,976
93603,176619,232473,-3.1298119607999997,-8.159525066,4.3106699139,977
93693,176580,232478,-3.3056844219,-8.2133635745,4.2197426551,978
93766,176638,232459,-3.3343982931,-8.2971123655,4.1730826144,979
93783,176588,232455,-3.1968109935999998,-8.293523131599999,4.1347974528,980
93236,176469,232389,-3.2398818003999996,-8.2444702683,4.3106699139,981
92276,176277,232320,-3.1776684127999997,-8.3318082932,4.3740797127999995,982
91539,176168,232289,-3.2542387359999996,-8.1930245824,4.1970108404,983
91203,176146,232253,-3.0687949845,-8.2731841395,4.2544385828,984
91073,176165,232282,-3.1489545415999998,-8.2133635745,4.2209390664,985
91030,176193,232310,-3.1058837348,-8.2839518412,4.163511324,986
91080,176217,232337,-3.1489545415999998,-8.2085779293,4.2400816472,987
91203,176231,232363,-3.1968109935999998,-8.2025958728,4.2448672924,988
91340,176299,232399,-3.1082765574000004,-8.1750784129,4.3489550755,989
91332,176264,232426,-3.1537401868,-8.2205420423,4.3106699139,990
91322,176252,232375,-3.4013973259,-8.1320076061,4.235296002,991
91232,176273,232419,-3.2207392196,-8.1511501869,4.2400816472,992
91206,176269,232375,-3.0879375653000003,-8.183453292,4.2735811636,993
91081,176276,232427,-3.1537401868,-8.1978102276,4.2017964856,994
91218,176277,232447,-3.086741154,-8.254041558700001,4.2245283003,995
91297,176315,232406,-3.1441688964,-8.2229348649,4.1682969692,996
91435,176308,232456,-3.1872397032,-8.1463645417,4.18743955,997
91618,176361,232453,-3.1728827676,-8.0458659925,4.3010986235,998
91730,176399,232459,-3.11066938,-8.1942209937,4.30708068,999
91860,176488,232486,-3.2159535744,-8.207381518,4.3106699139,1000
91876,176426,232479,-3.206382284,-8.1092757914,4.387240237099999,1001
92090,176478,232505,-3.2398818003999996,-8.236095389199999,4.2065821308,1002
92120,176490,232501,-3.2590243811999997,-8.160721477300001,4.235296002,1003
92263,176490,232510,-3.3391839383,-8.316254946299999,4.1970108404,1004
92329,176517,232524,-3.2051858726999995,-8.2133635745,4.163511324,1005
92423,176533,232525,-3.3068808331999997,-8.2325061553,4.2017964856,1006
92558,176572,232552,-3.0915267992,-8.0985080897,4.2544385828,1007
92656,176556,232522,-3.278166962,-8.2085779293,4.2065821308,1008
92760,176636,232557,-3.0640093393,-8.1463645417,4.2305103568,1009
92672,176579,232488,-3.2685956716,-8.1092757914,4.283152454,1010
91984,176431,232459,-3.3343982931,-8.236095389199999,4.3118663252,1011
91026,176207,232408,-3.1118657913,-8.1463645417,4.2532421715,1012
90458,176163,232347,-3.0640093393,-8.1978102276,4.2065821308,1013
90284,176139,232381,-3.0963124444,-8.3306118819,4.1778682596,1014
90304,176153,232461,-3.182454058,-8.2229348649,4.0689948312999995,1015
90349,176213,232469,-3.134597606,-8.0219377665,4.2017964856,1016
90500,176252,232477,-3.1645078885,-8.3222370028,4.1778682596,1017
90730,176281,232511,-3.1118657913,-8.459824302300001,4.3680976563,1018
90923,176280,232541,-3.1501509529,-8.0422767586,4.3166519704,1019
90956,176328,232506,-3.0891339766000003,-8.2468630909,4.283152454,1020
90933,176290,232539,-3.278166962,-8.1367932513,4.2161534212,1021
90888,176296,232524,-3.134597606,-8.1224363157,4.1922251952,1022
90847,176290,232512,-3.1597222433,-8.1786676468,4.18743955,1023
90883,176303,232531,-3.2913274863,-8.25523797,4.1359938641000005,1024
90997,176289,232505,-3.2350961552,-8.2121671632,4.2496529376,1025
91126,176276,232534,-3.3200413575,-8.231309744,4.163511324,1026
91280,176339,232518,-3.158525832,-8.2695949056,4.2221354777,1027
91400,176344,232561,-3.134597606,-8.3593257531,4.1970108404,1028
91589,176393,232511,-3.0077780082,-8.2887374864,4.2484565263,1029
91730,176381,232489,-3.1202406704,-8.293523131599999,4.2161534212,1030
91804,176424,232501,-3.2111679291999997,-8.293523131599999,4.1778682596,1031
91911,176416,232504,-3.038884702,-8.2516487361,4.1347974528,1032
92017,176404,232536,-3.1872397032,-8.2648092604,4.2436708811,1033
92077,176412,232415,-3.2685956716,-8.2504523248,4.06779842,1034
92177,176458,232500,-3.1968109935999998,-8.249255913499999,4.2675991071,1035
92297,176461,232458,-3.2015966388,-8.1930245824,4.3010986235,1036
92413,176490,232513,-3.1968109935999998,-8.128418372199999,4.2017964856,1037
92476,176485,232459,-3.2542387359999996,-8.2025958728,4.18743955,1038
92413,176416,232429,-3.1010980895999998,-8.2564343813,4.1862431387,1039
91750,176304,232399,-3.0879375653000003,-8.2648092604,4.2460637037,1040
90865,176083,232310,-3.2207392196,-8.3353975271,4.1347974528,1041
90385,176032,232261,-3.182454058,-8.2923267203,4.1682969692,1042
90086,176011,232267,-3.1154550251999997,-8.226524098799999,4.1012979364,1043
90185,176030,232337,-3.1836504693,-8.3401831723,4.3154555591,1044
90236,176055,232329,-3.1597222433,-8.0554372829,4.1012979364,1045
90387,176060,232363,-3.0783662749,-8.1212399044,4.3776689467,1046
90595,176128,232389,-3.0915267992,-8.3545401079,4.06779842,1047
90774,176190,232399,-3.2685956716,-8.293523131599999,4.2915273330999995,1048
90855,176205,232409,-3.0113672421,-8.1882389372,4.1539400336,1049
90841,176142,232409,-3.2350961552,-8.2636128491,4.2161534212,1050
90829,176162,232375,-3.2147571631,-8.1463645417,4.2436708811,1051
90785,176143,232395,-2.9072794589999997,-8.1212399044,4.3010986235,1052
90891,176179,232448,-3.4253255519,-8.1320076061,4.2065821308,1053
90983,176194,232443,-3.2673992603000004,-8.155935832099999,4.1587256788,1054
91146,176223,232423,-3.1728827676,-8.2348989779,4.2675991071,1055
91302,176210,232446,-3.2171499857,-8.173882001600001,4.2687955184,1056
91476,176267,232475,-3.1262227269,-8.1511501869,4.2640098732,1057
91624,176336,232469,-3.1812576466999998,-8.1367932513,4.1443687432,1058
91758,176326,232508,-3.2721849055,-8.2037922841,4.2448672924,1059
91892,176366,232518,-3.1537401868,-8.1463645417,4.1826539048,1060
92002,176408,232507,-3.1920253483999996,-8.2205420423,4.2257247116,1061
92118,176383,232507,-3.0723842184,-8.1511501869,4.2305103568,1062
92215,176418,232520,-3.2350961552,-8.25523797,4.235296002,1063
92303,176457,232516,-2.9204399833,-8.236095389199999,4.2496529376,1064
92416,176450,232497,-3.0592236941,-8.183453292,4.3298124947,1065
92514,176482,232522,-3.1680971224,-8.2205420423,4.3393837851,1066
92685,176501,232507,-3.3918260355000003,-8.1894353485,4.2257247116,1067
92789,176497,232543,-3.0963124444,-8.2983087768,4.1970108404,1068
92497,176404,232458,-3.0532416376,-8.0566336942,4.2340995907,1069
91695,176215,232379,-3.1310083721,-8.3114693011,4.3262232608,1070
90904,176077,232325,-3.1788648241,-8.2648092604,4.163511324,1071
90512,176008,232367,-3.182454058,-8.2217384536,4.1934216065,1072
90383,176028,232353,-3.2015966388,-8.4215391407,4.2867416879,1073
90425,176056,232387,-3.1872397032,-8.2648092604,4.2161534212,1074
90519,176046,232352,-3.2255248647999997,-8.2695949056,4.2819560427,1075
90677,176067,232415,-2.9778677257000004,-8.2600236152,4.2448672924,1076
90782,176121,232441,-3.1776684127999997,-8.155935832099999,4.1826539048,1077
91039,176187,232418,-3.1357940173,-8.1786676468,4.415954108299999,1078
91124,176139,232450,-3.2207392196,-8.2169528084,4.3118663252,1079
91117,176142,232448,-3.2004002275,-8.2121671632,4.1826539048,1080
91143,176178,232452,-3.1154550251999997,-8.2504523248,4.2245283003,1081
91152,176141,232438,-3.158525832,-8.25523797,4.1682969692,1082
91147,176189,232487,-3.1633114771999997,-8.1367932513,4.1826539048,1083
91332,176197,232504,-3.23031051,-8.3593257531,4.3357945512,1084
91479,176238,232525,-3.0592236941,-8.1367932513,4.2209390664,1085
91677,176196,232502,-3.194418171,-8.293523131599999,4.2257247116,1086
91812,176286,232532,-3.1154550251999997,-8.2097743406,4.2448672924,1087
91972,176292,232532,-3.1441688964,-8.1499537756,4.1970108404,1088
92138,176326,232533,-3.0257241777000004,-8.25523797,4.3106699139,1089
92253,176379,232537,-3.1010980895999998,-8.293523131599999,4.2209390664,1090
92398,176398,232589,-3.2111679291999997,-8.2983087768,4.3106699139,1091
92503,176422,232522,-3.0257241777000004,-8.1786676468,4.1682969692,1092
92597,176417,232537,-3.3056844219,-8.2217384536,4.2209390664,1093
92690,176423,232553,-3.182454058,-8.279166196,4.2927237444,1094
92770,176464,232552,-3.1776684127999997,-8.1499537756,4.2065821308,1095
92885,176476,232590,-3.2015966388,-8.0697942185,4.258027816699999,1096
93022,176544,232578,-3.0113672421,-8.183453292,4.259224228,1097
93175,176528,232548,-3.3439695835000003,-8.226524098799999,4.2544385828,1098
93259,176538,232537,-3.206382284,-8.2420774457,4.2484565263,1099
93082,176456,232551,-3.3200413575,-8.3234334141,4.342973019,1100
92292,176301,232427,-3.1393832512,-8.303094422,4.3118663252,1101
91232,176144,232359,-3.0963124444,-8.226524098799999,4.3010986235,1102
90928,176048,232379,-3.1537401868,-8.2420774457,4.259224228,1103
90685,176035,232355,-3.0891339766000003,-8.3353975271,4.283152454,1104
90649,176056,232406,-3.1597222433,-8.1128650253,4.2436708811,1105
90707,176098,232408,-3.1070801461,-8.226524098799999,4.092923057299999,1106
90811,176129,232435,-3.2398818003999996,-8.1643107112,4.2400816472,1107
91004,176159,232447,-3.1932217597,-8.1367932513,4.2819560427,1108
91150,176107,232474,-3.0269205889999995,-8.155935832099999,4.2867416879,1109
91231,176223,232481,-3.1441688964,-8.1798640581,4.1970108404,1110
91106,176220,232453,-3.1298119607999997,-8.1966138163,4.2317067681000005,1111
91113,176189,232447,-3.2721849055,-8.116454259200001,4.320241204299999,1112
91032,176177,232451,-3.1872397032,-8.236095389199999,4.2544385828,1113
91074,176236,232433,-3.1393832512,-8.1499537756,4.2735811636,1114
91136,176218,232456,-3.3583265191000002,-8.0662049846,4.2687955184,1115
91255,176228,232425,-3.1537401868,-8.240881034400001,4.2257247116,1116
91395,176306,232476,-3.1250263156,-8.2037922841,4.2065821308,1117
91542,176326,232436,-3.158525832,-8.2600236152,4.2400816472,1118
91679,176386,232448,-3.2195428083000004,-8.2839518412,4.2628134618999995,1119
91792,176370,232458,-3.0879375653000003,-8.2971123655,4.2723847523,1120
91883,176366,232461,-3.1393832512,-8.3174513576,4.3250268494999995,1121
92012,176428,232458,-3.2147571631,-8.160721477300001,4.2975093896,1122
92169,176411,232451,-3.1740791789,-8.226524098799999,4.2161534212,1123
92217,176476,232465,-2.9874390161,-8.1044901462,4.1838503161,1124
92274,176474,232453,-3.1154550251999997,-8.1990066389,4.2257247116,1125
92265,176481,232441,-3.1633114771999997,-8.327022648,4.2544385828,1126
92448,176499,232461,-3.1441688964,-8.1978102276,4.211367776,1127
92545,176540,232493,-3.3200413575,-8.183453292,4.2436708811,1128
92645,176566,232472,-3.1537401868,-8.1403824852,4.2364924133,1129
92763,176548,232515,-3.1549365981,-8.2133635745,4.1730826144,1130
92859,176579,232460,-3.134597606,-8.4012001486,4.3525443094,1131
92594,176484,232429,-3.0269205889999995,-8.2456666796,4.2975093896,1132
91701,176254,232288,-3.1250263156,-8.160721477300001,4.3884366484,1133
90790,176168,232264,-3.1262227269,-8.2923267203,4.1443687432,1134
90311,176102,232270,-3.2027930501,-8.1547394208,4.2257247116,1135
90189,176107,232271,-3.1920253483999996,-8.303094422,4.1503507997,1136
90136,176108,232282,-3.1022945009000003,-8.2133635745,4.1012979364,1137
90348,176153,232296,-3.2291140987,-8.1882389372,4.2065821308,1138
90499,176169,232347,-3.0640093393,-8.0327054682,4.2771703975,1139
90714,176240,232367,-3.1728827676,-8.226524098799999,4.3154555591,1140
90877,176265,232342,-3.0556344602,-8.2504523248,4.2723847523,1141
90884,176233,232323,-3.0723842184,-8.373682688699999,4.1922251952,1142
90851,176241,232358,-3.2685956716,-8.170292767700001,4.3154555591,1143
90808,176283,232331,-3.1298119607999997,-8.293523131599999,4.2735811636,1144
90818,176287,232342,-3.1166514365,-8.2743805508,4.2017964856,1145
90896,176261,232363,-3.1537401868,-8.155935832099999,4.2544385828,1146
90974,176312,232435,-3.1441688964,-8.2875410751,4.2771703975,1147
91110,176357,232418,-3.1214370817,-8.227720510100001,4.1168512833,1148
91280,176359,232429,-3.1645078885,-8.2516487361,4.092923057299999,1149
91461,176394,232423,-3.182454058,-8.2887374864,4.2675991071,1150
91603,176396,232428,-3.2362925665,-8.422735552,4.1599220901,1151
91731,176464,232433,-3.0640093393,-8.1750784129,4.2101713647,1152
91838,176491,232467,-3.23031051,-8.3449688175,4.2257247116,1153
92048,176490,232430,-3.2865418411,-8.160721477300001,4.211367776,1154
92101,176513,232510,-3.0831519201,-8.13559684,4.2532421715,1155
92194,176518,232474,-3.1633114771999997,-8.2121671632,4.235296002,1156
92258,176551,232477,-3.1094729686999996,-8.2600236152,4.211367776,1157
92366,176564,232473,-3.3164521235999995,-8.3078800672,4.2484565263,1158
92489,176577,232488,-3.1166514365,-8.0925260332,4.1682969692,1159
92603,176611,232479,-3.1118657913,-8.2420774457,4.1922251952,1160
92711,176626,232475,-3.1884361145,-8.2037922841,4.2963129783,1161
92754,176644,232484,-3.2315069213,-8.183453292,4.235296002,1162
92335,176463,232427,-3.1441688964,-8.0937224445,4.2209390664,1163
91407,176288,232297,-3.2315069213,-8.316254946299999,4.2305103568,1164
90636,176183,232321,-3.0269205889999995,-8.1415788965,4.2209390664,1165
90323,176159,232294,-3.1298119607999997,-8.3114693011,4.2544385828,1166
90293,176144,232315,-3.1393832512,-8.3365939384,4.2927237444,1167
90363,176214,232357,-3.182454058,-8.2648092604,4.2687955184,1168
90531,176233,232367,-3.0735806297,-8.2025958728,4.2915273330999995,1169
90674,176270,232387,-3.1692935337,-8.1930245824,4.3118663252,1170
90999,176311,232386,-3.1920253483999996,-8.2600236152,4.2161534212,1171
91120,176316,232389,-3.2673992603000004,-8.2875410751,4.2017964856,1172
91127,176297,232383,-3.158525832,-8.2839518412,4.1922251952,1173
91097,176265,232369,-3.1968109935999998,-8.2169528084,4.1539400336,1174
90989,176265,232310,-3.0831519201,-8.2097743406,4.1682969692,1175
91013,176274,232333,-3.0735806297,-8.227720510100001,4.097708702499999,1176
91074,176233,232350,-3.2877382523999996,-8.170292767700001,4.18743955,1177
91193,176260,232330,-3.1812576466999998,-8.1499537756,4.2388852359,1178
91353,176278,232329,-3.1310083721,-8.3114693011,4.2771703975,1179
91548,176280,232345,-3.1058837348,-8.173882001600001,4.1479579771,1180
91665,176339,232376,-3.0975088557,-8.1272219609,4.259224228,1181
91829,176354,232313,-3.2147571631,-8.173882001600001,4.2006000743,1182
91924,176358,232397,-3.1956145822999997,-8.2085779293,4.1826539048,1183
92026,176395,232357,-3.1453653077,-8.2983087768,4.1671005579,1184
92174,176408,232371,-3.0963124444,-8.1415788965,4.2975093896,1185
92265,176406,232340,-3.23031051,-8.2887374864,4.2963129783,1186
92339,176456,232365,-3.2817561959000003,-8.2169528084,4.1958144290999995,1187
92441,176420,232381,-3.2398818003999996,-8.2695949056,4.2101713647,1188
92538,176487,232383,-3.0915267992,-8.1930245824,4.1682969692,1189
92660,176460,232359,-3.2685956716,-8.3832539791,4.2065821308,1190
92797,176454,232393,-3.2685956716,-8.2325061553,4.3058842687,1191
92696,176433,232334,-3.1405796625,-8.2827554299,4.2675991071,1192
92021,176225,232279,-3.1022945009000003,-8.1308111948,4.2963129783,1193
91053,176070,232171,-3.1453653077,-8.2109707519,4.3022950348,1194
90420,176002,232157,-3.086741154,-8.1188470818,4.1778682596,1195
90194,176003,232166,-3.158525832,-8.160721477300001,4.1682969692,1196
90191,176013,232176,-3.1680971224,-8.240881034400001,4.2257247116,1197
90212,176009,232153,-3.1740791789,-8.169096356399999,4.1682969692,1198
90383,176052,232250,-3.086741154,-8.1272219609,4.2783668087999995,1199
90579,176130,232266,-3.1740791789,-8.279166196,4.2496529376,1200
90773,176124,232273,-3.1322047834,-8.279166196,4.1359938641000005,1201
90918,176155,232268,-3.2721849055,-8.1140614366,4.1970108404,1202
90850,176130,232267,-3.1692935337,-8.1990066389,4.1970108404,1203
90793,176155,232245,-3.2877382523999996,-8.2420774457,4.2317067681000005,1204
90805,176122,232277,-3.1393832512,-8.160721477300001,4.2963129783,1205
90810,176143,232248,-3.2434710343,-8.173882001600001,4.211367776,1206
90873,176165,232269,-3.1633114771999997,-8.2779697847,4.2484565263,1207
90942,176199,232281,-3.2542387359999996,-8.2420774457,4.163511324,1208
91249,176229,232312,-3.1680971224,-8.1930245824,4.2161534212,1209
91366,176245,232323,-3.1010980895999998,-8.1643107112,4.283152454,1210
91534,176298,232280,-3.1633114771999997,-8.2887374864,4.1587256788,1211
91675,176308,232345,-3.1022945009000003,-8.25523797,4.2867416879,1212
91776,176298,232342,-3.2243284535,-8.386843213,4.2975093896,1213
91978,176352,232362,-3.0448667585,-8.2025958728,4.18743955,1214
92060,176342,232354,-3.2673992603000004,-8.1643107112,4.2305103568,1215
92158,176395,232395,-3.1357940173,-8.1415788965,4.2448672924,1216
92239,176400,232357,-3.2494530908,-8.2217384536,4.091726646,1217
92277,176424,232371,-3.3152557123,-8.173882001600001,4.2209390664,1218
92503,176432,232367,-3.1872397032,-8.2695949056,4.2496529376,1219
92539,176432,232361,-3.1956145822999997,-8.0027951857,4.2783668087999995,1220
92670,176478,232335,-3.1980074049,-8.3413795836,4.2460637037,1221
92737,176450,232360,-3.3056844219,-8.170292767700001,4.2017964856,1222
92417,176314,232316,-3.0831519201,-8.236095389199999,4.258027816699999,1223
91473,176156,232185,-3.134597606,-8.2133635745,4.2963129783,1224
90533,175980,232140,-3.2015966388,-8.2600236152,4.1443687432,1225
90135,175935,232133,-3.2817561959000003,-8.2121671632,4.2161534212,1226
89985,175920,232162,-3.1860432919,-8.2229348649,4.1922251952,1227
89986,175970,232138,-3.206382284,-8.1415788965,4.3441694303,1228
90056,175992,232186,-3.11066938,-8.1463645417,4.1491543884,1229
90235,176048,232219,-3.2769705507,-8.1499537756,4.1922251952,1230
90396,176065,232250,-3.086741154,-8.231309744,4.2640098732,1231
90553,176130,232231,-3.1429724850999996,-8.0793655089,4.2640098732,1232
90573,176073,232237,-3.1489545415999998,-8.2564343813,4.1970108404,1233
90535,176091,232182,-3.1441688964,-8.2971123655,4.18743955,1234
90501,176060,232252,-3.0963124444,-8.1798640581,4.2496529376,1235
90502,176071,232216,-3.2255248647999997,-8.1978102276,4.1730826144,1236
90564,176091,232237,-3.1908289370999996,-8.0889367993,4.2723847523,1237
90649,176105,232270,-3.2769705507,-8.2169528084,4.2640098732,1238
90831,176175,232242,-3.1633114771999997,-8.231309744,4.2388852359,1239
90946,176156,232286,-3.2733813167999997,-8.1451681304,4.2400816472,1240
91132,176191,232338,-3.1776684127999997,-8.2229348649,4.2867416879,1241
91284,176162,232292,-3.2542387359999996,-8.207381518,4.2496529376,1242
91370,176235,232296,-3.3284162366,-8.231309744,4.2484565263,1243
91580,176265,232309,-3.1453653077,-8.2301133327,4.2867416879,1244
91732,176287,232291,-3.2733813167999997,-8.2648092604,4.2257247116,1245
91694,176310,232361,-3.1298119607999997,-8.1308111948,4.259224228,1246
91900,176294,232331,-3.2015966388,-8.1894353485,4.259224228,1247
91968,176317,232311,-3.1776684127999997,-8.0781690976,4.235296002,1248
92068,176344,232323,-3.2207392196,-8.1870425259,4.2975093896,1249
92124,176352,232369,-3.1441688964,-8.1451681304,4.259224228,1250
92375,176442,232327,-2.9443682093000003,-8.240881034400001,4.2927237444,1251
92443,176444,232327,-3.1692935337,-8.294719542900001,4.1682969692,1252
92499,176395,232270,-2.9647072014,-8.2648092604,4.1910287839,1253
92040,176283,232252,-3.1489545415999998,-8.2779697847,4.1694933805000005,1254
90945,176063,232124,-3.0221349438,-8.2456666796,4.2975093896,1255
90164,175908,232100,-3.1453653077,-8.227720510100001,4.2065821308,1256
89772,175858,232105,-3.0915267992,-8.2839518412,4.2161534212,1257
89643,175897,232142,-3.0687949845,-8.1176506705,4.1300118076,1258
89703,175901,232075,-3.2075786953,-8.2444702683,4.3010986235,1259
89751,175900,232172,-3.1250263156,-8.226524098799999,4.2640098732,1260
89916,175954,232168,-3.2159535744,-8.2875410751,4.30708068,1261
90171,175921,232210,-3.2123643404999997,-8.2121671632,4.2544385828,1262
90279,175999,232230,-3.1501509529,-8.236095389199999,4.2687955184,1263
90269,176017,232220,-3.1262227269,-8.2121671632,4.2017964856,1264
90212,176072,232257,-3.1202406704,-8.1798640581,4.235296002,1265
90170,176019,232232,-3.1836504693,-8.2648092604,4.1587256788,1266
90156,176008,232163,-3.1920253483999996,-8.3306118819,4.2448672924,1267
90217,175993,232211,-3.2398818003999996,-8.2504523248,4.2017964856,1268
90338,176043,232204,-3.0496524037,-8.2695949056,4.2640098732,1269
90512,176058,232216,-3.0783662749,-8.2779697847,4.3968115275,1270
90639,176069,232259,-3.1537401868,-8.170292767700001,4.2640098732,1271
90796,176092,232277,-3.2398818003999996,-8.1224363157,4.2496529376,1272
90955,176170,232273,-3.1968109935999998,-8.1942209937,4.2101713647,1273
91076,176132,232259,-3.1621150658999997,-8.170292767700001,4.2687955184,1274
91191,176159,232275,-3.2111679291999997,-8.2648092604,4.1922251952,1275
91310,176184,232287,-3.0544380489000003,-8.1260255496,4.2257247116,1276
91408,176213,232258,-3.1357940173,-8.1750784129,4.235296002,1277
91434,176211,232242,-3.1680971224,-8.1511501869,4.1491543884,1278
91480,176212,232248,-3.1537401868,-8.0087772422,4.2065821308,1279
91694,176245,232284,-3.1393832512,-8.249255913499999,4.2735811636,1280
91828,176280,232284,-3.2386853891,-8.25523797,4.3489550755,1281
91842,176298,232286,-3.3308090592,-8.1942209937,4.2017964856,1282
91968,176283,232250,-3.1357940173,-7.9932238953,4.3585263658999995,1283
91480,176129,232214,-3.1920253483999996,-8.2839518412,4.2161534212,1284
90444,175921,232089,-3.2877382523999996,-8.1870425259,4.3298124947,1285
89634,175813,232007,-3.0221349438,-8.0303126456,4.1587256788,1286
89283,175747,232033,-3.1118657913,-8.173882001600001,4.2879380992,1287
89236,175771,232069,-3.2721849055,-8.2037922841,4.2819560427,1288
89307,175811,232101,-3.0687949845,-8.2648092604,4.1479579771,1289
89418,175845,232124,-3.2925238975999997,-8.2923267203,4.2723847523,1290
89623,175894,232163,-3.182454058,-8.226524098799999,4.2448672924,1291
89863,175906,232178,-3.2243284535,-8.159525066,4.2400816472,1292
90005,175983,232197,-3.2685956716,-8.1846497033,4.2544385828,1293
90033,175957,232210,-3.2697920829,-8.1978102276,4.2448672924,1294
90001,175936,232211,-3.2542387359999996,-8.25523797,4.2209390664,1295
89936,175918,232141,-3.0831519201,-8.1499537756,4.1072799929,1296
89914,175946,232162,-3.1381868399,-8.0650085733,4.342973019,1297
90033,175975,232200,-3.2446674455999998,-8.2169528084,4.2197426551,1298
90191,175997,232222,-3.0257241777000004,-8.2600236152,4.2532421715,1299
90412,176012,232245,-3.0975088557,-8.0410803473,4.2149570099,1300
90530,176033,232263,-3.1920253483999996,-8.159525066,4.3106699139,1301
90766,176068,232269,-3.2685956716,-8.1547394208,4.2245283003,1302
90901,176147,232318,-3.1920253483999996,-8.207381518,4.2293139454999995,1303
91063,176127,232311,-3.158525832,-8.160721477300001,4.2293139454999995,1304
91193,176229,232315,-3.2518459134,-8.1846497033,4.3058842687,1305
91315,176197,232289,-3.2015966388,-8.170292767700001,4.1682969692,1306
91423,176216,232315,-3.0484559924,-8.1511501869,4.3154555591,1307
91477,176237,232327,-3.1022945009000003,-8.360522164399999,4.2257247116,1308
91686,176300,232343,-3.0412775246,-8.236095389199999,4.2436708811,1309
91795,176306,232369,-3.2075786953,-8.2707913169,4.2496529376,1310
91931,176367,232348,-3.1070801461,-8.2504523248,4.1970108404,1311
91946,176344,232332,-3.062812928,-8.2600236152,4.259224228,1312
91411,176228,232275,-3.3068808331999997,-8.1882389372,4.3298124947,1313
90421,176008,232138,-3.0592236941,-8.25523797,4.18743955,1314
89699,175874,232126,-3.0436703472,-8.0889367993,4.2257247116,1315
89428,175901,232110,-3.2398818003999996,-8.1798640581,4.2735811636,1316
89434,175882,232161,-3.1441688964,-8.2037922841,4.3106699139,1317
89518,175903,232188,-3.2961131315000003,-8.240881034400001,4.235296002,1318
89669,176004,232169,-3.2590243811999997,-8.1463645417,4.2496529376,1319
89927,176045,232257,-3.23031051,-8.2133635745,4.2257247116,1320
90181,176067,232270,-3.182454058,-8.13559684,4.3022950348,1321
90299,176071,232243,-3.1298119607999997,-8.2971123655,4.2963129783,1322
90218,176057,232222,-3.1872397032,-8.183453292,4.2544385828,1323
90183,176042,232226,-3.2410782117,-8.2085779293,4.1108692268,1324
90139,176065,232245,-3.0352954681,-8.240881034400001,4.2340995907,1325
90137,176050,232189,-3.2626136151000003,-8.2504523248,4.1838503161,1326
90189,176013,232153,-3.2506495021,-8.1930245824,4.1922251952,1327
90351,176093,232171,-3.0819555088,-8.0554372829,4.2496529376,1328
90431,176076,232153,-3.182454058,-8.170292767700001,4.2496529376,1329
90608,176106,232161,-3.2638100264,-8.303094422,4.2065821308,1330
90748,176146,232142,-3.1250263156,-8.2695949056,4.18743955,1331
90870,176141,232128,-3.1884361145,-8.364111398299999,4.2305103568,1332
90986,176155,232149,-3.2015966388,-8.373682688699999,4.2448672924,1333
91081,176170,232111,-3.2386853891,-8.2456666796,4.2867416879,1334
91179,176183,232096,-3.1680971224,-8.2504523248,4.1970108404,1335
91271,176193,232121,-3.2650064377,-8.3114693011,4.2209390664,1336
91361,176221,232081,-3.0400811133000003,-8.3258262367,4.1682969692,1337
91496,176254,232083,-3.278166962,-8.2660056717,4.2161534212,1338
91557,176185,232039,-3.2075786953,-8.3365939384,4.1922251952,1339
91563,176174,232031,-3.2434710343,-8.170292767700001,4.1682969692,1340
91020,176039,231933,-3.0448667585,-8.1786676468,4.2735811636,1341
90045,175867,231762,-3.3188449462,-8.1415788965,4.2640098732,1342
89316,175745,231744,-3.0975088557,-8.236095389199999,4.2257247116,1343
89045,175692,231758,-2.9886354273999998,-8.2875410751,4.2675991071,1344
89039,175716,231726,-3.2015966388,-8.3234334141,4.258027816699999,1345
89129,175740,231791,-3.1405796625,-8.160721477300001,4.1491543884,1346
89322,175801,231830,-3.1812576466999998,-8.4311104311,4.2161534212,1347
89570,175898,231886,-3.0927232105,-8.2875410751,4.2544385828,1348
89866,175965,231927,-3.1166514365,-8.2456666796,4.2257247116,1349
90036,175998,231981,-3.0735806297,-8.173882001600001,4.3393837851,1350
90052,176023,231980,-3.3152557123,-8.159525066,4.2340995907,1351
90031,176031,231990,-3.2542387359999996,-8.183453292,4.2388852359,1352
90036,176014,232017,-3.2458638569,-8.25523797,4.211367776,1353
90098,176012,231977,-3.1980074049,-8.4167534955,4.2161534212,1354
90190,176029,231973,-3.1692935337,-8.3892360356,4.1527436223,1355
90303,176056,231973,-3.1860432919,-8.3318082932,4.1862431387,1356
90493,176109,232026,-2.9922246613000003,-8.2325061553,4.2245283003,1357
90639,176096,231980,-3.1776684127999997,-8.1846497033,4.1958144290999995,1358
90809,176141,232041,-3.2638100264,-8.3210405915,4.283152454,1359
90981,176202,232039,-3.11066938,-8.1990066389,4.1922251952,1360
91091,176206,232029,-3.1728827676,-8.2839518412,4.2628134618999995,1361
91215,176235,232077,-3.23031051,-8.236095389199999,4.1359938641000005,1362
91306,176242,232035,-3.2111679291999997,-8.373682688699999,4.1718862031,1363
91420,176237,232006,-3.1920253483999996,-8.3748791,4.2675991071,1364
91486,176249,231986,-3.0532416376,-8.3114693011,4.320241204299999,1365
91676,176258,231980,-2.9874390161,-8.3437724062,4.2209390664,1366
91750,176256,231921,-3.134597606,-8.3126657124,4.2867416879,1367
91656,176166,231910,-3.2243284535,-8.0793655089,4.3058842687,1368
90968,175993,231763,-3.1549365981,-8.1499537756,4.2293139454999995,1369
89975,175773,231647,-3.1968109935999998,-8.240881034400001,4.3345981399,1370
89303,175675,231592,-3.1166514365,-8.2923267203,4.2161534212,1371
89065,175611,231563,-3.1872397032,-8.240881034400001,4.1491543884,1372
89049,175596,231578,-3.1908289370999996,-8.240881034400001,4.0689948312999995,1373
89118,175602,231556,-2.9539394997,-8.2636128491,4.2257247116,1374
89210,175604,231520,-3.0819555088,-8.1882389372,4.387240237099999,1375
89427,175614,231524,-3.0017959517,-8.2983087768,4.211367776,1376
89649,175653,231540,-3.1537401868,-8.1786676468,4.2305103568,1377
89811,175679,231565,-3.2111679291999997,-8.1882389372,4.320241204299999,1378
89836,175673,231513,-3.1154550251999997,-8.0805619202,4.2544385828,1379
89815,175627,231536,-3.1872397032,-8.254041558700001,4.2735811636,1380
89850,175661,231552,-3.1645078885,-8.279166196,4.1539400336,1381
89902,175696,231515,-3.2446674455999998,-8.1942209937,4.3154555591,1382
90013,175664,231542,-3.0963124444,-8.2983087768,4.163511324,1383
90160,175695,231547,-3.2291140987,-8.1415788965,4.2317067681000005,1384
90326,175706,231516,-2.9970103065,-8.1643107112,4.2448672924,1385
90479,175701,231535,-3.1118657913,-8.3318082932,4.2017964856,1386
90610,175710,231502,-3.3104700671000002,-8.1367932513,4.2640098732,1387
90792,175779,231512,-3.2542387359999996,-8.1894353485,4.2257247116,1388
90877,175768,231488,-3.182454058,-8.2648092604,4.2963129783,1389
91039,175870,231481,-3.2075786953,-8.13559684,4.2544385828,1390
91210,175844,231532,-3.158525832,-8.2025958728,4.30708068,1391
91363,175878,231510,-3.1549365981,-8.3186477689,4.2209390664,1392
91534,175939,231584,-3.0975088557,-8.155935832099999,4.2687955184,1393
91453,175909,231560,-3.11066938,-8.3114693011,4.2963129783,1394
90763,175779,231559,-3.1022945009000003,-8.1511501869,4.2077785421,1395
89962,175674,231484,-3.2973095428,-8.1786676468,4.2017964856,1396
89558,175671,231547,-3.0687949845,-8.1451681304,4.2400816472,1397
89446,175707,231628,-3.2123643404999997,-8.373682688699999,4.2628134618999995,1398
89610,175726,231655,-3.0508488149999997,-8.2887374864,4.2484565263,1399
89709,175794,231666,-3.1764720014999996,-8.231309744,4.2628134618999995,1400
89948,175821,231736,-3.2315069213,-8.2372918005,4.3154555591,1401
90224,175886,231773,-3.1310083721,-8.2887374864,4.2879380992,1402
90447,175911,231800,-3.1776684127999997,-8.1798640581,4.2819560427,1403
90491,175945,231786,-3.158525832,-8.338986761000001,4.0881374121,1404
90534,175949,231804,-3.1202406704,-8.160721477300001,4.2532421715,1405
90480,175912,231799,-3.1214370817,-8.1942209937,4.2161534212,1406
90508,175945,231794,-3.1441688964,-8.1415788965,4.1347974528,1407
90528,175966,231788,-3.23031051,-8.2887374864,4.2305103568,1408
90693,176039,231832,-3.1872397032,-8.3078800672,4.2687955184,1409
90820,176038,231808,-3.0245277664,-8.2253276875,4.2783668087999995,1410
90987,176097,231843,-3.2255248647999997,-8.2887374864,4.2197426551,1411
91129,176148,231905,-3.1860432919,-8.1080793801,4.2448672924,1412
91277,176190,231890,-3.1393832512,-8.1176506705,4.2209390664,1413
91366,176237,231868,-3.2769705507,-8.236095389199999,4.283152454,1414
91524,176309,231959,-3.2315069213,-8.0458659925,4.2640098732,1415
91612,176348,231932,-3.0017959517,-8.2887374864,4.258027816699999,1416
91729,176400,231943,-3.2913274863,-8.280362607299999,4.1539400336,1417
91817,176411,231918,-3.3020951879999996,-8.2612200265,4.1587256788,1418
91830,176411,231961,-3.2578279699,-8.279166196,4.2963129783,1419
91352,176302,231868,-3.1956145822999997,-8.2600236152,4.259224228,1420
90362,176164,231818,-3.0843483314,-8.2205420423,4.1587256788,1421
89665,176142,231768,-3.2542387359999996,-8.1176506705,4.2161534212,1422
89291,176151,231787,-3.1154550251999997,-8.1990066389,4.235296002,1423
89196,176210,231830,-3.3451659948,-8.1798640581,4.1587256788,1424
89217,176201,231869,-3.2877382523999996,-8.207381518,4.2065821308,1425
89340,176226,231849,-3.2015966388,-8.2217384536,4.2544385828,1426
89570,176324,231839,-3.2865418411,-8.1750784129,4.1826539048,1427
89736,176311,231891,-3.0400811133000003,-8.1511501869,4.2544385828,1428
89835,176333,231853,-3.1645078885,-8.2241312762,4.2197426551,1429
89730,176360,231843,-3.1968109935999998,-8.1930245824,4.2400816472,1430
89600,176324,231862,-3.1872397032,-8.240881034400001,4.2065821308,1431
89632,176290,231775,-3.2961131315000003,-8.1882389372,4.2065821308,1432
89661,176328,231793,-3.1250263156,-8.2695949056,4.2771703975,1433
89753,176321,231808,-3.134597606,-8.2037922841,4.1730826144,1434
89787,176334,231779,-3.0640093393,-8.2743805508,4.1958144290999995,1435
90056,176371,231793,-3.2171499857,-8.2229348649,4.097708702499999,1436
90169,176376,231702,-3.11066938,-8.1643107112,4.2448672924,1437
90291,176440,231680,-3.1692935337,-8.2456666796,4.127618985,1438
90396,176439,231688,-3.1728827676,-8.1942209937,4.0821553556,1439
90520,176439,231709,-3.2111679291999997,-8.2875410751,4.1300118076,1440
90612,176461,231653,-3.0305098229,-8.169096356399999,4.2017964856,1441
90747,176460,231710,-3.2159535744,-8.279166196,4.2628134618999995,1442
90855,176502,231649,-3.2961131315000003,-8.350950873999999,4.2293139454999995,1443
90917,176469,231601,-3.2398818003999996,-8.2875410751,4.1443687432,1444
90512,176403,231556,-3.2398818003999996,-8.1750784129,4.2305103568,1445
89651,176285,231477,-3.1154550251999997,-8.2121671632,4.163511324,1446
89032,176232,231475,-3.2255248647999997,-8.2420774457,4.1826539048,1447
88792,176254,231486,-3.0915267992,-8.3353975271,4.1252261624,1448
88787,176261,231457,-3.1441688964,-8.2887374864,4.18743955,1449
88888,176282,231458,-3.0532416376,-8.173882001600001,4.1108692268,1450
89094,176322,231500,-2.9958138952,-8.2169528084,4.3501514868,1451
89407,176379,231485,-3.086741154,-8.25523797,4.2628134618999995,1452
89601,176441,231502,-3.0687949845,-8.2600236152,4.1539400336,1453
89738,176416,231506,-3.1154550251999997,-8.2983087768,4.1862431387,1454
89742,176418,231469,-3.11066938,-8.2085779293,4.2532421715,1455
89789,176474,231469,-3.0496524037,-8.2037922841,4.1682969692,1456
89834,176445,231485,-3.2482566795000003,-8.1786676468,4.3489550755,1457
89967,176483,231466,-3.2769705507,-8.2839518412,4.2400816472,1458
89978,176544,231503,-3.1058837348,-8.183453292,4.2963129783,1459
90252,176555,231491,-3.0448667585,-8.280362607299999,4.2448672924,1460
90453,176622,231483,-3.1680971224,-8.3497544627,4.18743955,1461
90644,176591,231498,-3.0532416376,-8.3700934548,4.1491543884,1462
90825,176635,231538,-3.1058837348,-8.2887374864,4.1671005579,1463
90920,176688,231492,-3.206382284,-8.240881034400001,4.2017964856,1464
91150,176737,231492,-2.9886354273999998,-8.3688970435,4.18743955,1465
91299,176690,231518,-3.0675985732,-8.3688970435,4.2245283003,1466
91468,176783,231528,-3.0580272828,-8.1463645417,4.1527436223,1467
91634,176755,231508,-3.1441688964,-8.1930245824,4.2687955184,1468
91835,176780,231520,-3.1310083721,-8.3557365192,4.353740720699999,1469
91894,176808,231458,-3.1633114771999997,-8.1750784129,4.139583098,1470
91526,176704,231428,-3.2446674455999998,-8.303094422,4.320241204299999,1471
90764,176620,231361,-3.0113672421,-8.2468630909,4.3393837851,1472
90202,176577,231393,-3.1489545415999998,-8.3653078096,4.2975093896,1473
89997,176564,231338,-3.218346397,-8.1188470818,4.1730826144,1474
90027,176630,231349,-3.1441688964,-8.207381518,4.1587256788,1475
90092,176635,231378,-3.2721849055,-8.1978102276,4.1551364449,1476
90278,176644,231350,-3.1597222433,-8.2887374864,4.2161534212,1477
90517,176738,231402,-3.158525832,-8.2779697847,4.1730826144,1478
90762,176773,231370,-3.1680971224,-8.2229348649,4.3106699139,1479
90927,176804,231396,-3.182454058,-8.2468630909,4.3022950348,1480
91040,176762,231390,-3.0915267992,-8.183453292,4.3118663252,1481
91037,176805,231440,-3.1166514365,-8.1786676468,4.319044793,1482
91120,176801,231421,-3.086741154,-8.236095389199999,4.2771703975,1483
91204,176845,231387,-3.2685956716,-8.2121671632,4.2687955184,1484
91405,176867,231434,-3.0065815969000003,-8.1894353485,4.1682969692,1485
91605,176893,231419,-3.2961131315000003,-8.2456666796,4.2963129783,1486
91733,176912,231424,-3.1310083721,-8.3078800672,4.2065821308,1487
91988,176950,231426,-3.0496524037,-8.2037922841,4.2209390664,1488
92201,176977,231437,-3.0556344602,-8.1320076061,4.2161534212,1489
92393,177034,231405,-3.2207392196,-8.3353975271,4.2269211229,1490
92542,177023,231440,-3.11066938,-8.155935832099999,4.2723847523,1491
92788,177059,231422,-3.2829526072,-8.169096356399999,4.1922251952,1492
92906,177061,231419,-3.2051858726999995,-8.1272219609,4.115654872,1493
93032,177111,231397,-3.1680971224,-8.1643107112,4.2675991071,1494
93245,177109,231470,-3.1908289370999996,-8.279166196,4.2388852359,1495
93401,177118,231382,-3.3152557123,-8.1750784129,4.2963129783,1496
93552,177157,231381,-3.1393832512,-8.1415788965,4.1204405172000005,1497
93678,177157,231417,-3.1405796625,-8.1930245824,4.2388852359,1498
93872,177193,231399,-3.2243284535,-8.1846497033,4.1539400336,1499
94017,177191,231388,-3.1489545415999998,-8.1846497033,4.2496529376,1500
94212,177259,231392,-3.206382284,-8.1260255496,4.1922251952,1501
94391,177237,231387,-3.3200413575,-8.3222370028,4.2496529376,1502
94579,177312,231418,-3.1405796625,-8.2707913169,4.2436708811,1503
94723,177322,231387,-2.9635107901000004,-8.147560953,4.139583098,1504
94576,177226,231352,-3.1250263156,-8.2121671632,4.2257247116,1505
94013,177141,231338,-3.0831519201,-8.2085779293,4.2867416879,1506
93542,177104,231288,-3.2626136151000003,-8.4071822051,4.2017964856,1507
93269,177136,231314,-3.1621150658999997,-8.1882389372,4.1778682596,1508
93155,177161,231321,-3.1680971224,-8.2743805508,4.235296002,1509
93341,177171,231322,-3.0161528873,-8.2217384536,4.2197426551,1510
93494,177199,231377,-3.2159535744,-8.2097743406,4.2065821308,1511
93700,177233,231389,-3.1573294206999996,-8.254041558700001,4.1778682596,1512
93916,177270,231418,-3.0269205889999995,-8.240881034400001,4.283152454,1513
94030,177283,231407,-3.0927232105,-8.327022648,4.163511324,1514
94125,177300,231388,-3.2075786953,-8.2971123655,4.2053857195,1515
94190,177327,231409,-3.0915267992,-8.3318082932,4.1886359613,1516
94222,177341,231418,-3.062812928,-8.2600236152,4.139583098,1517
94311,177333,231408,-3.1286155494999996,-8.1403824852,4.2484565263,1518
