green,red,IR,acc_x,acc_y,acc_z,sample_index
97881,166050,237374,-0.2931207685,-9.714859756,1.8711872732,1
97694,166065,237385,-0.4019941968,-9.6442714893,1.9848463467,2
97715,166082,237410,-0.2213360905,-9.714859756,1.8807585636,3
97974,166085,237409,-0.3026920589,-9.7914300792,1.91425808,4
98250,166107,237409,-0.2883351233,-9.7304131029,1.7527425545,5
98433,166127,237438,-0.502492746,-9.7244310464,1.9178473139,6
98490,166109,237453,-0.3505485109,-9.7686982645,2.0422740890999997,7
98537,166105,237391,-0.36370903520000003,-9.738787982,1.9046867896,8
98620,166124,237406,-0.4354937132,-9.6921279413,1.9046867896,9
98672,166158,237402,-0.4534398827,-9.7962157244,1.842473402,10
98900,166166,237425,-0.502492746,-9.8153583052,1.8281164664,11
99104,166201,237482,-0.4594219392,-9.7591269741,1.9094724347999998,12
99271,166197,237506,-0.4354937132,-9.757930562799999,1.8089738856,13
99378,166239,237460,-0.3218346397,-9.767501853199999,1.8987047331,14
99647,166225,237513,-0.4390829471,-9.714859756,1.9226329591,15
99844,166274,237545,-0.4689932296,-9.8608219346,1.8436698133,16
100007,166303,237533,-0.3732803256,-9.799804958300001,1.8376877568,17
99848,166261,237556,-0.36969109170000003,-9.7064848769,1.9178473139,18
98977,166127,237427,-0.4414757697,-9.7399843933,1.9322042495,19
97881,166026,237350,-0.6269195211999999,-9.754341328899999,1.8807585636,20
97370,165978,237311,-0.4642075844,-9.8668039911,1.818545176,21
97194,165974,237310,-0.430708068,-9.6969135865,1.9190437251999999,22
97254,166023,237335,-0.5455635528,-9.7112705221,1.8077774743,23
97513,166042,237391,-0.40319060809999996,-9.786644434,1.8472590472,24
97761,166092,237328,-0.46540399569999996,-9.744770038499999,1.8855442087999998,25
97972,166099,237420,-0.4630111731,-9.81057266,1.8281164664,26
98064,166066,237399,-0.5682953675,-9.8153583052,1.8329021116,27
98134,166114,237366,-0.4462614149,-9.8488578216,1.8759729184,28
98162,166107,237433,-0.41754754369999997,-9.7531449176,1.866401628,29
98435,166138,237430,-0.5647061336,-9.7531449176,1.9369898947,30
98614,166148,237453,-0.5120640364,-9.6574320136,1.9274186043000001,31
98819,166182,237422,-0.5635097223,-9.7196454012,1.8520446924,32
99008,166211,237496,-0.4845465765,-9.7064848769,1.8723836845000001,33
99206,166225,237462,-0.4271188341,-9.8057870148,1.8556339263000001,34
99402,166226,237505,-0.4354937132,-9.8093762487,1.8412769907000002,35
99616,166251,237505,-0.39720855159999996,-9.7399843933,1.7419748528,36
99828,166267,237588,-0.42592242280000003,-9.710074110799999,1.8317057003,37
99675,166234,237491,-0.48693939909999995,-9.738787982,1.8041882404,38
98744,166108,237455,-0.6819544409999999,-9.7962157244,1.8568303376,39
97682,166030,237362,-0.3840480273,-9.839286531199999,1.7623138449,40
97080,165980,237291,-0.49292145559999995,-9.6729853605,1.818545176,41
96884,166010,237370,-0.5599204884,-9.7483592724,1.8041882404,42
96940,166013,237339,-0.454636294,-9.8680004024,1.8281164664,43
97175,166006,237355,-0.5252245607,-9.8057870148,1.9034903783000001,44
97454,166039,237409,-0.4354937132,-9.714859756,1.8029918290999998,45
97680,166059,237353,-0.574277424,-9.7878408453,1.7994025952000001,46
97783,166059,237373,-0.502492746,-9.7914300792,1.9286150156,47
97867,166058,237416,-0.4163511324,-9.69093153,1.866401628,48
97986,166115,237402,-0.41156548719999997,-9.8201439504,1.9369898947,49
98104,166129,237440,-0.44985064880000003,-9.8153583052,1.9405791285999998,50
98333,166145,237423,-0.48335016519999996,-9.8010013696,1.7718851352999998,51
98512,166172,237415,-0.4642075844,-9.6921279413,1.6761722313,52
98708,166172,237458,-0.49770710079999997,-9.8680004024,1.7611174336,53
98932,166171,237455,-0.574277424,-9.6837530622,1.8041882404,54
99136,166213,237494,-0.41754754369999997,-9.7196454012,1.9525432416,55
99368,166223,237482,-0.526420972,-9.8428757651,1.8329021116,56
99557,166299,237490,-0.4354937132,-9.7399843933,1.8508482811000002,57
99540,166231,237528,-0.4271188341,-9.8010013696,1.8233308212,58
98889,166193,237424,-0.4606183505,-9.857232700700001,1.842473402,59
97848,166018,237413,-0.5551348432,-9.7232346351,1.9417755399,60
97148,165998,237310,-0.4450650036,-9.6538427797,1.842473402,61
96945,165943,237326,-0.3649054465,-9.8333044747,1.8616159827999998,62
97023,165985,237310,-0.5647061336,-9.7351987481,1.9094724347999998,63
97227,166034,237363,-0.40677984199999995,-9.6969135865,1.9130616687,64
97568,166060,237381,-0.3888336725,-9.853643466800001,1.7994025952000001,65
97756,166079,237367,-0.5072783912000001,-9.858429112,1.8472590472,66
97890,166072,237390,-0.5503491979999999,-9.7926264905,1.9513468303000001,67
97969,166061,237368,-0.4606183505,-9.5198447141,1.8281164664,68
98105,166092,237349,-0.5276173833,-9.714859756,1.9286150156,69
98251,166111,237408,-0.4402793584,-9.7256274577,1.9513468303000001,70
98436,166131,237434,-0.4211367776,-9.7770731436,1.9034903783000001,71
98585,166152,237418,-0.5587240770999999,-9.8153583052,1.8939190879,72
98848,166182,237433,-0.41754754369999997,-9.8189475391,1.818545176,73
99048,166175,237477,-0.5395814963,-9.7818587888,1.9226329591,74
99270,166216,237483,-0.6065805291,-9.5772724565,1.818545176,75
99518,166239,237535,-0.5359922624,-9.7244310464,1.8652052167000002,76
99720,166275,237527,-0.3684946804,-9.6490571345,1.8089738856,77
99869,166273,237532,-0.5874379483000001,-9.6538427797,1.8376877568,78
99499,166220,237426,-0.3266202849,-9.8356972973,1.9561324755,79
98527,166085,237408,-0.6257231099,-9.811769071299999,1.8460626359,80
97674,166013,237347,-0.46540399569999996,-9.8010013696,1.890329854,81
97316,166018,237381,-0.4689932296,-9.714859756,1.7994025952000001,82
97310,165998,237328,-0.454636294,-9.8010013696,1.7850456596,83
97476,166027,237343,-0.40319060809999996,-9.786644434,1.8843477975,84
97762,166074,237354,-0.610169763,-9.6813602396,1.8747765071,85
98019,166065,237343,-0.4594219392,-9.7531449176,1.7599210223,86
98161,166109,237358,-0.5599204884,-9.8297152408,1.9274186043000001,87
98260,166087,237415,-0.39720855159999996,-9.7818587888,1.9190437251999999,88
98368,166103,237441,-0.31704899449999996,-9.6813602396,1.8891334427000002,89
98506,166133,237392,-0.5359922624,-9.8380901199,1.9130616687,90
98708,166157,237402,-0.33260234139999995,-9.8057870148,1.8699908619,91
98846,166177,237401,-0.43190447930000003,-9.5868437469,1.8987047331,92
99033,166197,237443,-0.4630111731,-9.738787982,1.8747765071,93
99269,166218,237475,-0.3266202849,-9.6729853605,1.8855442087999998,94
99506,166219,237471,-0.3493520996,-9.7340023368,1.9609181207,95
99669,166263,237501,-0.47856452,-9.7136633447,1.79461695,96
99884,166289,237500,-0.5551348432,-9.6394858441,1.9046867896,97
100092,166276,237501,-0.4642075844,-9.8010013696,1.7886348934999998,98
100169,166310,237514,-0.5694917788,-9.6490571345,1.8843477975,99
99519,166177,237406,-0.3984049629,-9.7196454012,1.866401628,100
98508,166095,237401,-0.46540399569999996,-9.8751788702,1.79461695,101
97794,166012,237362,-0.41276189849999995,-9.6921279413,1.9322042495,102
97565,166015,237303,-0.5838487144,-9.6861458848,1.8376877568,103
97603,166031,237309,-0.4271188341,-9.8859465719,1.8329021116,104
97735,166083,237334,-0.5790630692000001,-9.853643466800001,1.7335999736999999,105
98082,166097,237340,-0.3421736318,-9.9146604431,1.7515461432000001,106
98275,166131,237385,-0.47377887479999997,-9.6921279413,1.7934205387,107
98413,166124,237386,-0.5012963347,-9.6586284249,1.9274186043000001,108
98516,166144,237404,-0.5359922624,-9.7483592724,1.8652052167000002,109
98600,166160,237379,-0.394815729,-9.6693961266,1.8568303376,110
98752,166151,237421,-0.5156532703,-9.857232700700001,1.8556339263000001,111
98938,166178,237404,-0.4749752861,-9.6634140701,1.8747765071,112
99130,166198,237397,-0.5407779076,-9.8010013696,1.7694923127,113
99323,166218,237434,-0.36969109170000003,-9.786644434,1.8281164664,114
99521,166240,237458,-0.574277424,-9.714859756,1.8077774743,115
99723,166299,237494,-0.5084748025,-9.7160561673,1.866401628,116
99930,166292,237463,-0.4402793584,-9.6861458848,1.9417755399,117
100162,166298,237496,-0.49292145559999995,-9.7351987481,1.7527425545,118
100333,166316,237456,-0.4594219392,-9.6813602396,1.8364913454999998,119
100293,166293,237463,-0.49292145559999995,-9.7926264905,1.8364913454999998,120
99684,166181,237378,-0.3840480273,-9.757930562799999,1.8843477975,121
98667,166093,237348,-0.5635097223,-9.767501853199999,1.8329021116,122
97980,166059,237291,-0.48335016519999996,-9.786644434,1.722832272,123
97781,166031,237298,-0.526420972,-9.710074110799999,1.8233308212,124
97862,166060,237319,-0.34456645439999994,-9.6442714893,1.8281164664,125
98027,166105,237344,-0.3780659708,-9.6777710057,1.7994025952000001,126
98330,166085,237306,-0.31704899449999996,-9.7399843933,1.8329021116,127
98513,166117,237301,-0.47976093129999997,-9.8010013696,1.8652052167000002,128
98566,166114,237313,-0.490528633,-9.607182739,1.746760498,129
98683,166128,237372,-0.47856452,-9.7340023368,1.8520446924,130
98790,166107,237314,-0.21296121140000002,-9.7531449176,1.8376877568,131
98913,166124,237328,-0.42592242280000003,-9.8632147572,1.9226329591,132
99085,166151,237324,-0.2775674216,-9.629914553699999,1.8855442087999998,133
99254,166137,237358,-0.33260234139999995,-9.6969135865,1.8568303376,134
99433,166180,237364,-0.382851616,-9.852447055499999,1.7850456596,135
99676,166204,237388,-0.2835494781,-9.786644434,1.8616159827999998,136
99836,166232,237395,-0.4630111731,-9.7531449176,1.8041882404,137
100053,166229,237413,-0.3744767369,-9.6634140701,1.8041882404,138
100253,166317,237396,-0.30747770409999997,-9.7435736272,1.9417755399,139
100435,166279,237429,-0.3924229064,-9.7399843933,1.8604195715,140
100405,166249,237408,-0.3744767369,-9.7962157244,2.0315063874,141
99733,166159,237367,-0.3218346397,-9.7244310464,1.8245272325,142
98718,166050,237240,-0.3792623821,-9.7435736272,1.9848463467,143
98138,166004,237270,-0.39361931769999997,-9.6586284249,1.866401628,144
97985,165999,237208,-0.34456645439999994,-9.7435736272,1.8711872732,145
98128,166045,237202,-0.34576286570000003,-9.7292166916,1.7419748528,146
98359,166072,237282,-0.34097722049999996,-9.7160561673,1.8520446924,147
98595,166101,237267,-0.36370903520000003,-9.7375915707,1.9046867896,148
98769,166093,237259,-0.35892339,-9.7244310464,1.890329854,149
98815,166109,237307,-0.2883351233,-9.5772724565,1.91425808,150
98846,166091,237280,-0.3158525832,-9.687342296099999,1.8987047331,151
98947,166129,237314,-0.4749752861,-9.6598248362,1.8149559420999999,152
99094,166101,237280,-0.5778666579,-9.7722874984,1.8711872732,153
99250,166160,237289,-0.430708068,-9.8668039911,1.8412769907000002,154
99420,166176,237348,-0.3744767369,-9.8010013696,1.8233308212,155
99592,166184,237340,-0.3888336725,-9.674181771799999,1.8472590472,156
99775,166230,237340,-0.39720855159999996,-9.710074110799999,1.8376877568,157
100004,166218,237386,-0.3361915753,-9.6981099978,1.9094724347999998,158
100169,166256,237347,-0.5479563754,-9.6442714893,1.8759729184,159
100362,166275,237359,-0.3732803256,-9.7375915707,1.866401628,160
100389,166268,237385,-0.5168496816,-9.7172525786,1.842473402,161
99813,166177,237343,-0.33499516399999996,-9.853643466800001,2.0470597343,162
98726,166086,237255,-0.5503491979999999,-9.811769071299999,1.8089738856,163
97998,166026,237216,-0.39361931769999997,-9.7722874984,1.8987047331,164
97713,166013,237189,-0.47377887479999997,-9.7531449176,1.8616159827999998,165
97760,166017,237188,-0.4366901245,-9.6969135865,1.866401628,166
97962,166046,237228,-0.5060819799,-9.6634140701,1.8568303376,167
98253,166075,237231,-0.49292145559999995,-9.7351987481,1.8089738856,168
98462,166099,237195,-0.41156548719999997,-9.9003035075,1.770688724,169
98548,166088,237280,-0.42233318890000004,-9.8428757651,1.8245272325,170
98621,166079,237304,-0.454636294,-9.8428757651,1.7575281996999998,171
98738,166144,237267,-0.3744767369,-9.710074110799999,1.8233308212,172
98864,166116,237256,-0.42592242280000003,-9.762716208,1.8137595308,173
98972,166143,237292,-0.526420972,-9.7208418125,1.8987047331,174
99206,166162,237279,-0.3744767369,-9.6969135865,1.7802600144,175
99395,166186,237301,-0.5120640364,-9.7244310464,1.7623138449,176
99573,166213,237342,-0.6065805291,-9.8775716928,1.8807585636,177
99798,166271,237357,-0.3553341561,-9.6526463684,1.842473402,178
99974,166271,237285,-0.5623133109999999,-9.6574320136,1.8951154991999999,179
100171,166296,237348,-0.3840480273,-9.7208418125,1.7515461432000001,180
100342,166312,237376,-0.36969109170000003,-9.7160561673,1.79461695,181
100021,166236,237307,-0.4450650036,-9.6574320136,1.9322042495,182
98923,166089,237239,-0.502492746,-9.8333044747,1.9609181207,183
97860,166027,237175,-0.35892339,-9.7292166916,1.8604195715,184
97325,166003,237136,-0.4414757697,-9.8201439504,1.7886348934999998,185
97161,165969,237142,-0.4689932296,-9.8967142736,1.8233308212,186
97193,165989,237165,-0.4450650036,-9.839286531199999,1.8281164664,187
97422,166021,237153,-0.5072783912000001,-9.7591269741,1.8652052167000002,188
97671,166037,237194,-0.4642075844,-9.7531449176,1.8556339263000001,189
97885,166050,237216,-0.49770710079999997,-9.8249295956,1.8472590472,190
97979,166058,237217,-0.4701896409,-9.6813602396,1.9094724347999998,191
98050,166056,237209,-0.5204389155,-9.9003035075,1.9046867896,192
98177,166072,237170,-0.43190447930000003,-9.7926264905,1.8795621523000001,193
98357,166105,237201,-0.5682953675,-9.700502820399999,1.8843477975,194
98497,166099,237276,-0.36969109170000003,-9.6634140701,1.7898313048,195
98642,166146,237229,-0.36969109170000003,-9.7208418125,1.7754743692000001,196
98899,166158,237324,-0.41276189849999995,-9.7734839097,1.8568303376,197
99085,166183,237270,-0.5587240770999999,-9.8297152408,1.7994025952000001,198
99295,166219,237290,-0.49770710079999997,-9.738787982,1.8999011444,199
99477,166228,237337,-0.4749752861,-9.6921279413,1.818545176,200
99684,166249,237332,-0.5790630692000001,-9.6586284249,1.8317057003,201
99818,166240,237336,-0.34456645439999994,-9.6861458848,1.8173487647,202
99389,166189,237303,-0.4163511324,-9.7196454012,1.9226329591,203
98381,166048,237211,-0.33499516399999996,-9.69093153,1.8568303376,204
97337,165982,237151,-0.5455635528,-9.8153583052,1.9274186043000001,205
96865,165940,237154,-0.5587240770999999,-9.9050891527,1.8807585636,206
96779,165953,237140,-0.5036891573,-9.7208418125,1.9178473139,207
96915,165992,237136,-0.6281159325,-9.8010013696,1.8568303376,208
97170,165975,237180,-0.4414757697,-9.6538427797,1.8281164664,209
97441,166000,237229,-0.47377887479999997,-9.8680004024,1.8089738856,210
97648,166048,237230,-0.49770710079999997,-9.6107719729,1.79461695,211
97779,166010,237254,-0.6783652070999999,-9.786644434,1.8747765071,212
97832,166018,237241,-0.4689932296,-9.6765745944,1.7479569093,213
97975,166056,237246,-0.36969109170000003,-9.7710910871,1.6570296505,214
98141,166087,237270,-0.40319060809999996,-9.8715896363,1.8041882404,215
98334,166101,237278,-0.39720855159999996,-9.6969135865,1.7754743692000001,216
98531,166115,237318,-0.5216353268,-9.7016992317,1.8508482811000002,217
98726,166132,237297,-0.31345976059999997,-9.844072176400001,1.7611174336,218
98890,166160,237336,-0.5324030285,-9.8201439504,1.8089738856,219
99135,166178,237361,-0.5778666579,-9.7806623775,1.9046867896,220
99336,166212,237331,-0.43190447930000003,-9.767501853199999,1.8616159827999998,221
99592,166223,237378,-0.34576286570000003,-9.7375915707,1.7754743692000001,222
99781,166266,237372,-0.35892339,-9.6705925379,1.79461695,223
99689,166210,237354,-0.39361931769999997,-9.7531449176,1.842473402,224
98790,166065,237349,-0.4881358104,-9.811769071299999,1.8699908619,225
97615,165967,237208,-0.5455635528,-9.8715896363,1.9286150156,226
96927,165931,237188,-0.574277424,-9.9756774194,1.8029918290999998,227
96758,165980,237177,-0.5886343596,-9.7052884656,1.8795621523000001,228
96889,165941,237222,-0.5168496816,-9.7531449176,1.818545176,229
97140,165979,237235,-0.3840480273,-9.5976114486,1.7754743692000001,230
97482,166043,237237,-0.42233318890000004,-9.7064848769,1.7419748528,231
97679,166036,237326,-0.38763726119999997,-9.8057870148,1.7001004573,232
97808,166004,237323,-0.4881358104,-9.7531449176,1.8891334427000002,233
97919,166043,237292,-0.49770710079999997,-9.6526463684,1.8747765071,234
98007,166039,237310,-0.3026920589,-9.738787982,1.866401628,235
98189,166071,237333,-0.39720855159999996,-9.687342296099999,1.8759729184,236
98327,166123,237318,-0.3840480273,-9.7076812882,1.770688724,237
98572,166126,237366,-0.4354937132,-9.620343263299999,1.7982061838999999,238
98805,166129,237356,-0.4366901245,-9.762716208,1.8711872732,239
99003,166169,237356,-0.4414757697,-9.8680004024,1.818545176,240
99197,166189,237392,-0.3840480273,-9.7722874984,1.8711872732,241
99416,166211,237432,-0.41276189849999995,-9.7914300792,1.8711872732,242
99635,166250,237415,-0.49292145559999995,-9.7962157244,1.770688724,243
99868,166257,237439,-0.3792623821,-9.8632147572,1.7802600144,244
100000,166249,237429,-0.5084748025,-9.7399843933,1.8747765071,245
99499,166147,237384,-0.5838487144,-9.7914300792,1.8137595308,246
98384,166087,237368,-0.48335016519999996,-9.7399843933,1.8233308212,247
97507,165988,237282,-0.3840480273,-9.688538707400001,1.8281164664,248
97170,165982,237268,-0.5455635528,-9.7483592724,1.8281164664,249
97206,165988,237262,-0.5551348432,-9.6574320136,1.8711872732,250
97441,166004,237296,-0.47976093129999997,-9.7016992317,1.8939190879,251
97770,166087,237379,-0.4163511324,-9.8249295956,1.722832272,252
98035,166087,237345,-0.33140593009999997,-9.882357338,1.7419748528,253
98200,166105,237355,-0.39720855159999996,-9.7531449176,1.8376877568,254
98301,166063,237341,-0.5168496816,-9.7806623775,1.866401628,255
98409,166121,237345,-0.3888336725,-9.8141618939,1.7766707805,256
98567,166130,237407,-0.42592242280000003,-9.738787982,1.7192430381,257
98818,166157,237396,-0.43788653580000003,-9.909874797899999,1.8556339263000001,258
98930,166172,237423,-0.49172504429999997,-9.7160561673,1.7934205387,259
99194,166166,237428,-0.4366901245,-9.7244310464,1.79461695,260
99440,166204,237427,-0.35413774480000004,-9.7758767323,1.7886348934999998,261
99648,166249,237461,-0.6065805291,-9.6538427797,1.8807585636,262
99855,166242,237474,-0.5970092387,-9.7531449176,1.8843477975,263
100140,166283,237494,-0.5539384319,-9.714859756,1.8281164664,264
100328,166308,237480,-0.2644068973,-9.8967142736,1.8364913454999998,265
100592,166304,237501,-0.3361915753,-9.6167540294,1.7659030788,266
100561,166283,237474,-0.5012963347,-9.7351987481,1.7850456596,267
99928,166181,237403,-0.3361915753,-9.8093762487,1.79461695,268
98841,166079,237347,-0.5635097223,-9.8967142736,1.8173487647,269
98183,166006,237324,-0.3984049629,-9.6251289085,1.8472590472,270
97981,166028,237297,-0.4689932296,-9.7244310464,1.8329021116,271
98039,166058,237342,-0.5312066172,-9.757930562799999,1.746760498,272
98319,166059,237293,-0.3924229064,-9.834500886,1.7802600144,273
98623,166097,237352,-0.5204389155,-9.620343263299999,1.8329021116,274
98796,166108,237312,-0.31704899449999996,-9.6251289085,1.8604195715,275
98951,166112,237329,-0.5072783912000001,-9.7423772159,1.8089738856,276
99042,166105,237379,-0.6113661743,-9.7818587888,1.9046867896,277
99126,166094,237360,-0.3218346397,-9.620343263299999,1.8137595308,278
99269,166129,237381,-0.5407779076,-9.7244310464,1.8281164664,279
99442,166164,237353,-0.2739781877,-9.5916293921,1.8807585636,280
99640,166177,237438,-0.2931207685,-9.8201439504,1.9525432416,281
99831,166207,237372,-0.49172504429999997,-9.6538427797,1.8568303376,282
100028,166200,237408,-0.33140593009999997,-9.8859465719,1.8125631194999998,283
100232,166240,237424,-0.4594219392,-9.8297152408,1.8412769907000002,284
100444,166245,237462,-0.33858439789999994,-9.643075077999999,1.9226329591,285
100690,166250,237446,-0.41754754369999997,-9.7112705221,1.8939190879,286
100865,166285,237502,-0.4007977855,-9.7722874984,1.91425808,287
100965,166278,237494,-0.22492532440000002,-9.9433743143,1.8807585636,288
100480,166173,237362,-0.36370903520000003,-9.7244310464,1.9094724347999998,289
99600,166119,237340,-0.31704899449999996,-9.7686982645,1.9465611851,290
99011,166075,237283,-0.3792623821,-9.7340023368,1.9286150156,291
98779,166061,237317,-0.3158525832,-9.675378183100001,1.8376877568,292
98865,166073,237267,-0.1926222193,-9.6059863277,1.9238293703999998,293
99111,166094,237315,-0.35892339,-9.6394858441,1.9238293703999998,294
99387,166145,237328,-0.2021935097,-9.7639126193,1.8281164664,295
99575,166129,237298,-0.4402793584,-9.785448022699999,1.9561324755,296
99689,166160,237297,-0.2979064137,-9.714859756,1.9226329591,297
99737,166151,237325,-0.24646072779999997,-9.738787982,2.0183458631,298
99844,166141,237351,-0.4211367776,-9.7340023368,1.9238293703999998,299
99947,166193,237357,-0.35892339,-9.7471628611,1.9752750562999999,300
100119,166201,237353,-0.34576286570000003,-9.667003304,1.9525432416,301
100287,166224,237350,-0.34456645439999994,-9.8488578216,1.8759729184,302
100461,166230,237417,-0.4642075844,-9.8249295956,1.8855442087999998,303
100652,166281,237410,-0.4211367776,-9.6813602396,1.79461695,304
100793,166291,237396,-0.4450650036,-9.6717889492,1.8329021116,305
101050,166303,237408,-0.36969109170000003,-9.7722874984,1.7288143285,306
101256,166303,237412,-0.5443671415,-9.7483592724,1.8317057003,307
101373,166323,237409,-0.34456645439999994,-9.7734839097,1.8317057003,308
100937,166229,237343,-0.4881358104,-9.754341328899999,1.7575281996999998,309
100010,166144,237290,-0.3840480273,-9.7435736272,1.9178473139,310
99274,166094,237325,-0.5934200048,-9.621539674600001,2.0039889275,311
98963,166040,237246,-0.5694917788,-9.710074110799999,1.8652052167000002,312
98911,166086,237242,-0.49292145559999995,-9.799804958300001,1.8987047331,313
99095,166092,237306,-0.46540399569999996,-9.7962157244,1.9238293703999998,314
99304,166151,237296,-0.5168496816,-9.710074110799999,1.8987047331,315
99508,166149,237308,-0.44985064880000003,-9.710074110799999,1.7802600144,316
99630,166164,237300,-0.4079762533,-9.7914300792,1.9130616687,317
99614,166177,237289,-0.4450650036,-9.738787982,1.866401628,318
99790,166180,237344,-0.3421736318,-9.8010013696,1.6701901747999999,319
99854,166179,237275,-0.6065805291,-9.607182739,1.8233308212,320
100060,166170,237329,-0.4642075844,-9.562915520899999,1.818545176,321
100272,166231,237337,-0.5647061336,-9.8249295956,1.7862420709,322
100407,166270,237362,-0.36969109170000003,-9.7196454012,1.8376877568,323
100610,166261,237368,-0.3182454058,-9.6729853605,1.9704894111,324
100804,166302,237392,-0.40677984199999995,-9.767501853199999,1.8711872732,325
100997,166345,237366,-0.41754754369999997,-9.6538427797,1.8137595308,326
101234,166312,237418,-0.4881358104,-9.6634140701,1.842473402,327
101328,166353,237412,-0.4881358104,-9.6981099978,1.8999011444,328
101314,166287,237364,-0.4881358104,-9.8249295956,1.866401628,329
100524,166236,237261,-0.49292145559999995,-9.8488578216,1.8568303376,330
99502,166118,237304,-0.39361931769999997,-9.674181771799999,1.8747765071,331
98857,166093,237214,-0.2656033086,-9.687342296099999,1.8759729184,332
98650,166091,237246,-0.4163511324,-9.8057870148,1.7048861025,333
98637,166082,237221,-0.5168496816,-9.564111932200001,1.8329021116,334
98723,166096,237251,-0.5395814963,-9.6777710057,1.8125631194999998,335
99058,166138,237224,-0.5204389155,-9.8285188295,1.842473402,336
99183,166131,237223,-0.42233318890000004,-9.6921279413,1.8364913454999998,337
99296,166158,237246,-0.4211367776,-9.700502820399999,1.8616159827999998,338
99409,166178,237292,-0.4881358104,-9.5688975774,1.9800607015,339
99373,166151,237286,-0.49770710079999997,-9.7340023368,1.7766707805,340
99594,166186,237233,-0.41156548719999997,-9.7016992317,1.7096717476999999,341
99758,166184,237297,-0.5168496816,-9.728020280299999,1.8329021116,342
99934,166205,237307,-0.49292145559999995,-9.858429112,1.7611174336,343
100089,166249,237335,-0.4450650036,-9.7483592724,1.818545176,344
100190,166290,237324,-0.4414757697,-9.8057870148,1.8891334427000002,345
100488,166314,237313,-0.4414757697,-9.6861458848,1.866401628,346
100679,166324,237351,-0.40319060809999996,-9.6777710057,1.8376877568,347
100907,166346,237345,-0.47856452,-9.754341328899999,1.818545176,348
101104,166337,237348,-0.36011980130000004,-9.700502820399999,1.8795621523000001,349
100816,166266,237341,-0.3888336725,-9.8201439504,1.7383856189,350
99917,166171,237249,-0.47856452,-9.762716208,1.8616159827999998,351
99016,166109,237177,-0.4642075844,-9.762716208,1.8281164664,352
98608,166066,237181,-0.48693939909999995,-9.7531449176,1.7611174336,353
98528,166110,237156,-0.5168496816,-9.8010013696,1.8233308212,354
98646,166094,237214,-0.6508477471999999,-9.9003035075,1.8460626359,355
98826,166107,237202,-0.4510470601,-9.661021247499999,1.7754743692000001,356
99085,166122,237167,-0.3505485109,-9.844072176400001,1.7754743692000001,357
99291,166172,237236,-0.31704899449999996,-9.5677011661,1.7754743692000001,358
99351,166178,237199,-0.6125625856,-9.6490571345,1.8472590472,359
99434,166143,237231,-0.4845465765,-9.7435736272,1.91425808,360
99553,166160,237290,-0.5359922624,-9.620343263299999,1.8089738856,361
99704,166179,237199,-0.4689932296,-9.81057266,1.746760498,362
99889,166199,237233,-0.346959277,-9.7818587888,1.7994025952000001,363
100082,166244,237243,-0.36011980130000004,-9.7639126193,1.6857435217,364
100284,166248,237267,-0.49292145559999995,-9.8620183459,1.79461695,365
100480,166310,237273,-0.49770710079999997,-9.6442714893,1.9465611851,366
100665,166315,237283,-0.34576286570000003,-9.7663054419,1.8855442087999998,367
100905,166311,237328,-0.526420972,-9.5533442305,1.818545176,368
101105,166333,237315,-0.3984049629,-9.757930562799999,1.8616159827999998,369
101184,166340,237336,-0.6388836341999999,-9.81057266,1.9178473139,370
101025,166253,237294,-0.41276189849999995,-9.7160561673,1.8843477975,371
100152,166155,237265,-0.5503491979999999,-9.7878408453,1.9322042495,372
99354,166143,237222,-0.5850451257,-9.6729853605,1.9130616687,373
98894,166114,237154,-0.47377887479999997,-9.7591269741,1.8556339263000001,374
98941,166099,237147,-0.4845465765,-9.7770731436,1.8376877568,375
99068,166132,237155,-0.5168496816,-9.5485585853,1.818545176,376
99267,166189,237209,-0.4989035121,-9.6634140701,1.7802600144,377
99542,166180,237177,-0.4402793584,-9.786644434,1.7850456596,378
99684,166205,237186,-0.42592242280000003,-9.8285188295,1.7479569093,379
99839,166176,237236,-0.5886343596,-9.7112705221,1.8999011444,380
99902,166178,237248,-0.42233318890000004,-9.6969135865,1.866401628,381
100020,166232,237256,-0.5647061336,-9.714859756,1.7898313048,382
100193,166246,237249,-0.502492746,-9.786644434,1.7659030788,383
100353,166254,237224,-0.47377887479999997,-9.6777710057,1.722832272,384
100600,166284,237300,-0.5694917788,-9.8010013696,1.8795621523000001,385
100736,166309,237298,-0.41276189849999995,-9.6622176588,1.8137595308,386
100935,166349,237263,-0.41156548719999997,-9.9385886691,1.8472590472,387
101075,166356,237305,-0.39720855159999996,-9.7052884656,1.8233308212,388
101362,166366,237330,-0.5934200048,-9.8285188295,1.7192430381,389
101567,166383,237309,-0.41156548719999997,-9.8380901199,1.8604195715,390
101743,166363,237346,-0.42233318890000004,-9.762716208,1.8999011444,391
101541,166335,237310,-0.3505485109,-9.7340023368,1.7910277161,392
100687,166230,237231,-0.37567314820000003,-9.762716208,1.8460626359,393
100042,166148,237217,-0.5647061336,-9.6777710057,1.9226329591,394
99653,166157,237143,-0.6544369810999999,-9.8153583052,1.8125631194999998,395
99586,166164,237191,-0.42592242280000003,-9.8249295956,1.9465611851,396
99684,166149,237210,-0.5276173833,-9.7435736272,1.866401628,397
99902,166200,237218,-0.49292145559999995,-9.7340023368,1.7982061838999999,398
100141,166220,237182,-0.2943171798,-9.6634140701,1.770688724,399
100215,166232,237190,-0.44985064880000003,-9.6538427797,1.8376877568,400
100414,166209,237183,-0.3744767369,-9.744770038499999,1.7850456596,401
100465,166222,237256,-0.4821537539,-9.7196454012,1.8329021116,402
100568,166221,237239,-0.4881358104,-9.762716208,1.7802600144,403
100714,166247,237170,-0.42233318890000004,-9.6107719729,1.7479569093,404
100902,166282,237189,-0.49292145559999995,-9.6586284249,1.7958133612999998,405
101056,166277,237230,-0.502492746,-9.7112705221,1.8568303376,406
101214,166287,237232,-0.4019941968,-9.7818587888,1.818545176,407
101366,166280,237280,-0.5359922624,-9.8153583052,1.842473402,408
101548,166316,237285,-0.4450650036,-9.7196454012,1.7754743692000001,409
101759,166359,237264,-0.227318147,-9.7136633447,1.8520446924,410
101929,166369,237268,-0.3732803256,-9.6574320136,1.7754743692000001,411
101975,166379,237283,-0.49172504429999997,-9.6969135865,1.890329854,412
101712,166288,237247,-0.5216353268,-9.786644434,1.890329854,413
100994,166202,237154,-0.454636294,-9.6729853605,1.7994025952000001,414
100406,166135,237127,-0.4211367776,-9.7818587888,1.9286150156,415
100177,166147,237094,-0.4079762533,-9.7663054419,1.7994025952000001,416
100236,166145,237106,-0.4642075844,-9.7351987481,1.8137595308,417
100292,166214,237145,-0.3505485109,-9.7256274577,1.9082760235,418
100546,166213,237145,-0.33140593009999997,-9.7639126193,1.9130616687,419
100737,166195,237167,-0.30747770409999997,-9.786644434,1.79461695,420
100785,166215,237174,-0.44985064880000003,-9.7435736272,2.0135602179,421
100855,166209,237129,-0.2344966148,-9.643075077999999,1.8855442087999998,422
100927,166243,237130,-0.2787638329,-9.6681997153,1.9800607015,423
101007,166259,237158,-0.35892339,-9.5868437469,1.9094724347999998,424
101123,166271,237172,-0.2548356069,-9.634700198900001,1.938186306,425
101274,166291,237207,-0.2739781877,-9.5677011661,1.8317057003,426
101440,166283,237198,-0.2967100024,-9.7052884656,1.9657037659,427
101598,166312,237225,-0.287138712,-9.7770731436,1.8807585636,428
101752,166326,237209,-0.3924229064,-9.7340023368,1.8999011444,429
101948,166384,237198,-0.5108676251000001,-9.786644434,1.8616159827999998,430
102084,166361,237256,-0.2967100024,-9.7399843933,1.8999011444,431
102146,166341,237188,-0.430708068,-9.786644434,1.842473402,432
101656,166269,237180,-0.44985064880000003,-9.6394858441,1.9752750562999999,433
100933,166184,237096,-0.5072783912000001,-9.8356972973,1.7623138449,434
100405,166140,237100,-0.3397808092,-9.8488578216,1.8137595308,435
100151,166179,237073,-0.4845465765,-9.9577312499,1.9417755399,436
100162,166224,237102,-0.31345976059999997,-9.7734839097,1.9094724347999998,437
100254,166182,237100,-0.4689932296,-9.7770731436,1.8855442087999998,438
100500,166217,237121,-0.4271188341,-9.7770731436,1.91425808,439
100632,166236,237098,-0.3553341561,-9.69093153,1.8568303376,440
100726,166225,237110,-0.49292145559999995,-9.7531449176,1.9286150156,441
100787,166239,237128,-0.4594219392,-9.7531449176,1.8233308212,442
100833,166246,237093,-0.6065805291,-9.6729853605,1.7335999736999999,443
100971,166263,237127,-0.3804587934,-9.7196454012,1.8568303376,444
101054,166313,237161,-0.42233318890000004,-9.7770731436,1.8939190879,445
101203,166337,237156,-0.502492746,-9.7974121357,1.8616159827999998,446
101388,166320,237204,-0.4402793584,-9.738787982,1.890329854,447
101576,166352,237130,-0.4558327053,-9.6107719729,1.8616159827999998,448
101716,166403,237251,-0.49651068949999994,-9.738787982,1.8472590472,449
101896,166397,237196,-0.49292145559999995,-9.667003304,1.8269200550999998,450
102046,166390,237220,-0.2081755662,-9.7292166916,1.79461695,451
102041,166370,237208,-0.4366901245,-9.634700198900001,1.8711872732,452
101375,166254,237123,-0.4414757697,-9.7351987481,1.8281164664,453
100460,166195,237087,-0.49292145559999995,-9.834500886,1.9704894111,454
99710,166136,237046,-0.41156548719999997,-9.8057870148,1.8436698133,455
99385,166129,237003,-0.346959277,-9.6490571345,1.8616159827999998,456
99314,166126,236987,-0.4941178669,-9.9003035075,1.8233308212,457
99365,166144,237028,-0.5156532703,-9.6825566509,1.8281164664,458
99545,166163,237026,-0.44985064880000003,-9.7483592724,1.8089738856,459
99682,166164,237074,-0.5766702466,-9.6622176588,1.8747765071,460
99731,166208,237038,-0.5120640364,-9.738787982,1.8999011444,461
99835,166192,237015,-0.42592242280000003,-9.762716208,1.8281164664,462
99892,166172,237077,-0.36969109170000003,-9.7591269741,1.8759729184,463
99990,166212,237119,-0.4354937132,-9.7471628611,1.8891334427000002,464
100051,166214,237061,-0.4689932296,-9.6813602396,1.8747765071,465
100291,166215,237093,-0.4079762533,-9.6442714893,1.8041882404,466
100466,166262,237106,-0.6161518195,-9.7340023368,1.7659030788,467
100622,166278,237099,-0.4642075844,-9.8380901199,1.7802600144,468
100816,166290,237193,-0.5407779076,-9.8201439504,1.8604195715,469
101022,166312,237166,-0.43190447930000003,-9.6490571345,1.7898313048,470
101202,166349,237154,-0.38763726119999997,-9.6646104814,1.746760498,471
101212,166320,237141,-0.430708068,-9.7435736272,1.8891334427000002,472
100600,166229,237066,-0.5312066172,-9.6119683842,1.8652052167000002,473
99660,166132,237099,-0.5694917788,-9.7399843933,1.8089738856,474
98984,166077,236978,-0.526420972,-9.7770731436,1.8089738856,475
98811,166032,236974,-0.3744767369,-9.7770731436,1.6905291669,476
98810,166057,236989,-0.5312066172,-9.6586284249,1.8939190879,477
98954,166076,237002,-0.36011980130000004,-9.7160561673,1.8173487647,478
99174,166124,237007,-0.3888336725,-9.69093153,1.7994025952000001,479
99306,166139,237069,-0.3840480273,-9.7292166916,1.8376877568,480
99502,166145,237088,-0.49292145559999995,-9.5916293921,1.9369898947,481
99577,166160,237053,-0.5312066172,-9.8189475391,1.8376877568,482
99674,166173,237056,-0.59820565,-9.6622176588,1.7240286833,483
99813,166188,237081,-0.2775674216,-9.7818587888,1.8089738856,484
100001,166207,237067,-0.43190447930000003,-9.852447055499999,1.8604195715,485
100188,166190,237124,-0.454636294,-9.6239324972,1.8329021116,486
100350,166250,237139,-0.4402793584,-9.844072176400001,1.8137595308,487
100509,166287,237184,-0.5790630692000001,-9.853643466800001,1.9417755399,488
100769,166279,237136,-0.47976093129999997,-9.7914300792,1.9226329591,489
100973,166283,237157,-0.4402793584,-9.7244310464,1.818545176,490
101198,166300,237187,-0.4642075844,-9.6478607232,1.79461695,491
101296,166311,237162,-0.5120640364,-9.762716208,1.8807585636,492
100914,166226,237102,-0.4534398827,-9.6681997153,1.8855442087999998,493
100072,166122,237090,-0.5503491979999999,-9.8668039911,1.8388841681,494
99433,166085,237017,-0.430708068,-9.8285188295,1.7371892076000002,495
99122,166083,237009,-0.5347958510999999,-9.69093153,1.8652052167000002,496
99142,166079,237020,-0.5491527867,-9.799804958300001,1.8376877568,497
99292,166133,237046,-0.39361931769999997,-9.6394858441,1.8843477975,498
99514,166142,237003,-0.4462614149,-9.8907322171,1.8281164664,499
99742,166100,237065,-0.4606183505,-9.8057870148,1.8329021116,500
99858,166154,237080,-0.5180460929,-9.69093153,1.8472590472,501
99948,166148,237087,-0.4450650036,-9.7244310464,1.866401628,502
99979,166155,237099,-0.4462614149,-9.7615197967,1.7659030788,503
100196,166162,237101,-0.49292145559999995,-9.620343263299999,1.8137595308,504
100329,166210,237135,-0.40319060809999996,-9.7208418125,1.8891334427000002,505
100511,166233,237154,-0.4606183505,-9.6729853605,1.8089738856,506
100685,166216,237155,-0.42592242280000003,-9.811769071299999,1.8233308212,507
100894,166237,237134,-0.3553341561,-9.6059863277,1.8951154991999999,508
101070,166285,237181,-0.2644068973,-9.7818587888,1.8855442087999998,509
101283,166284,237204,-0.35174492220000003,-9.9003035075,1.8568303376,510
101474,166322,237232,-0.42592242280000003,-9.6921279413,1.890329854,511
101640,166344,237230,-0.47856452,-9.6490571345,1.8412769907000002,512
101482,166274,237158,-0.44985064880000003,-9.7914300792,1.7754743692000001,513
100765,166186,237136,-0.4402793584,-9.667003304,1.8233308212,514
99986,166108,237125,-0.4689932296,-9.8249295956,1.9034903783000001,515
99518,166091,237054,-0.4510470601,-9.7292166916,1.7802600144,516
99433,166071,237083,-0.38763726119999997,-9.7734839097,1.8041882404,517
99505,166130,237078,-0.36011980130000004,-9.8680004024,1.7479569093,518
99706,166128,237090,-0.4414757697,-9.8309116521,1.8987047331,519
99923,166147,237113,-0.41754754369999997,-9.7064848769,1.7335999736999999,520
100080,166164,237115,-0.3840480273,-9.7399843933,1.8843477975,521
100144,166184,237115,-0.4881358104,-9.6777710057,1.8616159827999998,522
100166,166170,237103,-0.42233318890000004,-9.8141618939,1.9417755399,523
100346,166162,237129,-0.35413774480000004,-9.7340023368,1.9896319919,524
100505,166190,237122,-0.454636294,-9.7112705221,1.6522440053,525
100636,166200,237162,-0.382851616,-9.6012006825,1.8281164664,526
100781,166225,237173,-0.3792623821,-9.8488578216,1.7527425545,527
101015,166209,237143,-0.39720855159999996,-9.858429112,1.8616159827999998,528
101124,166277,237165,-0.5826523031,-9.7782695549,1.8592231602,529
101321,166280,237165,-0.4235296002,-9.6957171752,1.79461695,530
101496,166293,237192,-0.4079762533,-9.6861458848,1.8855442087999998,531
101697,166304,237194,-0.4725824635,-9.6394858441,1.8329021116,532
101782,166297,237217,-0.4354937132,-9.81057266,1.8041882404,533
101389,166206,237187,-0.44985064880000003,-9.629914553699999,1.8616159827999998,534
100521,166119,237071,-0.454636294,-9.69093153,1.8281164664,535
99833,166053,237050,-0.3493520996,-9.786644434,1.818545176,536
99587,166051,237001,-0.43190447930000003,-9.667003304,1.8329021116,537
99593,166043,237051,-0.47377887479999997,-9.8273224182,1.8556339263000001,538
99693,166064,237061,-0.3984049629,-9.8249295956,2.0171494518,539
99809,166099,237086,-0.47856452,-9.7926264905,1.8568303376,540
100101,166112,237049,-0.42592242280000003,-9.7196454012,1.8568303376,541
100163,166119,237100,-0.41276189849999995,-9.7962157244,1.866401628,542
100215,166111,237062,-0.4582255279,-9.7914300792,1.9429719511999999,543
100290,166100,237044,-0.33140593009999997,-9.7435736272,1.8053846516999998,544
100287,166124,237088,-0.4354937132,-9.7016992317,1.8843477975,545
100523,166142,237059,-0.4019941968,-9.7483592724,1.770688724,546
100692,166163,237152,-0.3014956476,-9.757930562799999,1.8604195715,547
100837,166183,237111,-0.4271188341,-9.7040920543,1.9082760235,548
101020,166184,237158,-0.4594219392,-9.81057266,1.9094724347999998,549
101200,166216,237111,-0.24047867129999997,-9.675378183100001,1.938186306,550
101377,166227,237153,-0.40677984199999995,-9.7483592724,1.8568303376,551
101560,166275,237187,-0.311066938,-9.69093153,1.8855442087999998,552
101735,166254,237209,-0.2177468566,-9.7435736272,1.9226329591,553
101367,166185,237128,-0.3397808092,-9.6861458848,1.8472590472,554
100607,166088,237071,-0.3218346397,-9.8045906035,1.9178473139,555
99886,166053,236991,-0.2967100024,-9.7567341515,2.0422740890999997,556
99563,166025,237041,-0.3266202849,-9.8668039911,1.866401628,557
99541,166039,237031,-0.3924229064,-9.7722874984,1.9286150156,558
99636,166080,237035,-0.3888336725,-9.6969135865,1.8245272325,559
99928,166080,237123,-0.4019941968,-9.8907322171,1.8281164664,560
100076,166123,237058,-0.4414757697,-9.6634140701,2.0039889275,561
100167,166090,237061,-0.49651068949999994,-9.7483592724,1.866401628,562
100203,166127,237111,-0.5635097223,-9.6107719729,1.9334006607999998,563
100250,166128,237134,-0.4677968183,-9.564111932200001,1.8616159827999998,564
100357,166122,237122,-0.4450650036,-9.857232700700001,1.8329021116,565
100485,166170,237148,-0.3361915753,-9.7722874984,1.7611174336,566
100684,166166,237135,-0.5730810127,-9.7531449176,1.9190437251999999,567
100758,166160,237130,-0.454636294,-9.69093153,1.9417755399,568
100962,166199,237204,-0.4354937132,-9.7914300792,1.8759729184,569
101162,166243,237172,-0.2500499617,-9.7292166916,2.0123638066000002,570
101336,166279,237239,-0.4402793584,-9.81057266,1.8999011444,571
101530,166320,237274,-0.3038884702,-9.7112705221,1.8759729184,572
101510,166250,237207,-0.39361931769999997,-9.6969135865,1.9513468303000001,573
100872,166170,237148,-0.4019941968,-9.7914300792,1.9046867896,574
99878,166070,237103,-0.44985064880000003,-9.8010013696,1.9429719511999999,575
99200,166044,237030,-0.6065805291,-9.8201439504,1.8855442087999998,576
98839,166004,237057,-0.5455635528,-9.8907322171,1.8329021116,577
98862,166014,237065,-0.44985064880000003,-9.6646104814,1.8041882404,578
98986,166061,237056,-0.5874379483000001,-9.7399843933,1.8041882404,579
99220,166075,237108,-0.35174492220000003,-9.911071209200001,1.8711872732,580
99332,166083,237079,-0.4689932296,-9.674181771799999,1.7994025952000001,581
99413,166090,237083,-0.5216353268,-9.7483592724,1.770688724,582
99510,166082,237120,-0.4642075844,-9.7304131029,1.9704894111,583
99570,166110,237105,-0.5312066172,-9.687342296099999,1.818545176,584
99673,166130,237147,-0.4163511324,-9.834500886,1.8089738856,585
99799,166163,237157,-0.3122633493,-9.7770731436,1.9561324755,586
99986,166172,237149,-0.5455635528,-9.69093153,1.79461695,587
100160,166194,237177,-0.5407779076,-9.6263253198,1.9226329591,588
100340,166185,237176,-0.3661018578,-9.7112705221,1.8520446924,589
100528,166233,237206,-0.33140593009999997,-9.7818587888,1.7898313048,590
100640,166254,237164,-0.3553341561,-9.6957171752,1.7659030788,591
100920,166295,237184,-0.3840480273,-9.7208418125,1.8759729184,592
100832,166248,237189,-0.2739781877,-9.6729853605,1.8317057003,593
100253,166154,237142,-0.4079762533,-9.7208418125,1.9704894111,594
99247,166065,237034,-0.48693939909999995,-9.69093153,1.890329854,595
98534,166028,237084,-0.5168496816,-9.7016992317,1.866401628,596
98350,166006,237047,-0.5072783912000001,-9.839286531199999,1.8891334427000002,597
98358,166022,237037,-0.5551348432,-9.9003035075,1.8089738856,598
98481,166034,237038,-0.5216353268,-9.8057870148,1.8041882404,599
98710,166092,237041,-0.4689932296,-9.7340023368,1.7192430381,600
98957,166099,237057,-0.5072783912000001,-9.8907322171,1.7180466268,601
99022,166118,237103,-0.526420972,-9.5449693514,1.890329854,602
99143,166087,237077,-0.5276173833,-9.6777710057,1.7766707805,603
99222,166098,237127,-0.49292145559999995,-9.7926264905,1.8999011444,604
99342,166141,237108,-0.33140593009999997,-9.7363951594,1.7001004573,605
99509,166146,237122,-0.4247260115,-9.7782695549,1.9274186043000001,606
99700,166158,237152,-0.48693939909999995,-9.7256274577,1.8041882404,607
99930,166204,237141,-0.48693939909999995,-9.767501853199999,1.7994025952000001,608
100026,166205,237169,-0.36370903520000003,-9.710074110799999,1.9178473139,609
100326,166225,237180,-0.4689932296,-9.767501853199999,1.8939190879,610
100515,166282,237214,-0.44386859230000003,-9.6729853605,1.8616159827999998,611
100743,166263,237188,-0.6173482308,-9.7531449176,1.8652052167000002,612
100924,166280,237236,-0.4450650036,-9.7495556837,1.866401628,613
100621,166221,237153,-0.3852444386,-9.870393225,1.8329021116,614
99797,166123,237083,-0.454636294,-9.942177903,1.722832272,615
99018,166060,237075,-0.5395814963,-9.7244310464,1.7850456596,616
98666,166060,237051,-0.39361931769999997,-9.6586284249,1.8652052167000002,617
98627,166065,236981,-0.2799602442,-9.8476614103,1.8891334427000002,618
98790,166062,237028,-0.38763726119999997,-9.8153583052,1.8759729184,619
98996,166099,237083,-0.2931207685,-9.8285188295,1.8281164664,620
99233,166145,237118,-0.3182454058,-9.767501853199999,1.8747765071,621
99410,166131,237079,-0.48693939909999995,-9.7878408453,1.7419748528,622
99544,166143,237133,-0.4211367776,-9.714859756,1.9369898947,623
99569,166138,237114,-0.3649054465,-9.7196454012,1.8137595308,624
99719,166166,237154,-0.526420972,-9.8380901199,1.91425808,625
99885,166184,237170,-0.4749752861,-9.762716208,1.866401628,626
100064,166208,237170,-0.5084748025,-9.7351987481,1.7994025952000001,627
100282,166231,237162,-0.430708068,-9.767501853199999,1.8616159827999998,628
100470,166244,237169,-0.3888336725,-9.7591269741,1.938186306,629
100673,166260,237185,-0.4402793584,-9.7531449176,1.8520446924,630
100882,166276,237192,-0.4354937132,-9.738787982,1.9501504189999999,631
101073,166338,237238,-0.5108676251000001,-9.5820581017,1.818545176,632
101295,166319,237233,-0.4558327053,-9.6622176588,1.842473402,633
101464,166335,237236,-0.46540399569999996,-9.7244310464,1.8759729184,634
101131,166280,237148,-0.46540399569999996,-9.6729853605,1.8472590472,635
100337,166172,237145,-0.47856452,-9.852447055499999,1.7694923127,636
99640,166116,237060,-0.41276189849999995,-9.7292166916,1.8723836845000001,637
99337,166125,237056,-0.5539384319,-9.6646104814,1.8652052167000002,638
99284,166111,237105,-0.43190447930000003,-9.7710910871,2.0123638066000002,639
99419,166139,237087,-0.4749752861,-9.634700198900001,1.9178473139,640
99702,166161,237099,-0.5838487144,-9.8632147572,1.8329021116,641
99851,166199,237120,-0.3840480273,-9.762716208,1.7084753364,642
99970,166176,237141,-0.3649054465,-9.6107719729,1.8616159827999998,643
100025,166187,237142,-0.4510470601,-9.8153583052,1.8951154991999999,644
100138,166178,237150,-0.4354937132,-9.8919286284,1.8233308212,645
100262,166204,237169,-0.5036891573,-9.6861458848,1.8855442087999998,646
100397,166253,237161,-0.3804587934,-9.7483592724,1.8616159827999998,647
100566,166260,237243,-0.4366901245,-9.7806623775,1.8699908619,648
100739,166257,237221,-0.4510470601,-9.7064848769,1.7659030788,649
100915,166286,237216,-0.5910271822000001,-9.6969135865,1.7994025952000001,650
101126,166295,237202,-0.6640082715,-9.744770038499999,1.8472590472,651
101297,166339,237207,-0.5407779076,-9.8010013696,1.7850456596,652
101534,166356,237275,-0.4881358104,-9.738787982,1.7814564256999998,653
101680,166338,237243,-0.48335016519999996,-9.6012006825,1.8197415872999998,654
101863,166375,237266,-0.32542387359999997,-9.7722874984,1.818545176,655
101690,166297,237236,-0.502492746,-9.786644434,1.7802600144,656
100970,166229,237175,-0.5563312545,-9.7208418125,1.8089738856,657
100142,166162,237116,-0.4450650036,-9.7351987481,1.842473402,658
99665,166110,237107,-0.2739781877,-9.786644434,1.8795621523000001,659
99553,166142,237117,-0.5443671415,-9.7770731436,1.8711872732,660
99619,166134,237141,-0.430708068,-9.7196454012,1.8137595308,661
99798,166144,237122,-0.35892339,-9.81057266,1.770688724,662
99991,166183,237117,-0.4354937132,-9.811769071299999,1.698904046,663
100124,166175,237145,-0.454636294,-9.7483592724,1.8795621523000001,664
100161,166184,237106,-0.5036891573,-9.8093762487,1.8269200550999998,665
100231,166177,237079,-0.3649054465,-9.7196454012,1.8759729184,666
100217,166157,237126,-0.5970092387,-9.8644111685,1.9477575963999998,667
100381,166203,237130,-0.36370903520000003,-9.762716208,1.8652052167000002,668
100547,166212,237155,-0.4079762533,-9.8237331843,1.8173487647,669
100663,166232,237186,-0.5395814963,-9.7435736272,1.842473402,670
100808,166235,237199,-0.3026920589,-9.629914553699999,1.818545176,671
100973,166277,237181,-0.36370903520000003,-9.767501853199999,1.746760498,672
101152,166292,237177,-0.36370903520000003,-9.6490571345,1.9274186043000001,673
101362,166278,237254,-0.4390829471,-9.6382894328,1.8699908619,674
101469,166311,237220,-0.44985064880000003,-9.754341328899999,1.8137595308,675
101691,166324,237195,-0.3218346397,-9.8871429832,1.770688724,676
101487,166260,237203,-0.4019941968,-9.688538707400001,1.8987047331,677
100783,166165,237094,-0.2823530668,-9.5820581017,1.8759729184,678
99958,166082,237058,-0.4450650036,-9.762716208,1.8759729184,679
99581,166088,237074,-0.2703889538,-9.882357338,1.8233308212,680
99464,166074,237075,-0.39720855159999996,-9.6012006825,1.8556339263000001,681
99585,166094,237083,-0.502492746,-9.6765745944,1.8149559420999999,682
99767,166129,237105,-0.12681959780000002,-9.6574320136,1.79461695,683
100000,166129,237066,-0.35413774480000004,-9.6490571345,1.7910277161,684
100040,166136,237119,-0.382851616,-9.6382894328,1.7766707805,685
100060,166144,237119,-0.3493520996,-9.620343263299999,1.9573288867999998,686
100123,166129,237095,-0.4821537539,-9.6239324972,1.8795621523000001,687
100185,166151,237106,-0.42592242280000003,-9.834500886,1.8711872732,688
100208,166167,237096,-0.47736810869999996,-9.81057266,1.8652052167000002,689
100453,166184,237171,-0.3984049629,-9.6813602396,2.0374884439,690
100581,166196,237161,-0.4450650036,-9.7950193131,1.9226329591,691
100796,166231,237145,-0.32542387359999997,-9.738787982,1.8759729184,692
100894,166224,237155,-0.31704899449999996,-9.6729853605,1.8795621523000001,693
101054,166254,237133,-0.5156532703,-9.7962157244,1.962114532,694
101236,166307,237214,-0.3062812928,-9.7950193131,1.7515461432000001,695
101379,166275,237186,-0.3266202849,-9.7483592724,1.8041882404,696
101178,166238,237163,-0.47856452,-9.8153583052,1.8568303376,697
100370,166167,237081,-0.4881358104,-9.7483592724,1.8520446924,698
99406,166064,237064,-0.40319060809999996,-9.8153583052,1.8999011444,699
98945,166018,237026,-0.3780659708,-9.7902336679,1.7096717476999999,700
98794,166052,237026,-0.4462614149,-9.6490571345,1.8616159827999998,701
98865,166029,237067,-0.47856452,-9.6765745944,1.9274186043000001,702
99058,166078,237022,-0.41754754369999997,-9.744770038499999,1.7994025952000001,703
99161,166099,237090,-0.3984049629,-9.7686982645,1.8556339263000001,704
99371,166107,237119,-0.4247260115,-9.762716208,1.818545176,705
99389,166087,237084,-0.42592242280000003,-9.7244310464,1.8987047331,706
99459,166122,237139,-0.40319060809999996,-9.786644434,1.9369898947,707
99541,166123,237090,-0.46540399569999996,-9.757930562799999,1.8005990065,708
99665,166122,237125,-0.38763726119999997,-9.6825566509,1.890329854,709
99860,166193,237122,-0.49292145559999995,-9.7351987481,1.8807585636,710
100009,166200,237129,-0.3732803256,-9.7686982645,1.8233308212,711
100182,166221,237188,-0.4881358104,-9.6251289085,2.0362920326,712
100355,166233,237160,-0.5922235935,-9.844072176400001,1.8807585636,713
100572,166252,237180,-0.4642075844,-9.6969135865,1.8089738856,714
100741,166273,237245,-0.3984049629,-9.7351987481,1.8520446924,715
100928,166288,237206,-0.5503491979999999,-9.7363951594,1.6809578765,716
100969,166293,237225,-0.4402793584,-9.732805925500001,1.9226329591,717
100260,166194,237147,-0.48933222169999996,-9.7531449176,1.8855442087999998,718
99204,166049,237042,-0.5216353268,-9.687342296099999,1.818545176,719
98356,166050,236999,-0.3924229064,-9.7722874984,1.7754743692000001,720
97997,166005,237049,-0.49651068949999994,-9.8093762487,1.8472590472,721
97916,166023,237063,-0.41156548719999997,-9.7435736272,1.7850456596,722
98051,166017,237047,-0.3840480273,-9.714859756,1.8807585636,723
98290,166024,237061,-0.47377887479999997,-9.8356972973,1.7479569093,724
98468,166063,237072,-0.5180460929,-9.678967417,1.7659030788,725
98655,166067,237100,-0.3361915753,-9.710074110799999,1.9034903783000001,726
98683,166096,237097,-0.4390829471,-9.7340023368,1.8532411037,727
98732,166106,237113,-0.4881358104,-9.6490571345,1.8616159827999998,728
98845,166103,237138,-0.4594219392,-9.7531449176,1.746760498,729
98911,166110,237144,-0.4450650036,-9.7770731436,1.8089738856,730
99196,166149,237169,-0.3924229064,-9.853643466800001,1.8999011444,731
99368,166187,237157,-0.42233318890000004,-9.7292166916,1.7910277161,732
99557,166199,237190,-0.44985064880000003,-9.7016992317,1.8376877568,733
99749,166190,237222,-0.3792623821,-9.583254513,1.8843477975,734
99967,166252,237190,-0.5395814963,-9.6059863277,1.9513468303000001,735
100093,166259,237297,-0.5922235935,-9.8045906035,1.8460626359,736
100389,166278,237273,-0.4689932296,-9.8141618939,1.8317057003,737
100182,166228,237213,-0.5216353268,-9.7818587888,1.7814564256999998,738
99265,166149,237163,-0.4366901245,-9.6586284249,1.8568303376,739
98426,166070,237112,-0.4366901245,-9.7292166916,1.8723836845000001,740
97939,166039,237082,-0.4594219392,-9.7292166916,1.8759729184,741
97857,166004,237052,-0.40917266459999996,-9.767501853199999,1.8520446924,742
98002,166048,237081,-0.5300102059,-9.744770038499999,1.8711872732,743
98142,166064,237109,-0.4402793584,-9.8333044747,1.8843477975,744
98424,166082,237143,-0.5503491979999999,-9.757930562799999,1.79461695,745
98662,166089,237184,-0.4677968183,-9.919446088299999,1.8137595308,746
98760,166119,237132,-0.41754754369999997,-9.924231733500001,1.8329021116,747
98863,166107,237173,-0.5216353268,-9.710074110799999,1.9944176371,748
98988,166122,237151,-0.3744767369,-9.9577312499,1.818545176,749
99163,166170,237152,-0.3553341561,-9.8285188295,1.8460626359,750
99416,166166,237216,-0.41276189849999995,-9.6634140701,1.7982061838999999,751
99582,166238,237224,-0.4354937132,-9.7244310464,1.8329021116,752
99856,166222,237296,-0.4677968183,-9.7304131029,1.8568303376,753
100034,166263,237221,-0.4510470601,-9.7914300792,1.866401628,754
100249,166258,237201,-0.3984049629,-9.7818587888,1.7371892076000002,755
100506,166312,237251,-0.7022934331,-9.5724868113,1.9046867896,756
100730,166336,237312,-0.48335016519999996,-9.7483592724,1.7623138449,757
100888,166350,237263,-0.49651068949999994,-9.7340023368,1.8281164664,758
100515,166203,237233,-0.47377887479999997,-9.8021977809,1.8604195715,759
99677,166163,237162,-0.5455635528,-9.754341328899999,1.7898313048,760
99017,166130,237157,-0.42233318890000004,-9.8189475391,1.8939190879,761
98758,166119,237135,-0.5120640364,-9.6107719729,1.8520446924,762
98774,166152,237145,-0.2703889538,-9.7064848769,1.8041882404,763
98984,166154,237205,-0.47856452,-9.714859756,1.8987047331,764
99205,166161,237130,-0.47856452,-9.7292166916,1.8376877568,765
99467,166202,237213,-0.3792623821,-9.7244310464,1.7371892076000002,766
99640,166236,237211,-0.4845465765,-9.7064848769,1.7994025952000001,767
99750,166241,237179,-0.6364908116,-9.762716208,1.8568303376,768
99855,166232,237236,-0.6017948839,-9.7052884656,1.842473402,769
100031,166244,237177,-0.41276189849999995,-9.9050891527,1.9369898947,770
100207,166266,237193,-0.454636294,-9.714859756,1.8652052167000002,771
100430,166334,237233,-0.3744767369,-9.6957171752,1.8137595308,772
100604,166318,237277,-0.43190447930000003,-9.9469635482,1.8711872732,773
100724,166333,237220,-0.39361931769999997,-9.786644434,1.7802600144,774
101015,166358,237284,-0.3361915753,-9.7962157244,1.9561324755,775
101241,166413,237305,-0.5072783912000001,-9.6969135865,1.8041882404,776
101446,166426,237295,-0.4689932296,-9.6921279413,1.8149559420999999,777
101664,166425,237311,-0.3302095188,-9.634700198900001,1.8137595308,778
101702,166413,237259,-0.41156548719999997,-9.714859756,1.9609181207,779
101409,166341,237251,-0.4606183505,-9.6442714893,1.866401628,780
100655,166255,237212,-0.5216353268,-9.7914300792,1.8329021116,781
100117,166238,237152,-0.4642075844,-9.852447055499999,1.8807585636,782
99911,166241,237160,-0.502492746,-9.6957171752,1.818545176,783
99953,166272,237169,-0.6161518195,-9.8093762487,1.8604195715,784
100077,166283,237204,-0.4163511324,-9.6059863277,1.8041882404,785
100356,166304,237276,-0.5168496816,-9.762716208,1.8376877568,786
100564,166324,237242,-0.44985064880000003,-9.6681997153,1.7659030788,787
100675,166307,237224,-0.49292145559999995,-9.5389872949,1.842473402,788
100768,166338,237218,-0.4594219392,-9.6574320136,1.9190437251999999,789
100865,166372,237200,-0.5587240770999999,-9.8680004024,1.9082760235,790
101013,166369,237180,-0.3900300838,-9.8632147572,1.8221344098999999,791
101171,166409,237242,-0.4630111731,-9.7770731436,1.7994025952000001,792
101349,166419,237261,-0.3529413335,-9.8763752815,1.7276179172000001,793
101599,166439,237290,-0.3684946804,-9.7770731436,1.7898313048,794
101755,166433,237253,-0.5694917788,-9.7878408453,1.7670994901,795
101985,166464,237281,-0.5647061336,-9.8428757651,1.8520446924,796
102159,166482,237312,-0.4989035121,-9.6765745944,1.9465611851,797
102375,166484,237327,-0.41754754369999997,-9.767501853199999,1.8472590472,798
102562,166522,237321,-0.3732803256,-9.7340023368,1.7551353771,799
102697,166512,237283,-0.5635097223,-9.8309116521,1.79461695,800
102425,166415,237236,-0.5216353268,-9.7064848769,1.7563317884,801
101770,166375,237232,-0.4881358104,-9.8967142736,1.8951154991999999,802
101220,166363,237226,-0.2739781877,-9.6825566509,1.9322042495,803
101008,166324,237159,-0.4414757697,-9.6155576181,1.8329021116,804
101003,166356,237198,-0.48933222169999996,-9.700502820399999,1.7994025952000001,805
101113,166371,237171,-0.4606183505,-9.7340023368,1.8329021116,806
101313,166386,237201,-0.36370903520000003,-9.6586284249,1.8221344098999999,807
101519,166411,237200,-0.5491527867,-9.8057870148,1.7563317884,808
101589,166410,237184,-0.5359922624,-9.6957171752,1.8795621523000001,809
101592,166411,237192,-0.3744767369,-9.6526463684,1.8568303376,810
101731,166410,237171,-0.5168496816,-9.6538427797,1.8376877568,811
101839,166438,237196,-0.5539384319,-9.8141618939,1.79461695,812
101976,166434,237188,-0.4366901245,-9.7902336679,1.8089738856,813
102129,166417,237167,-0.41156548719999997,-9.786644434,1.8472590472,814
102265,166481,237164,-0.4402793584,-9.7734839097,1.7659030788,815
102421,166455,237194,-0.38763726119999997,-9.6634140701,1.8759729184,816
102658,166496,237189,-0.3302095188,-9.7375915707,1.7276179172000001,817
102767,166482,237249,-0.30747770409999997,-9.7064848769,1.8843477975,818
102958,166511,237239,-0.33499516399999996,-9.741180804599999,1.8460626359,819
103126,166529,237256,-0.5551348432,-9.738787982,1.890329854,820
103189,166506,237229,-0.38763726119999997,-9.7351987481,1.8987047331,821
102827,166431,237165,-0.3984049629,-9.6813602396,1.9046867896,822
102223,166378,237191,-0.34456645439999994,-9.7160561673,1.8939190879,823
101803,166347,237112,-0.4199403663,-9.757930562799999,1.8053846516999998,824
101669,166393,237121,-0.3744767369,-9.799804958300001,1.7850456596,825
101701,166386,237115,-0.34097722049999996,-9.7064848769,1.9417755399,826
101842,166398,237162,-0.4366901245,-9.7818587888,1.7670994901,827
102041,166450,237168,-0.36370903520000003,-9.7052884656,1.8520446924,828
102144,166438,237135,-0.2596212521,-9.5772724565,1.8759729184,829
102178,166424,237128,-0.4271188341,-9.762716208,2.0183458631,830
102253,166418,237145,-0.4019941968,-9.700502820399999,1.9764714676,831
102353,166427,237188,-0.4534398827,-9.6059863277,1.8795621523000001,832
102468,166456,237147,-0.4019941968,-9.8249295956,1.9190437251999999,833
102567,166452,237129,-0.48933222169999996,-9.7878408453,1.8711872732,834
102694,166510,237142,-0.5730810127,-9.6442714893,1.9369898947,835
102850,166487,237165,-0.38763726119999997,-9.687342296099999,1.8939190879,836
103031,166523,237159,-0.3026920589,-9.5916293921,1.8843477975,837
103194,166506,237172,-0.5252245607,-9.7292166916,1.9513468303000001,838
103343,166517,237216,-0.1782652837,-9.667003304,1.8329021116,839
103440,166572,237253,-0.4402793584,-9.7974121357,1.8568303376,840
103556,166538,237190,-0.502492746,-9.754341328899999,1.7994025952000001,841
103167,166467,237153,-0.4701896409,-9.8297152408,1.8089738856,842
102520,166431,237135,-0.4510470601,-9.8153583052,1.8999011444,843
102037,166365,237096,-0.4354937132,-9.8249295956,1.7910277161,844
101811,166379,237072,-0.39361931769999997,-9.6107719729,1.9034903783000001,845
101811,166423,237160,-0.4594219392,-9.786644434,1.8089738856,846
101905,166415,237059,-0.34576286570000003,-9.8093762487,1.8556339263000001,847
102096,166467,237092,-0.39960137419999997,-9.7483592724,1.9992032822999999,848
102194,166463,237089,-0.5012963347,-9.8285188295,1.8233308212,849
102268,166446,237135,-0.5180460929,-9.7962157244,1.770688724,850
102326,166512,237144,-0.3122633493,-9.8093762487,1.7575281996999998,851
102391,166490,237096,-0.49292145559999995,-9.8620183459,1.8759729184,852
102494,166496,237153,-0.41276189849999995,-9.7914300792,1.8412769907000002,853
102625,166488,237177,-0.454636294,-9.7495556837,1.8891334427000002,854
102749,166525,237152,-0.430708068,-9.8189475391,1.770688724,855
102913,166511,237175,-0.3218346397,-9.6729853605,1.8556339263000001,856
103079,166527,237167,-0.5072783912000001,-9.757930562799999,1.7192430381,857
103157,166582,237188,-0.4450650036,-9.738787982,1.7958133612999998,858
103357,166590,237178,-0.6065805291,-9.6777710057,1.8699908619,859
103552,166631,237145,-0.42233318890000004,-9.5724868113,1.8041882404,860
103689,166622,237215,-0.40319060809999996,-9.6394858441,1.8364913454999998,861
103439,166561,237188,-0.48933222169999996,-9.7292166916,1.8568303376,862
102765,166471,237151,-0.6113661743,-9.8763752815,1.818545176,863
102000,166440,237075,-0.4462614149,-9.839286531199999,1.8652052167000002,864
101556,166406,237062,-0.6245266986,-9.6969135865,1.79461695,865
101426,166430,237051,-0.4211367776,-9.7244310464,1.866401628,866
101356,166422,237063,-0.5587240770999999,-9.7292166916,1.8759729184,867
101425,166412,237079,-0.5407779076,-9.700502820399999,1.8005990065,868
101594,166434,237066,-0.3792623821,-10.106086251099999,1.8005990065,869
101680,166482,237085,-0.5443671415,-9.7375915707,1.8041882404,870
101702,166475,237081,-0.4642075844,-9.7292166916,1.8329021116,871
101738,166432,237051,-0.4881358104,-9.7770731436,1.7754743692000001,872
101812,166490,237057,-0.4594219392,-9.7292166916,1.7898313048,873
101902,166487,237059,-0.41276189849999995,-9.6825566509,1.8089738856,874
101994,166497,237070,-0.39720855159999996,-9.7962157244,1.8699908619,875
102087,166506,237110,-0.4594219392,-9.7064848769,1.7659030788,876
102269,166538,237078,-0.49651068949999994,-9.7483592724,1.8281164664,877
102439,166564,237094,-0.6017948839,-9.738787982,1.8137595308,878
102584,166560,237125,-0.47856452,-9.7112705221,1.8089738856,879
102735,166589,237129,-0.6305087550999999,-9.7722874984,1.8807585636,880
102904,166580,237122,-0.4354937132,-9.6717889492,1.8508482811000002,881
102917,166572,237117,-0.34576286570000003,-9.7052884656,1.866401628,882
102424,166524,237065,-0.5168496816,-9.7818587888,1.7371892076000002,883
101629,166440,237013,-0.3840480273,-9.8955178623,1.8855442087999998,884
101041,166382,236967,-0.5120640364,-9.8057870148,1.7575281996999998,885
100788,166395,236976,-0.41276189849999995,-9.7639126193,1.8987047331,886
100773,166399,237025,-0.48335016519999996,-9.6526463684,1.8089738856,887
100821,166422,237008,-0.5922235935,-9.9529456047,1.8137595308,888
101004,166451,236989,-0.47377887479999997,-9.8751788702,1.746760498,889
101132,166432,237061,-0.4689932296,-9.7962157244,1.746760498,890
101200,166458,237015,-0.48335016519999996,-9.8488578216,1.8652052167000002,891
101295,166419,237043,-0.466600407,-9.7710910871,1.8041882404,892
101295,166451,237013,-0.6161518195,-9.714859756,1.9046867896,893
101438,166456,237014,-0.4211367776,-9.811769071299999,1.9082760235,894
101594,166424,237003,-0.5168496816,-9.8153583052,1.8281164664,895
101728,166478,237002,-0.46540399569999996,-9.8333044747,1.8233308212,896
101892,166493,237054,-0.44985064880000003,-9.5294160045,1.8472590472,897
102035,166525,237091,-0.4366901245,-9.7974121357,1.9513468303000001,898
102220,166549,237058,-0.40319060809999996,-9.8093762487,1.8568303376,899
102424,166557,237082,-0.5108676251000001,-9.607182739,1.8281164664,900
102578,166590,237091,-0.59820565,-9.8333044747,1.9561324755,901
102771,166609,237062,-0.41276189849999995,-9.6634140701,1.8699908619,902
102765,166577,237069,-0.5072783912000001,-9.7663054419,1.770688724,903
102234,166478,237072,-0.6448656907,-9.6705925379,1.818545176,904
101447,166407,237008,-0.49770710079999997,-9.69093153,1.8329021116,905
101087,166403,236918,-0.49770710079999997,-9.744770038499999,1.8077774743,906
100944,166439,237000,-0.4594219392,-9.6526463684,1.8329021116,907
100963,166428,237040,-0.40677984199999995,-9.7962157244,1.8939190879,908
101130,166450,237026,-0.5036891573,-9.678967417,1.8987047331,909
101295,166463,236964,-0.49770710079999997,-9.8428757651,1.8137595308,910
101366,166503,237003,-0.3122633493,-9.700502820399999,1.6606188843999998,911
101523,166476,237003,-0.5120640364,-9.6921279413,1.9226329591,912
101634,166482,237022,-0.5180460929,-9.7052884656,1.8855442087999998,913
101677,166496,237003,-0.47856452,-9.7292166916,1.8556339263000001,914
101734,166504,237016,-0.5347958510999999,-9.762716208,1.8233308212,915
101939,166504,237059,-0.41754754369999997,-9.6526463684,1.842473402,916
102143,166502,237080,-0.4414757697,-9.6969135865,1.8568303376,917
102272,166525,237060,-0.4414757697,-9.629914553699999,1.8807585636,918
102429,166558,237066,-0.5599204884,-9.8285188295,1.7527425545,919
102597,166556,237053,-0.38763726119999997,-9.8297152408,1.866401628,920
102741,166599,237038,-0.48335016519999996,-9.767501853199999,1.9082760235,921
102967,166603,237070,-0.39720855159999996,-9.8428757651,1.7802600144,922
103177,166655,237127,-0.3792623821,-9.6251289085,1.8508482811000002,923
103183,166598,237120,-0.4271188341,-9.8153583052,1.842473402,924
102767,166538,237056,-0.41156548719999997,-9.6382894328,1.8089738856,925
102090,166467,237028,-0.3649054465,-9.7483592724,1.8891334427000002,926
101676,166448,236993,-0.6783652070999999,-9.6502535458,1.7611174336,927
101481,166432,236958,-0.5204389155,-9.7016992317,1.7240286833,928
101489,166451,236978,-0.3852444386,-9.6729853605,1.8568303376,929
101591,166474,237016,-0.41156548719999997,-9.5784688678,1.79461695,930
101799,166536,236966,-0.502492746,-9.6646104814,1.7898313048,931
101903,166519,237022,-0.5455635528,-9.7974121357,1.6139588437,932
102008,166477,236993,-0.47377887479999997,-9.5162554802,1.9130616687,933
102070,166507,237024,-0.6640082715,-9.8237331843,1.9046867896,934
102133,166514,237028,-0.5312066172,-9.8249295956,1.8711872732,935
102236,166515,237009,-0.5204389155,-9.7399843933,1.7994025952000001,936
102362,166544,237046,-0.5359922624,-9.6921279413,1.7898313048,937
102532,166541,237032,-0.5312066172,-9.7722874984,1.8221344098999999,938
102701,166594,237048,-0.5934200048,-9.8093762487,1.9704894111,939
102843,166594,237050,-0.3792623821,-9.786644434,1.8652052167000002,940
102977,166603,237070,-0.3840480273,-9.786644434,1.8053846516999998,941
103195,166615,237112,-0.3684946804,-9.667003304,1.9178473139,942
103342,166626,237086,-0.4007977855,-9.7722874984,1.8041882404,943
103457,166637,237066,-0.3649054465,-9.7830552001,1.818545176,944
103598,166598,237062,-0.49292145559999995,-9.6729853605,1.866401628,945
103250,166568,237004,-0.49770710079999997,-9.6526463684,1.7611174336,946
102638,166493,237020,-0.5395814963,-9.767501853199999,1.818545176,947
102149,166460,236990,-0.2739781877,-9.834500886,1.7754743692000001,948
101883,166464,236925,-0.49292145559999995,-9.7244310464,1.8137595308,949
101820,166492,236931,-0.3361915753,-9.687342296099999,1.818545176,950
101911,166482,236961,-0.47976093129999997,-9.7292166916,1.890329854,951
101965,166465,236971,-0.5359922624,-9.8715896363,1.866401628,952
102122,166480,236996,-0.4247260115,-9.786644434,1.6235301341000001,953
102201,166477,236969,-0.5407779076,-9.8153583052,1.8281164664,954
102210,166465,236973,-0.2835494781,-9.738787982,1.818545176,955
102279,166523,236938,-0.311066938,-9.9385886691,1.8233308212,956
102323,166494,236999,-0.4486542375,-9.6598248362,1.9322042495,957
102409,166493,236954,-0.34097722049999996,-9.7591269741,1.8711872732,958
102547,166501,236972,-0.3026920589,-9.8237331843,1.9094724347999998,959
102627,166508,236939,-0.4271188341,-9.7722874984,1.8376877568,960
102771,166520,236981,-0.3266202849,-9.6538427797,1.7994025952000001,961
102862,166572,236975,-0.3302095188,-9.7052884656,1.7862420709,962
103018,166561,237000,-0.586241537,-9.8333044747,1.9178473139,963
103165,166550,236971,-0.3493520996,-9.8141618939,1.8281164664,964
103309,166582,236958,-0.34456645439999994,-9.6586284249,1.8843477975,965
103345,166530,237025,-0.49292145559999995,-9.6107719729,1.8771693297,966
102999,166497,236959,-0.3684946804,-9.6861458848,1.8568303376,967
102427,166444,236903,-0.33738798659999997,-9.6969135865,1.8089738856,968
101969,166418,236855,-0.3744767369,-9.5784688678,1.9286150156,969
101796,166406,236854,-0.42592242280000003,-9.732805925500001,1.8568303376,970
101789,166433,236849,-0.32542387359999997,-9.6155576181,1.8855442087999998,971
101873,166446,236858,-0.38763726119999997,-9.7962157244,1.9274186043000001,972
101975,166464,236854,-0.44985064880000003,-9.667003304,1.9046867896,973
102103,166450,236910,-0.47377887479999997,-9.6957171752,1.8520446924,974
102167,166468,236898,-0.4019941968,-9.7435736272,1.8089738856,975
102227,166449,236849,-0.502492746,-9.844072176400001,1.962114532,976
102217,166471,236857,-0.4689932296,-9.7375915707,1.8472590472,977
102275,166468,236879,-0.35892339,-9.8488578216,1.9094724347999998,978
102391,166460,236848,-0.4450650036,-9.7722874984,1.8604195715,979
102508,166508,236895,-0.538385085,-9.767501853199999,1.91425808,980
102624,166537,236917,-0.33499516399999996,-9.757930562799999,1.8807585636,981
102788,166552,236920,-0.2967100024,-9.7052884656,1.8616159827999998,982
102867,166554,236940,-0.43788653580000003,-9.786644434,1.9334006607999998,983
103024,166567,236883,-0.3888336725,-9.8428757651,1.9334006607999998,984
103166,166582,236973,-0.5156532703,-9.6729853605,1.890329854,985
103222,166578,236949,-0.2452643165,-9.7770731436,1.8568303376,986
102907,166469,236926,-0.59820565,-9.6921279413,2.0279171535,987
102242,166445,236849,-0.4821537539,-9.8153583052,1.9226329591,988
101671,166413,236851,-0.5156532703,-9.7962157244,1.7001004573,989
101390,166383,236812,-0.34576286570000003,-9.7016992317,1.8711872732,990
101311,166398,236828,-0.4354937132,-9.81057266,1.8759729184,991
101358,166427,236841,-0.5635097223,-9.738787982,1.8460626359,992
101502,166441,236857,-0.5455635528,-9.6681997153,1.8855442087999998,993
101600,166463,236852,-0.4402793584,-9.6921279413,1.7324035624,994
101593,166430,236814,-0.5060819799,-9.7818587888,1.9752750562999999,995
101736,166454,236890,-0.5455635528,-9.8057870148,1.8233308212,996
101750,166450,236845,-0.5491527867,-9.8069834261,1.866401628,997
101828,166486,236896,-0.5443671415,-9.7531449176,1.7563317884,998
101942,166477,236893,-0.41156548719999997,-9.7016992317,1.842473402,999
102087,166497,236915,-0.5072783912000001,-9.8057870148,1.8711872732,1000
102231,166515,236916,-0.4689932296,-9.754341328899999,1.8029918290999998,1001
102371,166534,236925,-0.3840480273,-9.744770038499999,1.9274186043000001,1002
102524,166549,236895,-0.4689932296,-9.6490571345,1.8556339263000001,1003
102688,166591,236982,-0.48335016519999996,-9.7340023368,1.8329021116,1004
102859,166571,236940,-0.5120640364,-9.762716208,1.7515461432000001,1005
102999,166607,237005,-0.5120640364,-9.714859756,1.9034903783000001,1006
102811,166553,236917,-0.5443671415,-9.7950193131,1.8472590472,1007
102104,166477,236884,-0.5216353268,-9.839286531199999,1.8568303376,1008
101291,166385,236846,-0.47856452,-9.8285188295,1.9046867896,1009
100808,166369,236879,-0.5108676251000001,-9.7435736272,1.7850456596,1010
100532,166350,236841,-0.49292145559999995,-9.7052884656,1.842473402,1011
100568,166350,236851,-0.502492746,-9.6765745944,1.8233308212,1012
100648,166409,236875,-0.4019941968,-9.7340023368,1.8376877568,1013
100809,166395,236843,-0.4510470601,-9.8835537493,1.8556339263000001,1014
100911,166403,236857,-0.39720855159999996,-9.853643466800001,1.8137595308,1015
100949,166412,236884,-0.5120640364,-9.8249295956,1.8568303376,1016
100988,166410,236866,-0.370887503,-9.7962157244,1.8520446924,1017
101065,166432,236907,-0.41156548719999997,-9.8189475391,1.8759729184,1018
101141,166434,236900,-0.38763726119999997,-9.8811609267,1.8604195715,1019
101265,166481,236927,-0.5587240770999999,-9.738787982,1.8699908619,1020
101412,166452,236923,-0.3984049629,-9.8057870148,1.7180466268,1021
101470,166482,236893,-0.5455635528,-9.4265246327,1.7419748528,1022
101723,166469,236937,-0.502492746,-9.7591269741,1.9046867896,1023
101892,166505,236981,-0.5120640364,-9.6813602396,1.8699908619,1024
102038,166528,236975,-0.3505485109,-9.5820581017,1.890329854,1025
102126,166537,236998,-0.4019941968,-9.799804958300001,1.7766707805,1026
102294,166542,236962,-0.47377887479999997,-9.700502820399999,1.8616159827999998,1027
101957,166469,236968,-0.5120640364,-9.7244310464,1.8759729184,1028
101116,166385,236908,-0.4821537539,-9.754341328899999,1.8652052167000002,1029
100424,166360,236890,-0.42592242280000003,-9.6119683842,1.842473402,1030
100114,166325,236824,-0.3218346397,-9.6777710057,1.9178473139,1031
100024,166348,236803,-0.5359922624,-9.8285188295,1.7611174336,1032
100117,166309,236835,-0.5922235935,-9.6442714893,1.8137595308,1033
100245,166350,236881,-0.5778666579,-9.7639126193,1.9130616687,1034
100448,166366,236893,-0.39361931769999997,-9.8249295956,1.7850456596,1035
100537,166357,236873,-0.42592242280000003,-9.7962157244,1.8233308212,1036
100614,166386,236890,-0.3984049629,-9.799804958300001,1.8101702968999998,1037
100694,166372,236910,-0.4366901245,-9.6538427797,1.7659030788,1038
100815,166407,236864,-0.4366901245,-9.757930562799999,1.866401628,1039
100918,166417,236937,-0.5778666579,-9.9481599595,1.8891334427000002,1040
101092,166446,236902,-0.4450650036,-9.6825566509,1.890329854,1041
101242,166423,236982,-0.4211367776,-9.643075077999999,1.8711872732,1042
101435,166450,236992,-0.4881358104,-9.7435736272,1.7898313048,1043
101608,166470,236978,-0.5682953675,-9.7914300792,1.9561324755,1044
101823,166486,237010,-0.44985064880000003,-9.643075077999999,1.79461695,1045
101973,166509,236984,-0.5120640364,-9.6538427797,1.8089738856,1046
102163,166516,237027,-0.5359922624,-9.5688975774,1.8077774743,1047
102261,166511,237028,-0.39720855159999996,-9.8727860476,1.842473402,1048
101888,166460,236963,-0.5012963347,-9.9385886691,1.7994025952000001,1049
101144,166342,236901,-0.5120640364,-9.7016992317,1.9034903783000001,1050
100594,166303,236885,-0.4689932296,-9.6777710057,1.8041882404,1051
100358,166335,236842,-0.47976093129999997,-9.5820581017,1.866401628,1052
100315,166344,236884,-0.5682953675,-9.7639126193,1.8472590472,1053
100520,166353,236873,-0.4450650036,-9.5820581017,1.9848463467,1054
100653,166378,236913,-0.6460621019999999,-9.7531449176,1.7802600144,1055
100788,166391,236929,-0.4689932296,-9.634700198900001,1.8520446924,1056
100982,166413,236897,-0.4163511324,-9.7495556837,1.8281164664,1057
101075,166351,236934,-0.49172504429999997,-9.7962157244,1.91425808,1058
101135,166385,236937,-0.40319060809999996,-9.8620183459,1.8616159827999998,1059
101238,166413,236985,-0.41276189849999995,-9.7340023368,1.7850456596,1060
101409,166407,236960,-0.5706881900999999,-9.6634140701,1.79461695,1061
101541,166438,236925,-0.5922235935,-9.8201439504,1.8233308212,1062
101706,166486,236976,-0.42233318890000004,-9.7962157244,1.8843477975,1063
101791,166490,236942,-0.48335016519999996,-9.7818587888,1.7659030788,1064
102061,166469,236998,-0.526420972,-9.6478607232,1.842473402,1065
102270,166487,237028,-0.5312066172,-9.754341328899999,1.8652052167000002,1066
102419,166508,237020,-0.5503491979999999,-9.6634140701,1.8376877568,1067
102602,166539,237032,-0.4725824635,-9.7292166916,1.7898313048,1068
102541,166558,237014,-0.5503491979999999,-9.633503787599999,1.9513468303000001,1069
102194,166474,236976,-0.49770710079999997,-9.8057870148,1.8317057003,1070
101476,166381,236964,-0.47856452,-9.7734839097,1.9369898947,1071
100975,166402,236916,-0.4402793584,-9.7160561673,1.7383856189,1072
100778,166346,236872,-0.5682953675,-9.667003304,1.8568303376,1073
100816,166397,236908,-0.49770710079999997,-9.700502820399999,1.79461695,1074
100922,166386,236876,-0.39720855159999996,-9.8321080634,1.8221344098999999,1075
101124,166367,236940,-0.5120640364,-9.8488578216,1.7419748528,1076
101233,166393,236965,-0.4845465765,-9.8811609267,1.7742779578999999,1077
101357,166399,236922,-0.5694917788,-9.8297152408,1.7563317884,1078
101399,166419,236915,-0.5312066172,-9.6813602396,1.8652052167000002,1079
101496,166409,236956,-0.5371886737,-9.6681997153,1.8376877568,1080
101631,166417,236959,-0.3505485109,-9.7016992317,1.9369898947,1081
101731,166448,237018,-0.38763726119999997,-9.7926264905,1.8173487647,1082
101840,166441,236971,-0.35413774480000004,-9.8010013696,1.8412769907000002,1083
102087,166486,236981,-0.4163511324,-9.738787982,1.9369898947,1084
102216,166481,236977,-0.4271188341,-9.7962157244,1.8616159827999998,1085
102361,166493,236995,-0.454636294,-9.9146604431,1.866401628,1086
102534,166496,237008,-0.5790630692000001,-9.7292166916,1.8329021116,1087
102703,166519,237014,-0.6628118601999999,-9.786644434,1.7994025952000001,1088
102886,166551,237004,-0.4725824635,-9.7962157244,1.7754743692000001,1089
102919,166495,237038,-0.48335016519999996,-9.911071209200001,1.8616159827999998,1090
102553,166434,237010,-0.47377887479999997,-9.6921279413,1.7670994901,1091
101803,166375,236893,-0.370887503,-9.8811609267,1.8472590472,1092
101220,166349,236872,-0.48335016519999996,-9.5976114486,1.9226329591,1093
100947,166325,236861,-0.430708068,-9.7914300792,1.8364913454999998,1094
100822,166333,236861,-0.49651068949999994,-9.738787982,1.8221344098999999,1095
101020,166351,236854,-0.5228317381,-9.7914300792,1.7862420709,1096
101151,166326,236845,-0.4725824635,-9.744770038499999,1.9082760235,1097
101265,166331,236885,-0.49770710079999997,-9.7914300792,1.8269200550999998,1098
101317,166355,236900,-0.34097722049999996,-9.6777710057,1.8520446924,1099
101354,166355,236854,-0.4271188341,-9.69093153,1.8723836845000001,1100
101435,166337,236866,-0.5407779076,-9.6478607232,1.8089738856,1101
101426,166358,236919,-0.48335016519999996,-9.839286531199999,1.7994025952000001,1102
101558,166387,236854,-0.36969109170000003,-9.7244310464,1.890329854,1103
101677,166369,236878,-0.35413774480000004,-9.8763752815,1.9369898947,1104
101796,166366,236901,-0.4354937132,-9.762716208,1.8376877568,1105
101993,166410,236892,-0.5120640364,-9.8333044747,1.8891334427000002,1106
102081,166418,236952,-0.36969109170000003,-9.7292166916,1.9704894111,1107
102229,166472,236910,-0.41156548719999997,-9.667003304,1.9094724347999998,1108
102421,166433,236932,-0.36370903520000003,-9.7483592724,1.8616159827999998,1109
102497,166425,236912,-0.2703889538,-9.6634140701,1.9561324755,1110
102337,166378,236931,-0.23688943739999999,-9.7818587888,1.8855442087999998,1111
101720,166299,236836,-0.41515472109999996,-9.7340023368,1.8281164664,1112
101063,166241,236805,-0.47377887479999997,-9.6586284249,1.9848463467,1113
100605,166261,236822,-0.3122633493,-9.6442714893,1.9429719511999999,1114
100647,166257,236784,-0.502492746,-9.643075077999999,1.8472590472,1115
100788,166290,236780,-0.263210486,-9.7196454012,1.9836499354,1116
100901,166265,236789,-0.4390829471,-9.535398061,1.8472590472,1117
101039,166297,236843,-0.35413774480000004,-9.7340023368,1.9573288867999998,1118
101098,166281,236848,-0.2775674216,-9.7244310464,1.9752750562999999,1119
101112,166329,236840,-0.3649054465,-9.5916293921,1.8855442087999998,1120
101137,166344,236805,-0.4534398827,-9.6251289085,1.8951154991999999,1121
101182,166307,236869,-0.3780659708,-9.7722874984,1.8568303376,1122
101300,166329,236856,-0.5168496816,-9.8285188295,1.9190437251999999,1123
101421,166295,236828,-0.3218346397,-9.7974121357,1.8329021116,1124
101510,166309,236873,-0.36969109170000003,-9.700502820399999,1.866401628,1125
101614,166368,236877,-0.3266202849,-9.7351987481,1.9334006607999998,1126
101838,166411,236923,-0.430708068,-9.762716208,1.8520446924,1127
101933,166392,236929,-0.4989035121,-9.762716208,1.8855442087999998,1128
102091,166407,236939,-0.5192425042,-9.7351987481,1.8604195715,1129
102147,166420,236895,-0.3840480273,-9.6574320136,1.8855442087999998,1130
101762,166319,236881,-0.5491527867,-9.834500886,1.8329021116,1131
100901,166238,236808,-0.5694917788,-9.6681997153,1.8125631194999998,1132
100298,166229,236827,-0.5252245607,-9.8632147572,1.8616159827999998,1133
100032,166207,236796,-0.34097722049999996,-9.6502535458,1.8472590472,1134
100000,166187,236798,-0.47377887479999997,-9.8285188295,1.79461695,1135
100073,166247,236811,-0.6400800455,-9.7160561673,1.91425808,1136
100251,166305,236832,-0.5694917788,-9.9338030239,2.0410776778,1137
100365,166245,236853,-0.3792623821,-9.786644434,1.8281164664,1138
100471,166271,236832,-0.382851616,-9.7531449176,1.7910277161,1139
100492,166244,236853,-0.502492746,-9.5688975774,1.8795621523000001,1140
100560,166274,236845,-0.502492746,-9.7950193131,2.0135602179,1141
100655,166291,236900,-0.44985064880000003,-9.7639126193,1.8137595308,1142
100772,166323,236868,-0.2931207685,-9.762716208,1.8699908619,1143
100930,166336,236892,-0.4450650036,-9.909874797899999,1.7802600144,1144
101085,166348,236888,-0.5395814963,-9.799804958300001,1.842473402,1145
101238,166361,236939,-0.5491527867,-9.7818587888,1.8233308212,1146
101400,166365,236902,-0.4211367776,-9.6777710057,1.8221344098999999,1147
101568,166377,237024,-0.4606183505,-9.6287181424,1.9286150156,1148
101738,166393,236925,-0.346959277,-9.6765745944,1.7850456596,1149
101823,166421,236966,-0.5204389155,-9.8237331843,1.8699908619,1150
101289,166292,236911,-0.5443671415,-9.7483592724,1.8951154991999999,1151
100346,166238,236810,-0.42233318890000004,-9.7722874984,1.770688724,1152
99679,166205,236810,-0.4211367776,-9.9720881855,1.7611174336,1153
99347,166168,236808,-0.4079762533,-9.8859465719,1.8711872732,1154
99246,166140,236794,-0.36969109170000003,-9.7962157244,1.79461695,1155
99326,166167,236858,-0.5120640364,-9.762716208,1.7814564256999998,1156
99385,166206,236864,-0.5778666579,-9.7818587888,1.9226329591,1157
99636,166215,236860,-0.39720855159999996,-9.9756774194,1.7623138449,1158
99740,166220,236879,-0.5060819799,-9.6921279413,1.8041882404,1159
99764,166217,236846,-0.4881358104,-9.714859756,1.9190437251999999,1160
99824,166211,236860,-0.6305087550999999,-9.7292166916,1.8999011444,1161
99969,166238,236887,-0.3792623821,-9.8201439504,1.7886348934999998,1162
100071,166266,236872,-0.3840480273,-9.799804958300001,1.7910277161,1163
100235,166262,236871,-0.526420972,-9.8476614103,1.8329021116,1164
100390,166270,236946,-0.33140593009999997,-9.7806623775,1.8089738856,1165
100586,166283,236935,-0.526420972,-9.7304131029,1.8939190879,1166
100722,166301,236958,-0.49770710079999997,-9.7722874984,1.8041882404,1167
100902,166339,236975,-0.6113661743,-9.5964150373,1.8604195715,1168
101110,166356,236938,-0.3840480273,-9.6765745944,1.7563317884,1169
101225,166343,236973,-0.47856452,-9.7531449176,1.8556339263000001,1170
100853,166312,236913,-0.2883351233,-9.8057870148,1.8939190879,1171
99869,166190,236858,-0.6352944003,-9.6969135865,1.8508482811000002,1172
99191,166127,236832,-0.4450650036,-9.8021977809,1.9609181207,1173
98838,166119,236842,-0.32303105099999996,-9.8404829425,1.746760498,1174
98764,166130,236802,-0.43190447930000003,-9.6023970938,1.7001004573,1175
98840,166133,236827,-0.47856452,-9.7914300792,1.8759729184,1176
99058,166175,236843,-0.34576286570000003,-9.6394858441,1.8616159827999998,1177
99251,166166,236849,-0.4689932296,-9.9158568544,1.7850456596,1178
99377,166166,236848,-0.4749752861,-9.6813602396,1.8388841681,1179
99448,166177,236884,-0.574277424,-9.8057870148,1.9561324755,1180
99512,166192,236932,-0.4821537539,-9.7483592724,1.9178473139,1181
99645,166212,236911,-0.38763726119999997,-9.7950193131,1.9034903783000001,1182
99787,166233,236923,-0.4402793584,-9.562915520899999,1.9178473139,1183
99867,166232,236940,-0.454636294,-9.7495556837,1.8137595308,1184
100147,166259,236980,-0.41156548719999997,-9.6490571345,1.8041882404,1185
100369,166295,236950,-0.49651068949999994,-9.7016992317,1.8556339263000001,1186
100561,166334,236924,-0.46540399569999996,-9.69093153,1.8376877568,1187
100736,166316,236962,-0.4462614149,-9.8285188295,1.842473402,1188
100951,166362,236973,-0.5778666579,-9.852447055499999,1.8472590472,1189
101114,166351,237010,-0.49770710079999997,-9.700502820399999,1.9369898947,1190
101034,166351,236979,-0.5886343596,-9.6681997153,1.9130616687,1191
100379,166232,236901,-0.454636294,-9.762716208,1.8747765071,1192
99473,166171,236867,-0.6125625856,-9.8380901199,1.9657037659,1193
99036,166106,236869,-0.5072783912000001,-9.7340023368,1.9274186043000001,1194
98957,166164,236823,-0.4462614149,-9.6777710057,1.79461695,1195
99047,166149,236884,-0.47377887479999997,-9.857232700700001,1.8987047331,1196
99169,166204,236947,-0.4749752861,-9.6239324972,1.8568303376,1197
99481,166195,236927,-0.5886343596,-9.9050891527,1.7563317884,1198
99625,166249,236909,-0.41156548719999997,-9.629914553699999,1.8472590472,1199
99712,166234,236932,-0.47976093129999997,-9.8727860476,1.8759729184,1200
99830,166230,236913,-0.4845465765,-9.5808616904,1.8807585636,1201
99930,166228,236934,-0.4630111731,-9.8045906035,1.8795621523000001,1202
100071,166273,236997,-0.33140593009999997,-9.757930562799999,1.9082760235,1203
100283,166293,236992,-0.49770710079999997,-9.6155576181,1.7910277161,1204
100434,166274,236969,-0.4558327053,-9.853643466800001,1.7563317884,1205
100623,166307,236986,-0.4510470601,-9.6777710057,1.8137595308,1206
100807,166342,237015,-0.5790630692000001,-9.786644434,1.8460626359,1207
101038,166353,237012,-0.5455635528,-9.8476614103,1.8089738856,1208
101231,166387,237038,-0.2979064137,-9.7435736272,1.8568303376,1209
101424,166408,237054,-0.34097722049999996,-9.738787982,1.890329854,1210
101540,166388,237044,-0.39720855159999996,-9.81057266,1.8939190879,1211
101222,166347,237016,-0.4845465765,-9.762716208,1.7850456596,1212
100436,166263,236922,-0.3888336725,-9.8811609267,1.9178473139,1213
99793,166206,236942,-0.5216353268,-9.7495556837,1.7910277161,1214
99545,166216,236931,-0.4642075844,-9.937392257800001,1.9800607015,1215
99550,166222,236894,-0.5694917788,-9.8237331843,1.8412769907000002,1216
99692,166236,236919,-0.32303105099999996,-9.6251289085,1.8999011444,1217
99915,166243,236951,-0.5036891573,-9.6813602396,1.9549360641999998,1218
100131,166285,236968,-0.4019941968,-9.8763752815,1.7802600144,1219
100249,166274,236954,-0.4606183505,-9.7244310464,1.8233308212,1220
100364,166275,236930,-0.4689932296,-9.7483592724,1.818545176,1221
100426,166282,236942,-0.5036891573,-9.7351987481,1.8460626359,1222
100569,166333,236991,-0.41754754369999997,-9.7962157244,1.7563317884,1223
100720,166356,236977,-0.3122633493,-9.6813602396,1.8520446924,1224
100891,166342,236985,-0.5539384319,-9.5688975774,1.8376877568,1225
101092,166351,237033,-0.5539384319,-9.7722874984,1.7659030788,1226
101279,166368,237031,-0.39361931769999997,-9.6490571345,1.9226329591,1227
101463,166384,236990,-0.4079762533,-9.8153583052,1.7515461432000001,1228
101720,166422,237013,-0.4558327053,-9.744770038499999,1.9046867896,1229
101768,166408,237071,-0.4211367776,-9.8285188295,1.7659030788,1230
102100,166435,237043,-0.4402793584,-9.6012006825,1.8568303376,1231
102015,166385,237022,-0.5120640364,-9.8141618939,1.8089738856,1232
101445,166301,236981,-0.47856452,-9.687342296099999,1.722832272,1233
100722,166285,236955,-0.430708068,-9.857232700700001,1.7324035624,1234
100348,166238,236917,-0.4558327053,-9.8249295956,1.8041882404,1235
100232,166223,236883,-0.5455635528,-9.7244310464,1.8041882404,1236
100259,166236,236892,-0.3792623821,-9.7340023368,1.8329021116,1237
100368,166277,236935,-0.4689932296,-9.6813602396,1.8951154991999999,1238
100659,166277,236914,-0.454636294,-9.9290173787,1.722832272,1239
100799,166288,236928,-0.4749752861,-9.8201439504,1.7659030788,1240
100880,166284,236967,-0.5359922624,-9.7196454012,1.8376877568,1241
100956,166279,236918,-0.41754754369999997,-9.69093153,1.8089738856,1242
101044,166329,236928,-0.5682953675,-9.786644434,1.8472590472,1243
101169,166317,236971,-0.5216353268,-9.7519485063,1.8137595308,1244
101334,166334,237021,-0.3684946804,-9.7016992317,1.8520446924,1245
101493,166327,236954,-0.2979064137,-9.7351987481,1.842473402,1246
101653,166353,237020,-0.2691925425,-9.7974121357,1.8101702968999998,1247
101808,166348,237023,-0.3924229064,-9.7375915707,1.8855442087999998,1248
101990,166409,236992,-0.3649054465,-9.6526463684,1.91425808,1249
102187,166398,237012,-0.4821537539,-9.8045906035,1.9561324755,1250
102343,166417,237000,-0.24047867129999997,-9.7722874984,1.7898313048,1251
102355,166410,236997,-0.2691925425,-9.7962157244,1.8891334427000002,1252
102010,166337,236943,-0.4271188341,-9.786644434,1.9130616687,1253
101326,166257,236925,-0.2847458894,-9.6777710057,1.8807585636,1254
100787,166228,236892,-0.47377887479999997,-9.6861458848,1.9704894111,1255
100701,166249,236907,-0.34097722049999996,-9.7483592724,1.8520446924,1256
100678,166233,236902,-0.34097722049999996,-9.7375915707,1.7994025952000001,1257
100932,166278,236931,-0.3158525832,-9.6681997153,1.9417755399,1258
101105,166292,236924,-0.2584248408,-9.6155576181,1.8855442087999998,1259
101237,166269,236914,-0.3924229064,-9.785448022699999,2.1272192914,1260
101356,166327,236882,-0.2739781877,-9.7818587888,1.7659030788,1261
101362,166303,236944,-0.4402793584,-9.7962157244,1.8472590472,1262
101330,166304,236946,-0.4163511324,-9.81057266,1.9322042495,1263
101525,166333,236900,-0.3792623821,-9.5401837062,1.9417755399,1264
101621,166351,236933,-0.44985064880000003,-9.7495556837,1.8329021116,1265
101749,166344,236948,-0.4642075844,-9.762716208,1.8472590472,1266
101890,166379,236969,-0.4390829471,-9.6059863277,1.890329854,1267
102031,166387,236956,-0.4402793584,-9.799804958300001,1.8807585636,1268
102216,166433,236969,-0.59820565,-9.700502820399999,1.8951154991999999,1269
102377,166438,237028,-0.42592242280000003,-9.9003035075,1.8388841681,1270
102512,166441,237020,-0.33738798659999997,-9.5342016497,1.8233308212,1271
102411,166387,236995,-0.35174492220000003,-9.6993064091,1.7527425545,1272
101760,166331,236933,-0.47377887479999997,-9.6825566509,1.9692929998,1273
101031,166215,236869,-0.4079762533,-9.6765745944,1.8855442087999998,1274
100584,166267,236852,-0.47856452,-9.8010013696,1.9274186043000001,1275
100433,166234,236862,-0.47377887479999997,-9.7244310464,1.8891334427000002,1276
100501,166274,236874,-0.48933222169999996,-9.786644434,1.9034903783000001,1277
100646,166305,236883,-0.4390829471,-9.821340361699999,1.9417755399,1278
100820,166320,236907,-0.5132604477,-9.7244310464,1.842473402,1279
100944,166307,236919,-0.4689932296,-9.687342296099999,1.8759729184,1280
100963,166318,236931,-0.42233318890000004,-9.6394858441,1.8556339263000001,1281
101019,166312,236910,-0.4642075844,-9.7399843933,1.8999011444,1282
101059,166324,236979,-0.5132604477,-9.7531449176,1.8436698133,1283
101207,166327,236956,-0.33140593009999997,-9.7591269741,1.7718851352999998,1284
101337,166378,236953,-0.5216353268,-9.839286531199999,1.8568303376,1285
101451,166384,236992,-0.41754754369999997,-9.7340023368,1.890329854,1286
101623,166385,236990,-0.5922235935,-9.834500886,1.8089738856,1287
101771,166412,237000,-0.40319060809999996,-9.7196454012,1.8652052167000002,1288
101942,166435,237002,-0.4558327053,-9.7770731436,1.9238293703999998,1289
102110,166452,237022,-0.5455635528,-9.5928258034,1.8340985228999998,1290
102256,166485,237003,-0.2967100024,-9.6586284249,1.8329021116,1291
102235,166440,237016,-0.5443671415,-9.8285188295,1.842473402,1292
101594,166386,236971,-0.5359922624,-9.7758767323,1.8939190879,1293
100663,166269,236950,-0.5312066172,-9.767501853199999,1.7766707805,1294
100025,166240,236858,-0.4450650036,-9.687342296099999,1.9669001771999999,1295
99798,166195,236858,-0.3649054465,-9.8297152408,1.8089738856,1296
99728,166238,236892,-0.6257231099,-9.7770731436,1.8520446924,1297
99825,166232,236886,-0.4103690759,-9.757930562799999,1.8987047331,1298
99971,166262,236911,-0.41156548719999997,-9.6681997153,1.842473402,1299
100046,166274,236894,-0.3278166962,-9.9003035075,1.8329021116,1300
100212,166275,236950,-0.5838487144,-9.8153583052,1.7802600144,1301
100273,166284,236946,-0.47856452,-9.8141618939,1.9417755399,1302
100321,166303,236929,-0.526420972,-9.6059863277,1.7814564256999998,1303
100428,166287,236913,-0.3266202849,-9.6825566509,1.8329021116,1304
100621,166304,236924,-0.49292145559999995,-9.8021977809,1.79461695,1305
100731,166325,236978,-0.5216353268,-9.7710910871,1.7335999736999999,1306
100926,166350,236929,-0.5012963347,-9.757930562799999,1.7419748528,1307
101080,166333,237002,-0.2596212521,-9.7292166916,1.7802600144,1308
101251,166390,237015,-0.4450650036,-9.667003304,1.9238293703999998,1309
101433,166412,237004,-0.47856452,-9.6813602396,1.7623138449,1310
101651,166411,237003,-0.4642075844,-9.6586284249,1.8472590472,1311
101748,166395,237040,-0.43429730190000004,-9.700502820399999,1.9190437251999999,1312
101554,166384,236973,-0.5503491979999999,-9.7016992317,1.7994025952000001,1313
100673,166295,236922,-0.5694917788,-9.757930562799999,1.818545176,1314
99902,166216,236894,-0.33260234139999995,-9.7722874984,1.890329854,1315
99521,166179,236860,-0.49770710079999997,-9.7435736272,1.8556339263000001,1316
99430,166188,236889,-0.5694917788,-9.786644434,1.890329854,1317
99475,166223,236875,-0.5084748025,-9.8153583052,1.7611174336,1318
99661,166237,236919,-0.5072783912000001,-9.7064848769,1.8699908619,1319
99836,166280,236915,-0.5036891573,-9.858429112,1.6797614652,1320
100009,166259,236956,-0.47976093129999997,-9.834500886,1.8568303376,1321
100089,166267,236940,-0.4271188341,-9.7340023368,1.7862420709,1322
100171,166289,236914,-0.5587240770999999,-9.667003304,1.9226329591,1323
100228,166284,236889,-0.4689932296,-9.7914300792,1.7335999736999999,1324
100459,166297,236953,-0.4881358104,-9.919446088299999,1.8173487647,1325
100617,166310,236956,-0.49172504429999997,-9.767501853199999,1.8233308212,1326
100784,166314,236946,-0.48335016519999996,-9.6251289085,1.7324035624,1327
100986,166357,236990,-0.4486542375,-9.6729853605,1.8376877568,1328
101165,166378,237046,-0.47377887479999997,-9.738787982,1.7850456596,1329
101308,166383,237006,-0.4642075844,-9.839286531199999,1.8795621523000001,1330
101522,166398,237047,-0.5587240770999999,-9.6777710057,1.8329021116,1331
101723,166423,237059,-0.5120640364,-9.714859756,1.8759729184,1332
101847,166437,237057,-0.41156548719999997,-9.7770731436,1.91425808,1333
101534,166344,237030,-0.4271188341,-9.6765745944,1.842473402,1334
100727,166268,236983,-0.4689932296,-9.6574320136,1.8987047331,1335
100006,166219,236900,-0.5551348432,-9.757930562799999,1.9704894111,1336
99716,166245,236912,-0.38763726119999997,-9.6825566509,1.770688724,1337
99681,166205,236904,-0.3780659708,-9.620343263299999,1.8376877568,1338
99785,166242,236950,-0.5599204884,-9.7818587888,1.8855442087999998,1339
99990,166289,236944,-0.6400800455,-9.7304131029,1.842473402,1340
100102,166272,236937,-0.46540399569999996,-9.9146604431,1.770688724,1341
100320,166279,236962,-0.3553341561,-9.754341328899999,1.8699908619,1342
100387,166333,236941,-0.42233318890000004,-9.7208418125,1.8376877568,1343
100493,166325,236952,-0.49651068949999994,-9.6681997153,2.0327027987,1344
100623,166330,237018,-0.5084748025,-9.8297152408,1.7850456596,1345
100642,166297,237001,-0.2596212521,-9.631110965,1.7754743692000001,1346
100901,166323,236999,-0.5120640364,-9.6634140701,1.7754743692000001,1347
101093,166347,236993,-0.5168496816,-9.8249295956,1.9082760235,1348
101252,166380,236997,-0.4677968183,-9.6681997153,1.8281164664,1349
101426,166408,237010,-0.40677984199999995,-9.8069834261,1.8999011444,1350
101597,166423,237000,-0.5060819799,-9.6861458848,1.8089738856,1351
101775,166438,237026,-0.47856452,-9.6490571345,1.7036896912000001,1352
101962,166463,236992,-0.42592242280000003,-9.7340023368,1.7862420709,1353
102104,166468,237034,-0.3744767369,-9.7830552001,1.7611174336,1354
101907,166386,237008,-0.3924229064,-9.7495556837,1.8137595308,1355
101193,166305,236959,-0.4677968183,-9.8045906035,1.8137595308,1356
100509,166248,236912,-0.4558327053,-9.6825566509,1.8951154991999999,1357
100152,166211,236919,-0.4749752861,-9.8727860476,1.8759729184,1358
100079,166227,236860,-0.5216353268,-9.738787982,1.8137595308,1359
100169,166244,236874,-0.3266202849,-9.7435736272,1.9034903783000001,1360
100301,166290,236891,-0.36011980130000004,-9.8153583052,1.8855442087999998,1361
100563,166281,236955,-0.5204389155,-9.7818587888,1.7515461432000001,1362
100646,166284,236924,-0.4510470601,-9.6251289085,1.7754743692000001,1363
100633,166274,236913,-0.4163511324,-9.6538427797,1.8807585636,1364
100767,166299,236912,-0.44386859230000003,-9.6813602396,1.8149559420999999,1365
100885,166301,236938,-0.36011980130000004,-9.853643466800001,1.9190437251999999,1366
100968,166318,236904,-0.2644068973,-9.7770731436,1.8759729184,1367
101078,166322,236933,-0.32542387359999997,-9.7064848769,1.8041882404,1368
101283,166336,236920,-0.33499516399999996,-9.6442714893,1.9082760235,1369
101445,166342,236953,-0.47856452,-9.6777710057,1.8951154991999999,1370
101602,166390,236959,-0.33499516399999996,-9.714859756,1.8807585636,1371
101776,166375,236978,-0.2309073809,-9.757930562799999,1.9286150156,1372
101953,166402,237012,-0.3361915753,-9.714859756,1.9238293703999998,1373
102144,166407,236994,-0.2703889538,-9.8153583052,1.9286150156,1374
102233,166407,237007,-0.3086741154,-9.633503787599999,1.9573288867999998,1375
101907,166334,236934,-0.2931207685,-9.6861458848,1.9046867896,1376
101185,166251,236905,-0.382851616,-9.7902336679,1.9190437251999999,1377
100611,166220,236854,-0.33140593009999997,-9.7914300792,1.8999011444,1378
100392,166214,236891,-0.4450650036,-9.757930562799999,1.9788642901999998,1379
100412,166239,236871,-0.382851616,-9.7304131029,1.8568303376,1380
100575,166264,236903,-0.36969109170000003,-9.6490571345,1.890329854,1381
100776,166261,236906,-0.3924229064,-9.8010013696,1.9130616687,1382
100927,166292,236896,-0.3361915753,-9.786644434,1.9226329591,1383
100972,166275,236927,-0.42592242280000003,-9.8333044747,1.9752750562999999,1384
100952,166281,236920,-0.5204389155,-9.6442714893,1.8759729184,1385
101108,166291,236884,-0.42233318890000004,-9.7531449176,1.8281164664,1386
101170,166320,236941,-0.4402793584,-9.687342296099999,1.8089738856,1387
101333,166326,236938,-0.4677968183,-9.738787982,1.9453647738,1388
101422,166327,236918,-0.47377887479999997,-9.7686982645,1.770688724,1389
101583,166344,236995,-0.3744767369,-9.8237331843,2.0003996936,1390
101737,166356,236985,-0.40677984199999995,-9.7435736272,1.8855442087999998,1391
101886,166379,236965,-0.44985064880000003,-9.8285188295,1.9609181207,1392
102034,166408,236963,-0.4079762533,-9.6825566509,1.866401628,1393
102218,166457,236988,-0.3780659708,-9.7244310464,1.8089738856,1394
102299,166450,236973,-0.5168496816,-9.7722874984,1.8269200550999998,1395
101917,166337,236962,-0.3744767369,-9.6634140701,1.9082760235,1396
101101,166253,236921,-0.5132604477,-9.8249295956,1.8759729184,1397
100328,166219,236861,-0.5216353268,-9.8333044747,1.8795621523000001,1398
99961,166208,236833,-0.2931207685,-9.7160561673,1.8137595308,1399
99857,166249,236833,-0.4821537539,-9.8859465719,1.8616159827999998,1400
99876,166197,236881,-0.3840480273,-9.700502820399999,1.8843477975,1401
100026,166188,236893,-0.6161518195,-9.8057870148,1.8855442087999998,1402
100142,166259,236870,-0.4402793584,-9.687342296099999,1.7898313048,1403
100264,166238,236907,-0.5503491979999999,-9.7639126193,1.9082760235,1404
100303,166242,236827,-0.49770710079999997,-9.7818587888,1.8376877568,1405
100324,166249,236886,-0.454636294,-9.7016992317,1.8843477975,1406
100355,166264,236903,-0.4642075844,-9.882357338,1.7288143285,1407
100511,166279,236863,-0.44985064880000003,-9.714859756,1.8652052167000002,1408
100643,166285,236884,-0.3684946804,-9.7591269741,1.7527425545,1409
100815,166306,236987,-0.49172504429999997,-9.8153583052,1.818545176,1410
100995,166372,236991,-0.3744767369,-9.767501853199999,1.9752750562999999,1411
101112,166342,236972,-0.35174492220000003,-9.8763752815,1.8472590472,1412
101260,166352,237012,-0.3840480273,-9.8201439504,1.890329854,1413
101475,166393,237049,-0.5874379483000001,-9.6634140701,1.7802600144,1414
101643,166377,236977,-0.5503491979999999,-9.634700198900001,1.8652052167000002,1415
101552,166376,236981,-0.5826523031,-9.7722874984,1.7527425545,1416
100848,166266,236950,-0.42233318890000004,-9.7196454012,1.842473402,1417
99896,166150,236845,-0.46540399569999996,-9.9577312499,1.8951154991999999,1418
99277,166132,236839,-0.4689932296,-9.7495556837,1.8041882404,1419
99026,166143,236838,-0.5491527867,-9.6825566509,1.7958133612999998,1420
98955,166152,236797,-0.5539384319,-9.6442714893,1.8807585636,1421
99067,166181,236893,-0.5970092387,-9.762716208,1.8568303376,1422
99223,166199,236837,-0.48335016519999996,-9.6969135865,1.8376877568,1423
99344,166180,236864,-0.3744767369,-9.81057266,1.7659030788,1424
99403,166201,236929,-0.49770710079999997,-9.8620183459,1.7515461432000001,1425
99531,166204,236870,-0.47377887479999997,-9.700502820399999,1.8568303376,1426
99567,166188,236942,-0.4606183505,-9.7770731436,1.8376877568,1427
99660,166227,236941,-0.382851616,-9.714859756,1.866401628,1428
99817,166237,236958,-0.47736810869999996,-9.8404829425,1.8269200550999998,1429
99969,166261,236930,-0.5599204884,-9.700502820399999,1.7994025952000001,1430
100148,166276,236931,-0.5204389155,-9.8668039911,1.7670994901,1431
100297,166293,236966,-0.4510470601,-9.6107719729,1.8412769907000002,1432
100482,166299,236994,-0.4642075844,-9.7734839097,1.9130616687,1433
100653,166307,237006,-0.4606183505,-9.6957171752,1.8568303376,1434
100863,166335,237018,-0.41156548719999997,-9.7244310464,1.7611174336,1435
101048,166350,237027,-0.4881358104,-9.728020280299999,1.8233308212,1436
101016,166342,237017,-0.5347958510999999,-9.767501853199999,1.8472590472,1437
100329,166227,236907,-0.4749752861,-9.7722874984,1.7994025952000001,1438
99384,166107,236905,-0.5491527867,-9.844072176400001,1.9609181207,1439
98733,166088,236870,-0.4510470601,-9.7531449176,1.866401628,1440
98543,166127,236856,-0.5647061336,-9.7782695549,1.8843477975,1441
98546,166155,236922,-0.502492746,-9.5868437469,1.8520446924,1442
98708,166152,236882,-0.3984049629,-9.7292166916,1.9082760235,1443
98924,166200,236929,-0.41276189849999995,-9.81057266,1.8520446924,1444
99104,166151,236934,-0.4606183505,-9.799804958300001,1.8759729184,1445
99181,166154,236962,-0.46540399569999996,-9.6969135865,1.9322042495,1446
99232,166142,236937,-0.5874379483000001,-9.7818587888,1.9417755399,1447
99344,166161,236939,-0.48335016519999996,-9.7686982645,1.818545176,1448
99387,166192,236947,-0.40677984199999995,-9.714859756,1.8281164664,1449
99561,166212,236985,-0.36011980130000004,-9.7340023368,1.8520446924,1450
99794,166221,237010,-0.5012963347,-9.762716208,1.8652052167000002,1451
99977,166262,237007,-0.47976093129999997,-9.744770038499999,1.7850456596,1452
100147,166275,237005,-0.4689932296,-9.6957171752,1.9369898947,1453
100280,166306,237024,-0.3553341561,-9.7016992317,1.8843477975,1454
100532,166312,237022,-0.47856452,-9.7292166916,1.8939190879,1455
100741,166343,237033,-0.3888336725,-9.5976114486,1.8472590472,1456
101000,166363,237068,-0.44985064880000003,-9.7950193131,1.7898313048,1457
100973,166333,237052,-0.6209374647,-9.714859756,1.9082760235,1458
100366,166254,237002,-0.4881358104,-9.738787982,1.7515461432000001,1459
99421,166176,236904,-0.6687939167,-9.767501853199999,1.9513468303000001,1460
98790,166079,236935,-0.6460621019999999,-9.853643466800001,1.7994025952000001,1461
98484,166085,236878,-0.39361931769999997,-9.852447055499999,1.8843477975,1462
98525,166097,236934,-0.5347958510999999,-9.7292166916,1.8759729184,1463
98644,166139,236907,-0.49770710079999997,-9.8333044747,1.7862420709,1464
98891,166152,236927,-0.39361931769999997,-9.8847501606,1.818545176,1465
99088,166164,236982,-0.5276173833,-9.7399843933,1.8412769907000002,1466
99189,166179,236936,-0.4941178669,-9.8153583052,1.9286150156,1467
99249,166176,236957,-0.46540399569999996,-9.7196454012,1.9465611851,1468
99317,166198,236957,-0.46540399569999996,-9.738787982,1.8520446924,1469
99400,166196,236978,-0.6496513358999999,-9.6777710057,1.7288143285,1470
99502,166216,237034,-0.4414757697,-9.7435736272,1.7994025952000001,1471
99765,166241,236964,-0.382851616,-9.7914300792,1.9046867896,1472
99969,166236,237034,-0.39720855159999996,-9.6382894328,1.8089738856,1473
100134,166278,237050,-0.4582255279,-9.7567341515,1.8460626359,1474
100309,166296,237023,-0.3649054465,-9.7340023368,1.8376877568,1475
100563,166322,237129,-0.5491527867,-9.6251289085,1.9704894111,1476
100705,166336,237051,-0.454636294,-9.7519485063,1.7994025952000001,1477
100914,166350,237109,-0.31704899449999996,-9.7818587888,1.8652052167000002,1478
100924,166370,237140,-0.4558327053,-9.7064848769,1.746760498,1479
100342,166235,237075,-0.574277424,-9.8165547165,1.7563317884,1480
99371,166140,236987,-0.47976093129999997,-9.7818587888,1.9190437251999999,1481
98661,166108,236901,-0.49770710079999997,-9.6957171752,1.8807585636,1482
98438,166095,236911,-0.4163511324,-9.6047899164,1.8041882404,1483
98410,166104,236961,-0.4534398827,-9.857232700700001,1.7324035624,1484
98623,166120,236941,-0.4594219392,-9.8548398781,1.8795621523000001,1485
98888,166119,236986,-0.6269195211999999,-9.767501853199999,1.7838492483,1486
99070,166134,236945,-0.4642075844,-9.7292166916,1.8281164664,1487
99179,166129,236971,-0.5874379483000001,-9.7340023368,1.8233308212,1488
99149,166112,236976,-0.36011980130000004,-9.629914553699999,1.8711872732,1489
99288,166147,236970,-0.5647061336,-9.7962157244,1.8508482811000002,1490
99404,166181,237003,-0.4366901245,-9.7304131029,1.818545176,1491
99568,166194,236993,-0.36011980130000004,-9.7112705221,1.8137595308,1492
99743,166200,236986,-0.3218346397,-9.7351987481,1.7850456596,1493
99918,166224,237091,-0.454636294,-9.767501853199999,1.7623138449,1494
100091,166244,237048,-0.5072783912000001,-9.7722874984,1.8376877568,1495
100273,166269,237052,-0.41156548719999997,-9.6957171752,1.7802600144,1496
100433,166227,237039,-0.3984049629,-9.7052884656,1.9322042495,1497
100579,166272,237083,-0.5682953675,-9.8141618939,1.79461695,1498
100849,166298,237067,-0.24167508259999998,-9.714859756,1.770688724,1499
100805,166254,237048,-0.5347958510999999,-9.839286531199999,1.91425808,1500
100118,166175,236982,-0.5682953675,-9.8368937086,1.9094724347999998,1501
99177,166103,236971,-0.33140593009999997,-9.8153583052,1.9417755399,1502
98561,166059,236915,-0.3744767369,-9.7914300792,1.9465611851,1503
98285,166038,236879,-0.4271188341,-9.6969135865,1.9704894111,1504
98439,166026,236921,-0.2979064137,-9.7292166916,1.8520446924,1505
98711,166055,236933,-0.4450650036,-9.595218626,1.8376877568,1506
98876,166098,236961,-0.430708068,-9.7435736272,1.8759729184,1507
99073,166121,237012,-0.3984049629,-9.7531449176,1.7802600144,1508
99173,166108,236998,-0.4199403663,-9.6849494735,1.8759729184,1509
99247,166111,236956,-0.34576286570000003,-9.8333044747,1.842473402,1510
99255,166123,236944,-0.4019941968,-9.7483592724,1.8616159827999998,1511
99409,166118,236935,-0.28115665549999996,-9.7782695549,1.8472590472,1512
99494,166130,236994,-0.32542387359999997,-9.8727860476,1.9334006607999998,1513
99740,166151,237008,-0.41156548719999997,-9.6681997153,1.91425808,1514
99939,166186,237041,-0.454636294,-9.5533442305,1.866401628,1515
100100,166205,236988,-0.2919243572,-9.6765745944,1.8807585636,1516
100271,166193,237049,-0.4019941968,-9.762716208,1.8616159827999998,1517
100468,166232,237059,-0.2883351233,-9.6095755616,1.9238293703999998,1518
