green,red,IR,acc_x,acc_y,acc_z,sample_index
119435,186315,223901,-4.3046878574,8.1427753078,3.4133614389,1
119146,186268,223874,-4.115654872,8.1667035338,3.5593236175,2
119302,186285,223896,-4.1611185014,8.195417404999999,3.5186456333,3
119712,186401,223956,-4.2185462438,8.1643107112,3.6418759972,4
120121,186493,223988,-4.3645084224,8.2348989779,3.5892339,5
120536,186565,224078,-4.2006000743,8.2025958728,3.5952159565,6
120865,186627,224123,-4.2137605985999995,8.1667035338,3.5150563993999997,7
121172,186736,224161,-4.1455651545,8.195417404999999,3.5030922864000003,8
121556,186851,224238,-4.1886359613,8.1798640581,3.5808590209,9
122036,186985,224323,-4.2245283003,8.1631142999,3.6406795858999996,10
122488,187087,224478,-4.2939201557,8.099704501,3.6430724085,11
122875,187095,224498,-4.2209390664,8.239684623099999,3.445664544,12
123302,187315,224474,-4.199403663,8.1918281711,3.6071800695,13
123803,187493,224565,-4.1300118076,8.1750784129,3.6143585373000002,14
124287,187673,224689,-4.258027816699999,8.262416437799999,3.6466616424,15
124528,187695,224731,-4.208974953399999,8.0949188558,3.5294133349999997,16
124240,187582,224689,-4.1431723319,8.1451681304,3.6119657146999997,17
123319,187328,224572,-4.1527436223,8.1643107112,3.6717862797,18
122111,187021,224390,-4.1659041466,8.25523797,3.5389846254,19
121221,186894,224253,-4.2317067681000005,8.2013994615,3.5006994637999997,20
120719,186815,224224,-4.3405801963999995,8.049455226400001,3.6035908356,21
120711,186875,224150,-4.3022950348,8.044669581199999,3.4743784152000003,22
121011,186927,224225,-4.2340995907,8.2013994615,3.5988051904000002,23
121402,186991,224294,-4.1730826144,8.2133635745,3.5820554322,24
121753,187084,224338,-4.1551364449,8.2516487361,3.6203405937999995,25
122106,187179,224439,-4.1623149127,8.1655071225,3.565305674,26
122410,187239,224484,-4.0869410008000004,8.0662049846,3.6789647475,27
122705,187290,224523,-4.1419759206,8.070990629799999,3.517449222,28
122995,187455,224544,-4.4231325760999995,8.1762748242,3.493520996,29
123420,187570,224631,-4.4829531411,8.0925260332,3.4887353508000003,30
123856,187713,224719,-4.2388852359,8.128418372199999,3.457628657,31
124326,187824,224887,-4.3417766077,8.2923267203,3.7292140221,32
124729,187920,224905,-4.0713876539,8.147560953,3.6478580537000003,33
125114,188035,224974,-4.2029928969000006,8.1870425259,3.6335011181000003,34
125286,188051,224950,-4.4135612857,8.2971123655,3.6502508763,35
124819,187886,224887,-4.1706897918,8.1774712355,3.5437702705999996,36
123600,187514,224750,-4.1551364449,8.075776275,3.5844482548,37
122251,187346,224548,-4.3298124947,8.1870425259,3.5964123677999997,38
121254,187161,224369,-4.3645084224,8.0817583315,3.5760733757,39
120641,187028,224369,-4.2939201557,8.1212399044,3.6239298277,40
120541,186998,224310,-4.1336010414999995,8.1224363157,3.5904303113,41
120750,187083,224298,-4.1443687432,8.0554372829,3.5605200288,42
121079,187147,224300,-4.1048871703,8.169096356399999,3.5748769644,43
121400,187301,224380,-4.1838503161,8.0925260332,3.6622149893000002,44
121928,187381,224476,-4.2221354777,8.2025958728,3.6083764808,45
122295,187499,224555,-4.1862431387,8.087740388,3.6466616424,46
122657,187567,224694,-4.3178483817,8.111668614,3.5126635768,47
123026,187661,224687,-4.4303110439,8.0733834524,3.5318061576,48
123397,187792,224795,-4.2699919297,8.1391860739,3.5234312785000004,49
123787,187878,224757,-4.0271204358,8.1176506705,3.6622149893000002,50
124187,187967,224835,-4.259224228,8.102097323599999,3.7351960786,51
124646,188117,224905,-4.342973019,8.0973116784,3.5676984966,52
125078,188209,224968,-4.2687955184,8.0374911134,3.5868410774,53
125256,188233,225017,-4.1431723319,8.226524098799999,3.517449222,54
124951,188100,224795,-4.3010986235,8.2959159542,3.6035908356,55
124032,187939,224628,-4.3286160834,8.061419339399999,3.6837503927,56
122942,187706,224558,-4.3345981399,8.0949188558,3.6873396266,57
121955,187531,224463,-4.2891345105,8.1140614366,3.6394831745999996,58
121243,187391,224369,-4.2975093896,8.1068829688,3.6681970457999995,59
121026,187345,224379,-4.3728833015,8.1726855903,3.6550365215,60
121226,187407,224378,-4.2771703975,8.3377903497,3.5856446661000003,61
121554,187457,224478,-4.2017964856,7.925028451199999,3.553341561,62
121876,187542,224467,-4.2759739861999995,7.986045427500001,3.7232319655999997,63
122175,187587,224512,-4.3286160834,8.084151154099999,3.6299118841999998,64
122486,187664,224523,-4.2915273330999995,8.039883936,3.5796626096,65
122850,187789,224604,-4.1694933805000005,8.254041558700001,3.6179477712,66
123269,187855,224615,-4.1551364449,8.1044901462,3.6741791022999997,67
123621,187927,224676,-4.2975093896,8.0231341778,3.6251262389999996,68
124110,188007,224759,-4.2963129783,8.0111700648,3.5700913192,69
124533,188103,224884,-4.3573299546,8.1786676468,3.6765719249,70
124960,188211,224887,-4.1910287839,8.1009009123,3.5820554322,71
125455,188287,224907,-4.3046878574,8.2085779293,3.5844482548,72
125821,188371,224982,-4.3250268494999995,8.1176506705,3.6059836581999996,73
125982,188323,225032,-4.4793639072,8.147560953,3.565305674,74
125358,188095,224942,-4.3226340269,8.0506516377,3.5641092626999997,75
123957,187857,224746,-4.2616170506,8.0315090569,3.7962130549,76
122585,187575,224516,-4.4327038665,8.0243305891,3.684946804,77
121598,187382,224358,-4.4817567298,8.2337025666,3.5102707542,78
120985,187326,224268,-4.3812581806,7.928617685100001,3.7005001509,79
120838,187279,224249,-4.283152454,8.044669581199999,3.7579278933,80
121093,187331,224237,-4.4434715682,8.0937224445,3.6562329328,81
121470,187426,224276,-4.2999022122,8.1619178886,3.5844482548,82
121836,187490,224340,-4.319044793,8.003991596999999,3.5964123677999997,83
122128,187573,224403,-4.4530428586,8.0769726863,3.6382867633,84
122486,187614,224407,-4.4123648744,8.1032937349,3.7363924898999996,85
122824,187696,224460,-4.3214376156,8.13559684,3.6155549486,86
123197,187814,224599,-4.2879380992,8.1678999451,3.7363924898999996,87
123594,187886,224633,-4.2652062845000005,8.0662049846,3.5808590209,88
123998,187942,224649,-4.2544385828,8.0207413552,3.5964123677999997,89
124389,188052,224769,-4.3034914461,8.099704501,3.5964123677999997,90
124837,188154,224830,-4.4614177377,8.1655071225,3.637090352,91
125271,188202,224888,-4.353740720699999,7.9992059518000005,3.5078779316,92
125665,188279,224859,-4.2269211229,7.9633136127999995,3.6406795858999996,93
125978,188332,224958,-4.366901245,8.1439717191,3.7184463204,94
125768,188219,224832,-4.3345981399,8.1678999451,3.5844482548,95
124751,187932,224707,-4.1730826144,8.0733834524,3.6813575701,96
123420,187731,224514,-4.4051864066,8.1092757914,3.6442688197999997,97
122290,187478,224367,-4.2807596314,8.0123664761,3.649054465,98
121570,187358,224304,-4.1766718483,8.0458659925,3.6251262389999996,99
121273,187308,224284,-4.4434715682,8.0350982908,3.6729826909999996,100
121365,187332,224332,-4.4853459636999995,8.0015987744,3.6514472876,101
121642,187410,224319,-4.3022950348,8.1726855903,3.5868410774,102
121966,187478,224361,-4.1671005579,8.1678999451,3.6514472876,103
122236,187531,224411,-4.2065821308,8.0255270004,3.6969109170000003,104
122472,187578,224392,-4.3274196721000004,8.2061851067,3.7339996673,105
122792,187658,224468,-4.4793639072,7.9669028467,3.5952159565,106
123159,187728,224571,-4.1168512833,8.0350982908,3.7818561193,107
123469,187772,224604,-4.2496529376,8.0566336942,3.6993037396,108
123847,187875,224615,-4.3441694303,8.075776275,3.6550365215,109
124263,188007,224741,-4.5260239479,8.0769726863,3.5437702705999996,110
124624,188030,224762,-4.5176490688,8.0829547428,3.4959138186,111
124997,188133,224744,-4.3692940676,8.1056865575,3.7028929734999996,112
125464,188180,224822,-4.2687955184,8.1571322434,3.6753755136,113
125789,188241,224876,-4.4063828179,8.2217384536,3.7028929734999996,114
125763,188116,224814,-4.2819560427,8.0482588151,3.4564322457,115
125052,187940,224657,-4.2759739861999995,8.0602229281,3.6705898684,116
123961,187720,224467,-4.2329031794,7.7970124421,3.6538401101999995,117
122897,187545,224424,-4.3848474145,8.1499537756,3.6275190616,118
122133,187412,224331,-4.510470601,8.099704501,3.5976087790999998,119
121715,187351,224271,-4.3597227772,7.968099258,3.5461630932,120
121733,187355,224282,-4.2293139454999995,8.0231341778,3.5940195452,121
122015,187440,224340,-4.295116567,8.3018980107,3.7220355542999997,122
122325,187498,224352,-4.2975093896,8.1978102276,3.6466616424,123
122723,187570,224369,-4.3345981399,8.0315090569,3.5318061576,124
123057,187627,224463,-4.2329031794,8.0099736535,3.6933216830999998,125
123397,187758,224473,-4.1910287839,8.169096356399999,3.7016965622000004,126
123703,187828,224569,-4.319044793,8.0697942185,3.6215370051,127
124079,187942,224527,-4.2987058009,8.074579863699999,3.6227334164,128
124516,187996,224563,-4.4219361648,8.1427753078,3.6394831745999996,129
124954,188076,224692,-4.3453658416,8.0937224445,3.7411781350999997,130
125347,188177,224741,-4.4231325760999995,8.1678999451,3.6885360378999996,131
125759,188273,224806,-4.4733818507,8.1140614366,3.6107693033999997,132
126157,188319,224803,-4.4949172541,8.01595571,3.5964123677999997,133
126514,188320,224829,-4.235296002,7.9968131291999995,3.8584264425,134
126758,188394,224743,-4.3740797127999995,8.129614783500001,3.7447673690000003,135
126614,188263,224652,-4.4315074552,8.1308111948,3.5844482548,136
125903,188018,224526,-4.3645084224,8.003991596999999,3.6203405937999995,137
125043,187791,224406,-4.366901245,7.915457160799999,3.7411781350999997,138
124299,187620,224231,-4.4063828179,8.0769726863,3.6574293441,139
123860,187485,224131,-4.354937132,7.9752777258,3.8309089826,140
123857,187425,224063,-4.2520457602,7.9992059518000005,3.8835510798,141
124100,187634,224173,-4.3238304382,7.831708369799999,3.9768711611999996,142
124394,187748,224273,-4.4817567298,7.902296636499999,3.9876388629,143
124682,187832,224311,-4.4566320925,8.0422767586,3.6885360378999996,144
124974,187906,224374,-4.534398827,7.9932238953,3.924229064,145
125300,187999,224443,-4.3800617693,7.7383882884,4.1587256788,146
125609,188049,224628,-4.2568314054,7.53739119,4.3393837851,147
125883,188172,224727,-4.211367776,7.556533770800001,4.4697926167999995,148
126167,188220,224813,-4.30708068,7.7395846997,4.3956151162,149
126435,188299,224979,-4.438685923,7.5314091335,4.3932222936,150
126695,188335,225095,-4.3896330597,7.5182486092000005,4.3334017286,151
126873,188415,225131,-4.4339002778,7.7599236918,4.2006000743,152
127068,188434,225126,-4.2640098732,8.0195449439,4.1371902754,153
127288,188447,225183,-4.3178483817,7.750352401400001,4.2556349941,154
127327,188437,225300,-4.3657048337,7.735995465799999,4.3166519704,155
126820,188120,225308,-4.4219361648,7.683353368600001,4.2783668087999995,156
125578,187827,225151,-4.4207397534999995,7.5744799403,4.2568314054,157
124057,187462,224959,-4.3585263658999995,7.6139615132000005,4.2329031794,158
122695,187158,224726,-4.4685962055,7.6474610296,4.2520457602,159
121746,186818,224534,-4.5391844722,7.7096744172000005,4.2065821308,160
121195,186630,224431,-4.3992043501,7.7599236918,4.0773697104,161
121050,186552,224275,-4.2628134618999995,7.7419775223,4.0905302347,162
121180,186555,224286,-4.3142591478000005,7.832904781100001,4.1599220901,163
121330,186539,224317,-4.4075792292,7.7120672398000005,4.1228333398,164
121402,186496,224394,-4.4937208428,7.7718878047999995,4.2257247116,165
121449,186499,224352,-4.4303110439,7.7898339743,4.103690759,166
121531,186450,224316,-4.4075792292,7.7898339743,4.1216369285,167
121676,186438,224323,-4.4997028993,7.764709337,4.1012979364,168
121867,186457,224387,-4.3956151162,7.735995465799999,4.0953158799,169
122083,186447,224446,-4.342973019,7.8759755879,4.1742790257,170
122296,186451,224469,-4.3609191885,7.7814590952,4.2185462438,171
122549,186482,224473,-4.3645084224,7.645068207,4.0821553556,172
122759,186508,224512,-4.4961136654,7.7862447404,4.092923057299999,173
122801,186443,224488,-4.5068813671,7.77667345,4.1599220901,174
122191,186246,224400,-4.3920258823,7.779066272600001,4.1252261624,175
121081,185877,224204,-4.414757697,7.718049296299999,4.0893338234,176
119987,185642,224065,-4.4398823343,7.764709337,4.1706897918,177
119169,185445,223918,-4.4123648744,7.6594251426,4.1563328562,178
118686,185353,223826,-4.3764725354000005,7.7659057483,4.146761565799999,179
118686,185380,223770,-4.4075792292,7.7551380466,4.0546378957,180
118953,185477,223829,-4.4374895117,7.8783684105,4.139583098,181
119245,185516,223851,-4.4494536247,7.728816998,4.1934216065,182
119485,185552,223908,-4.3597227772,7.8388868376,4.2388852359,183
119701,185533,223993,-4.510470601,7.7898339743,4.2963129783,184
119878,185606,223929,-4.5367916496,7.683353368600001,4.2699919297,185
120137,185617,223949,-4.4518464473,7.6474610296,4.0486558392,186
120381,185697,224004,-4.3501514868,7.7575308692,4.1347974528,187
120682,185787,224040,-4.4303110439,7.8029944985999995,4.1802610821999995,188
121086,185899,224092,-4.4602213264,7.824529902,4.091726646,189
121475,186018,224135,-4.5714875773,7.735995465799999,4.043870194,190
121875,186075,224236,-4.4602213264,7.788637563,4.1682969692,191
122127,186060,224200,-4.3680976563,7.920242806,4.2149570099,192
121639,185964,224156,-4.3393837851,7.7599236918,4.140779509300001,193
120697,185653,224038,-4.4111684631,7.740781111,4.1252261624,194
119609,185413,223914,-4.6444686666,7.639086150500001,4.1838503161,195
118796,185198,223800,-4.4231325760999995,7.668996433,4.1216369285,196
118321,185044,223753,-4.4566320925,7.6809605460000006,4.2891345105,197
118261,185016,223762,-4.5188454800999995,7.902296636499999,4.2664026958,198
118425,185059,223796,-4.5631126982,7.6594251426,4.3441694303,199
118697,185069,223830,-4.498506487999999,7.7395846997,4.2257247116,200
118848,185071,223812,-4.5056849558,7.7706913935,4.242474469799999,201
119037,185052,223870,-4.3752761241,7.6989067155,4.2101713647,202
119226,185115,223907,-4.4877387863000004,7.6043902228,4.2783668087999995,203
119433,185139,223928,-4.4183469309,7.635496916599999,4.2137605985999995,204
119687,185187,224007,-4.4219361648,7.5912296985,4.2699919297,205
119935,185236,223995,-4.3800617693,7.597211754999999,4.3286160834,206
120239,185152,224083,-4.4937208428,7.7024959494,4.2879380992,207
120523,185287,224133,-4.4841495524,7.728816998,4.1802610821999995,208
120711,185283,224170,-4.3214376156,7.6869426025,4.3010986235,209
120335,185206,224078,-4.2616170506,7.6713892556,4.3214376156,210
119193,184897,223920,-4.3453658416,7.7682985709,4.354937132,211
118067,184582,223774,-4.42672181,7.6582287313,4.3465622529,212
117097,184306,223607,-4.4374895117,7.728816998,4.283152454,213
116496,184245,223537,-4.4446679795,7.750352401400001,4.2819560427,214
116251,184230,223496,-4.3680976563,7.7347990545,4.2652062845000005,215
116394,184272,223559,-4.4111684631,7.7539416353,4.2735811636,216
116671,184338,223603,-4.4243289874,7.8149586116,4.2891345105,217
116992,184397,223636,-4.4721854394000005,7.6749784895,4.223331889,218
117266,184462,223714,-4.3633120111,7.6761749007999995,4.2496529376,219
117542,184518,223748,-4.474578262,7.7120672398000005,4.3345981399,220
117807,184606,223804,-4.4111684631,7.7072815945999995,4.259224228,221
118097,184630,223893,-4.465006971599999,7.848458128,4.320241204299999,222
118469,184714,223956,-4.3776689467,7.6845497799,4.347758664200001,223
118865,184772,223999,-4.3704904789,7.6163543358,4.2735811636,224
119188,184782,224036,-4.3633120111,7.6606215538999995,4.3322053173,225
119522,184774,224045,-4.498506487999999,7.645068207,4.271188340999999,226
119504,184671,224015,-4.5236311253,7.679764134699999,4.2735811636,227
118790,184417,223883,-4.462614149,7.525427077,4.4087756405,228
117606,184041,223632,-4.5690947547,7.5290163108999995,4.3621155998,229
116560,183721,223499,-4.4817567298,7.5696942951,4.3573299546,230
115821,183394,223325,-4.3058842687,7.6965138929000005,4.320241204299999,231
115381,183318,223282,-4.4721854394000005,7.5984081663000005,4.3405801963999995,232
115395,183297,223280,-4.4350966891,7.5996045776,4.4350966891,233
115698,183263,223333,-4.5308095931,7.6785677234,4.3812581806,234
116061,183201,223324,-4.5320060043999995,7.6091758679999995,4.3357945512,235
116379,183193,223320,-4.558327053,7.5541409482,4.4195433422,236
116667,183146,223351,-4.4398823343,7.5349983674,4.3980079388,237
116950,183182,223369,-4.510470601,7.4919275606,4.4123648744,238
117245,183183,223413,-4.5595234643,7.5804619967999995,4.5511485852,239
117569,183214,223438,-4.5176490688,7.539784012599999,4.3561335433,240
117793,183214,223437,-4.510470601,7.5517481256,4.3836510032,241
118220,183433,223557,-4.4315074552,7.5242306657,4.347758664200001,242
118635,183594,223646,-4.5846481016,7.4931239719,4.4004007614,243
118998,183571,223684,-4.4973100767,7.472784979799999,4.4219361648,244
119134,183398,223641,-4.415954108299999,7.5122665527,4.3980079388,245
118628,183094,223443,-4.342973019,7.477570625,4.4482572134,246
117573,182770,223245,-4.4841495524,7.4356962295,4.4805603185,247
116480,182501,223106,-4.4769710846,7.4010003018,4.4291146326,248
115848,182191,222954,-4.5080777784,7.621139981,4.4195433422,249
115428,182025,222857,-4.5846481016,7.5936225210999995,4.4195433422,250
115358,182017,222875,-4.462614149,7.495516794499999,4.4219361648,251
115589,182130,222900,-4.492524431500001,7.5828548194,4.4769710846,252
115967,182140,222965,-4.4937208428,7.6630143765,4.4877387863000004,253
116312,182140,223011,-4.6265224971,7.495516794499999,4.4697926167999995,254
116572,182140,222992,-4.498506487999999,7.489534738000001,4.5008993106,255
116851,182297,223079,-4.5032921331999995,7.5062844962,4.462614149,256
117160,182408,223189,-4.5415772948,7.5326055448,4.498506487999999,257
117524,182505,223275,-4.4279182213,7.5529445369,4.4458643908,258
117855,182461,223281,-4.5655055207999995,7.5577301821,4.5056849558,259
118209,182479,223213,-4.5176490688,7.501498850999999,4.570291166,260
118533,182502,223319,-4.6049870937,7.5349983674,4.5403808835,261
118857,182525,223307,-4.4781674959,7.3950182453,4.5152562462,262
119231,182566,223349,-4.4470608021,7.4991060284,4.462614149,263
119560,182667,223378,-4.6313081423,7.472784979799999,4.5140598349,264
119782,182656,223433,-4.5655055207999995,7.4943203832,4.4853459636999995,265
119345,182330,223264,-4.534398827,7.4799634476,4.5499521739,266
118360,182009,223095,-4.4327038665,7.432106995600001,4.5320060043999995,267
117329,181669,222892,-4.4781674959,7.5206414318,4.589433746799999,268
116527,181460,222778,-4.5164526575,7.4560352216,4.498506487999999,269
116052,181307,222709,-4.7150569333,7.5804619967999995,4.5320060043999995,270
115900,181311,222706,-4.5858445129,7.4560352216,4.498506487999999,271
116067,181394,222768,-4.4590249151000005,7.525427077,4.4721854394000005,272
116413,181502,222830,-4.5619162869,7.4919275606,4.5726839886,273
116701,181549,222910,-4.474578262,7.495516794499999,4.5774696338,274
116960,181646,222938,-4.5355952383,7.4979096170999995,4.5080777784,275
117197,181620,222979,-4.5619162869,7.5529445369,4.5499521739,276
117437,181676,222989,-4.5487557626,7.5278198996,4.4793639072,277
117611,181677,222992,-4.5678983434,7.4560352216,4.4913280202,278
118030,181677,222970,-4.5678983434,7.514659375300001,4.522434714,279
118287,181710,223072,-4.7090748768,7.4249285278,4.5487557626,280
118592,181761,223127,-4.4662033829,7.3471617933,4.5427737061,281
118901,181834,223127,-4.5152562462,7.5625158273,4.5128634236,282
119243,181844,223168,-4.4339002778,7.4177500599999995,4.5032921331999995,283
119555,181861,223191,-4.5332024157,7.4225357052000005,4.5248275366,284
119808,181857,223177,-4.5535414078,7.4524459877,4.6289153197,285
119636,181702,223134,-4.5020957219,7.393821834000001,4.5798624564,286
118854,181405,222936,-4.366901245,7.5469624804,4.589433746799999,287
117848,181158,222774,-4.4614177377,7.472784979799999,4.6037906824000006,288
116933,180906,222640,-4.5499521739,7.5768727629,4.5750768112,289
116345,180701,222562,-4.6157547954,7.4117680035,4.642075844,290
116066,180655,222458,-4.6325045536000005,7.369893608,4.7114676994,291
116083,180540,222473,-4.4961136654,7.3746792532,4.7006999977,292
116321,180686,222507,-4.6695933039,7.390232600099999,4.6791645943,293
116582,180754,222555,-4.5332024157,7.444071108599999,4.5966122146,294
116779,180790,222621,-4.5918265694,7.4632136894,4.6157547954,295
117009,180825,222589,-4.589433746799999,7.3507510272,4.6289153197,296
117201,180902,222675,-4.4817567298,7.3675007854,4.6935215299,297
117420,180939,222710,-4.6468614892,7.4380890521,4.642075844,298
117673,180929,222727,-4.5379880609,7.3830541323,4.6887358847,299
117925,180919,222712,-4.5714875773,7.2957161074000005,4.6205404406,300
118171,180965,222778,-4.4997028993,7.453642399,4.7234318124,301
118440,180999,222792,-4.527220359199999,7.3914290114000005,4.6325045536000005,302
118722,181087,222839,-4.5248275366,7.495516794499999,4.7114676994,303
119031,181159,222872,-4.5774696338,7.3962146566,4.7066820542,304
119279,181138,222911,-4.5726839886,7.3064838090999995,4.7437708044999995,305
119126,181042,222835,-4.5918265694,7.349554615900001,4.618147618,306
118338,180824,222713,-4.5260239479,7.138986227099999,4.6564327796,307
117443,180600,222576,-4.7186461672,7.2167529616,4.844269353700001,308
116718,180517,222510,-4.737788748,7.2598237683999995,4.7234318124,309
116294,180410,222410,-4.6325045536000005,7.196413969499999,4.7090748768,310
116142,180441,222476,-4.527220359199999,7.3950182453,4.7234318124,311
116342,180553,222465,-4.5571306417,7.4344998182,4.6516471344,312
116621,180569,222535,-4.5092741897,7.334001269,4.7533420949,313
116878,180601,222622,-4.4973100767,7.2681986475,4.737788748,314
117125,180657,222600,-4.5954158033,7.2430740102,4.754538506199999,315
117310,180676,222660,-4.6683968926,7.3531438498,4.642075844,316
117443,180634,222610,-4.7330031028,7.167700098299999,4.8023949582,317
117719,180674,222605,-4.6002014485,7.405785946999999,4.7306102802,318
117990,180748,222677,-4.5846481016,7.3663043741,4.8825545153,319
118270,180866,222672,-4.4530428586,7.4668029232999995,4.8203411277,320
118669,180927,222779,-4.606183505,7.3555366724,4.7509492723,321
118952,180940,222740,-4.5978086259,7.3160550995,4.7509492723,322
119263,180956,222789,-4.4087756405,7.2610201797,4.7114676994,323
119594,181032,222812,-4.5032921331999995,7.3387869142,4.7712882644,324
119758,180957,222849,-4.7676990305,7.274180704,4.8119662486,325
119373,180822,222719,-4.6648076587,7.0097738067,4.8251267729,326
118606,180591,222589,-4.4877387863000004,7.2765735266,4.7330031028,327
117753,180452,222517,-4.5954158033,7.332804857699999,4.754538506199999,328
117209,180367,222407,-4.5439701174,7.3052873978,4.6660040700000005,329
116945,180369,222419,-4.6923251185999995,7.4273213504,4.748556449700001,330
116960,180357,222361,-4.6253260858,7.226324252,4.8155554825,331
117156,180395,222439,-4.5990050372,7.4105715922,4.7162533446,332
117397,180482,222484,-4.609772738899999,7.4811598589,4.6755753604,333
117625,180514,222549,-4.42672181,7.5505517143,4.6480579005,334
117845,180521,222501,-4.4673997942,7.0384876779,4.869393991,335
117991,180495,222538,-4.5750768112,7.0636123152,4.7150569333,336
118177,180607,222614,-4.5643091095,7.3722864306,4.6229332632,337
118444,180723,222590,-4.594219392,7.7300134093,4.5248275366,338
118839,181052,222734,-4.4410787456,7.5756763516,4.606183505,339
119203,181499,222944,-4.4769710846,7.345965381999999,4.5164526575,340
119755,182192,223303,-4.4781674959,7.441678286,4.3764725354000005,341
120248,183284,223773,-4.3274196721000004,7.4201428826,4.415954108299999,342
120811,184801,224493,-4.414757697,7.6618179652,4.2185462438,343
121303,185696,224710,-4.558327053,7.8927253461,3.8153556357,344
121469,185811,224538,-4.5427737061,8.279166196,3.7459637803,345
121266,185743,224222,-4.2843488653,8.2887374864,3.5868410774,346
121004,185627,223843,-4.2927237444,8.4035929712,3.3451659948,347
120888,185587,223688,-4.2364924133,8.2731841395,3.4839497056,348
121009,185594,223666,-4.242474469799999,8.1535430095,3.5078779316,349
121352,185691,223686,-4.2927237444,7.9908310727,3.5078779316,350
121691,185724,223748,-4.4207397534999995,8.0123664761,3.5102707542,351
122052,185770,223670,-4.3058842687,8.243273857,3.3762726886,352
122360,185765,223554,-4.247260115,8.240881034400001,3.4013973259,353
122719,185783,223597,-4.2927237444,8.360522164399999,3.433700431,354
123078,185885,223612,-4.2999022122,8.2169528084,3.3188449462,355
123478,185926,223641,-4.3609191885,8.2576307926,3.3128628897,356
123839,186011,223730,-4.3345981399,8.2480595022,3.3164521235999995,357
124215,186054,223682,-4.2065821308,8.2384882118,3.4372896648999998,358
124605,186119,223693,-4.2029928969000006,8.2600236152,3.2494530908,359
124991,186183,223707,-4.3441694303,8.1906317598,3.2159535744,360
125413,186251,223788,-4.2149570099,8.1774712355,3.3355947043999996,361
125783,186335,223857,-4.140779509300001,8.0685978072,3.3499516399999996,362
126105,186324,224002,-4.2819560427,8.1451681304,3.2877382523999996,363
126156,186221,223866,-4.2568314054,8.3856468017,3.2338997439000003,364
125871,185986,223646,-4.3118663252,8.2767733734,3.3032915993,365
125410,185790,223526,-4.259224228,8.173882001600001,3.3200413575,366
125094,185734,223550,-4.211367776,8.3234334141,3.3116664784,367
124892,185760,223570,-4.4207397534999995,7.5996045776,4.0785661217,368
124921,185811,223652,-4.331008906,8.2767733734,3.2410782117,369
124984,185801,223647,-4.1551364449,8.315058535,2.9970103065,370
125080,185812,223604,-4.2281175342,8.3306118819,3.1609186546,371
125210,185847,223671,-4.1970108404,8.410771439,3.2386853891,372
125371,185886,223771,-4.2652062845000005,8.1655071225,3.3511480513,373
125529,185917,223837,-4.1886359613,8.4083786164,3.1968109935999998,374
125688,185948,223940,-4.0295132584,8.4311104311,2.9850461935,375
125883,186015,224128,-4.146761565799999,8.459824302300001,3.1369904286000003,376
125943,185980,224029,-3.9672998708,8.4167534955,3.0532416376,377
125984,185965,223908,-4.0331024923,8.3772719226,3.1250263156,378
126214,186040,223918,-4.1551364449,8.4885381735,3.0939196218,379
126476,186074,224070,-4.1527436223,8.3724862774,3.0939196218,380
126549,186051,224037,-4.091726646,8.350950873999999,3.0580272828,381
126387,185865,223948,-4.1216369285,8.3940216808,3.014956476,382
125869,185713,223822,-3.9900316855,8.5088771656,3.1549365981,383
125290,185585,223746,-4.1012979364,8.4801632944,3.1728827676,384
124914,185524,223651,-4.0893338234,8.4670027701,3.0939196218,385
124796,185467,223603,-3.9672998708,8.3964145034,3.0364918793999998,386
124912,185557,223617,-4.1300118076,8.3677006322,2.9503502657999996,387
125166,185667,223631,-3.9565321691,7.6941210703,3.8668013215999997,388
125514,185771,223674,-4.1108692268,8.5268233351,2.9706892578999997,389
125805,185813,223717,-4.0115670889,8.5938223679,2.9575287336000002,390
126102,185873,223745,-4.0809589443,8.459824302300001,3.0448667585,391
126358,185940,223674,-4.0151563228,8.482556117,3.0484559924,392
126660,185995,223791,-4.001995798499999,8.4693955927,3.0089744195,393
126896,186000,223821,-4.0881374121,8.6045900696,2.9001009912,394
127112,186031,223876,-4.0534414844,8.5758761984,2.8642086522,395
127235,185866,223862,-3.9720855159999995,8.3377903497,3.0795626862,396
127344,185982,223772,-4.0390845488,8.538787448099999,3.0771698636,397
127472,185956,223806,-3.9349967657,8.6273218843,2.9922246613000003,398
127490,185952,223765,-4.2675991071,8.4131642616,2.9515466771,399
127345,185813,223669,-4.1216369285,8.3342011158,2.8115665549999997,400
127081,185724,223619,-3.9661034595,8.4323068424,3.0436703472,401
126874,185685,223598,-3.9696926934,8.5351982142,3.014956476,402
126802,185635,223570,-4.1503507997,8.6345003521,2.8977081686,403
126857,185721,223593,-4.06779842,8.4729848266,3.0005995404,404
126975,185768,223543,-4.1623149127,8.463413536200001,2.99102825,405
127050,185743,223478,-4.1120656381,8.529216157699999,2.9766713144,406
127129,185761,223466,-3.9397824109,8.6799639815,2.9599215562,407
127298,185804,223539,-3.912264951,8.638089586,3.0053851856000002,408
127449,185852,223566,-4.113262049399999,8.5280197464,2.9575287336000002,409
127518,185829,223544,-4.1168512833,8.6105721261,2.8127629663000002,410
127558,185870,223507,-4.0869410008000004,8.3772719226,2.9072794589999997,411
127835,185890,223582,-4.0426737827,8.5244305125,2.967100024,412
128001,185910,223606,-4.140779509300001,8.6847496267,2.9527430884,413
128116,185909,223605,-4.0223347905999995,8.525626923799999,2.8474588940000003,414
128113,185823,223600,-4.1682969692,8.3712898661,2.9850461935,415
127730,185639,223517,-4.1084764042,8.5005022865,3.0340990568,416
126998,185420,223297,-4.079762533,8.3892360356,2.9060830476999997,417
126266,185235,223162,-3.924229064,8.5052879317,2.8905297008,418
125720,185171,223035,-3.9110685397,8.5328053916,2.8450660714,419
125454,185193,223116,-4.1060835816,8.517252044700001,2.8929225234,420
125353,185217,223116,-4.0989051138,8.450253011900001,2.9575287336000002,421
125363,185250,223077,-4.0630127748,8.5316089803,3.0376882907,422
125391,185270,223116,-3.8991044267,8.458627890999999,2.9336005076,423
125564,185288,223132,-3.9613178143,8.5148592221,2.9551359109999997,424
125687,185318,223157,-3.8979080154,8.578269021,2.967100024,425
125847,185364,223122,-4.1288153963,8.5280197464,2.9120651042,426
125996,185443,223210,-4.1108692268,8.5722869645,2.8761727652,427
126217,185511,223227,-3.9613178143,8.4131642616,2.9168507494,428
126417,185531,223296,-3.996013742,8.584251077500001,2.9455646206,429
126569,185515,223245,-3.9290147091999996,8.4957166413,2.9874390161,430
126486,185428,223237,-4.3716868902,8.8989072494,2.2504496553,431
125884,185161,223030,-4.0833517669,8.6153577713,2.9682964353,432
124905,184899,222899,-4.1240297511,8.471788415299999,2.931207685,433
123984,184783,222811,-3.9996029759000002,8.4801632944,3.014956476,434
123287,184694,222738,-3.9230326527000003,8.4394853102,2.9659036127,435
122833,184647,222711,-4.0654055974,8.5196448673,2.9886354273999998,436
122603,184694,222672,-4.2221354777,8.516055633399999,2.931207685,437
122593,184691,222715,-4.1240297511,8.463413536200001,2.8953153460000003,438
122788,184781,222751,-4.1419759206,8.4490566006,2.9515466771,439
122897,184788,222794,-4.113262049399999,8.4681991814,3.0125636533999995,440
123010,184874,222845,-4.0594235409,8.458627890999999,2.8869404668999996,441
123127,184927,222922,-3.7986058774999996,8.4550386571,3.1561330094,442
123228,184936,222913,-3.9218362414,8.7158563205,3.0041887742999998,443
123399,184891,222905,-3.9493537012999997,8.506484343,3.0209385325,444
123615,184979,223039,-4.0235312019,8.5328053916,2.931207685,445
123807,185032,223051,-4.019941968,8.6237326504,2.9036902251,446
123802,184947,223058,-3.960121403,8.5950187792,2.8091737324,447
123085,184738,222895,-3.8189448695999997,8.5615192628,2.835494781,448
122020,184509,222800,-3.9708891047,8.484948939599999,2.9252256285000002,449
121038,184377,222680,-3.9816568063999997,8.5399838594,2.9874390161,450
120212,184254,222632,-4.1312082188999995,8.5471623272,2.9623143788,451
119769,184214,222651,-3.8715869668,8.554340795,2.8450660714,452
119593,184155,222704,-3.4839497056,8.6644106346,2.8941189347,453
119650,184299,222710,-3.9014972492999997,8.6273218843,2.8546373618,454
119767,184348,222713,-3.8859439023999998,8.6081793035,2.931207685,455
119948,184353,222773,-4.0737804765,8.602197247,2.8402804262,456
120130,184391,222823,-4.0749768878,8.5471623272,2.8438696600999998,457
120254,184428,222797,-3.8835510798,8.574679787100001,2.9395825641,458
120410,184361,222852,-3.8620156764,8.6321075295,2.9288148624,459
120642,184539,222840,-3.6909288605,8.6213398278,2.4311077616,460
120921,184626,222956,-3.9349967657,8.7589271273,2.8067809098,461
121201,184625,222976,-3.8584264425,8.6440716425,2.8522445392,462
121440,184636,222980,-3.8895331363000003,8.5411802707,2.8307091358,463
121333,184550,222974,-3.8488551521,8.6488572877,2.8845476443,464
120543,184335,222784,-3.82851616,8.6524465216,2.8929225234,465
119536,184165,222710,-3.9756747499,8.5998044244,2.8402804262,466
118686,183994,222663,-4.0055850324,8.6177505939,2.8438696600999998,467
118015,183895,222523,-3.7507494254999996,8.7182491431,2.8666014748,468
117719,183896,222456,-3.8691941442,8.5974116018,2.8462624827,469
117820,183970,222572,-4.0271204358,8.554340795,2.9036902251,470
118064,184060,222620,-3.7531422481,8.4897345848,2.8139593776000003,471
118315,184110,222704,-3.9505501125999998,8.5579300289,2.9108686929000003,472
118528,184140,222747,-3.7531422481,8.4993058752,2.8929225234,473
118685,184158,222686,-3.9266218866,8.7756768855,2.8450660714,474
118895,184228,222786,-4.001995798499999,8.6297147069,2.715853651,475
119155,184302,222812,-3.960121403,8.5734833758,2.7134608283999997,476
119439,184362,222841,-3.9314075318,8.5734833758,2.8331019584000003,477
119725,184399,222874,-3.7627135385,8.5806618436,2.8809584104000003,478
120042,184494,222898,-3.7507494254999996,8.6644106346,2.8689942974,479
120392,184537,222910,-3.9254254753,8.6117685374,2.8797619991,480
120594,184529,222985,-3.8093735792,8.6093757148,2.8654050635,481
120076,184321,222806,-3.7722848289,8.5926259566,2.8019952646,482
119131,184103,222679,-3.9314075318,8.6153577713,2.7924239742,483
118335,183962,222593,-3.9816568063999997,8.5208412786,2.8139593776000003,484
117788,183873,222468,-3.8656049103,8.4239319633,2.8426732488,485
117508,183850,222462,-3.8033915226999997,8.5878403114,2.8546373618,486
117538,183908,222537,-3.936193177,8.6703926911,2.8570301844,487
117754,183986,222576,-4.031906081,8.5722869645,2.7960132080999998,488
118062,184090,222676,-4.0055850324,8.602197247,2.8821548217,489
118270,184096,222676,-3.780659708,8.5363946255,2.87138712,490
118447,184158,222704,-3.9409788222,8.6560357555,2.8211378454,491
118698,184160,222662,-4.1192441059,8.5351982142,2.835494781,492
118909,184193,222705,-3.8201412809,8.4406817215,2.7948167968,493
119189,184273,222762,-3.8356946278,8.6847496267,2.8510481279,494
119502,184368,222768,-3.9050864832,8.6907316832,2.7828526838,495
119847,184437,222851,-3.9589249917,8.5758761984,2.8737799425999997,496
120233,184499,222993,-3.8321053939,8.6165541826,2.7804598612,497
120607,184597,223035,-3.7902309983999998,8.9216390641,2.5531417142,498
120427,184449,222949,-3.9194434188,8.638089586,2.7589244578,499
119729,184206,222812,-3.7830525306,8.636893174699999,2.715853651,500
118932,184001,222738,-3.7950166436,8.61416136,2.9300112737000004,501
118296,183781,222626,-4.031906081,8.5878403114,2.8989045799,502
117882,183722,222522,-3.7830525306,8.6775711589,2.8067809098,503
117787,183654,222457,-3.864408499,8.7720876516,2.8426732488,504
117931,183820,222535,-3.8488551521,8.6333039408,2.8283163132,505
118180,183894,222631,-3.8931223702,8.6835532154,2.8450660714,506
118420,184013,222651,-3.7794632967,8.5950187792,2.739781877,507
118660,184041,222722,-3.7531422481,8.5399838594,2.8019952646,508
118874,184095,222763,-3.8632120877,8.6703926911,2.8785655878,509
119111,184097,222719,-3.7040893848,8.6069828922,2.8426732488,510
119378,184182,222813,-3.8321053939,8.6919280945,2.7732813934,511
119658,184315,222882,-3.8931223702,8.5722869645,2.7493531674,512
119973,184336,222928,-3.8751762007000004,8.85344362,2.6991038927999997,513
120165,184408,222969,-3.8309089826,8.7445701917,2.8666014748,514
120534,184444,223023,-3.7016965622000004,8.8235333375,2.8558337731,515
120846,184549,223025,-3.9589249917,8.556733617599999,2.8079773211,516
120868,184433,223029,-3.8500515634,8.6787675702,2.7469603447999997,517
120310,184224,222862,-3.7842489418999996,8.529216157699999,2.7349962318,518
119478,183989,222724,-3.9014972492999997,8.7062850301,2.8881368781999996,519
118747,183834,222654,-3.8153556357,8.650053698999999,2.8594230069999997,520
118289,183756,222562,-3.7363924898999996,8.6608214007,2.7541388126,521
118096,183717,222537,-3.7674991837,8.6440716425,2.8390840148999996,522
118203,183918,222585,-3.876372612,8.673981925,2.7613172804,523
118452,184031,222635,-3.8608192651000004,8.5639120854,2.87138712,524
118748,184128,222753,-3.8356946278,8.7038922075,2.8630122409,525
119005,184147,222783,-3.7698920062999997,8.6333039408,2.8474588940000003,526
119213,184195,222773,-3.9218362414,8.7003029736,2.7972096194,527
119443,184229,222778,-3.7339996673,8.7601235386,2.7541388126,528
119680,184311,222835,-3.8703905555,8.5950187792,2.75174599,529
119995,184351,222854,-3.9385859996,8.5615192628,2.9587251449000003,530
120319,184354,222927,-3.9014972492999997,8.6871424493,2.7218357075,531
120616,184470,222951,-3.8440695069,8.7242311996,2.7134608283999997,532
120945,184524,222980,-3.8536407972999998,8.542376681999999,2.7565316351999996,533
121323,184616,223037,-3.8691941442,8.605786480899999,2.8283163132,534
121505,184616,223030,-3.7627135385,8.6584285781,2.8211378454,535
121099,184409,222887,-3.7411781350999997,8.7972122889,2.7278177639999996,536
120302,184101,222716,-3.8309089826,8.8139620471,2.7661029256000003,537
119524,184075,222676,-3.6885360378999996,8.5136628108,2.8307091358,538
119075,184029,222684,-3.9194434188,8.6991065623,2.8953153460000003,539
118855,184036,222645,-3.9026936606000002,8.6117685374,2.7924239742,540
118901,184079,222722,-3.9003008379999997,8.7445701917,2.7637101029999998,541
119092,184119,222696,-3.7734812402,8.5052879317,2.7493531674,542
119355,184248,222699,-3.8356946278,8.628518295600001,2.8522445392,543
119599,184284,222796,-3.8344982165,8.6045900696,2.9096722816000002,544
119824,184291,222779,-3.9326039431,8.5890367227,2.7696921595,545
120031,184349,222774,-3.8428730956,8.673981925,2.7840490951,546
120303,184427,222788,-3.7076786186999997,8.5998044244,2.7086751831999996,547
120653,184479,222857,-3.7088750299999997,8.638089586,2.8857440556,548
120982,184532,222892,-3.7674991837,8.6668034572,2.8953153460000003,549
121317,184595,222972,-3.8560336199000003,8.641678819900001,2.7373890544,550
121642,184673,222957,-3.9338003543999998,8.5615192628,2.7601208691,551
121927,184743,223051,-3.7746776515,8.5208412786,2.7493531674,552
122292,184724,223110,-3.7411781350999997,8.6093757148,2.8307091358,553
122152,184633,222964,-3.8356946278,8.6931245058,2.775674216,554
121487,184311,222911,-3.9338003543999998,8.721838377,2.7900311516,555
120677,184267,222796,-3.9134613623,8.6476608764,2.823530668,556
120008,184203,222743,-3.7459637803,8.5531443837,2.8450660714,557
119626,184150,222679,-3.8524443859999997,8.6668034572,2.8666014748,558
119510,184222,222695,-3.7770704741,8.6871424493,2.7050859493,559
119734,184279,222766,-3.8739797894,8.6309111182,2.7445675222,560
119950,184312,222765,-3.8931223702,8.641678819900001,2.8402804262,561
120153,184383,222847,-3.8009987001,8.6775711589,2.7948167968,562
120341,184401,222795,-3.6981073283,8.7003029736,2.8570301844,563
120595,184433,222892,-3.7758740628,8.6584285781,2.6488546182,564
120752,184481,222845,-3.7005001509,8.583054666199999,2.6464617955999996,565
120987,184526,222918,-3.6646078119,8.6189470052,2.8821548217,566
121292,184478,223000,-3.8237305148,8.6668034572,2.9419753867,567
121537,184599,223013,-3.9649070482,8.6668034572,2.7469603447999997,568
121810,184644,223067,-3.7866417645,8.6165541826,2.7182464736,569
122098,184732,223102,-3.8380874503999998,8.7146599092,2.7684957482,570
122407,184740,223184,-3.6765719249,8.5974116018,2.8115665549999997,571
122336,184619,223099,-3.9134613623,8.748159425599999,2.7625136916999997,572
121684,184383,222950,-3.8309089826,8.745766603,2.7182464736,573
120881,184268,222856,-3.7040893848,8.662017812,2.8402804262,574
120220,184162,222824,-3.8871403137,8.530412569000001,2.9515466771,575
119795,184118,222782,-3.7567314819999997,8.7876409985,2.835494781,576
119659,184143,222798,-3.8356946278,8.6835532154,2.7864419177,577
119793,184191,222798,-3.7423745464,8.7314096674,2.6931218363,578
120058,184296,222880,-3.912264951,8.5005022865,2.8079773211,579
120278,184333,222952,-3.9577285803999995,8.7050886188,2.7589244578,580
120428,184303,222979,-3.7459637803,8.5854474888,2.8091737324,581
120573,184365,222976,-3.7052857961,8.7050886188,2.7661029256000003,582
120693,184416,222981,-3.7280176108,8.7409809578,2.6297120374,583
120977,184475,223070,-3.8045879339999997,8.7445701917,2.8402804262,584
121208,184505,223095,-4.3513478981,8.721838377,3.3846475676999996,585
121488,184537,223144,-3.6921252718,8.7194455544,2.8163522002,586
121735,184527,223185,-3.7088750299999997,8.7768732968,2.7649065143000002,587
121997,184584,223204,-3.7854453531999996,8.7146599092,2.7601208691,588
122212,184564,223233,-3.8309089826,8.5854474888,2.7936203855,589
122042,184410,223149,-3.8584264425,8.697910151,2.656033086,590
121484,184218,223021,-3.7100714413,8.6069828922,2.7373890544,591
120874,184029,222956,-3.6993037396,8.5591264402,2.7780670386,592
120503,183903,222843,-3.8021951114,8.806783579300001,2.7780670386,593
120428,183868,222836,-3.4779676491,8.6931245058,2.7960132080999998,594
120547,183858,222847,-3.6550365215,8.8953180155,2.6416761504,595
120718,183849,222848,-3.5497523270999998,8.8127656358,2.7625136916999997,596
120924,183893,222893,-3.7016965622000004,8.7948194663,2.7206392962,597
121088,183910,222884,-3.7399817238,8.7373917239,2.6584259086,598
121287,183956,222888,-3.8249269261,8.761319949899999,2.5555345367999998,599
121439,184060,222963,-3.6538401101999995,8.6727855137,2.6416761504,600
121617,184145,222976,-3.5306097463,8.7960158776,2.7912275628999996,601
121866,184257,223057,-3.6897324492,8.7888374098,2.6512474407999997,602
122148,184324,223085,-3.505485109,8.85344362,2.6979074815,603
122409,184428,223162,-3.5940195452,8.7840517646,2.5926232871,604
122742,184463,223226,-3.6717862797,8.6847496267,2.7493531674,605
122978,184372,223261,-3.7674991837,8.6512501103,2.6703900216,606
122789,184266,223155,-3.6394831745999996,8.8343010392,2.6739792555000004,607
122046,183947,222937,-3.6753755136,8.7852481759,2.7266213527,608
121313,183626,222762,-3.7064822074,8.6440716425,2.7278177639999996,609
120890,183479,222627,-3.7758740628,8.7194455544,2.6033909887999998,610
120762,183522,222628,-3.7567314819999997,8.6703926911,2.6668007876999997,611
120885,183607,222692,-3.5940195452,8.640482408599999,2.6273192148,612
121139,183742,222813,-3.649054465,8.685946038,2.7230321187999995,613
121398,183910,222894,-3.732803256,8.6751783363,2.7266213527,614
121671,183984,222973,-3.5306097463,8.8247297488,2.7302105866,615
121886,184099,222970,-3.5772697869999996,8.707481441399999,2.7900311516,616
122085,184076,222999,-3.6059836581999996,8.707481441399999,2.6249263922,617
122307,184199,223110,-3.8093735792,8.7912302324,2.608176634,618
122482,184251,223121,-3.7076786186999997,8.6907316832,2.6344976826,619
122718,184329,223160,-3.7052857961,8.6919280945,2.7170500623000002,620
122961,184433,223221,-3.5748769644,8.9048893059,2.6823541346,621
123153,184451,223284,-3.5928231339,8.8450687409,2.6739792555000004,622
123018,184276,223116,-3.7746776515,8.7385881352,2.6249263922,623
122223,183963,222903,-3.6897324492,8.7122670866,2.6464617955999996,624
121290,183620,222751,-3.637090352,8.8115692245,2.703889538,625
120524,183393,222571,-3.5545379723,8.8008015228,2.6703900216,626
120041,183332,222527,-3.7615171272,8.8103728132,2.5986053435999996,627
119832,183327,222517,-3.8093735792,8.7924266437,2.7122644171,628
119900,183411,222569,-3.6729826909999996,8.8522472087,2.608176634,629
120089,183573,222665,-3.7375889012,8.7314096674,2.6404797391000003,630
120297,183641,222722,-3.7663027724,8.8247297488,2.6620151425,631
120475,183708,222774,-3.5665020853000002,8.859425676499999,2.6632115538,632
120624,183793,222844,-3.5497523270999998,8.7984087002,2.6895326024,633
120834,183911,222879,-3.613162126,8.7960158776,2.6632115538,634
121106,183998,222973,-3.5521451497000003,8.8486579748,2.6775684894,635
121338,184003,222972,-3.6777683362,8.7433737804,2.6955146589,636
121629,184019,223047,-3.7375889012,8.185846114599999,3.0161528873,637
121896,184001,223090,-3.5593236175,8.6967137397,2.5184457865,638
121741,183786,222957,-3.6059836581999996,8.7756768855,2.5016960283,639
120966,183433,222771,-3.6562329328,8.7888374098,2.6344976826,640
119944,182981,222418,-3.6059836581999996,8.7302132561,2.6380869165,641
119095,182585,222203,-3.7016965622000004,8.819944103600001,2.715853651,642
118468,182448,222105,-3.6897324492,8.752945070800001,2.6608187311999996,643
118184,182438,222117,-3.6574293441,8.6691962798,2.6608187311999996,644
118179,182564,222170,-3.5796626096,8.7864445872,2.6392833278,645
118333,182745,222288,-3.6813575701,8.885746725099999,2.5842484079999997,646
118588,182846,222326,-3.5688949079,8.7589271273,2.691925425,647
118793,182886,222374,-3.6514472876,8.8498543861,2.6273192148,648
118968,182947,222408,-3.4301111971,8.7541414821,2.5830519966999996,649
119171,183035,222490,-3.6634114006,8.7637127725,2.7050859493,650
119395,183037,222510,-3.7052857961,8.7840517646,2.6907290137,651
119639,183015,222503,-3.5748769644,8.752945070800001,2.7098715945,652
119884,183036,222552,-3.6346975294,8.7876409985,2.6548366747000003,653
120165,183099,222572,-3.6000016017000003,8.781658942,2.6931218363,654
120320,183100,222594,-3.6191441825000004,8.9288175319,2.6057838114000003,655
119851,182889,222441,-3.4133614389,8.6883388606,2.6249263922,656
119021,182486,222213,-3.5461630932,8.8953180155,2.7290141752999997,657
118023,182055,221971,-3.7088750299999997,8.7756768855,2.7122644171,658
117226,181855,221769,-3.5928231339,8.8450687409,2.6033909887999998,659
116843,181791,221752,-3.6107693033999997,8.8546400313,2.6895326024,660
116716,181829,221747,-3.7016965622000004,8.7948194663,2.6129622792,661
116869,181954,221848,-3.5294133349999997,8.7984087002,2.7218357075,662
117151,182058,221916,-3.5282169237,8.8127656358,2.6787649007,663
117438,182128,221981,-3.5425738593,8.757730716,2.5818555854,664
117669,182172,222063,-3.6083764808,8.9336031771,2.7242285301,665
117856,182229,222117,-3.6562329328,8.8522472087,2.6799613119999997,666
118118,182273,222169,-3.6610185779999997,8.7720876516,2.560320182,667
118344,182372,222202,-3.6023944243,8.9336031771,2.6297120374,668
118580,182478,222232,-3.6203405937999995,8.8989072494,2.6249263922,669
118892,182588,222344,-3.4923245847,8.7960158776,2.5866412306,670
119199,182638,222343,-3.5282169237,8.7349989013,2.6177479243999997,671
119480,182696,222450,-3.7064822074,8.841479506999999,2.5938196984,672
119372,182589,222355,-3.5916267225999996,8.889335959,2.667997199,673
118536,182255,222160,-3.5964123677999997,8.8474615635,2.6847469572,674
117575,181870,221909,-3.4995030524999997,8.8486579748,2.6165515131,675
116796,181597,221723,-3.6394831745999996,8.8402830957,2.6129622792,676
116316,181453,221640,-3.5796626096,8.817551281,2.6009981662,677
116107,181459,221664,-3.5138599880999997,8.8366938618,2.6033909887999998,678
116242,181633,221767,-3.5509487384000002,8.930013943199999,2.6129622792,679
116564,181840,221876,-3.5605200288,8.7541414821,2.5674986498,680
116902,181991,221984,-3.4516466004999997,8.8486579748,2.6225335696,681
117213,182207,222100,-3.4923245847,8.793623055,2.620140747,682
117493,182293,222141,-3.6550365215,8.8666041443,2.6297120374,683
117819,182426,222255,-3.5365918028000003,8.846265152199999,2.5782663514999995,684
118255,182706,222319,-3.6071800695,8.8008015228,2.5986053435999996,685
118684,182918,222444,-3.6658042232,8.7828553533,2.548356069,686
119151,183264,222598,-3.6239298277,8.8450687409,2.5543381254999997,687
119738,183511,222770,-3.4683963587,8.6763747476,2.4909283265999997,688
120281,183687,222894,-3.5318061576,8.781658942,2.4909283265999997,689
120820,183774,222981,-3.4277183745,8.8498543861,2.620140747,690
121196,183707,222974,-3.6275190616,8.8630149104,2.5507488916,691
121018,183287,222787,-3.4887353508000003,8.7637127725,2.5543381254999997,692
120124,182634,222367,-3.6346975294,8.8271225714,2.6117658679000004,693
119123,182203,222066,-3.5772697869999996,8.846265152199999,2.5555345367999998,694
118442,182085,221959,-3.6418759972,8.9359959997,2.6213371583000002,695
118018,182052,221940,-3.4875389395,8.805587167999999,2.5674986498,696
117999,182169,221983,-3.4899317621,8.846265152199999,2.6368905052,697
118146,182286,222088,-3.4947174072999996,8.9814596291,2.5854448193,698
118398,182351,222140,-3.4516466004999997,8.9479601127,2.6416761504,699
118588,182360,222183,-3.5940195452,8.9347995884,2.5734807063,700
118757,182428,222234,-3.5234312785000004,8.7290168448,2.5770699402,701
118930,182429,222228,-3.6789647475,8.9228354754,1.9525432416,702
119120,182410,222248,-3.541377448,8.8977108381,2.6117658679000004,703
119375,182451,222299,-3.4600214796,8.916853418899999,2.6189443356999997,704
119585,182392,222266,-3.4002009146,8.9156570076,2.4969103831,705
119875,182430,222245,-3.4767712378,8.859425676499999,2.5076780847999998,706
120175,182435,222334,-3.7160534978000004,8.8390866844,2.5339991334,707
120298,182423,222283,-3.5018958750999998,9.000602209899998,2.5866412306,708
119850,182206,222159,-3.3846475676999996,8.8989072494,2.4514467537,709
118986,181907,221936,-3.4815568829999997,8.9120677737,2.5160529638999996,710
118196,181594,221731,-3.5042886977,8.781658942,2.5890340532,711
117632,181348,221565,-3.5832518435,8.8905323703,2.6321048599999997,712
117319,181313,221554,-3.4229327293,8.925228298,2.5220350203999997,713
117273,181410,221555,-3.385843979,8.901300072,2.5531417142,714
117506,181531,221687,-3.3990045032999996,8.952745757899999,2.5794627628,715
117851,181657,221832,-3.5294133349999997,8.7720876516,2.5842484079999997,716
118125,181661,221827,-3.4660035360999997,8.8821574912,2.560320182,717
118324,181703,221885,-3.4731820039,8.8139620471,2.5363919559999997,718
118517,181659,221899,-3.5030922864000003,8.8606220878,2.4418754632999997,719
118716,181876,221930,-3.4420753101,8.8079799906,2.5244278430000002,720
119005,181947,222042,-3.4372896648999998,9.010173500299999,2.5782663514999995,721
119253,181979,222069,-3.565305674,9.0137627342,2.5986053435999996,722
119541,181994,222083,-3.5270205124,8.8989072494,2.5651058272,723
119778,182108,222116,-3.3834511564,8.901300072,2.4933211492,724
120096,182226,222257,-3.4959138186,8.8402830957,2.596212521,725
120410,182294,222311,-3.3104700671000002,8.8522472087,2.560320182,726
120675,182309,222368,-3.5844482548,9.0628155975,2.6177479243999997,727
120654,182230,222227,-3.3786655112000004,8.9036928946,2.5304098995,728
119950,181907,222015,-3.5030922864000003,8.7792661194,2.5172493752,729
118976,181543,221818,-3.4600214796,8.8917287816,2.5220350203999997,730
118123,181345,221646,-3.5569307949000004,8.8498543861,2.5914268758000003,731
117525,181219,221548,-3.4767712378,8.939585233599999,2.5627130046,732
117237,181217,221542,-3.4636107135,8.9551385805,2.51246373,733
117284,181283,221615,-3.2985059541,8.9874416856,2.3976082452,734
117568,181392,221680,-3.2626136151000003,8.8678005556,2.6117658679000004,735
117893,181577,221749,-3.4408788988000003,8.9144605963,2.5651058272,736
118138,181664,221842,-3.5341989802,9.0580299523,2.5651058272,737
118394,181758,221899,-3.4061829711000002,8.9515493466,2.5507488916,738
118641,181781,221973,-3.5425738593,8.9120677737,2.4813570362,739
118916,181869,221982,-3.3559336964999997,8.7349989013,2.4837498588,740
119159,181917,222074,-3.3655049869,8.9228354754,2.4981067944,741
119466,182006,222098,-3.4205399067,8.9671026935,2.5926232871,742
119746,182100,222137,-3.4384860762,8.8498543861,2.5663022385,743
120069,182218,222220,-2.8881368781999996,8.6572321668,1.6534404165999999,744
120391,182405,222349,-3.4803604716999996,8.9036928946,2.5507488916,745
120697,182463,222388,-3.3762726886,8.7373917239,2.6285156261,746
120764,182429,222352,-3.3547372851999997,8.8666041443,2.5148565526000004,747
120284,182110,222150,-3.3786655112000004,8.876175434699999,2.4945175605000003,748
119386,181758,221918,-3.1980074049,8.8821574912,2.5519453029,749
118533,181524,221715,-3.3092736558,8.8582292652,2.5148565526000004,750
117896,181307,221602,-3.2171499857,8.937192411,2.4693929232,751
117535,181273,221570,-3.1776684127999997,8.8821574912,2.4035903017,752
117533,181322,221591,-3.385843979,8.930013943199999,2.4598216327999998,753
117779,181355,221671,-3.1417760738,8.6919280945,2.6775684894,754
118074,181496,221708,-3.3583265191000002,8.9515493466,2.5854448193,755
118338,181568,221751,-3.290131075,8.872586200799999,2.5208386090999997,756
118554,181606,221785,-3.1848468806000003,8.9192462415,2.4418754632999997,757
118715,181650,221845,-3.3786655112000004,8.8989072494,2.6847469572,758
118987,181637,221831,-3.2315069213,8.930013943199999,2.6093730453,759
119236,181685,221874,-3.2051858726999995,8.9240318867,2.4598216327999998,760
119470,181666,221867,-3.2853454298,9.0053878551,2.4059831243,761
119750,181706,221898,-3.2315069213,8.9515493466,2.452643165,762
120002,181750,221931,-3.1884361145,8.9946201534,2.6045874001,763
120302,181722,221983,-3.2805597846,8.9383888223,2.5028924396,764
120591,181838,222042,-3.2518459134,8.9946201534,2.3282163898,765
120820,181851,222054,-3.3942188581,9.081958178299999,2.4681965119,766
120538,181706,221908,-3.3559336964999997,8.9036928946,2.51246373,767
119669,181369,221714,-3.2709884942,9.019744790699999,2.5100709074,768
118715,181027,221462,-3.2877382523999996,8.9084785398,2.5196421978,769
117911,180830,221306,-3.1405796625,8.9551385805,2.5328027221,770
117447,180723,221259,-3.2518459134,9.0628155975,2.5686950610999997,771
117271,180692,221232,-3.1872397032,9.0257268472,2.5555345367999998,772
117424,180797,221291,-3.2709884942,9.041280194099999,2.5292134882000004,773
117711,180931,221328,-3.1848468806000003,8.9802632178,2.4610180441000002,774
118048,181020,221459,-3.1908289370999996,9.008977089,2.4454646972,775
118312,181075,221448,-3.3571301077999998,9.0125663229,2.4837498588,776
118517,180992,221543,-3.2530423247,8.9958165647,2.5639094158999995,777
118769,181140,221551,-2.6871397798,8.7996051115,2.3868405435,778
119013,181238,221554,-3.0257241777000004,8.9682991048,2.500499617,779
119293,181324,221671,-3.2446674455999998,8.8881395477,2.488535504,780
119637,181364,221707,-3.3200413575,8.9874416856,2.4670001006,781
119888,181393,221756,-3.2135607518000002,9.0735832992,2.4622144554,782
120175,181515,221746,-3.1537401868,8.9826560404,2.4705893345,783
120510,181554,221834,-3.1357940173,9.0747797105,2.548356069,784
120796,181685,221889,-3.0903303879,9.109475638200001,2.5136601413,785
120931,181703,221879,-3.2733813167999997,9.0053878551,2.4622144554,786
120513,181496,221709,-3.1621150658999997,9.117850517299999,2.4574288102,787
119592,181177,221519,-3.1657042998000002,9.0843510009,2.4981067944,788
118616,180857,221291,-3.2243284535,8.8259261601,2.4418754632999997,789
117906,180662,221205,-3.1142586138999997,9.050851484499999,2.4478575198,790
117500,180707,221140,-3.2255248647999997,9.0185483794,2.4143580034,791
117378,180687,221151,-3.1920253483999996,8.8977108381,2.6476582069,792
117564,180854,221255,-3.1908289370999996,8.8079799906,2.703889538,793
117893,181002,221336,-3.1513473642000003,8.9587278144,2.5328027221,794
118174,181065,221402,-3.0041887742999998,9.0257268472,2.5040888509,795
118406,181163,221413,-3.146561719,8.9647098709,2.4741785684,796
118620,181265,221470,-3.0209385325,8.9359959997,2.4933211492,797
118850,181358,221556,-3.1202406704,9.0017986212,2.5387847786,798
119173,181438,221630,-3.0735806297,9.0257268472,2.4382862294,799
119447,181540,221644,-3.1740791789,8.9419780562,2.4215364712,800
119746,181558,221694,-3.098705267,9.068797654,2.4263221164,801
119995,181646,221759,-3.1920253483999996,9.0185483794,2.4981067944,802
120366,181759,221844,-3.1082765574000004,9.050851484499999,2.4957139718,803
120694,181830,221850,-3.0927232105,9.1800639049,2.4418754632999997,804
120991,181926,221957,-3.1393832512,8.939585233599999,2.4634108667000003,805
121216,181995,221988,-3.1884361145,9.0017986212,2.5244278430000002,806
120859,181743,221869,-3.1549365981,9.1322074529,2.4921247379,807
119990,181459,221640,-3.1525437755,8.9874416856,2.4945175605000003,808
118974,181142,221344,-3.1776684127999997,8.9563349918,2.4574288102,809
118170,180951,221288,-3.0699913958000002,9.006584266399999,2.5208386090999997,810
117690,180918,221226,-3.1393832512,8.8307118053,2.4993032057,811
117518,180910,221245,-3.1226334930000004,8.9635134596,2.3880369548,812
117678,180999,221321,-3.3798619225,9.3367937852,2.4670001006,813
117972,181030,221386,-3.1238299043,9.0161555568,2.5316063108,814
118258,181215,221446,-3.3200413575,9.2374916473,2.1547367513,815
118518,181345,221548,-4.4614177377,9.661021247499999,1.7419748528,816
118781,181482,221591,-3.0520452262999997,9.140582332,2.4753749797,817
119061,181534,221651,-3.0257241777000004,9.148957211099999,2.404786713,818
119342,181627,221712,-3.1010980895999998,8.9048893059,2.3928226,819
119609,181656,221724,-3.1609186546,8.9659062822,2.5423740125,820
119917,181706,221775,-3.1884361145,8.985048863000001,2.4562323989,821
120236,181802,221803,-3.0747770410000004,9.0352981376,2.5052852621999997,822
120524,181894,221928,-3.1764720014999996,8.970691927399999,2.4777678023000003,823
120851,181924,221898,-3.0735806297,9.153742856300001,2.404786713,824
121158,181967,221922,-3.0484559924,9.056833541,2.3509482045,825
121376,181982,221957,-3.2626136151000003,9.050851484499999,2.3700907853,826
121159,181852,221894,-3.1226334930000004,9.037690960199999,2.4071795356,827
120363,181545,221669,-3.1154550251999997,9.068797654,2.4957139718,828
119409,181228,221447,-3.158525832,9.0999043478,2.416750826,829
118621,181074,221273,-3.086741154,8.9994057986,2.4311077616,830
118128,180942,221223,-3.2051858726999995,9.0616191862,2.4598216327999998,831
117947,181000,221194,-3.0412775246,9.0305124924,2.4574288102,832
118016,181074,221247,-3.2913274863,9.0125663229,2.4119651808,833
118309,181224,221381,-3.0819555088,9.041280194099999,2.4251257050999997,834
118628,181319,221490,-3.1058837348,9.0185483794,2.3485553819,835
118844,181380,221512,-3.1082765574000004,9.1477607998,2.5495524802999996,836
119074,181419,221520,-3.0329026454999997,8.983852451699999,2.4454646972,837
119268,181498,221575,-2.9970103065,8.865407733,2.4442682859,838
119473,181570,221605,-3.0281170003,9.0077806777,2.4215364712,839
119768,181639,221601,-3.062812928,8.9922273308,2.4538395763,840
120031,181668,221706,-3.0604201053999995,9.0676012427,2.4945175605000003,841
120337,181732,221689,-2.9611179675,8.9898345082,2.3497517932000003,842
120621,181795,221742,-3.2626136151000003,8.9455672901,2.404786713,843
120892,181920,221846,-3.0771698636,9.0735832992,2.4191436486,844
121160,181954,221889,-2.8642086522,9.1441715659,2.4741785684,845
120904,181812,221801,-3.1058837348,8.997012975999999,2.3545374384,846
120106,181493,221593,-3.1728827676,9.0891366461,2.4849462701,847
119205,181208,221351,-3.038884702,8.9778703952,2.4897319153,848
118411,180944,221137,-3.0472595810999996,8.9192462415,2.4143580034,849
117954,180900,221047,-2.9503502657999996,9.1369930981,2.452643165,850
117839,180963,221118,-3.0173492985999997,8.9288175319,2.5064816735,851
118046,181018,221255,-3.1154550251999997,9.0867438235,2.4239292938,852
118329,181120,221317,-3.194418171,9.2087777761,2.4861426814,853
118514,181185,221329,-3.4660035360999997,8.7708912403,3.3990045032999996,854
118515,181529,221265,-3.2961131315000003,9.345168664300001,2.7732813934,855
117589,181612,220678,-2.8821548217,9.8955178623,2.7852455064000003,856
114811,181393,219576,-2.5950161097,9.5617191096,3.2889346637,857
112419,180889,218622,-2.5950161097,8.7864445872,3.3990045032999996,858
111221,180306,218104,-2.0781664281,7.9106715156,3.7758740628,859
110690,179846,217906,-1.9106688461,7.4584280442,3.7926238210000003,860
110284,179434,217821,-1.5924234403000002,7.2598237683999995,2.7469603447999997,861
110027,179403,217824,-1.3579268255,7.6055866341,3.6382867633,862
109969,179554,217976,-1.1401799688999998,8.0662049846,4.1958144290999995,863
110223,179792,218087,-0.8841479507000001,8.7840517646,3.6430724085,864
110492,179833,217942,-0.7190431913,10.1156575415,3.1010980895999998,865
110746,180113,217796,-0.33738798659999997,10.4829558106,3.0891339766000003,866
110688,180200,217721,-0.442672181,10.6863457316,2.608176634,867
110569,180386,217928,-0.7214360139,10.254441252300001,2.4801606249,868
110483,180659,218354,-1.3950155758,9.2985086236,2.7589244578,869
110541,181222,219080,-1.5601203352,8.9671026935,2.8474588940000003,870
110717,181758,219758,-1.2574282763000002,9.3104727366,2.4969103831,871
110506,181856,219894,-0.8099704500999999,9.6837530622,2.1487546948,872
110397,182437,220020,-1.7982061838999999,9.710074110799999,2.0183458631,873
110674,182874,220129,-1.6773686425999998,9.8309116521,1.7694923127,874
111021,182915,219981,-1.2837493249,9.8404829425,2.0087745727,875
111396,183045,220025,-1.5254244074999999,9.5940222147,2.1439690496,876
111876,183245,220046,-1.4141581566,9.4253282214,1.9645073545999998,877
112365,183464,220141,-1.7096717476999999,9.5688975774,1.9788642901999998,878
112910,183731,220275,-1.615155255,9.6023970938,1.9704894111,879
113446,184027,220484,-1.5230315848999998,9.5856473356,2.0638094925,880
113943,184265,220681,-1.4321043261,9.7184489899,2.0243279196,881
114397,184471,220889,-1.639083481,9.5162554802,1.9692929998,882
114474,184506,220909,-1.5876377951,9.6765745944,1.8376877568,883
113939,184354,220824,-1.7300107398,9.5617191096,1.9154544913,884
113029,184132,220679,-1.4189438018,9.4911308429,2.0195422744,885
112223,183948,220582,-1.5098710606,9.4899344316,2.0327027987,886
111619,183840,220563,-1.603191142,9.3966143502,1.938186306,887
111293,183755,220482,-1.8305092889999999,9.6765745944,1.91425808,888
111276,183758,220468,-1.6223337227999999,9.6000042712,2.0350956213,889
111542,183882,220539,-1.5828521499000001,9.5485585853,2.1200408236,890
111958,183938,220642,-1.6187444889,9.5437729401,2.0865413072,891
112321,184082,220743,-1.5876377951,9.468399028199999,2.0673987264,892
112630,184141,220832,-1.6881363443,9.6059863277,1.9740786449999999,893
112879,184174,220857,-1.6582260617999998,9.5784688678,1.9477575963999998,894
113171,184232,220896,-1.7635102562,9.4827559638,1.9884355805999998,895
113518,184338,220950,-1.5972090855,9.3750789468,2.1260228801,896
113850,184425,221008,-1.734796385,9.6562356023,2.0171494518,897
114283,184547,221136,-1.7563317884,9.340383019099999,1.9692929998,898
114682,184675,221294,-1.6546368279,9.3355973739,1.9597217094,899
115098,184809,221355,-1.7599210223,9.549754996599999,1.9094724347999998,900
115467,184840,221409,-1.7682959014000001,9.675378183100001,2.03389921,901
115494,184788,221377,-1.7120645703,9.4719882621,1.9046867896,902
114901,184601,221289,-1.7084753364,9.5617191096,1.9860427579999997,903
113976,184274,221020,-1.6522440053,9.6526463684,1.9501504189999999,904
113123,183988,220896,-1.8807585636,9.456434915200001,1.782652837,905
112590,183817,220756,-1.7682959014000001,9.5030949559,1.9453647738,906
112342,183772,220771,-1.7503497318999999,9.5617191096,1.9429719511999999,907
112394,183775,220779,-1.8735800958,9.5581298757,1.9585252981,908
112676,183871,220856,-1.8568303376,9.5401837062,1.8687944506,909
113001,184013,220972,-1.6953148121,9.5018985446,1.8831513862,910
113391,184138,221096,-1.5840485612,9.4325066892,1.9429719511999999,911
113680,184259,221260,-1.8568303376,9.5306124158,2.0434705004000002,912
113943,184344,221334,-1.9190437251999999,9.5916293921,1.8448662246,913
114235,184396,221364,-1.8017954178,9.4348995118,1.8652052167000002,914
114530,184479,221437,-1.7958133612999998,9.5449693514,1.9932212258000002,915
114849,184555,221550,-1.7970097726,9.5724868113,1.9525432416,916
115219,184732,221637,-1.7814564256999998,9.4540420926,1.8161523534,917
115630,184752,221760,-2.1619152191,9.5330052384,1.9274186043000001,918
115981,184926,221841,-1.9525432416,9.4097748745,1.7694923127,919
116343,184993,221861,-1.8412769907000002,9.5605226983,2.0374884439,920
116308,184899,221753,-1.7563317884,9.5868437469,1.9429719511999999,921
115747,184643,221625,-1.7252250946,9.535398061,1.9812571127999998,922
114853,184393,221454,-1.7922241274,9.7016992317,1.8771693297,923
114120,184241,221237,-2.2085752598,9.468399028199999,1.8029918290999998,924
113532,184132,221072,-2.1882362677000002,9.2793660428,1.7838492483,925
113437,184220,221133,-2.2660030021999997,9.2985086236,2.0733807828999997,926
113680,184412,221263,-1.9657037659,9.4097748745,2.0650059038,927
114116,184595,221449,-2.0003996936,9.6729853605,1.5230315848999998,928
114554,184662,221531,-1.842473402,8.7361953126,2.6596223199,929
114927,184743,221639,-2.0757736055,9.4253282214,2.0147566292,930
115325,184731,221682,-2.0279171535,9.3583291886,2.2049860259000003,931
115653,184753,221735,-2.2480568327,9.420542576199999,2.2037896146,932
115930,184668,221667,-2.1583259852,9.3726861242,2.1343977592,933
116117,184587,221448,-1.9405791285999998,9.5198447141,2.0530417908,934
116307,184609,221382,-1.9633109433,9.475577496,2.1463618722,935
116633,184729,221430,-2.0027925162,9.320044027,2.1762721547,936
117069,184907,221555,-2.045863323,9.415756931,2.2384855423,937
117453,185080,221702,-2.2803599377999997,9.518648302799999,2.0913269524,938
117558,185036,221724,-2.1750757434,9.3164547931,2.1786649773,939
117051,184821,221636,-1.9190437251999999,9.4480600361,2.0350956213,940
116234,184643,221487,-1.998006871,9.4337031005,2.1080767106,941
115515,184445,221464,-2.1954147355,9.4480600361,2.105683888,942
114964,184351,221455,-2.2636101795999997,9.3894358824,2.2061824372,943
114633,184344,221334,-2.093719775,9.4983093107,2.2061824372,944
114619,184258,221337,-2.0673987264,9.5509514079,2.1152551784,945
114838,184351,221366,-1.9908284031999999,9.4492564474,2.1786649773,946
115148,184540,221545,-2.1104695332,9.3607220112,2.1882362677000002,947
115449,184660,221673,-2.1463618722,9.4325066892,2.0398812665,948
115689,184735,221690,-2.1966111468,9.3583291886,2.2085752598,949
115880,184754,221764,-2.0482561456,9.391828705,2.1188444122999996,950
116092,184794,221762,-2.0482561456,9.4935236655,2.1499511061,951
116355,184856,221802,-2.1786649773,9.439685157,2.1678972756,952
116654,184919,221784,-2.0087745727,9.3643112451,2.1678972756,953
116993,185061,221891,-2.1487546948,9.4325066892,2.2265214293,954
117343,185101,221975,-2.1355941704999997,9.4049892293,2.1367905818,955
117652,185164,221991,-2.1798613886,9.4420779796,2.1487546948,956
117502,185024,221927,-2.1966111468,9.4923272542,2.1702900981999997,957
116792,184723,221843,-1.9740786449999999,9.455238503899999,2.1702900981999997,958
115834,184543,221665,-2.0662023151,9.438488745699999,2.1128623558,959
114951,184371,221520,-2.0542382021,9.3643112451,2.1559331626,960
114319,184260,221445,-2.1678972756,9.499505722,2.1403798157,961
113979,184230,221364,-2.1547367513,9.3188476157,2.0961125976,962
114007,184299,221468,-2.0781664281,9.3655076564,2.1750757434,963
114287,184423,221536,-2.189432679,9.3954179389,2.2157537276,964
114586,184518,221648,-2.0422740890999997,9.4265246327,2.1487546948,965
114889,184654,221710,-2.237289131,9.5054877785,2.15354034,966
115086,184649,221731,-2.2576281231,9.384650237199999,2.1786649773,967
115318,184644,221770,-2.0757736055,9.399007172800001,2.1559331626,968
115605,184791,221808,-2.1607188078,9.4253282214,2.1643080417,969
115891,184907,221906,-2.0327027987,9.4348995118,2.1343977592,970
116225,184971,221976,-2.1212372348999997,9.4624169717,2.1607188078,971
116577,185030,222029,-2.1643080417,9.3750789468,2.1559331626,972
116855,185073,222016,-2.1367905818,9.3020978575,2.177468566,973
117213,185153,222048,-2.2624137683,9.367900479,2.2061824372,974
117305,185126,222085,-2.2779671152,9.5437729401,2.105683888,975
116701,184918,221980,-2.1499511061,9.3415794304,2.2384855423,976
115712,184677,221862,-2.27318147,9.3499543095,2.1607188078,977
114697,184437,221669,-2.2229321954,9.286544510599999,2.189432679,978
113973,184309,221618,-2.213360905,9.464809794299999,2.1152551784,979
113550,184252,221572,-2.2504496553,9.4444708022,2.15354034,980
113487,184320,221626,-2.3126630429,9.410971285799999,2.2600209457,981
113683,184419,221656,-2.1786649773,9.3296153174,2.1942183242,982
113925,184443,221727,-2.1260228801,9.438488745699999,2.1750757434,983
114168,184579,221756,-2.0925233637,9.3774717694,2.177468566,984
114471,184640,221809,-2.3138594542,9.367900479,2.2420747762,985
114708,184707,221870,-2.2540388892,9.4193461649,2.0961125976,986
114947,184730,221850,-2.2947168733999996,9.371489712899999,2.093719775,987
115254,184822,221855,-2.2899312282,9.4911308429,2.1738793321000003,988
115569,184870,221917,-2.2648065909,9.3475614869,2.0841484846,989
115955,184971,222014,-2.2683958248,9.5306124158,2.0865413072,990
116307,185036,222090,-2.2241286067,9.3020978575,2.237289131,991
116668,185128,222108,-2.2983061073,9.2350988247,2.2169501389,992
117007,185135,222128,-2.3820548983,9.2781696315,2.1918255016,993
116793,184998,222076,-2.15354034,9.3463650756,2.1547367513,994
115949,184763,221903,-2.2540388892,9.455238503899999,2.1750757434,995
114953,184522,221800,-2.2073788485,9.2925265671,2.1990039694,996
114002,184335,221676,-2.3928226,9.4456672135,2.1786649773,997
113368,184195,221544,-2.2420747762,9.353543543399999,2.0961125976,998
113115,184191,221535,-2.1750757434,9.327222494799999,2.2492532439999997,999
113210,184261,221665,-2.2360927197000002,9.3248296722,2.1607188078,1000
113521,184367,221673,-2.3353948576,9.3834538259,2.093719775,1001
113856,184459,221737,-2.2468604214,9.384650237199999,2.0793628394,1002
114232,184542,221759,-2.3341984463,9.3750789468,2.1726829208,1003
114462,184610,221848,-2.1942183242,9.438488745699999,2.2277178406,1004
114733,184658,221874,-2.2444675988,9.355936366,2.2839491717,1005
115040,184733,221912,-2.1379869930999997,9.376275358100001,2.189432679,1006
115351,184782,221949,-2.2779671152,9.3140619705,2.1367905818,1007
115655,184834,222012,-2.2755742926,9.3487578982,2.0626130812,1008
115957,184907,222048,-2.2325034857999997,9.3344009626,2.0985054202,1009
116421,185011,222132,-2.1451654609,9.397810761499999,2.1212372348999997,1010
116772,185070,222102,-2.1762721547,9.4911308429,2.2707886474,1011
117042,185053,222093,-2.237289131,9.4420779796,2.1128623558,1012
116817,184904,222017,-2.2157537276,9.451649269999999,2.1487546948,1013
116007,184731,221870,-2.1523439287,9.4265246327,2.225325018,1014
115047,184471,221717,-2.2875384056,9.4265246327,2.2348963083999998,1015
114265,184303,221637,-2.2289142519,9.4360959231,2.2277178406,1016
113787,184228,221595,-2.1834506225,9.4002035841,2.0889341298,1017
113596,184264,221638,-2.344966148,9.3607220112,2.225325018,1018
113783,184366,221703,-2.1308085253,9.3224368496,2.2157537276,1019
114065,184449,221714,-2.2995025186,9.4444708022,2.0566310246999997,1020
114316,184518,221804,-2.3617159062,9.3870430598,2.1128623558,1021
114557,184566,221831,-2.213360905,9.3786681807,2.0985054202,1022
114710,184561,221845,-2.2947168733999996,9.2015993083,2.2947168733999996,1023
115015,184627,221888,-2.1032910654,9.384650237199999,2.2588245344,1024
115289,184714,221921,-2.3018953412000003,9.3487578982,2.2528424779,1025
115618,184814,222072,-2.3078773977,9.2937229784,2.0769700168,1026
115973,184890,222096,-2.4861426814,9.355936366,2.1547367513,1027
116301,184945,222122,-2.189432679,9.3930251163,2.1966111468,1028
116638,185002,222123,-2.2384855423,9.2817588654,2.2755742926,1029
116930,185019,222124,-2.2755742926,9.4169533423,2.1224336462,1030
116631,184884,222126,-2.261217357,9.3607220112,2.141576227,1031
115758,184615,221958,-2.2456640101,9.3020978575,2.2432711875,1032
114752,184347,221714,-2.1427726383,9.236295236,2.2456640101,1033
113940,184160,221657,-2.213360905,9.2985086236,2.1918255016,1034
113470,184120,221622,-2.2229321954,9.3056870914,2.1463618722,1035
113345,184131,221592,-2.189432679,9.5282195932,2.2671994135,1036
113563,184252,221722,-2.3497517932000003,9.3463650756,2.1846470338,1037
113865,184326,221788,-2.3330020350000003,9.3882394711,2.0865413072,1038
114187,184476,221875,-2.2648065909,9.3655076564,2.1906290903,1039
114493,184522,221909,-2.285145583,9.3128655592,2.1200408236,1040
114709,184506,221874,-2.2564317118,9.2985086236,2.1750757434,1041
114983,184551,221895,-2.2396819536,9.3511507208,2.1332013479,1042
115234,184626,221982,-2.1810577999,9.403792818,2.2013967919999997,1043
115613,184684,222003,-2.2013967919999997,9.3954179389,2.1750757434,1044
115968,184803,222076,-2.2516460665999998,9.4217389875,2.2109680824,1045
116319,184885,222159,-2.2983061073,9.4025964067,2.2576281231,1046
116696,184941,222171,-2.2432711875,9.3607220112,2.1678972756,1047
117072,185017,222246,-2.2420747762,9.2506521716,2.2241286067,1048
117248,184995,222199,-2.0434705004000002,9.3571327773,2.2588245344,1049
116744,184780,222054,-2.2468604214,9.403792818,2.189432679,1050
115806,184525,221903,-2.3796620756999998,9.4217389875,2.2013967919999997,1051
114803,184285,221771,-2.4454646972,9.2697947524,2.1044874766999997,1052
114054,184109,221618,-2.1942183242,9.4313102779,2.1272192914,1053
113584,184033,221603,-2.1667008643,9.2709911637,2.2803599377999997,1054
113503,184080,221691,-2.2229321954,9.3068835027,2.2396819536,1055
113698,184162,221728,-2.3330020350000003,9.4576313265,2.1834506225,1056
113943,184188,221733,-2.2432711875,9.3391866078,2.0147566292,1057
114288,184311,221815,-2.4299113503,9.2817588654,2.3126630429,1058
114568,184394,221844,-2.2875384056,9.272187575,2.27318147,1059
114859,184457,221931,-2.3162522768000002,9.415756931,2.1248264688,1060
115157,184535,221982,-2.404786713,9.3523471321,2.165504453,1061
115438,184570,222044,-2.3904297774,9.3296153174,2.2313070745,1062
115758,184640,222015,-2.2109680824,9.296115801,2.2863419943,1063
116048,184695,222105,-2.2588245344,9.4887380203,2.2384855423,1064
116448,184801,222158,-2.2325034857999997,9.353543543399999,2.1798613886,1065
116835,184871,222235,-2.3114666316,9.296115801,2.2169501389,1066
117077,184930,222255,-2.2911276395,9.286544510599999,2.0733807828999997,1067
116995,184800,222153,-2.2779671152,9.427721044,2.1631116304,1068
116206,184433,222017,-2.0973090089,9.296115801,2.1978075581,1069
115188,184276,221842,-2.3306092124,9.353543543399999,2.237289131,1070
114272,184052,221691,-2.3736800192,9.4181497536,2.0973090089,1071
113646,183929,221631,-2.476571391,9.4313102779,2.2097716711,1072
113348,183919,221565,-2.2947168733999996,9.3643112451,2.1846470338,1073
113423,184008,221564,-2.285145583,9.272187575,2.1846470338,1074
113722,184136,221669,-2.3437697367,9.3511507208,2.3641087288000002,1075
114047,184239,221658,-2.4023938904,9.4612205604,2.2241286067,1076
114394,184287,221676,-2.4430718746,9.410971285799999,2.1152551784,1077
114705,184333,221716,-2.2875384056,9.3068835027,2.2313070745,1078
115017,184399,221751,-2.3030917525,9.4025964067,2.2791635265,1079
115373,184499,221781,-2.2480568327,9.274580397600001,2.2887348169,1080
115745,184599,221897,-2.3521446158,9.3655076564,2.2492532439999997,1081
116105,184697,222005,-2.488535504,9.3056870914,2.2289142519,1082
116488,184743,222030,-2.5136601413,9.2578306394,2.2516460665999998,1083
116845,184756,222007,-2.3270199785,9.3224368496,2.2348963083999998,1084
117257,184828,222016,-2.1583259852,9.384650237199999,2.3258235672,1085
117568,184887,222084,-2.4634108667000003,9.3726861242,2.3102702203,1086
117356,184761,222067,-2.4442682859,9.3068835027,2.1678972756,1087
116543,184487,221897,-2.3772692530999997,9.2685983411,2.141576227,1088
115535,184250,221714,-2.4957139718,9.4672026169,2.1104695332,1089
114661,184065,221552,-2.3497517932000003,9.343972252999999,2.2875384056,1090
114071,183984,221548,-2.1846470338,9.4229353988,2.2181465501999997,1091
113782,183935,221509,-2.4131615921,9.3583291886,2.1379869930999997,1092
113924,184062,221628,-2.3138594542,9.4408815683,2.1343977592,1093
114224,184157,221683,-2.3353948576,9.403792818,2.2588245344,1094
114581,184241,221768,-2.3186450994000003,9.4289174553,2.237289131,1095
114867,184312,221853,-2.4717857458,9.229116768199999,2.2085752598,1096
115137,184337,221797,-2.3521446158,9.332008140000001,2.1607188078,1097
115379,184442,221843,-2.4335005842,9.495916488099999,2.2420747762,1098
115694,184508,221868,-2.3868405435,9.2386880586,2.3150558654999998,1099
116034,184560,221908,-2.3377876802,9.3104727366,2.1260228801,1100
116401,184659,221941,-2.4239292938,9.343972252999999,2.2755742926,1101
116757,184726,222017,-2.4598216327999998,9.327222494799999,2.2157537276,1102
117134,184808,222075,-2.3258235672,9.3667040677,2.321037922,1103
117529,184859,222074,-2.3748764305,9.308079914,2.2420747762,1104
117903,184941,222155,-2.2839491717,9.5246303593,2.2037896146,1105
117983,184861,222061,-2.4873390927,9.4935236655,2.1870398563999998,1106
117370,184650,221975,-2.5112673187,9.2303131795,2.2360927197000002,1107
116363,184388,221731,-2.2193429615,9.3260260835,2.2743778813,1108
115427,184171,221560,-2.2289142519,9.286544510599999,2.3066809864,1109
114746,184037,221520,-2.4251257050999997,9.3822574146,2.2707886474,1110
114357,184017,221452,-2.416750826,9.1896351953,2.2695922361,1111
114345,184062,221505,-2.3952154226,9.2434737038,2.1846470338,1112
114563,184165,221478,-2.4622144554,9.3032942688,2.2444675988,1113
114860,184198,221535,-2.3485553819,9.3044906801,2.1858434451,1114
115131,184283,221507,-2.4035903017,9.4061856406,2.2803599377999997,1115
115361,184319,221460,-2.3509482045,9.3116691479,2.3473589706,1116
115624,184301,221489,-2.321037922,9.2793660428,2.2755742926,1117
115917,184311,221476,-2.3306092124,9.4348995118,2.1786649773,1118
116293,184420,221581,-2.4382862294,9.3511507208,2.2241286067,1119
116663,184568,221681,-2.4693929232,9.229116768199999,2.2408783649,1120
117069,184670,221738,-2.3306092124,9.2889373332,2.2348963083999998,1121
117417,184692,221695,-2.4610180441000002,9.3463650756,2.2540388892,1122
117765,184727,221711,-2.4801606249,9.4839523751,2.1427726383,1123
117964,184695,221694,-2.2217357841,9.340383019099999,2.2348963083999998,1124
117459,184503,221622,-2.4430718746,9.3427758417,2.2911276395,1125
116556,184237,221463,-2.3306092124,9.21236701,2.297109696,1126
115518,184065,221356,-2.4741785684,9.3379901965,2.3042881638,1127
114845,183857,221249,-2.440679052,9.2709911637,2.261217357,1128
114424,183819,221217,-2.5244278430000002,9.1728854371,2.261217357,1129
114373,183861,221209,-2.3928226,9.2027957196,2.2995025186,1130
114613,183987,221273,-2.3904297774,9.4911308429,2.2229321954,1131
114913,184093,221344,-2.4598216327999998,9.2638126959,2.3258235672,1132
115210,184082,221359,-2.4454646972,9.3248296722,2.2468604214,1133
115484,184237,221437,-2.5028924396,9.2805624541,2.2013967919999997,1134
115756,184275,221473,-2.4502503424,9.3631148338,2.2683958248,1135
116022,184345,221508,-2.3892333661,9.345168664300001,2.2995025186,1136
116341,184364,221538,-2.309073809,9.3032942688,2.1116659445,1137
116710,184499,221589,-2.3784656644,9.219545477799999,2.2049860259000003,1138
117060,184573,221705,-2.3078773977,9.309276325299999,2.3533410271,1139
117428,184662,221760,-2.4023938904,9.343972252999999,2.3018953412000003,1140
117819,184733,221784,-2.5268206656,9.3224368496,2.2157537276,1141
118190,184765,221765,-2.4909283265999997,9.1932244292,2.1870398563999998,1142
118439,184754,221822,-2.2588245344,9.4169533423,2.2767707039,1143
118159,184593,221698,-2.2671994135,9.2817588654,2.4083759468999997,1144
117253,184323,221592,-2.3126630429,9.4085784632,2.3892333661,1145
116188,184050,221419,-2.4993032057,9.3619184225,2.2827527603999997,1146
115233,183903,221293,-2.4610180441000002,9.3870430598,2.2707886474,1147
114599,183774,221210,-2.4442682859,9.2159562439,2.213360905,1148
114324,183811,221224,-2.4311077616,9.2506521716,2.3018953412000003,1149
114441,183885,221221,-2.4729821571,9.2267239456,2.2899312282,1150
114734,184018,221322,-2.5268206656,9.367900479,2.3605194949,1151
115062,184104,221339,-2.4574288102,9.2087777761,2.2707886474,1152
115319,184137,221352,-2.4693929232,9.248259349,2.3760728418,1153
115599,184184,221381,-2.452643165,9.4313102779,2.3880369548,1154
115884,184277,221451,-2.2959132847,9.3056870914,2.3234307446,1155
116188,184368,221513,-2.4693929232,9.2530449942,2.297109696,1156
116522,184425,221553,-2.4538395763,9.327222494799999,2.321037922,1157
116834,184491,221567,-2.3832513096,9.2434737038,2.2935204621,1158
117199,184545,221582,-2.4957139718,9.2889373332,2.3330020350000003,1159
117551,184594,221606,-2.5950161097,9.2937229784,2.2516460665999998,1160
117920,184620,221598,-2.5746771176,9.2793660428,2.261217357,1161
118150,184545,221514,-2.476571391,9.1848495501,2.4131615921,1162
117850,184308,221297,-2.4263221164,9.3475614869,2.4693929232,1163
117059,184143,221194,-2.416750826,9.3128655592,2.309073809,1164
116148,183931,221095,-2.4382862294,9.3511507208,2.3114666316,1165
115370,183791,221006,-2.5268206656,9.2051885422,2.3162522768000002,1166
114805,183707,220967,-2.5220350203999997,9.2685983411,2.3162522768000002,1167
114627,183689,220921,-2.4741785684,9.3116691479,2.3042881638,1168
114775,183764,220906,-2.3222343333,9.3344009626,2.3940190112999997,1169
115072,183842,220974,-2.4023938904,9.2817588654,2.3138594542,1170
115408,183952,221004,-2.4323041729,9.3690968903,2.3306092124,1171
115705,184053,221061,-2.5531417142,9.1848495501,2.3018953412000003,1172
115988,184121,221098,-2.5040888509,9.2913301558,2.321037922,1173
116253,184164,221160,-2.4490539311,9.265009107200001,2.3377876802,1174
116577,184234,221198,-2.6189443356999997,9.1453679772,2.3473589706,1175
116919,184269,221208,-2.4981067944,9.4169533423,2.4741785684,1176
117241,184313,221184,-2.4083759468999997,9.3475614869,2.3066809864,1177
117622,184433,221278,-2.404786713,9.2410808812,2.2755742926,1178
118019,184490,221335,-2.4981067944,9.117850517299999,2.4011974791,1179
118457,184582,221372,-2.4634108667000003,9.391828705,2.2947168733999996,1180
118811,184524,221414,-2.4825534475,9.2554378168,2.3186450994000003,1181
118699,184461,221338,-2.5459632464,9.3104727366,2.2947168733999996,1182
117990,184221,221161,-2.4454646972,9.220741889100001,2.2959132847,1183
117019,183998,221034,-2.4849462701,9.1573320902,2.3617159062,1184
116156,183842,221004,-2.5064816735,9.1860459614,2.344966148,1185
115494,183692,220865,-2.6368905052,9.265009107200001,2.2707886474,1186
115222,183691,220858,-2.5531417142,9.1549392676,2.2540388892,1187
115289,183789,220947,-2.4454646972,9.3786681807,2.3509482045,1188
115540,183847,220905,-2.4394826406999996,9.455238503899999,2.5076780847999998,1189
115900,183904,220904,-2.3880369548,9.330811728699999,2.3018953412000003,1190
116200,184023,221045,-2.5316063108,9.200402897,2.3114666316,1191
116499,184100,221058,-2.775674216,9.3056870914,2.285145583,1192
116745,184124,221086,-2.5746771176,9.2674019298,2.3306092124,1193
117052,184178,221103,-2.4382862294,9.176474671,2.3401805028,1194
117385,184285,221167,-2.4454646972,9.2051885422,2.3018953412000003,1195
117689,184350,221213,-2.6225335696,9.3475614869,2.4035903017,1196
118018,184392,221228,-2.6727828442,9.376275358100001,2.3234307446,1197
118371,184476,221289,-2.5268206656,9.1716890258,2.2396819536,1198
118703,184573,221323,-2.5770699402,9.2829552767,2.3078773977,1199
118746,184426,221266,-2.3413769141,9.4169533423,2.3952154226,1200
118190,184256,221148,-2.3641087288000002,9.121439751199999,2.3736800192,1201
117328,184076,221100,-2.6129622792,9.1800639049,2.3485553819,1202
116513,183945,221119,-2.4921247379,9.1453679772,2.2755742926,1203
115850,183835,221016,-2.667997199,9.2614198733,2.4035903017,1204
115518,183802,220988,-2.500499617,9.248259349,2.3066809864,1205
115529,183855,221022,-2.5268206656,9.284151688,2.4000010678,1206
115763,183953,221060,-2.5256242543,9.176474671,2.3102702203,1207
116006,183970,221089,-2.4957139718,9.2099741874,2.3796620756999998,1208
116239,183985,221063,-2.4957139718,9.2171526552,2.4251257050999997,1209
116524,184053,221066,-2.4717857458,9.3391866078,2.476571391,1210
116811,184161,221177,-2.5304098995,9.2578306394,2.3377876802,1211
117038,184242,221279,-2.7852455064000003,9.2889373332,2.3114666316,1212
117338,184264,221247,-2.6823541346,9.233902413400001,2.3593230836,1213
117616,184286,221247,-2.6177479243999997,9.3140619705,2.4323041729,1214
117985,184327,221259,-2.4514467537,9.21236701,2.3258235672,1215
118334,184451,221342,-2.5160529638999996,9.21236701,2.3545374384,1216
118714,184467,221367,-2.608176634,9.3571327773,2.3485553819,1217
118815,184429,221300,-2.5770699402,9.2015993083,2.416750826,1218
118287,184187,221141,-2.5052852621999997,9.1824567275,2.3509482045,1219
117360,183983,221053,-2.5435704238000003,9.2590270507,2.4729821571,1220
116406,183689,220941,-2.6488546182,9.1872423727,2.3018953412000003,1221
115690,183692,220909,-2.5304098995,9.109475638200001,2.3425733254,1222
115224,183640,220861,-2.500499617,9.3068835027,2.4382862294,1223
115183,183634,220843,-2.715853651,9.3068835027,2.488535504,1224
115366,183739,220903,-2.5830519966999996,9.1944208405,2.344966148,1225
115678,183812,220991,-2.5854448193,9.1429751546,2.404786713,1226
115833,183874,221024,-2.6727828442,9.1429751546,2.4275185276999998,1227
116166,183816,220914,-2.5100709074,9.2566342281,2.344966148,1228
116443,183903,220975,-2.5770699402,9.2626162846,2.2648065909,1229
116754,184008,221054,-2.5268206656,9.3427758417,2.3784656644,1230
117009,184065,221062,-2.4861426814,9.21236701,2.3509482045,1231
117382,184132,221071,-2.5064816735,9.1334038642,2.3832513096,1232
117753,184221,221080,-2.5974089322999996,9.229116768199999,2.3617159062,1233
118140,184303,221175,-2.6177479243999997,9.2506521716,2.4729821571,1234
118597,184422,221289,-2.5531417142,9.2757768089,2.2995025186,1235
118838,184399,221197,-2.620140747,9.330811728699999,2.2707886474,1236
118509,184216,221084,-2.5339991334,9.320044027,2.4023938904,1237
117641,183923,220930,-2.5698914723999997,9.206384953499999,2.3377876802,1238
116504,183703,220721,-2.5172493752,9.3140619705,2.4239292938,1239
115745,183403,220418,-2.7254249414,9.5820581017,2.3198415107,1240
115048,182960,219742,-2.4681965119,9.330811728699999,1.4715858990000001,1241
114936,182356,218687,-2.8055844984999996,8.7445701917,2.9156543381000004,1242
115495,182390,218208,-2.9371897415,9.1441715659,2.8522445392,1243
116390,182851,218040,-3.1441688964,8.9742811613,3.2805597846,1244
117178,183227,217936,-3.3750762773,8.0889367993,3.5521451497000003,1245
117804,183348,217683,-3.2889346637,8.1056865575,3.3547372851999997,1246
118343,183323,217412,-3.3152557123,8.9156570076,3.3499516399999996,1247
118847,183341,217319,-3.505485109,8.8247297488,3.6478580537000003,1248
119284,183402,217422,-3.4767712378,8.8749790234,3.7375889012,1249
119676,183626,217700,-3.3104700671000002,8.061419339399999,3.9649070482,1250
120048,183833,217855,-2.7481567560999998,8.0386875247,4.0175491454,1251
120441,184018,217980,-2.5902304645,8.360522164399999,4.113262049399999,1252
120677,184100,218063,-2.7457639335,8.9647098709,3.7375889012,1253
120762,184124,218032,-3.0101708308,8.930013943199999,3.6681970457999995,1254
121100,184112,218084,-3.0616165167,8.7601235386,3.7471601916,1255
121301,183927,217965,-3.1872397032,8.404789382499999,3.9314075318,1256
121403,183518,217749,-2.9934210726,8.446663778,3.8572300312,1257
121331,183310,217772,-2.9659036127,8.5196448673,3.6346975294,1258
121294,183278,217973,-2.9431717980000003,8.5686977306,3.5078779316,1259
121347,183335,218188,-3.1716863562999995,8.8019979341,3.5078779316,1260
121593,183537,218430,-3.1800612354,8.8008015228,3.4767712378,1261
121923,183784,218735,-3.0735806297,8.9156570076,3.5078779316,1262
122247,184015,218893,-3.0831519201,8.833104627900001,3.3966116807,1263
122518,184103,218923,-3.0496524037,8.8019979341,3.4432717214,1264
122834,184157,218901,-3.0951160330999996,8.7864445872,3.4145578502,1265
123105,184212,218964,-2.7816562725,8.859425676499999,3.3846475676999996,1266
123339,184339,218790,-2.7864419177,8.9419780562,3.1812576466999998,1267
123773,184550,218884,-2.883351233,8.8450687409,3.2518459134,1268
124277,184770,218975,-2.9706892578999997,8.745766603,3.2279176874,1269
124749,185029,219152,-2.8127629663000002,8.793623055,3.2255248647999997,1270
125237,185234,219278,-2.9838497821999996,9.0436730167,3.2673992603000004,1271
125693,185386,219355,-2.9336005076,8.9120677737,3.2542387359999996,1272
126075,185546,219519,-2.7134608283999997,8.8785682573,3.206382284,1273
126306,185327,219390,-2.8845476443,8.7852481759,3.1441688964,1274
126068,184625,218822,-2.9694928465999997,8.7290168448,3.2099715178999997,1275
125481,184117,218517,-2.9395825641,8.8438723296,3.2374889778,1276
124997,183901,218398,-3.0508488149999997,8.805587167999999,3.2937203089,1277
124834,183803,218393,-2.9982067177999996,8.9072821285,3.3236305914,1278
124769,183871,218356,-2.8223342567,8.7003029736,3.2638100264,1279
124952,183982,218486,-2.9336005076,8.8450687409,3.3320054705,1280
125171,184032,218579,-2.9455646206,8.85344362,3.2590243811999997,1281
125387,184144,218729,-2.9264220398,8.7852481759,3.2338997439000003,1282
125581,184186,218773,-2.9096722816000002,8.8701933782,3.2841490185,1283
125680,184252,218849,-2.9599215562,8.9671026935,3.290131075,1284
125867,184246,218904,-2.9539394997,8.9419780562,3.1776684127999997,1285
126028,184325,218958,-2.8031916759,8.7553378934,3.2626136151000003,1286
126233,184416,218985,-2.9252256285000002,8.885746725099999,3.2829526072,1287
126435,184465,219034,-2.9862426048,8.901300072,3.2458638569,1288
126655,184579,219039,-2.9036902251,8.9575314031,3.1920253483999996,1289
126823,184553,219021,-2.8259234905999997,8.9048893059,3.2697920829,1290
126653,184203,218753,-2.9264220398,8.9084785398,3.1058837348,1291
126235,183930,218555,-2.9347969189,8.8247297488,3.2219356309,1292
125767,183771,218487,-2.7649065143000002,8.8701933782,3.1872397032,1293
125336,183674,218535,-2.7290141752999997,8.8630149104,3.2159535744,1294
124983,183618,218369,-2.8067809098,8.8941216042,3.1968109935999998,1295
124949,183626,218360,-2.7529424013,8.937192411,3.1800612354,1296
125097,183723,218387,-2.8450660714,8.9587278144,3.0580272828,1297
125343,183805,218475,-2.7816562725,8.8366938618,3.0735806297,1298
125585,183898,218502,-2.7888347403,8.8486579748,3.1752755902,1299
125806,183934,218600,-2.9072794589999997,8.8797646686,3.2207392196,1300
126001,183979,218684,-2.8378876036,9.0029950325,3.1202406704,1301
126122,183997,218719,-2.7816562725,9.0185483794,3.1728827676,1302
126279,184046,218770,-2.8331019584000003,8.8498543861,3.158525832,1303
126446,184083,218748,-2.9048866364,8.85344362,3.0771698636,1304
126644,184125,218801,-2.8785655878,8.817551281,3.2506495021,1305
126847,184219,218870,-2.9647072014,8.865407733,3.1609186546,1306
127080,184225,218927,-2.8007988533,8.9922273308,3.1286155494999996,1307
126973,184019,218669,-2.8271199019,8.9587278144,3.1740791789,1308
126418,183733,218487,-2.8618158296000002,8.918049830200001,3.1609186546,1309
125799,183540,218335,-3.0233313551,8.9120677737,3.1274191382,1310
125169,183348,218199,-2.8737799425999997,8.85344362,3.1202406704,1311
124754,183309,218181,-2.8342983697,8.9587278144,3.1393832512,1312
124440,183291,218261,-2.8857440556,8.9407816449,3.2147571631,1313
124421,183367,218230,-2.8845476443,8.9575314031,3.1525437755,1314
124511,183442,218179,-3.3200413575,8.5854474888,4.1814574935,1315
124826,183490,218131,-2.8689942974,8.9084785398,3.1118657913,1316
125134,183580,218194,-2.8582265956999997,9.0137627342,3.1417760738,1317
125397,183631,218218,-2.8079773211,8.8845503138,3.1513473642000003,1318
125618,183668,218247,-2.8929225234,8.8127656358,3.1130622026,1319
125880,183730,218345,-2.8223342567,8.85344362,3.1417760738,1320
126136,183817,218456,-2.8474588940000003,8.8031943454,3.0125636533999995,1321
126391,183916,218545,-2.8917261120999997,9.0053878551,3.1058837348,1322
126645,183965,218644,-2.9072794589999997,9.037690960199999,3.1453653077,1323
126852,184021,218693,-2.8378876036,8.9802632178,3.1298119607999997,1324
126732,183826,218593,-2.8594230069999997,8.8247297488,3.2015966388,1325
126140,183471,218299,-2.9706892578999997,8.8139620471,3.0699913958000002,1326
125295,183226,218141,-2.919243572,8.925228298,3.1956145822999997,1327
124584,183084,218091,-2.8043880872,8.9946201534,3.0723842184,1328
123832,182983,217982,-2.5914268758000003,9.5521478192,2.1487546948,1329
123622,183010,217930,-2.8019952646,8.8151584584,3.11066938,1330
123620,183073,218000,-2.7481567560999998,9.0149591455,3.1274191382,1331
123787,183204,218047,-2.4299113503,9.1800639049,2.656033086,1332
124046,183254,218040,-2.8570301844,8.8402830957,3.0699913958000002,1333
124317,183393,218148,-2.9204399833,8.9778703952,3.1250263156,1334
124510,183402,218205,-2.8043880872,9.0317089037,3.1489545415999998,1335
124741,183448,218256,-2.7314069979,8.889335959,3.1525437755,1336
124968,183541,218380,-2.8666014748,8.9455672901,3.0999016782999997,1337
125203,183604,218424,-2.8809584104000003,9.0017986212,3.11066938,1338
125399,183682,218458,-2.8199414341,8.8821574912,3.1010980895999998,1339
125663,183753,218535,-2.8007988533,8.9072821285,3.1405796625,1340
125874,183794,218558,-2.9336005076,8.8965144268,3.0999016782999997,1341
125771,183631,218425,-2.8642086522,8.9635134596,3.0436703472,1342
125111,183287,218200,-2.7661029256000003,8.9659062822,3.0771698636,1343
124170,183019,218102,-2.7780670386,8.7589271273,3.1369904286000003,1344
123306,182853,218003,-2.9048866364,8.9994057986,3.1058837348,1345
122547,182789,217963,-2.9216363945999997,8.930013943199999,3.1274191382,1346
122070,182777,217926,-2.967100024,8.9467637014,3.1226334930000004,1347
121896,182882,217986,-2.8929225234,8.930013943199999,3.0532416376,1348
121967,182963,217996,-3.1393832512,8.2372918005,3.8835510798,1349
122183,183064,218027,-2.7696921595,8.8678005556,3.0185457098999997,1350
122414,183126,218111,-2.823530668,8.8965144268,3.098705267,1351
122653,183160,218067,-3.0376882907,8.901300072,3.0915267992,1352
122846,183178,218114,-2.7672993369,8.7900338211,3.134597606,1353
123075,183219,218128,-2.8199414341,8.8821574912,3.0747770410000004,1354
123377,183302,218157,-2.931207685,9.0113699116,3.1417760738,1355
123661,183438,218196,-3.0029923629999997,8.8510507974,3.1573294206999996,1356
123996,183498,218247,-2.9036902251,8.8438723296,3.0795626862,1357
124239,183592,218341,-2.835494781,8.9742811613,3.1728827676,1358
124455,183470,218249,-2.7816562725,9.0053878551,3.0496524037,1359
124069,183153,217971,-2.8139593776000003,8.877371846,3.1058837348,1360
123268,182870,217778,-2.8342983697,8.930013943199999,3.0963124444,1361
122400,182672,217685,-3.0101708308,8.8713897895,3.0963124444,1362
121660,182580,217637,-2.9060830476999997,8.885746725099999,3.1226334930000004,1363
121027,182512,217620,-2.8366911923,8.9048893059,3.0652057506,1364
120757,182547,217686,-2.7625136916999997,8.9682991048,3.1884361145,1365
120812,182663,217738,-2.9264220398,8.8486579748,3.2147571631,1366
121041,182759,217814,-2.8725835312999997,8.9778703952,3.0293134116,1367
121298,182889,217840,-2.8115665549999997,8.9694955161,3.0185457098999997,1368
121532,182929,217871,-2.9862426048,8.9647098709,3.098705267,1369
121760,182962,217948,-3.0281170003,8.865407733,3.1692935337,1370
122011,182961,218014,-2.8450660714,8.8845503138,3.2027930501,1371
122269,183149,218041,-2.8785655878,9.0137627342,3.0723842184,1372
122586,183248,218173,-2.8115665549999997,8.9587278144,3.1226334930000004,1373
122844,183344,218268,-2.8701907087,9.000602209899998,3.0340990568,1374
123119,183394,218330,-2.7984060307000003,8.846265152199999,3.1082765574000004,1375
123373,183355,218342,-2.8175486115,8.8917287816,3.098705267,1376
123285,183241,218199,-2.883351233,8.9144605963,3.0963124444,1377
122591,182951,218012,-2.8390840148999996,8.9276211206,3.1010980895999998,1378
121618,182720,217830,-2.7960132080999998,8.873782612100001,3.1202406704,1379
120702,182589,217759,-2.8905297008,8.8522472087,3.1310083721,1380
119936,182538,217706,-2.7254249414,8.9096749511,3.1154550251999997,1381
119469,182513,217731,-2.7290141752999997,8.9024964833,3.1202406704,1382
119428,182566,217764,-2.9838497821999996,8.9742811613,3.0364918793999998,1383
119593,182686,217764,-2.87138712,8.8797646686,3.1262227269,1384
119847,182748,217869,-2.8689942974,8.8701933782,3.0723842184,1385
120104,182814,217890,-2.8785655878,8.9694955161,3.1082765574000004,1386
120316,182841,217913,-2.8283163132,9.0017986212,3.1034909122000003,1387
120557,182903,217927,-2.8139593776000003,8.876175434699999,3.0317062341999996,1388
120776,183009,218031,-2.8486553053,8.7888374098,3.0125636533999995,1389
121078,183054,218047,-2.8522445392,8.9790668065,2.9838497821999996,1390
121355,183137,218132,-2.8283163132,9.0137627342,3.0963124444,1391
121705,183274,218143,-3.0041887742999998,8.9587278144,3.0269205889999995,1392
122074,183346,218231,-2.9096722816000002,8.828318982699999,3.1501509529,1393
122401,183401,218200,-2.9240292172,8.970691927399999,3.0197421212,1394
122332,183166,218104,-2.8893332895,8.8630149104,3.0699913958000002,1395
121693,182889,217862,-2.8175486115,8.9036928946,3.0101708308,1396
120798,182651,217729,-2.9503502657999996,8.8606220878,3.1226334930000004,1397
119856,182471,217658,-2.9216363945999997,8.8510507974,3.158525832,1398
119118,182383,217527,-2.9084758702999998,8.9515493466,3.0675985732,1399
118706,182358,217558,-2.9072794589999997,8.749355836900001,3.0819555088,1400
118681,182430,217592,-2.9479574432,8.8821574912,3.0771698636,1401
118824,182507,217683,-3.0113672421,8.9156570076,3.0675985732,1402
119056,182572,217721,-2.7649065143000002,8.9060857172,3.098705267,1403
119318,182668,217739,-2.8402804262,8.8689969669,3.1046873235,1404
119486,182711,217804,-2.9168507494,8.8043907567,3.1417760738,1405
119747,182753,217843,-2.8115665549999997,8.8749790234,3.1369904286000003,1406
119989,182809,217860,-2.8546373618,8.9359959997,3.1154550251999997,1407
120293,182880,217888,-2.9467610319,8.8558364426,3.0652057506,1408
120624,183014,218004,-2.9204399833,8.9922273308,3.086741154,1409
120945,183091,218101,-2.7960132080999998,8.926424709299999,3.0484559924,1410
121272,183103,218220,-2.823530668,8.7756768855,3.146561719,1411
121513,183165,218170,-2.9694928465999997,8.97308475,3.1657042998000002,1412
121240,182943,217976,-2.9024938138,9.041280194099999,3.1034909122000003,1413
120448,182658,217818,-3.0209385325,8.8366938618,3.1381868399,1414
119423,182461,217679,-2.9886354273999998,8.7852481759,3.098705267,1415
118421,182284,217580,-2.8929225234,8.9814596291,3.1716863562999995,1416
117702,182193,217549,-2.8402804262,8.841479506999999,3.1022945009000003,1417
117326,182246,217584,-2.787638329,8.8366938618,2.9994031291,1418
117332,182295,217679,-2.9982067177999996,8.8582292652,3.1010980895999998,1419
117528,182432,217811,-2.8079773211,8.9060857172,3.062812928,1420
117704,182530,217868,-2.9826533709,8.8474615635,3.1034909122000003,1421
117938,182595,217928,-2.3377876802,9.6478607232,2.1559331626,1422
118156,182714,217925,-2.8091737324,8.8797646686,3.1298119607999997,1423
118478,182789,217970,-2.8905297008,8.9407816449,3.0939196218,1424
118782,182888,218050,-2.8450660714,8.8450687409,2.9862426048,1425
119075,182941,218058,-2.8785655878,8.937192411,3.0891339766000003,1426
119420,183011,218150,-2.8510481279,8.9958165647,3.1573294206999996,1427
119755,183107,218207,-2.9120651042,8.8941216042,2.9982067177999996,1428
120131,183147,218301,-2.823530668,8.9635134596,3.0352954681,1429
120336,183155,218291,-2.8319055471,9.010173500299999,2.9802605483,1430
119940,182872,218181,-2.9958138952,8.9383888223,3.0556344602,1431
118954,182628,218029,-2.6955146589,8.97308475,3.1740791789,1432
117765,182488,217855,-2.8414768375,8.8570328539,3.0891339766000003,1433
116792,182320,217760,-2.9144579268,8.829515394,3.1525437755,1434
116108,182266,217721,-2.8701907087,8.8689969669,3.1357940173,1435
115831,182287,217739,-2.9970103065,9.0293160811,3.1082765574000004,1436
115958,182365,217771,-2.7254249414,8.901300072,3.0999016782999997,1437
116252,182509,217862,-2.8259234905999997,8.9539421692,3.0771698636,1438
116604,182617,217922,-2.7840490951,8.930013943199999,3.0209385325,1439
116912,182662,218038,-2.9407789753999998,8.9862452743,3.1860432919,1440
117212,182786,218033,-2.9802605483,8.9144605963,3.0963124444,1441
117480,182869,218107,-2.7613172804,8.9766739839,2.9694928465999997,1442
117823,182918,218187,-2.8594230069999997,8.8558364426,3.1286155494999996,1443
118139,182988,218271,-2.9886354273999998,8.806783579300001,3.1082765574000004,1444
118479,183088,218372,-2.9970103065,8.9922273308,3.1226334930000004,1445
118801,183171,218352,-2.8319055471,8.9682991048,3.038884702,1446
119201,183267,218457,-2.8450660714,8.8582292652,3.0221349438,1447
119364,183190,218401,-2.7708885708000004,8.8941216042,3.0436703472,1448
118933,183006,218264,-2.8857440556,8.949156524,3.1070801461,1449
118062,182796,218105,-2.8187450228000004,8.769694829,3.0927232105,1450
117146,182641,217932,-2.8857440556,8.9228354754,3.0508488149999997,1451
116457,182562,217796,-2.6105694566,9.4049892293,2.8534409504999996,1452
116203,182539,217740,-2.8929225234,8.7996051115,3.0915267992,1453
116338,182611,217780,-2.8666014748,9.0293160811,3.1010980895999998,1454
116674,182653,217860,-2.8319055471,8.8749790234,3.0855447427,1455
117071,182750,217865,-2.8522445392,8.9347995884,3.0879375653000003,1456
117466,182780,217878,-2.8115665549999997,8.9108713624,3.1489545415999998,1457
117863,182880,217929,-2.8773691765,8.9515493466,3.1310083721,1458
118210,182890,217930,-2.883351233,8.949156524,2.9623143788,1459
118587,182946,217939,-2.8319055471,9.0723868879,3.0089744195,1460
118970,182971,218022,-2.7732813934,8.918049830200001,2.9766713144,1461
119330,183034,218060,-2.9168507494,8.9515493466,3.0891339766000003,1462
119734,183110,218089,-2.8725835312999997,8.9156570076,3.0484559924,1463
120091,183182,218098,-2.9982067177999996,8.939585233599999,3.062812928,1464
120148,183000,217917,-2.7864419177,8.9671026935,3.0556344602,1465
119658,182709,217768,-2.9479574432,8.9826560404,3.1082765574000004,1466
118776,182437,217584,-2.7840490951,8.8869431364,3.0005995404,1467
117910,182273,217463,-2.9515466771,8.872586200799999,3.1381868399,1468
117232,182183,217375,-3.0376882907,8.9826560404,3.0125636533999995,1469
116935,182212,217402,-2.9072794589999997,8.926424709299999,3.0939196218,1470
116974,182268,217464,-2.7182464736,8.9024964833,3.0843483314,1471
117216,182379,217522,-3.0317062341999996,8.819944103600001,3.1788648241,1472
117555,182516,217517,-2.6787649007,8.8606220878,3.014956476,1473
117921,182594,217577,-3.0113672421,8.819944103600001,3.2075786953,1474
118217,182631,217590,-2.931207685,8.985048863000001,3.146561719,1475
118430,182677,217625,-2.8594230069999997,8.8498543861,3.0999016782999997,1476
118789,182701,217529,-3.0305098229,8.8354974505,3.0939196218,1477
119175,182806,217591,-3.0460631697999996,8.885746725099999,3.0580272828,1478
119597,182840,217650,-2.8127629663000002,8.877371846,3.0041887742999998,1479
119981,182930,217652,-2.8031916759,8.8558364426,3.086741154,1480
120250,182869,217640,-2.9706892578999997,8.8845503138,3.1788648241,1481
120019,182603,217397,-2.9120651042,8.961120637,3.1453653077,1482
119245,182298,217162,-2.9503502657999996,8.8821574912,3.1082765574000004,1483
118399,182120,217023,-2.9431717980000003,8.9228354754,3.11066938,1484
117701,181972,216921,-2.9599215562,8.757730716,3.1130622026,1485
117299,181971,216888,-2.8977081686,8.9108713624,3.0340990568,1486
117225,181991,216949,-2.9515466771,8.8450687409,3.0903303879,1487
117412,182100,216968,-2.9874390161,8.8881395477,3.0819555088,1488
117691,182206,217110,-2.9359933301999996,8.85344362,3.038884702,1489
118156,182281,217141,-2.919243572,9.0341017263,3.1334011947,1490
118506,182366,217153,-3.0556344602,9.096315113900001,3.1740791789,1491
118823,182420,217129,-3.0101708308,8.9156570076,3.1178478478000002,1492
119158,182487,217119,-2.8366911923,8.7984087002,3.1369904286000003,1493
119538,182568,217202,-2.8031916759,8.7673020064,3.1010980895999998,1494
119943,182636,217215,-3.0807590974999997,8.8869431364,3.0723842184,1495
120360,182736,217277,-2.8582265956999997,8.8701933782,3.0592236941,1496
120771,182810,217357,-2.8737799425999997,8.8127656358,3.1429724850999996,1497
120974,182729,217266,-2.979064137,8.8881395477,3.2171499857,1498
120554,182417,217037,-2.9515466771,8.7708912403,3.1130622026,1499
119769,182135,216852,-2.9718856692,8.9120677737,3.2255248647999997,1500
118943,181950,216767,-3.0101708308,8.8689969669,3.0652057506,1501
118306,181821,216650,-3.1046873235,8.8343010392,3.1932217597,1502
117975,181834,216610,-2.9371897415,8.8247297488,3.0975088557,1503
118001,181895,216663,-2.9048866364,8.7984087002,3.1178478478000002,1504
118300,181987,216743,-2.8965117573,8.944370878800001,3.1298119607999997,1505
118687,182078,216720,-2.979064137,8.8953180155,3.158525832,1506
119104,182174,216846,-2.9156543381000004,8.9623170483,3.1274191382,1507
119468,182241,216964,-3.0460631697999996,8.8929251929,3.2111679291999997,1508
119754,182300,217082,-2.9001009912,8.8941216042,3.0747770410000004,1509
119992,182370,217093,-3.0197421212,9.0400837828,3.0747770410000004,1510
120308,182448,217104,-3.0580272828,8.8522472087,3.0113672421,1511
120660,182567,217166,-2.9599215562,8.930013943199999,3.0747770410000004,1512
121022,182610,217245,-2.8187450228000004,8.9156570076,3.1609186546,1513
121404,182687,217319,-2.99102825,8.925228298,3.1573294206999996,1514
121598,182613,217273,-3.0807590974999997,8.918049830200001,3.1920253483999996,1515
121130,182267,217116,-2.9958138952,8.6907316832,3.1274191382,1516
120217,182132,216943,-2.8689942974,8.872586200799999,3.134597606,1517
119217,181912,216895,-2.9706892578999997,8.7326060787,3.1645078885,1518
