green,red,IR,acc_x,acc_y,acc_z,sample_index
125490,181360,240575,8.2516487361,-2.0255243308999997,-4.929214556,1
125619,181353,240596,8.2600236152,-2.1966111468,-4.8921258057,2
125761,181333,240622,8.2743805508,-2.2301106632,-5.0153561695999995,3
125873,181342,240597,8.3461652288,-2.1308085253,-4.9064827413000005,4
125968,181341,240568,8.2600236152,-2.0889341298,-4.9244289108,5
126110,181335,240601,8.3018980107,-2.0063817501,-4.9483571368,6
126195,181320,240631,8.2516487361,-2.1439690496,-4.8215375389999995,7
125974,181358,240632,8.316254946299999,-2.1822542112,-4.881358104,8
125241,181433,240660,8.5016986978,-2.2492532439999997,-4.8681975797,9
124531,181512,240641,8.240881034400001,-2.1248264688,-4.9495535481,10
124191,181483,240677,8.450253011900001,-2.1403798157,-4.9674997176,11
124002,181495,240628,8.279166196,-2.2301106632,-4.9471607255,12
123938,181474,240678,8.2085779293,-2.1200408236,-4.8909293944,13
123971,181451,240650,8.3844503904,-2.2492532439999997,-4.9340002012,14
124066,181495,240611,8.3126657124,-2.1116659445,-4.9914279436,15
124264,181440,240619,8.4071822051,-2.15354034,-5.0057848792,16
124379,181431,240681,8.3497544627,-2.1439690496,-5.010570524399999,17
124402,181442,240677,8.3461652288,-2.0973090089,-4.8873401605,18
124446,181460,240708,8.3413795836,-2.15354034,-4.9818566531999995,19
124473,181443,240665,8.3545401079,-2.2863419943,-5.0285166938999994,20
124523,181429,240638,8.3653078096,-2.1391834043999998,-4.9100719752,21
124669,181443,240702,8.3413795836,-2.2049860259000003,-4.9387858464,22
124790,181436,240700,8.2743805508,-2.0781664281,-4.9962135888,23
125006,181422,240667,8.4550386571,-2.0877377184999997,-4.9160540317,24
125169,181400,240709,8.3892360356,-2.1020946541,-4.9100719752,25
125333,181399,240683,8.3126657124,-2.2289142519,-4.9304109673,26
125482,181431,240726,8.4131642616,-2.1499511061,-4.8873401605,27
125628,181403,240690,8.2648092604,-2.1918255016,-4.9064827413000005,28
125796,181456,240732,8.2839518412,-2.1355941704999997,-4.8909293944,29
125933,181425,240712,8.2337025666,-2.0015961049,-4.9435714916,30
126087,181390,240693,8.3449688175,-2.2492532439999997,-4.9435714916,31
126245,181370,240679,8.280362607299999,-2.0111673952999998,-4.953142782,32
126343,181343,240687,8.422735552,-2.0590238472999998,-4.90528633,33
126467,181355,240677,8.2325061553,-2.1595223965,-5.0763731459,34
126558,181362,240607,8.3413795836,-2.1870398563999998,-4.8825545153,35
126663,181341,240600,8.2325061553,-2.27318147,-4.9818566531999995,36
126297,181375,240663,8.427521197199999,-2.0961125976,-4.8681975797,37
125640,181439,240683,8.3892360356,-2.1308085253,-4.9256253221,38
125032,181508,240704,8.4023965599,-2.1391834043999998,-5.0045884679,39
124723,181507,240619,8.4418781328,-2.0673987264,-4.8634119345,40
124651,181446,240693,8.4646099475,-2.0829520733,-5.0380879843,41
124649,181436,240681,8.293523131599999,-2.1116659445,-4.8717868136,42
124704,181439,240633,8.364111398299999,-2.1906290903,-4.8538406441,43
124802,181373,240634,8.3114693011,-2.2241286067,-4.9112683865,44
125002,181365,240627,8.3976109147,-2.2671994135,-5.0536413312,45
125110,181377,240619,8.2420774457,-2.1822542112,-4.9112683865,46
125126,181383,240668,8.4167534955,-2.2683958248,-5.0333023391000005,47
125131,181369,240601,8.4131642616,-2.2444675988,-4.9160540317,48
125180,181364,240639,8.3258262367,-2.2013967919999997,-4.9686961289000005,49
125243,181362,240626,8.3940216808,-2.1260228801,-4.9100719752,50
125347,181331,240641,8.240881034400001,-2.1966111468,-4.9256253221,51
125517,181303,240649,8.364111398299999,-2.2073788485,-4.9483571368,52
125669,181324,240682,8.3940216808,-2.1403798157,-5.0775695572,53
125825,181292,240597,8.2995051881,-2.1822542112,-4.9962135888,54
125975,181277,240634,8.3353975271,-2.1678972756,-4.9579284272,55
126113,181263,240634,8.3700934548,-2.1822542112,-4.9639104837,56
126261,181256,240607,8.2983087768,-2.2444675988,-4.9160540317,57
126396,181254,240603,8.364111398299999,-2.2456640101,-4.929214556,58
126513,181249,240578,8.4071822051,-2.2013967919999997,-4.9674997176,59
126647,181252,240579,8.303094422,-2.2683958248,-4.9722853628,60
126762,181244,240530,8.2887374864,-2.0626130812,-4.8622155232,61
126872,181242,240540,8.3928252695,-2.0913269524,-4.9914279436,62
126985,181245,240590,8.350950873999999,-2.0398812665,-4.9387858464,63
127070,181204,240534,8.3497544627,-2.0769700168,-4.8873401605,64
126840,181224,240510,8.3258262367,-2.2492532439999997,-4.9399822577,65
126197,181300,240554,8.3784683339,-2.1690936869,-4.9351966125,66
125619,181402,240581,8.2600236152,-2.1547367513,-4.9914279436,67
125341,181391,240610,8.2899338977,-2.1822542112,-4.9639104837,68
125228,181324,240605,8.3593257531,-2.1690936869,-4.9351966125,69
125286,181311,240589,8.25523797,-2.1631116304,-4.9866422984,70
125361,181270,240556,8.3832539791,-1.9872391693,-5.057230565099999,71
125484,181246,240503,8.2420774457,-2.177468566,-5.0524449199,72
125577,181219,240519,8.3365939384,-2.2827527603999997,-4.977071008,73
125601,181237,240510,8.2025958728,-2.0207386857,-5.0668018555,74
125491,181222,240532,8.2779697847,-2.1116659445,-4.9208396769,75
125445,181258,240556,8.316254946299999,-2.1870398563999998,-4.9435714916,76
125432,181264,240552,8.3928252695,-2.3772692530999997,-4.9866422984,77
125420,181259,240597,8.2085779293,-2.1726829208,-4.9962135888,78
125535,181223,240564,8.3413795836,-2.2588245344,-5.0201418148,79
125653,181208,240553,8.3748791,-2.2205393728,-4.9148576204,80
125766,181207,240535,8.3557365192,-2.2492532439999997,-4.9148576204,81
125850,181207,240571,8.231309744,-2.2528424779,-5.0045884679,82
125971,181227,240534,8.227720510100001,-2.0877377184999997,-5.000999234,83
126087,181187,240558,8.4215391407,-2.1104695332,-4.9962135888,84
126238,181252,240552,8.3365939384,-2.1966111468,-5.071587500700001,85
126302,181254,240565,8.3880396243,-2.2061824372,-4.9579284272,86
126451,181209,240595,8.3078800672,-2.2205393728,-5.000999234,87
126536,181228,240560,8.3557365192,-2.1487546948,-4.9399822577,88
126641,181240,240556,8.3365939384,-2.0673987264,-4.8777688701,89
126724,181228,240562,8.459824302300001,-2.297109696,-4.9196432655999995,90
126841,181238,240559,8.3497544627,-2.3198415107,-5.02492746,91
126694,181272,240571,8.482556117,-2.1583259852,-4.9818566531999995,92
126014,181341,240571,8.3210405915,-2.1583259852,-5.044070040799999,93
125155,181375,240611,8.240881034400001,-2.0721843716,-4.9782674193,94
124519,181370,240647,8.4167534955,-2.2456640101,-5.0333023391000005,95
124186,181376,240643,8.4550386571,-2.0434705004000002,-5.010570524399999,96
124043,181341,240620,8.3557365192,-2.1499511061,-4.9112683865,97
123938,181329,240632,8.293523131599999,-2.0685951377,-4.9758745967,98
123915,181323,240634,8.2827554299,-2.1822542112,-5.0428736295,99
124012,181339,240640,8.1846497033,-2.1487546948,-5.085944436299999,100
124096,181300,240647,8.4358960763,-2.0973090089,-5.0153561695999995,101
124117,181334,240667,8.3557365192,-2.1008982428,-4.9674997176,102
124063,181313,240662,8.4119678503,-2.0303099761,-4.9435714916,103
124000,181330,240701,8.373682688699999,-2.0829520733,-4.953142782,104
124024,181316,240719,8.3186477689,-2.3294128011,-4.995017177499999,105
124081,181341,240702,8.2372918005,-2.0590238472999998,-4.9686961289000005,106
124236,181308,240725,8.2839518412,-2.1116659445,-4.9256253221,107
124360,181334,240700,8.279166196,-2.2217357841,-5.0021956453,108
124513,181312,240727,8.3078800672,-2.1583259852,-4.9208396769,109
124687,181334,240724,8.236095389199999,-2.15354034,-4.9686961289000005,110
124816,181312,240762,8.3222370028,-2.1487546948,-4.8765724588,111
124955,181318,240774,8.3976109147,-2.2624137683,-5.0237310487,112
125102,181334,240801,8.3880396243,-2.1726829208,-5.1338008883,113
125259,181360,240801,8.306683655899999,-2.1870398563999998,-4.961517661099999,114
125395,181359,240779,8.3940216808,-2.1355941704999997,-4.9806602419,115
125518,181339,240791,8.3700934548,-2.1308085253,-4.9543391933,116
125619,181354,240760,8.3413795836,-2.03389921,-4.9387858464,117
125786,181360,240746,8.2636128491,-2.1212372348999997,-5.0488556860000005,118
125786,181344,240761,8.3461652288,-2.1439690496,-4.9758745967,119
126054,181353,240722,8.4681991814,-2.2384855423,-4.9148576204,120
125952,181352,240738,8.2743805508,-2.1080767106,-4.9399822577,121
125269,181382,240748,8.227720510100001,-2.1487546948,-5.0380879843,122
124308,181424,240707,8.2133635745,-2.0973090089,-5.02492746,123
123645,181451,240788,8.293523131599999,-2.1966111468,-4.9208396769,124
123322,181420,240794,8.3712898661,-2.2061824372,-4.8634119345,125
123231,181409,240777,8.3892360356,-2.0303099761,-4.8681975797,126
123206,181355,240764,8.2983087768,-2.2013967919999997,-4.9914279436,127
123289,181362,240810,8.2887374864,-2.1020946541,-4.9435714916,128
123443,181367,240818,8.4741812379,-2.2767707039,-4.9866422984,129
123569,181356,240803,8.417949906799999,-2.1116659445,-4.9579284272,130
123629,181370,240840,8.4215391407,-2.1439690496,-4.9387858464,131
123620,181358,240833,8.3557365192,-2.0781664281,-5.02492746,132
123602,181392,240858,8.303094422,-2.1248264688,-4.953142782,133
123643,181356,240812,8.4358960763,-2.2492532439999997,-4.8765724588,134
123746,181372,240820,8.4981094639,-2.1200408236,-4.9112683865,135
123885,181384,240868,8.4071822051,-2.3138594542,-5.0392843956,136
124056,181380,240895,8.3353975271,-2.1822542112,-5.044070040799999,137
124248,181382,240889,8.3832539791,-2.1487546948,-4.9818566531999995,138
124433,181351,240898,8.327022648,-2.1308085253,-4.9914279436,139
124583,181396,240893,8.2588272039,-2.1116659445,-4.9005006848,140
124773,181363,240905,8.2468630909,-2.2432711875,-4.8921258057,141
124890,181349,240902,8.3844503904,-2.1966111468,-4.9914279436,142
125099,181368,240921,8.3748791,-2.1966111468,-4.9016970961,143
125216,181373,240906,8.5076807543,-2.0494525569,-4.9112683865,144
125374,181366,240906,8.3365939384,-2.1212372348999997,-4.8598227006,145
125502,181350,240879,8.4562350684,-2.0159530405,-5.029713105200001,146
125637,181337,240851,8.2372918005,-2.1068802992999998,-4.9387858464,147
125762,181341,240879,8.450253011900001,-2.2863419943,-4.9914279436,148
125903,181361,240878,8.4215391407,-2.1583259852,-4.9387858464,149
125969,181350,240816,8.327022648,-2.1020946541,-4.8909293944,150
126096,181339,240871,8.2456666796,-2.0207386857,-4.9722853628,151
125594,181396,240877,8.3018980107,-2.1164515897,-5.0488556860000005,152
124668,181406,240899,8.3078800672,-2.1690936869,-4.9639104837,153
123975,181434,240856,8.294719542900001,-2.1200408236,-5.0057848792,154
123660,181427,240857,8.3413795836,-2.1631116304,-4.8765724588,155
123558,181395,240878,8.171489179,-2.0973090089,-4.977071008,156
123607,181359,240863,8.450253011900001,-2.2013967919999997,-4.8861437492,157
123593,181352,240866,8.364111398299999,-2.2492532439999997,-4.9722853628,158
123809,181345,240880,8.4035929712,-2.129612114,-4.9304109673,159
124002,181339,240880,8.3078800672,-2.1308085253,-5.000999234,160
124078,181328,240915,8.2456666796,-2.1595223965,-5.1062834284,161
124048,181330,240901,8.2755769621,-2.2241286067,-4.9387858464,162
124023,181310,240899,8.2923267203,-2.0913269524,-4.788038022599999,163
124058,181309,240826,8.338986761000001,-2.1918255016,-4.9866422984,164
124127,181307,240846,8.3413795836,-2.1308085253,-4.9483571368,165
124243,181301,240863,8.2707913169,-2.2157537276,-4.9627140724,166
124400,181290,240890,8.3976109147,-2.0973090089,-4.9639104837,167
124594,181259,240860,8.2983087768,-2.1870398563999998,-4.9351966125,168
124753,181282,240845,8.2755769621,-2.1200408236,-5.029713105200001,169
124906,181238,240771,8.4418781328,-2.0638094925,-5.0165525809,170
125064,181210,240865,8.3114693011,-2.1643080417,-5.0057848792,171
125232,181235,240798,8.3126657124,-2.1678972756,-4.9495535481,172
125327,181218,240831,8.303094422,-2.2157537276,-4.8969114509,173
125533,181218,240813,8.3174513576,-2.0889341298,-4.8921258057,174
125634,181187,240789,8.3318082932,-2.1200408236,-4.9722853628,175
125741,181188,240814,8.3892360356,-2.0590238472999998,-4.9639104837,176
125846,181174,240793,8.1786676468,-2.1930219129,-5.0524449199,177
125977,181176,240816,8.1415788965,-2.1678972756,-4.977071008,178
126098,181164,240844,8.3581293418,-2.1391834043999998,-4.9016970961,179
126197,181138,240804,8.3318082932,-2.1068802992999998,-5.0153561695999995,180
125890,181174,240768,8.3318082932,-2.1343977592,-4.9878387097,181
125200,181224,240776,8.3126657124,-2.1200408236,-4.953142782,182
124495,181274,240760,8.2504523248,-1.9920248145,-4.9543391933,183
124110,181292,240798,8.3413795836,-2.1918255016,-4.8909293944,184
123987,181246,240753,8.350950873999999,-2.0973090089,-5.0344987504,185
124015,181190,240750,8.2648092604,-2.1008982428,-4.9148576204,186
124100,181190,240822,8.2253276875,-2.2121644937,-5.010570524399999,187
124280,181221,240723,8.4071822051,-2.1355941704999997,-5.0057848792,188
124419,181179,240714,8.1750784129,-2.1583259852,-5.0907300815,189
124462,181147,240734,8.3748791,-2.0446669117,-4.9866422984,190
124382,181176,240781,8.4119678503,-2.15354034,-5.0763731459,191
124310,181178,240734,8.2648092604,-2.2719850587,-4.977071008,192
124262,181176,240725,8.3748791,-2.1678972756,-4.9064827413000005,193
124283,181181,240763,8.3174513576,-2.2360927197000002,-5.0488556860000005,194
124376,181137,240778,8.3940216808,-2.1918255016,-4.9447679029,195
124467,181143,240726,8.4215391407,-2.1882362677000002,-5.010570524399999,196
124612,181120,240745,8.183453292,-2.3054845751,-4.8957150396,197
124715,181108,240763,8.2887374864,-2.1212372348999997,-4.9734817741,198
124814,181139,240705,8.2875410751,-2.0398812665,-4.9208396769,199
124971,181096,240719,8.2683984943,-2.1870398563999998,-4.9016970961,200
124915,181078,240693,8.2648092604,-2.15354034,-5.02492746,201
125124,181098,240727,8.3234334141,-2.1439690496,-4.9244289108,202
125225,181094,240741,8.2253276875,-2.2013967919999997,-4.9351966125,203
125328,181086,240735,8.2731841395,-2.2157537276,-4.9866422984,204
125403,181116,240733,8.4311104311,-2.2002003807,-4.8311088294,205
125510,181103,240745,8.3653078096,-2.1439690496,-5.0392843956,206
125599,181086,240678,8.293523131599999,-2.1595223965,-5.1625147595,207
125609,181095,240698,8.155935832099999,-2.0877377184999997,-4.977071008,208
125102,181123,240747,8.2600236152,-2.057827436,-4.8634119345,209
124164,181204,240733,8.2827554299,-2.1116659445,-5.010570524399999,210
123439,181206,240716,8.419146318100001,-2.2289142519,-4.9112683865,211
123057,181211,240715,8.236095389199999,-2.2061824372,-4.9866422984,212
122876,181189,240736,8.364111398299999,-2.1403798157,-4.9962135888,213
122831,181200,240718,8.3318082932,-2.1631116304,-4.9627140724,214
122845,181171,240741,8.4215391407,-2.1487546948,-4.8969114509,215
122929,181171,240756,8.3928252695,-2.1355941704999997,-5.0141597583,216
123095,181179,240767,8.3497544627,-2.2013967919999997,-5.0392843956,217
123151,181147,240757,8.4167534955,-2.1020946541,-4.9112683865,218
123101,181186,240790,8.3928252695,-2.021935097,-4.9914279436,219
123067,181214,240772,8.3222370028,-2.0721843716,-4.9351966125,220
123102,181192,240831,8.316254946299999,-2.0973090089,-4.8969114509,221
123153,181196,240754,8.303094422,-2.2432711875,-4.9818566531999995,222
123267,181217,240814,8.2923267203,-2.1810577999,-4.9160540317,223
123417,181193,240843,8.3318082932,-2.1631116304,-4.9722853628,224
123598,181176,240776,8.2229348649,-2.3186450994000003,-5.0057848792,225
123773,181172,240825,8.2229348649,-2.0865413072,-4.995017177499999,226
123927,181175,240816,8.3593257531,-2.2636101795999997,-4.9304109673,227
124083,181200,240794,8.3784683339,-2.0973090089,-5.0344987504,228
124217,181182,240812,8.3114693011,-2.0781664281,-4.9435714916,229
124383,181192,240824,8.3784683339,-2.177468566,-4.9112683865,230
124510,181180,240826,8.2971123655,-2.1451654609,-4.9435714916,231
124643,181172,240817,8.3832539791,-2.2049860259000003,-4.9579284272,232
124778,181186,240789,8.3174513576,-2.3533410271,-4.9100719752,233
124898,181192,240821,8.3700934548,-2.0350956213,-5.0392843956,234
125006,181173,240785,8.3318082932,-1.9262221929999999,-5.029713105200001,235
125202,181161,240763,8.5974116018,-2.2205393728,-4.9435714916,236
125214,181166,240812,8.3653078096,-2.2217357841,-5.02492746,237
124860,181215,240807,8.1643107112,-2.0590238472999998,-4.9351966125,238
123890,181253,240765,8.2612200265,-2.0769700168,-4.9244289108,239
123050,181286,240782,8.5639120854,-2.0733807828999997,-4.8969114509,240
122535,181308,240780,8.4263247859,-2.1966111468,-4.9579284272,241
122352,181255,240766,8.316254946299999,-2.177468566,-4.844269353700001,242
122306,181271,240835,8.2600236152,-2.1487546948,-4.8586262893,243
122320,181232,240775,8.3688970435,-2.2719850587,-4.9005006848,244
122427,181214,240768,8.3892360356,-2.1116659445,-4.9160540317,245
122532,181178,240785,8.2875410751,-2.2444675988,-4.9435714916,246
122730,181169,240782,8.3976109147,-2.2121644937,-4.9304109673,247
122692,181181,240784,8.3365939384,-2.0494525569,-4.9710889515,248
122680,181200,240790,8.3593257531,-2.2444675988,-4.9387858464,249
122686,181198,240790,8.160721477300001,-2.1810577999,-4.9340002012,250
122743,181173,240741,8.3210405915,-2.0961125976,-5.044070040799999,251
122862,181148,240851,8.3557365192,-2.1212372348999997,-5.02492746,252
123012,181149,240733,8.3497544627,-2.1595223965,-5.0021956453,253
123232,181131,240765,8.3318082932,-2.2097716711,-5.0201418148,254
123371,181137,240735,8.2743805508,-2.129612114,-4.9818566531999995,255
123567,181117,240757,8.1032937349,-2.105683888,-4.9208396769,256
123710,181092,240720,8.2827554299,-2.2671994135,-4.977071008,257
123891,181095,240718,8.3784683339,-2.0506489682,-5.0153561695999995,258
124049,181067,240696,8.2899338977,-2.2193429615,-4.9962135888,259
124212,181073,240690,8.2600236152,-2.2336998971,-4.929214556,260
124396,181053,240685,8.2887374864,-2.1391834043999998,-4.953142782,261
124515,181048,240669,8.4550386571,-2.2241286067,-4.953142782,262
124687,181030,240639,8.360522164399999,-2.0590238472999998,-4.8921258057,263
124807,181028,240652,8.2899338977,-2.1403798157,-4.8729832249000005,264
124943,181031,240639,8.3617185757,-2.1678972756,-5.02492746,265
125085,180990,240631,8.3186477689,-2.1738793321000003,-4.844269353700001,266
125094,181043,240654,8.386843213,-2.0721843716,-5.0380879843,267
124582,181148,240687,8.2695949056,-2.1738793321000003,-4.9818566531999995,268
123874,181184,240672,8.4610207136,-2.2109680824,-4.9244289108,269
123409,181230,240727,8.398807326,-2.1631116304,-5.0117669357,270
123204,181191,240666,8.4741812379,-2.177468566,-4.9148576204,271
123161,181129,240624,8.2887374864,-2.2348963083999998,-4.9064827413000005,272
123211,181072,240601,8.3365939384,-2.2384855423,-4.9674997176,273
123347,181046,240565,8.3545401079,-2.0973090089,-4.8681975797,274
123463,180960,240539,8.2217384536,-2.2827527603999997,-4.9435714916,275
123660,180966,240490,8.231309744,-2.0530417908,-4.9878387097,276
123720,180947,240505,8.417949906799999,-2.1008982428,-4.9782674193,277
123812,180943,240476,8.2695949056,-2.0769700168,-4.9340002012,278
123859,180958,240441,8.2731841395,-2.1260228801,-5.029713105200001,279
123956,180913,240436,8.2887374864,-2.0733807828999997,-4.929214556,280
124043,180884,240427,8.2923267203,-2.1020946541,-4.9579284272,281
124208,180859,240381,8.3365939384,-2.2384855423,-4.9674997176,282
124370,180844,240332,8.3892360356,-2.1834506225,-4.8873401605,283
124565,180796,240340,8.327022648,-2.1391834043999998,-4.9064827413000005,284
124727,180811,240325,8.4418781328,-2.1882362677000002,-4.9722853628,285
124935,180768,240247,8.4741812379,-2.2432711875,-5.0117669357,286
125091,180790,240246,8.316254946299999,-2.1583259852,-4.9387858464,287
125265,180723,240217,8.3784683339,-2.0733807828999997,-5.02492746,288
125428,180706,240199,8.3318082932,-2.1882362677000002,-5.029713105200001,289
125577,180686,240160,8.3545401079,-2.1726829208,-5.0309095165,290
125723,180648,240169,8.3126657124,-2.2109680824,-5.02492746,291
125853,180649,240111,8.484948939599999,-2.2002003807,-5.010570524399999,292
126018,180623,240113,8.360522164399999,-2.1690936869,-4.9627140724,293
126136,180588,240042,8.4071822051,-2.1439690496,-4.8873401605,294
126279,180569,240088,8.3557365192,-2.1499511061,-4.9627140724,295
126441,180547,239983,8.3748791,-2.177468566,-4.9256253221,296
126475,180566,240027,8.123632727,-2.2013967919999997,-4.9579284272,297
126253,180701,240087,8.25523797,-2.2492532439999997,-4.9686961289000005,298
125937,180795,240160,8.517252044700001,-2.225325018,-5.010570524399999,299
125707,180807,240157,8.1619178886,-2.2336998971,-4.8538406441,300
125562,180782,240141,8.3222370028,-1.9932212258000002,-4.9686961289000005,301
125579,180730,240125,8.2839518412,-2.1786649773,-4.9998028226999995,302
125609,180669,240006,8.2181492197,-2.1726829208,-5.0201418148,303
125672,180638,240036,8.3796647452,-2.1738793321000003,-5.057230565099999,304
125808,180583,239979,8.3174513576,-2.1619152191,-5.044070040799999,305
125888,180557,239943,8.306683655899999,-2.1355941704999997,-5.000999234,306
125931,180584,239910,8.293523131599999,-2.1343977592,-5.0632126216,307
125932,180530,239885,8.2887374864,-2.0482561456,-5.0907300815,308
125933,180583,239892,8.303094422,-2.1631116304,-4.9340002012,309
125969,180515,239844,8.3593257531,-2.1308085253,-5.0955157266999995,310
125994,180475,239866,8.3557365192,-2.2301106632,-4.953142782,311
126072,180458,239786,8.279166196,-2.1499511061,-4.9399822577,312
126137,180436,239815,8.2875410751,-2.0590238472999998,-5.0333023391000005,313
126223,180396,239757,8.1894353485,-2.1547367513,-4.9579284272,314
126298,180358,239665,8.2648092604,-2.1906290903,-5.0093741131,315
126388,180268,239658,8.2695949056,-2.1547367513,-5.044070040799999,316
126467,180345,239675,8.3688970435,-2.3198415107,-4.9399822577,317
126613,180326,239663,8.3856468017,-2.0446669117,-5.071587500700001,318
126633,180337,239634,8.2372918005,-2.2013967919999997,-4.9962135888,319
126731,180315,239648,8.4299140198,-1.998006871,-5.0476592747,320
126810,180299,239684,8.170292767700001,-2.1499511061,-4.9866422984,321
126923,180286,239640,8.236095389199999,-2.2815563491,-4.9830530645,322
127029,180312,239613,8.3401831723,-2.2576281231,-4.8921258057,323
127105,180298,239596,8.3892360356,-2.1583259852,-4.9208396769,324
127146,180340,239624,8.484948939599999,-2.1870398563999998,-4.9722853628,325
127203,180354,239624,8.3126657124,-2.1439690496,-4.9483571368,326
126967,180516,239715,8.1750784129,-2.105683888,-4.9818566531999995,327
126547,180618,239772,8.364111398299999,-2.105683888,-5.029713105200001,328
126213,180647,239796,8.3114693011,-2.2336998971,-4.9351966125,329
125993,180623,239759,8.2755769621,-2.2384855423,-4.9387858464,330
125874,180594,239729,8.2660056717,-2.2348963083999998,-5.010570524399999,331
125746,180542,239731,8.3497544627,-2.3186450994000003,-5.0153561695999995,332
125706,180503,239725,8.25523797,-2.1870398563999998,-4.8251267729,333
125691,180474,239676,8.3940216808,-2.1343977592,-4.9962135888,334
125697,180431,239656,8.3832539791,-2.0973090089,-5.010570524399999,335
125701,180435,239616,8.2695949056,-2.1403798157,-4.977071008,336
125651,180470,239637,8.4167534955,-2.1212372348999997,-5.072783911999999,337
125634,180485,239613,8.2648092604,-2.1726829208,-4.9435714916,338
125630,180459,239632,8.4203427294,-2.2109680824,-4.9016970961,339
125640,180431,239539,8.2743805508,-2.0303099761,-4.977071008,340
125711,180376,239604,8.316254946299999,-2.2348963083999998,-4.9962135888,341
125794,180388,239532,8.3114693011,-2.0207386857,-4.9196432655999995,342
125864,180383,239550,8.3365939384,-2.1487546948,-5.0153561695999995,343
125985,180317,239522,8.3928252695,-2.15354034,-4.9627140724,344
126062,180343,239455,8.3174513576,-2.1451654609,-4.9854458871,345
126155,180332,239455,8.3365939384,-2.2348963083999998,-4.9639104837,346
126308,180326,239453,8.3138621237,-2.2289142519,-5.0285166938999994,347
126347,180307,239475,8.3557365192,-2.2396819536,-4.9866422984,348
126441,180286,239450,8.360522164399999,-2.2205393728,-4.9758745967,349
126557,180299,239426,8.3700934548,-2.1260228801,-4.8957150396,350
126659,180272,239410,8.3449688175,-2.0913269524,-4.9208396769,351
126754,180266,239351,8.398807326,-2.1583259852,-4.850251410199999,352
126847,180266,239359,8.2504523248,-2.3964118339,-4.9627140724,353
126929,180244,239352,8.2983087768,-2.1487546948,-4.8107698373000005,354
126987,180280,239372,8.3222370028,-2.2719850587,-4.9435714916,355
126814,180412,239426,8.279166196,-2.0925233637,-4.977071008,356
126468,180499,239488,8.2456666796,-2.1008982428,-4.977071008,357
125961,180581,239546,8.1044901462,-2.1439690496,-4.8538406441,358
125635,180569,239478,8.3461652288,-2.1343977592,-4.953142782,359
125458,180530,239476,8.3557365192,-2.2193429615,-4.9005006848,360
125293,180495,239486,8.2420774457,-2.4203400599,-4.9340002012,361
125226,180463,239430,8.4263247859,-2.1200408236,-5.1577291143,362
125208,180384,239369,8.4251283746,-2.1906290903,-4.9340002012,363
125249,180371,239331,8.3976109147,-2.1918255016,-4.977071008,364
125256,180387,239282,8.2983087768,-2.3102702203,-4.9435714916,365
125258,180369,239357,8.3796647452,-2.2109680824,-4.9016970961,366
125238,180374,239242,8.3832539791,-2.2588245344,-4.9674997176,367
125237,180356,239333,8.3784683339,-2.1068802992999998,-4.9160540317,368
125237,180365,239303,8.2923267203,-2.3760728418,-4.9208396769,369
125290,180354,239238,8.2037922841,-2.1116659445,-4.9148576204,370
125350,180334,239185,8.3114693011,-2.1583259852,-5.0632126216,371
125448,180283,239192,8.4119678503,-2.1834506225,-5.071587500700001,372
125562,180298,239165,8.3784683339,-2.0602202586000002,-4.929214556,373
125681,180255,239190,8.2743805508,-2.2336998971,-4.8909293944,374
125768,180274,239171,8.3748791,-2.1726829208,-4.9435714916,375
125890,180259,239120,8.306683655899999,-2.0973090089,-4.9818566531999995,376
125985,180254,239113,8.3449688175,-2.1678972756,-5.057230565099999,377
125971,180260,239143,8.4167534955,-2.1200408236,-4.9914279436,378
126188,180207,239097,8.280362607299999,-2.1547367513,-4.8909293944,379
126324,180226,239078,8.2995051881,-2.1487546948,-4.9914279436,380
126383,180213,239020,8.422735552,-2.0685951377,-4.7868416113,381
126480,180177,239073,8.2839518412,-2.2193429615,-4.9483571368,382
126591,180195,238973,8.3700934548,-2.2767707039,-4.9866422984,383
126683,180178,239041,8.3306118819,-2.1834506225,-4.9016970961,384
126774,180215,239039,8.5208412786,-2.1439690496,-4.9639104837,385
126642,180288,239064,8.446663778,-2.2671994135,-4.9962135888,386
126225,180415,239191,8.3222370028,-2.1451654609,-5.0201418148,387
125750,180506,239170,8.4071822051,-2.1200408236,-5.0093741131,388
125376,180495,239161,8.2456666796,-2.0769700168,-4.90528633,389
125204,180483,239127,8.2636128491,-2.1308085253,-4.9112683865,390
125083,180419,239130,8.3413795836,-2.2241286067,-5.0153561695999995,391
125050,180403,239069,8.364111398299999,-2.1487546948,-4.9483571368,392
125071,180332,239041,8.2887374864,-2.2588245344,-4.8777688701,393
125109,180302,239021,8.2887374864,-2.0781664281,-4.8909293944,394
125151,180271,238985,8.236095389199999,-2.0925233637,-5.0117669357,395
125137,180257,238965,8.3365939384,-2.0673987264,-4.990231532299999,396
125097,180288,238995,8.3174513576,-2.0350956213,-5.0237310487,397
125100,180286,238911,8.3258262367,-2.2157537276,-4.953142782,398
125119,180234,238888,8.327022648,-2.1248264688,-4.9722853628,399
125143,180230,238885,8.3461652288,-2.2109680824,-4.977071008,400
125222,180185,238863,8.4873417622,-2.3054845751,-4.869393991,401
125321,180146,238815,8.3174513576,-2.1403798157,-5.044070040799999,402
125421,180125,238837,8.2133635745,-2.2348963083999998,-5.010570524399999,403
125503,180125,238823,8.1128650253,-2.2719850587,-4.8969114509,404
125609,180107,238831,8.4071822051,-2.2396819536,-4.9914279436,405
125718,180067,238745,8.2648092604,-2.2875384056,-4.9914279436,406
125797,180068,238758,8.1547394208,-2.1343977592,-4.9112683865,407
125922,180078,238690,8.3210405915,-2.2384855423,-4.9160540317,408
126007,180031,238710,8.2229348649,-2.225325018,-4.9818566531999995,409
126095,180026,238643,8.2695949056,-2.1487546948,-4.9926243549,410
126206,179990,238585,8.2887374864,-2.0446669117,-4.9244289108,411
126293,179982,238623,8.3222370028,-2.1439690496,-4.9866422984,412
126392,179989,238640,8.3353975271,-2.1786649773,-4.9914279436,413
126461,179991,238539,8.3126657124,-2.1439690496,-5.000999234,414
126550,179942,238581,8.3090764785,-2.0063817501,-4.990231532299999,415
126501,179991,238555,8.3593257531,-2.2217357841,-4.9387858464,416
126191,180138,238633,8.3126657124,-2.0829520733,-4.9016970961,417
125738,180258,238686,8.2588272039,-2.2444675988,-4.953142782,418
125385,180241,238697,8.3892360356,-2.1547367513,-4.9591248385,419
125179,180303,238684,8.3258262367,-2.1068802992999998,-4.9686961289000005,420
125068,180225,238617,8.1463645417,-2.1403798157,-4.9112683865,421
124973,180160,238617,8.3078800672,-2.27318147,-4.9340002012,422
125075,180139,238576,8.3593257531,-2.0973090089,-4.9639104837,423
125115,180084,238517,8.294719542900001,-2.1487546948,-4.9208396769,424
125136,180092,238492,8.459824302300001,-2.2061824372,-4.9818566531999995,425
125095,180100,238517,8.1188470818,-2.081755662,-5.0057848792,426
125031,180109,238489,8.4071822051,-2.0877377184999997,-4.977071008,427
124978,180124,238516,8.327022648,-2.1583259852,-5.0057848792,428
124954,180107,238488,8.1415788965,-2.1966111468,-4.9244289108,429
124964,180070,238482,8.327022648,-2.1595223965,-5.0285166938999994,430
125007,180063,238466,8.240881034400001,-2.2348963083999998,-5.0392843956,431
125082,180019,238395,8.4693955927,-2.1451654609,-4.9100719752,432
125168,180007,238381,8.170292767700001,-2.2671994135,-5.0057848792,433
125238,180001,238378,8.445467366699999,-2.1439690496,-5.0955157266999995,434
125335,180000,238397,8.3497544627,-2.0925233637,-4.9686961289000005,435
125340,179977,238311,8.279166196,-2.3102702203,-5.0775695572,436
125468,179988,238342,8.2743805508,-2.0255243308999997,-5.0153561695999995,437
125511,179982,238325,8.293523131599999,-2.2061824372,-4.9483571368,438
125584,180006,238305,8.226524098799999,-2.1870398563999998,-5.044070040799999,439
125627,179997,238299,8.327022648,-2.0973090089,-5.044070040799999,440
125726,179993,238354,8.2887374864,-2.2013967919999997,-4.9483571368,441
125773,180043,238357,8.3365939384,-2.1487546948,-5.096712138,442
125863,180018,238344,8.3126657124,-2.2480568327,-4.9387858464,443
125787,180102,238314,8.3557365192,-2.1631116304,-5.057230565099999,444
125454,180186,238395,8.3461652288,-2.0961125976,-4.9627140724,445
124756,180327,238468,8.3306118819,-2.2959132847,-4.9340002012,446
124224,180324,238500,8.2648092604,-2.2301106632,-5.0153561695999995,447
123891,180325,238503,8.5076807543,-2.105683888,-4.929214556,448
123676,180291,238479,8.2983087768,-2.1726829208,-4.9866422984,449
123563,180293,238479,8.293523131599999,-2.1391834043999998,-4.9244289108,450
123593,180247,238455,8.4358960763,-2.1583259852,-5.0668018555,451
123562,180243,238405,8.3724862774,-2.0530417908,-4.9998028226999995,452
123599,180249,238437,8.3688970435,-2.2492532439999997,-4.953142782,453
123577,180219,238390,8.4358960763,-2.0925233637,-4.9543391933,454
123530,180265,238415,8.3832539791,-2.2097716711,-4.9208396769,455
123468,180276,238413,8.3940216808,-2.2109680824,-4.9674997176,456
123449,180250,238397,8.2707913169,-2.2265214293,-5.0344987504,457
123477,180245,238414,8.25523797,-2.1858434451,-4.9734817741,458
123512,180251,238341,8.5112699882,-2.2109680824,-4.9256253221,459
123676,180186,238391,8.2983087768,-2.0829520733,-4.9340002012,460
123768,180266,238367,8.2695949056,-2.1583259852,-4.8765724588,461
123891,180237,238340,8.2085779293,-1.9812571127999998,-4.8634119345,462
124011,180194,238350,8.3353975271,-2.1870398563999998,-5.0668018555,463
124146,180240,238366,8.3880396243,-2.2348963083999998,-5.0045884679,464
124264,180231,238336,8.3413795836,-2.1260228801,-4.9674997176,465
124358,180212,238332,8.25523797,-2.2169501389,-4.9818566531999995,466
124470,180221,238375,8.2085779293,-2.1164515897,-4.9447679029,467
124605,180219,238307,8.1990066389,-2.1248264688,-4.9304109673,468
124713,180211,238342,8.2025958728,-2.1308085253,-5.057230565099999,469
124798,180221,238321,8.3018980107,-2.2157537276,-4.9256253221,470
124909,180214,238358,8.3174513576,-2.1260228801,-4.8825545153,471
125019,180220,238288,8.3892360356,-2.1164515897,-5.000999234,472
125047,180226,238304,8.236095389199999,-2.1547367513,-4.9160540317,473
124747,180313,238348,8.280362607299999,-2.1631116304,-4.9483571368,474
124010,180445,238363,8.2983087768,-2.1332013479,-5.010570524399999,475
123341,180488,238486,8.3461652288,-2.1906290903,-4.9818566531999995,476
122797,180496,238457,8.4035929712,-2.0542382021,-4.9112683865,477
122671,180474,238445,8.2743805508,-2.1918255016,-4.9483571368,478
122552,180441,238420,8.2707913169,-2.0925233637,-4.9112683865,479
122523,180449,238362,8.25523797,-2.1260228801,-4.9734817741,480
122555,180415,238409,8.279166196,-2.1918255016,-4.9591248385,481
122653,180392,238380,8.4358960763,-2.1020946541,-4.9387858464,482
122728,180416,238368,8.3401831723,-2.1391834043999998,-4.9674997176,483
122746,180435,238415,8.2325061553,-2.2205393728,-5.000999234,484
122750,180430,238366,8.4969130526,-2.1332013479,-5.010570524399999,485
122727,180406,238405,8.2612200265,-2.0685951377,-5.000999234,486
122791,180397,238353,8.4646099475,-2.0315063874,-5.1003013719000005,487
122844,180417,238369,8.4490566006,-2.225325018,-4.977071008,488
122993,180394,238323,8.3078800672,-2.3401805028,-4.9256253221,489
123149,180400,238357,8.294719542900001,-2.0865413072,-4.8681975797,490
123342,180349,238333,8.3174513576,-2.0829520733,-5.010570524399999,491
123485,180358,238355,8.3688970435,-1.9920248145,-4.9256253221,492
123651,180365,238272,8.4119678503,-2.2719850587,-5.0045884679,493
123796,180348,238278,8.4215391407,-2.0673987264,-4.9208396769,494
123925,180335,238283,8.3126657124,-2.2301106632,-4.9674997176,495
124096,180339,238272,8.1415788965,-2.0398812665,-4.9304109673,496
124192,180281,238185,8.271987728200001,-2.1583259852,-4.9483571368,497
124353,180305,238205,8.5028951091,-2.1475582835,-4.9483571368,498
124494,180282,238180,8.458627890999999,-2.3162522768000002,-4.9435714916,499
124619,180256,238125,8.3330047045,-2.1451654609,-4.8538406441,500
124725,180251,238143,8.3174513576,-2.1355941704999997,-5.1050870171,501
124697,180296,238147,8.4203427294,-2.2002003807,-5.0045884679,502
124199,180390,238215,8.316254946299999,-2.2444675988,-5.0500520973,503
123466,180490,238281,8.3545401079,-2.0315063874,-4.9160540317,504
122948,180497,238283,8.2205420423,-2.0961125976,-4.9064827413000005,505
122680,180463,238261,8.2983087768,-2.1068802992999998,-4.9962135888,506
122591,180495,238239,8.3210405915,-2.1355941704999997,-4.9627140724,507
122590,180393,238180,8.3174513576,-2.129612114,-5.029713105200001,508
122660,180364,238178,8.2229348649,-2.1008982428,-4.8777688701,509
122790,180347,238156,8.2827554299,-2.1966111468,-4.8825545153,510
122960,180310,238136,8.3365939384,-2.2911276395,-5.0955157266999995,511
123016,180318,238145,8.4023965599,-2.2576281231,-5.000999234,512
122979,180325,238166,8.2971123655,-2.1786649773,-4.990231532299999,513
122953,180332,238158,8.4119678503,-2.0685951377,-4.9100719752,514
122972,180336,238119,8.1463645417,-2.1391834043999998,-4.9387858464,515
123033,180284,238070,8.3413795836,-2.1643080417,-4.9591248385,516
123191,180263,238075,8.2887374864,-2.1870398563999998,-5.058426976400001,517
123327,180241,238097,8.2085779293,-2.1870398563999998,-5.0201418148,518
123469,180218,238055,8.2504523248,-2.0434705004000002,-4.8873401605,519
123601,180195,238014,8.279166196,-2.1092731219,-5.071587500700001,520
123759,180184,238013,8.183453292,-2.1678972756,-5.029713105200001,521
123885,180186,238014,8.2648092604,-2.1343977592,-4.9304109673,522
124032,180167,237966,8.279166196,-2.081755662,-5.0632126216,523
124142,180151,237984,8.231309744,-2.0973090089,-4.9196432655999995,524
124257,180134,238014,8.3306118819,-2.1918255016,-4.9674997176,525
124361,180130,237975,8.2600236152,-2.2576281231,-4.9304109673,526
124487,180123,237938,8.3413795836,-2.1068802992999998,-5.0775695572,527
124609,180113,237895,8.2743805508,-2.1822542112,-4.995017177499999,528
124709,180075,237933,8.293523131599999,-2.0925233637,-5.010570524399999,529
124792,180087,237911,8.2648092604,-2.2025932033,-4.9351966125,530
124648,180099,237880,8.3126657124,-2.1822542112,-4.9483571368,531
124086,180225,237977,8.3892360356,-2.129612114,-4.90528633,532
123461,180318,237992,8.4789668831,-2.1272192914,-4.953142782,533
123079,180307,238054,8.350950873999999,-2.1164515897,-4.9112683865,534
122945,180258,238027,8.3258262367,-2.2660030021999997,-4.9244289108,535
122904,180223,237938,8.279166196,-2.1403798157,-5.0392843956,536
122956,180164,237887,8.373682688699999,-2.0410776778,-4.9674997176,537
123065,180150,237874,8.2420774457,-2.1918255016,-5.0620162103,538
123183,180122,237878,8.1930245824,-2.1104695332,-5.058426976400001,539
123182,180119,237872,8.4215391407,-2.2348963083999998,-5.0344987504,540
123133,180152,237886,8.2217384536,-2.1631116304,-4.8215375389999995,541
123119,180179,238001,8.25523797,-2.1451654609,-4.8717868136,542
123108,180180,237909,8.2695949056,-2.1200408236,-5.02492746,543
123156,180147,237913,8.3653078096,-2.0877377184999997,-5.0069812905,544
123231,180175,237899,8.1499537756,-2.3306092124,-4.9818566531999995,545
123357,180165,237949,8.350950873999999,-2.2528424779,-4.9399822577,546
123480,180156,237880,8.3844503904,-2.1619152191,-5.072783911999999,547
123602,180153,237948,8.364111398299999,-2.0733807828999997,-4.9722853628,548
123721,180149,237949,8.3258262367,-2.105683888,-4.9591248385,549
123835,180136,237915,8.3365939384,-2.297109696,-4.9579284272,550
123971,180135,237931,8.4263247859,-2.1343977592,-4.9866422984,551
124105,180148,237904,8.2695949056,-2.1906290903,-4.9016970961,552
124210,180125,237882,8.2564343813,-2.1475582835,-4.8825545153,553
124366,180148,237883,8.4394853102,-2.2013967919999997,-5.0201418148,554
124446,180128,237908,8.338986761000001,-2.2013967919999997,-4.9340002012,555
124585,180129,237919,8.3545401079,-2.2013967919999997,-5.0344987504,556
124726,180119,237921,8.4071822051,-2.1260228801,-5.0679982668,557
124796,180119,237883,8.231309744,-2.2145573163,-4.9304109673,558
124768,180180,237885,8.4119678503,-1.9968104597,-5.010570524399999,559
124367,180252,237969,8.294719542900001,-2.0961125976,-5.0165525809,560
123587,180362,238030,8.2648092604,-2.27318147,-4.9064827413000005,561
122915,180393,238081,8.4406817215,-2.2576281231,-5.096712138,562
122544,180364,238025,8.4251283746,-2.1822542112,-4.9579284272,563
122365,180348,238018,8.160721477300001,-2.2013967919999997,-4.816751893799999,564
122233,180343,238001,8.3497544627,-2.129612114,-4.995017177499999,565
122206,180294,237987,8.3222370028,-2.1164515897,-4.9196432655999995,566
122276,180269,238029,8.4358960763,-2.2109680824,-4.953142782,567
122403,180238,238005,8.170292767700001,-2.1116659445,-4.9447679029,568
122476,180251,237976,8.2660056717,-2.2205393728,-4.9112683865,569
122474,180242,237982,8.2887374864,-2.081755662,-4.8239303616,570
122457,180261,238029,8.2827554299,-2.1020946541,-4.8861437492,571
122482,180245,237963,8.4299140198,-2.1954147355,-4.9579284272,572
122536,180232,238036,8.2695949056,-2.2767707039,-4.9782674193,573
122645,180246,237938,8.3018980107,-2.0781664281,-4.9914279436,574
122783,180223,237972,8.350950873999999,-2.0494525569,-4.990231532299999,575
122978,180158,237947,8.3748791,-2.2301106632,-4.9399822577,576
123127,180185,237952,8.1990066389,-2.0303099761,-4.9208396769,577
123295,180166,237939,8.364111398299999,-2.225325018,-5.0775695572,578
123445,180156,237921,8.3688970435,-2.1343977592,-4.9005006848,579
123560,180209,237920,8.2755769621,-2.2576281231,-4.9627140724,580
123736,180160,237944,8.2743805508,-2.1631116304,-4.8634119345,581
123861,180156,237947,8.3545401079,-2.1547367513,-5.1290152431000005,582
124013,180156,237943,8.3748791,-2.2576281231,-4.9016970961,583
124152,180205,237930,8.4023965599,-2.2301106632,-4.9148576204,584
124212,180148,237913,8.279166196,-2.0542382021,-5.010570524399999,585
124392,180151,237888,8.3700934548,-2.1882362677000002,-4.8430729424,586
124532,180134,237891,8.3042908333,-2.15354034,-4.8969114509,587
124575,180160,237928,8.2743805508,-2.2061824372,-4.9818566531999995,588
124218,180264,237975,8.2648092604,-2.1152551784,-5.0021956453,589
123429,180345,238043,8.352147285300001,-2.0961125976,-5.0344987504,590
122833,180435,238069,8.3425759949,-2.2827527603999997,-5.010570524399999,591
122496,180415,238058,8.3593257531,-2.1918255016,-4.9351966125,592
122388,180390,238028,8.3461652288,-2.2348963083999998,-5.0476592747,593
122381,180377,238056,8.2743805508,-2.2301106632,-4.8969114509,594
122432,180317,237983,8.3940216808,-2.2588245344,-5.0763731459,595
122571,180287,237997,8.1894353485,-2.177468566,-4.9016970961,596
122707,180279,237964,8.303094422,-2.2289142519,-4.9579284272,597
122789,180251,237933,8.4263247859,-2.1714865095,-4.8825545153,598
122825,180246,237982,8.2839518412,-2.2863419943,-4.8909293944,599
122850,180275,238002,8.2731841395,-2.0925233637,-5.0679982668,600
122981,180282,237930,8.4514494232,-2.1008982428,-4.9064827413000005,601
122921,180227,237934,8.3461652288,-2.045863323,-5.0488556860000005,602
123154,180221,237924,8.2037922841,-2.0542382021,-4.9818566531999995,603
123292,180204,237879,8.2743805508,-2.1966111468,-4.9148576204,604
123469,180176,237858,8.3545401079,-2.2396819536,-5.0153561695999995,605
123650,180067,237840,8.3688970435,-2.1762721547,-4.9627140724,606
123784,180136,237857,8.3832539791,-2.2121644937,-4.9351966125,607
123971,180106,237847,8.303094422,-2.1547367513,-4.9483571368,608
124103,180109,237820,8.2743805508,-2.045863323,-4.9962135888,609
124261,180077,237753,8.4071822051,-2.0494525569,-4.9627140724,610
124396,180090,237793,8.427521197199999,-2.1475582835,-4.9866422984,611
124527,180050,237758,8.3928252695,-2.1212372348999997,-4.9244289108,612
124660,180044,237744,8.1846497033,-2.2205393728,-5.0201418148,613
124808,180049,237782,8.2707913169,-2.1439690496,-4.9579284272,614
124898,180010,237739,8.4035929712,-2.1918255016,-4.917250443,615
125047,180068,237736,8.3401831723,-2.2241286067,-5.0428736295,616
125025,180017,237744,8.3928252695,-2.1164515897,-4.8873401605,617
124600,180148,237781,8.2875410751,-2.2205393728,-4.9866422984,618
123946,180203,237809,8.2695949056,-2.1726829208,-4.8251267729,619
123540,180269,237890,8.231309744,-2.2336998971,-5.029713105200001,620
123321,180271,237900,8.226524098799999,-2.1858434451,-5.1158547188000005,621
123274,180241,237860,8.3545401079,-2.0721843716,-4.8681975797,622
123313,180209,237803,8.2875410751,-2.1822542112,-4.9722853628,623
123408,180191,237839,8.2504523248,-2.0255243308999997,-4.9435714916,624
123554,180176,237779,8.3078800672,-2.0913269524,-4.9579284272,625
123653,180146,237808,8.398807326,-2.0925233637,-5.010570524399999,626
123662,180127,237785,8.3078800672,-2.1631116304,-5.0237310487,627
123666,180140,237772,8.3413795836,-2.0446669117,-4.9387858464,628
123700,180117,237712,8.3593257531,-2.2145573163,-5.0392843956,629
123587,180098,237762,8.279166196,-2.1834506225,-4.9064827413000005,630
123695,180099,237718,8.3844503904,-2.1403798157,-5.02492746,631
123914,180072,237662,8.1798640581,-2.1918255016,-4.9148576204,632
124037,180089,237718,8.3497544627,-2.2336998971,-5.0153561695999995,633
124156,180067,237669,8.3210405915,-2.1726829208,-5.0823552024,634
124282,180045,237658,8.3844503904,-2.2301106632,-5.000999234,635
124426,180018,237631,8.2468630909,-2.0590238472999998,-5.000999234,636
124560,179996,237632,8.226524098799999,-2.27318147,-4.953142782,637
124657,180010,237629,8.4514494232,-2.2875384056,-5.0488556860000005,638
124745,179991,237631,8.364111398299999,-2.2384855423,-5.0057848792,639
124866,179966,237577,8.2983087768,-2.1583259852,-4.9483571368,640
124965,179964,237589,8.3258262367,-2.1164515897,-4.953142782,641
125028,179973,237584,8.2169528084,-2.1212372348999997,-5.0344987504,642
125112,179956,237555,8.236095389199999,-2.1918255016,-4.9782674193,643
125155,179959,237525,8.3042908333,-2.1738793321000003,-4.9256253221,644
125025,180013,237560,8.2372918005,-2.2157537276,-5.0380879843,645
124489,180143,237641,8.3497544627,-2.1212372348999997,-4.8921258057,646
123814,180257,237715,8.3593257531,-2.2109680824,-4.9160540317,647
123476,180257,237802,8.2839518412,-2.1918255016,-4.9579284272,648
123306,180254,237724,8.3282190593,-2.1355941704999997,-4.9818566531999995,649
123258,180235,237718,8.350950873999999,-2.1152551784,-4.844269353700001,650
123286,180213,237707,8.3688970435,-2.1643080417,-4.9495535481,651
123417,180164,237703,8.2983087768,-2.2815563491,-5.0153561695999995,652
123475,180162,237685,8.3593257531,-2.0877377184999997,-4.9112683865,653
123542,180176,237698,8.2995051881,-2.1355941704999997,-4.9818566531999995,654
123544,180219,237740,8.364111398299999,-2.2336998971,-5.0668018555,655
123499,180217,237717,8.4035929712,-2.1726829208,-4.9674997176,656
123518,180205,237782,8.4071822051,-2.0973090089,-4.9435714916,657
123570,180242,237726,8.2600236152,-2.1678972756,-4.953142782,658
123661,180187,237752,8.459824302300001,-2.1786649773,-4.9914279436,659
123782,180197,237722,8.373682688699999,-2.2169501389,-4.9866422984,660
123946,180194,237744,8.3796647452,-2.2528424779,-4.929214556,661
124078,180188,237721,8.4023965599,-2.1547367513,-4.9005006848,662
124199,180195,237737,8.2983087768,-2.2109680824,-4.977071008,663
124336,180169,237740,8.3844503904,-2.1487546948,-4.929214556,664
124478,180169,237810,8.3557365192,-2.0530417908,-4.9818566531999995,665
124634,180183,237724,8.293523131599999,-2.2719850587,-4.9244289108,666
124719,180174,237720,8.2971123655,-1.9920248145,-4.9340002012,667
124860,180195,237726,8.3210405915,-2.1260228801,-4.9208396769,668
124941,180158,237733,8.2827554299,-2.0446669117,-4.9005006848,669
125072,180165,237745,8.3461652288,-2.1870398563999998,-4.9483571368,670
125203,180201,237676,8.3533436966,-2.1906290903,-4.9112683865,671
125303,180166,237731,8.3461652288,-2.1068802992999998,-5.058426976400001,672
125350,180184,237736,8.3844503904,-2.0769700168,-4.8586262893,673
124988,180238,237735,8.280362607299999,-2.1870398563999998,-4.9818566531999995,674
124210,180352,237783,8.3413795836,-2.081755662,-4.8059841921,675
123524,180430,237851,8.4418781328,-2.1966111468,-4.961517661099999,676
123154,180415,237876,8.25523797,-2.2002003807,-4.9304109673,677
122926,180382,237836,8.4083786164,-2.1248264688,-4.9579284272,678
122832,180348,237858,8.3078800672,-2.2205393728,-4.929214556,679
122793,180313,237829,8.327022648,-2.0673987264,-4.9818566531999995,680
122798,180318,237777,8.3557365192,-2.0913269524,-5.0153561695999995,681
122916,180281,237796,8.4837525283,-2.1487546948,-4.9328037898999995,682
122941,180249,237763,8.4741812379,-2.1678972756,-5.010570524399999,683
122977,180294,237789,8.327022648,-2.2348963083999998,-4.9016970961,684
122980,180304,237842,8.3880396243,-2.2157537276,-4.9866422984,685
123000,180311,237796,8.316254946299999,-2.1631116304,-5.0620162103,686
122994,180268,237803,8.231309744,-2.2061824372,-4.9627140724,687
123024,180265,237803,8.3820575678,-2.1439690496,-5.0153561695999995,688
123284,180241,237838,8.3210405915,-2.1822542112,-4.9818566531999995,689
123399,180236,237753,8.2887374864,-2.2013967919999997,-4.844269353700001,690
123596,180233,237770,8.4263247859,-2.2109680824,-4.8909293944,691
123722,180241,237794,8.3892360356,-2.225325018,-4.8873401605,692
123877,180227,237764,8.4514494232,-2.0925233637,-5.044070040799999,693
124004,180224,237774,8.2887374864,-2.2875384056,-4.9926243549,694
124140,180206,237734,8.5028951091,-2.2336998971,-4.9854458871,695
124280,180205,237755,8.4023965599,-2.2348963083999998,-4.953142782,696
124420,180170,237769,8.3306118819,-2.129612114,-4.9244289108,697
124559,180203,237726,8.239684623099999,-2.1439690496,-4.8909293944,698
124658,180204,237739,8.3365939384,-2.0255243308999997,-4.90528633,699
124668,180162,237695,8.364111398299999,-2.0733807828999997,-4.9926243549,700
124864,180157,237711,8.2707913169,-2.0398812665,-4.9914279436,701
124683,180202,237722,8.5399838594,-2.129612114,-4.9351966125,702
124010,180293,237780,8.4119678503,-2.1439690496,-4.953142782,703
123305,180346,237870,8.3940216808,-2.1966111468,-5.0488556860000005,704
122950,180377,237838,8.4023965599,-2.1583259852,-4.9005006848,705
122822,180301,237793,8.4023965599,-2.1810577999,-5.0285166938999994,706
122785,180283,237734,8.2743805508,-2.2348963083999998,-4.9627140724,707
122825,180260,237780,8.3880396243,-2.1260228801,-4.9435714916,708
122944,180239,237713,8.2839518412,-2.2061824372,-4.8346980633,709
123083,180165,237691,8.3700934548,-2.3054845751,-5.0201418148,710
123207,180158,237671,8.3222370028,-2.1690936869,-4.9208396769,711
123242,180172,237696,8.3318082932,-2.1236300575,-4.8921258057,712
123267,180182,237651,8.3892360356,-2.1487546948,-5.0333023391000005,713
123298,180152,237651,8.3174513576,-2.2827527603999997,-4.9627140724,714
123362,180153,237637,8.3748791,-2.1678972756,-4.9866422984,715
123476,180135,237610,8.3545401079,-2.1499511061,-4.8921258057,716
123643,180087,237639,8.4071822051,-1.9633109433,-4.8586262893,717
123823,180086,237569,8.3784683339,-2.1726829208,-4.9244289108,718
123984,180067,237609,8.4035929712,-2.2157537276,-4.90528633,719
124149,180033,237581,8.2851482525,-2.2157537276,-4.9627140724,720
124268,180037,237535,8.226524098799999,-2.1738793321000003,-4.8394837085,721
124455,180013,237524,8.4693955927,-2.225325018,-4.8586262893,722
124627,179978,237523,8.3892360356,-2.2205393728,-5.029713105200001,723
124753,179990,237503,8.2456666796,-2.2528424779,-4.9579284272,724
124877,179977,237505,8.373682688699999,-2.1068802992999998,-4.9627140724,725
125016,179968,237475,8.2504523248,-2.0362920326,-4.9962135888,726
125151,179968,237413,8.240881034400001,-2.1391834043999998,-4.9579284272,727
125260,179903,237433,8.405985793800001,-2.105683888,-4.9878387097,728
125400,179921,237437,8.4215391407,-2.1487546948,-4.9351966125,729
125514,179890,237423,8.327022648,-2.3198415107,-4.9627140724,730
125519,179938,237375,8.2217384536,-2.1631116304,-4.9818566531999995,731
125106,180053,237504,8.360522164399999,-2.0542382021,-4.8107698373000005,732
124638,180137,237549,8.4550386571,-2.1391834043999998,-4.9914279436,733
124323,180171,237540,8.2875410751,-2.2205393728,-5.010570524399999,734
124214,180125,237565,8.3210405915,-2.1918255016,-4.878965281399999,735
124246,180094,237475,8.4885381735,-2.1343977592,-5.087140847600001,736
124301,180030,237462,8.4646099475,-2.2109680824,-4.9866422984,737
124427,180001,237454,8.3880396243,-2.1930219129,-4.9722853628,738
124428,179960,237406,8.3545401079,-2.27318147,-4.8921258057,739
124532,179955,237398,8.3700934548,-2.2396819536,-4.9962135888,740
124555,179969,237437,8.25523797,-2.1499511061,-4.9483571368,741
124471,179965,237466,8.3880396243,-2.0961125976,-5.0775695572,742
124486,179996,237448,8.2648092604,-2.0207386857,-4.8825545153,743
124502,179974,237412,8.410771439,-2.1870398563999998,-4.9483571368,744
124588,179953,237412,8.3449688175,-2.2504496553,-4.9579284272,745
124701,179955,237430,8.2564343813,-2.2588245344,-5.0632126216,746
124797,179945,237381,8.3653078096,-2.2313070745,-5.0093741131,747
124917,179915,237382,8.3018980107,-2.1726829208,-4.9196432655999995,748
125021,179938,237367,8.4203427294,-2.2624137683,-4.953142782,749
125142,179926,237408,8.2085779293,-2.0542382021,-4.8777688701,750
125263,179919,237385,8.360522164399999,-2.177468566,-4.9818566531999995,751
125375,179977,237373,8.280362607299999,-2.1284157027,-5.010570524399999,752
125463,179943,237391,8.3449688175,-2.1499511061,-4.8634119345,753
125616,179948,237417,8.3174513576,-2.1308085253,-4.9914279436,754
125710,179937,237290,8.4418781328,-2.1918255016,-4.9579284272,755
125762,179903,237344,8.360522164399999,-2.1966111468,-4.9686961289000005,756
125892,179938,237398,8.303094422,-2.1595223965,-5.0201418148,757
126001,179942,237337,8.4358960763,-1.9728822337,-5.000999234,758
126120,179951,237366,8.2743805508,-2.1343977592,-4.9818566531999995,759
126209,179958,237389,8.2516487361,-2.0781664281,-5.0153561695999995,760
126039,180039,237392,8.327022648,-2.1595223965,-4.9914279436,761
125542,180132,237457,8.2779697847,-2.1116659445,-4.9196432655999995,762
124877,180215,237556,8.364111398299999,-2.1008982428,-4.8777688701,763
124570,180239,237527,8.3222370028,-2.1343977592,-5.0201418148,764
124304,180203,237539,8.2839518412,-2.344966148,-4.9244289108,765
124253,180170,237504,8.280362607299999,-2.2097716711,-4.8969114509,766
124137,180153,237518,8.3353975271,-2.1248264688,-4.9579284272,767
124105,180129,237501,8.2660056717,-2.1834506225,-5.0057848792,768
124143,180112,237474,8.3078800672,-2.2193429615,-4.9340002012,769
124186,180093,237449,8.5016986978,-2.2109680824,-5.0763731459,770
124186,180107,237450,8.3700934548,-2.1966111468,-4.9112683865,771
124117,180134,237422,8.3222370028,-2.1918255016,-5.0117669357,772
124133,180133,237464,8.2325061553,-2.009970984,-5.0823552024,773
124178,180084,237481,8.3796647452,-2.1439690496,-5.000999234,774
124196,180087,237406,8.3593257531,-2.2013967919999997,-5.02492746,775
124316,180055,237440,8.2971123655,-2.129612114,-4.9112683865,776
124421,180077,237451,8.3126657124,-2.1918255016,-4.9160540317,777
124546,180055,237408,8.458627890999999,-2.2671994135,-5.000999234,778
124674,180030,237403,8.2887374864,-2.1439690496,-4.9399822577,779
124786,180057,237424,8.3174513576,-2.2301106632,-4.9447679029,780
124909,180052,237369,8.3258262367,-2.2348963083999998,-4.9447679029,781
125005,180031,237411,8.3365939384,-2.1152551784,-4.9866422984,782
125125,180036,237402,8.3174513576,-2.2911276395,-4.9818566531999995,783
125244,180021,237390,8.3413795836,-2.1499511061,-4.8346980633,784
125337,180030,237390,8.350950873999999,-2.2289142519,-4.9686961289000005,785
125446,180027,237389,8.2887374864,-2.2145573163,-4.9722853628,786
125551,180003,237311,8.4071822051,-2.1343977592,-4.9256253221,787
125657,179999,237364,8.364111398299999,-2.2683958248,-4.9483571368,788
125643,180053,237388,8.316254946299999,-2.0446669117,-4.9674997176,789
125199,180181,237448,8.3748791,-2.1116659445,-4.9304109673,790
124509,180265,237483,8.3832539791,-2.0961125976,-4.9686961289000005,791
123921,180295,237539,8.2504523248,-1.9393827173,-4.8299124181,792
123590,180290,237575,8.3174513576,-2.0733807828999997,-4.9962135888,793
123429,180242,237478,8.3306118819,-2.2528424779,-4.8538406441,794
123314,180246,237517,8.2229348649,-2.0171494518,-4.9100719752,795
123271,180180,237477,8.3018980107,-2.2157537276,-5.0201418148,796
123338,180180,237475,8.3880396243,-2.0171494518,-4.9447679029,797
123430,180126,237447,8.3653078096,-2.117648001,-5.0057848792,798
123423,180139,237427,8.3401831723,-2.2013967919999997,-4.9627140724,799
123408,180169,237419,8.207381518,-2.1918255016,-5.1086762509999994,800
123378,180160,237450,8.3545401079,-2.225325018,-4.9483571368,801
123407,180148,237456,8.2456666796,-2.0350956213,-4.8203411277,802
123446,180149,237418,8.293523131599999,-2.2109680824,-5.0344987504,803
123533,180099,237420,8.2887374864,-2.1918255016,-5.0057848792,804
123678,180079,237402,8.185846114599999,-2.2540388892,-4.9722853628,805
123827,180059,237368,8.2875410751,-2.2061824372,-5.085944436299999,806
123959,180033,237350,8.1882389372,-2.1966111468,-5.0057848792,807
124113,180020,237261,8.3748791,-2.2013967919999997,-4.9674997176,808
124255,180017,237313,8.3174513576,-2.2384855423,-4.9758745967,809
124364,180015,237290,8.1894353485,-2.1631116304,-4.9866422984,810
124511,179982,237298,8.2839518412,-2.1954147355,-4.9148576204,811
124677,180002,237255,8.3976109147,-2.0685951377,-4.9962135888,812
124768,179972,237292,8.4071822051,-2.15354034,-5.057230565099999,813
124883,179956,237263,8.236095389199999,-2.1212372348999997,-4.9112683865,814
124973,179943,237211,8.3748791,-2.1116659445,-4.8825545153,815
125081,179919,237230,8.1846497033,-2.1726829208,-4.9878387097,816
125210,179912,237228,8.3844503904,-2.1379869930999997,-4.9962135888,817
125205,179945,237238,8.327022648,-2.1343977592,-4.9866422984,818
124846,180065,237295,8.293523131599999,-2.081755662,-4.9447679029,819
124183,180143,237375,8.2456666796,-2.2875384056,-4.8634119345,820
123684,180196,237418,8.350950873999999,-2.1726829208,-4.9998028226999995,821
123417,180227,237399,8.3653078096,-2.1966111468,-5.044070040799999,822
123347,180189,237388,8.364111398299999,-2.1726829208,-4.816751893799999,823
123325,180134,237342,8.3976109147,-2.3102702203,-4.9543391933,824
123421,180091,237349,8.3928252695,-2.3006989299,-4.9495535481,825
123542,180075,237297,8.293523131599999,-2.15354034,-4.977071008,826
123645,180059,237304,8.3449688175,-2.1571295739000003,-5.000999234,827
123646,180082,237302,8.3461652288,-2.1248264688,-4.9866422984,828
123641,180079,237331,8.293523131599999,-2.1547367513,-4.8538406441,829
123578,180073,237303,8.3018980107,-2.1930219129,-4.9722853628,830
123623,180088,237269,8.25523797,-2.1439690496,-4.8873401605,831
123609,180056,237274,8.3078800672,-2.1343977592,-5.0679982668,832
123796,180029,237234,8.410771439,-2.0781664281,-5.096712138,833
123945,180047,237289,8.303094422,-2.1690936869,-4.9340002012,834
124156,179975,237214,8.2743805508,-2.1583259852,-4.929214556,835
124157,179842,237075,8.4083786164,-2.1678972756,-5.000999234,836
124170,179812,237001,8.306683655899999,-2.27318147,-5.058426976400001,837
124261,179811,237048,8.2612200265,-2.2636101795999997,-4.9591248385,838
124473,179936,237130,8.2600236152,-2.2313070745,-5.0775695572,839
124626,180024,237220,8.3258262367,-2.0973090089,-4.9674997176,840
124773,180047,237255,8.2743805508,-2.1643080417,-5.0069812905,841
124904,180021,237258,8.2217384536,-2.2396819536,-4.8681975797,842
124925,180063,237232,8.5734833758,-2.1439690496,-4.9866422984,843
125026,180047,237222,8.1415788965,-2.0733807828999997,-5.0691946781,844
125060,180023,237258,8.306683655899999,-2.2360927197000002,-5.010570524399999,845
125066,180044,237301,8.3126657124,-2.2336998971,-5.000999234,846
124608,180122,237375,8.303094422,-2.1583259852,-5.0955157266999995,847
123912,180216,237406,8.2660056717,-2.0829520733,-5.0668018555,848
123390,180313,237459,8.279166196,-2.2636101795999997,-4.9878387097,849
123153,180310,237463,8.3078800672,-2.1966111468,-4.9160540317,850
123062,180289,237453,8.364111398299999,-2.1834506225,-5.010570524399999,851
123059,180246,237505,8.4012001486,-2.2588245344,-4.9914279436,852
123096,180222,237496,8.3677006322,-2.2719850587,-5.0679982668,853
123192,180229,237454,8.3796647452,-2.3353948576,-4.9627140724,854
123274,180224,237428,8.427521197199999,-2.1870398563999998,-5.0201418148,855
123281,180221,237464,8.2229348649,-2.2588245344,-4.9914279436,856
123289,180255,237542,8.4358960763,-2.0877377184999997,-4.9639104837,857
123283,180238,237513,8.3318082932,-2.1822542112,-4.8969114509,858
123317,180267,237543,8.1846497033,-2.1726829208,-5.044070040799999,859
123401,180258,237479,8.4550386571,-2.0303099761,-4.9686961289000005,860
123531,180247,237523,8.3796647452,-2.15354034,-5.0093741131,861
123721,180257,237481,8.3413795836,-2.2348963083999998,-5.0668018555,862
123812,180225,237501,8.3042908333,-2.3018953412000003,-4.9483571368,863
123949,180217,237490,8.226524098799999,-2.2360927197000002,-5.0285166938999994,864
124081,180219,237510,8.2504523248,-2.0494525569,-4.9148576204,865
124196,180231,237547,8.1882389372,-2.0829520733,-4.9351966125,866
124368,180206,237521,8.3353975271,-2.1152551784,-4.9830530645,867
124463,180178,237570,8.2707913169,-2.1870398563999998,-4.9399822577,868
124594,180238,237525,8.362914987,-2.2061824372,-5.0057848792,869
124707,180218,237514,8.2229348649,-2.177468566,-5.0524449199,870
124844,180226,237520,8.3545401079,-2.1954147355,-4.9495535481,871
124948,180217,237490,8.316254946299999,-2.1487546948,-4.9100719752,872
125041,180211,237459,8.2612200265,-2.03389921,-4.9962135888,873
125140,180186,237527,8.240881034400001,-2.1978075581,-4.9722853628,874
125035,180235,237516,8.4167534955,-2.0853448959,-5.0476592747,875
124371,180358,237577,8.280362607299999,-2.1918255016,-4.9304109673,876
123588,180423,237616,8.240881034400001,-2.2336998971,-4.9627140724,877
123027,180466,237644,8.3306118819,-2.1870398563999998,-4.9866422984,878
122744,180422,237645,8.226524098799999,-2.0925233637,-4.995017177499999,879
122597,180321,237670,8.293523131599999,-2.0111673952999998,-4.8681975797,880
122535,180397,237638,8.364111398299999,-2.2492532439999997,-4.9148576204,881
122536,180361,237622,8.3365939384,-2.2899312282,-4.9016970961,882
122628,180341,237620,8.3090764785,-2.1248264688,-5.0668018555,883
122718,180326,237608,8.2707913169,-2.1427726383,-5.02492746,884
122734,180338,237597,8.3796647452,-2.081755662,-4.9627140724,885
122735,180358,237647,8.2636128491,-2.1595223965,-4.9304109673,886
122713,180339,237611,8.3653078096,-2.0829520733,-4.953142782,887
122739,180355,237640,8.2181492197,-2.2193429615,-4.9914279436,888
122844,180299,237625,8.0937224445,-2.021935097,-5.0536413312,889
122985,180327,237620,8.306683655899999,-2.2624137683,-4.9483571368,890
123137,180288,237609,8.2564343813,-2.105683888,-4.9663033062999995,891
123269,180263,237558,8.3784683339,-2.1966111468,-5.0153561695999995,892
123434,180218,237525,8.2456666796,-2.1547367513,-4.9627140724,893
123568,180191,237514,8.3306118819,-2.1343977592,-4.9208396769,894
123732,180175,237517,8.3461652288,-2.1631116304,-4.9878387097,895
123884,180195,237551,8.3306118819,-2.2061824372,-5.0201418148,896
124008,180191,237417,8.3210405915,-2.2384855423,-4.899304273499999,897
124130,180156,237463,8.316254946299999,-2.1068802992999998,-4.9148576204,898
124265,180136,237429,8.3318082932,-2.1583259852,-5.0021956453,899
124391,180129,237411,8.3748791,-2.1439690496,-4.9160540317,900
124560,180141,237437,8.2600236152,-2.2815563491,-4.9722853628,901
124640,180101,237376,8.4873417622,-2.2073788485,-4.977071008,902
124722,180081,237365,8.525626923799999,-2.1343977592,-4.9387858464,903
124897,180075,237345,8.3748791,-2.1200408236,-4.9112683865,904
124967,180085,237393,8.279166196,-2.1547367513,-4.9866422984,905
124754,180126,237372,8.3078800672,-2.1343977592,-4.9818566531999995,906
124116,180225,237430,8.171489179,-2.0925233637,-4.9160540317,907
123411,180333,237490,8.303094422,-2.1726829208,-4.9387858464,908
123044,180305,237460,8.3210405915,-2.2145573163,-4.9483571368,909
122885,180295,237486,8.316254946299999,-2.0913269524,-5.000999234,910
122830,180164,237383,8.2731841395,-2.1439690496,-4.9340002012,911
122856,180242,237388,8.3976109147,-2.1966111468,-5.0344987504,912
122962,180177,237392,8.303094422,-2.1439690496,-4.9495535481,913
123077,180161,237387,8.373682688699999,-2.3198415107,-4.9435714916,914
123167,180135,237376,8.303094422,-2.2157537276,-4.8873401605,915
123174,180148,237366,8.2983087768,-2.0685951377,-5.000999234,916
123149,180128,237364,8.1882389372,-2.2911276395,-5.0153561695999995,917
123143,180099,237340,8.2229348649,-2.1343977592,-5.0428736295,918
123211,180155,237351,8.2516487361,-2.1583259852,-5.0392843956,919
123298,180103,237309,8.3078800672,-2.0733807828999997,-4.929214556,920
123445,180082,237252,8.2097743406,-2.1248264688,-4.9914279436,921
123576,180070,237322,8.236095389199999,-2.1966111468,-4.9866422984,922
123746,180056,237245,8.1308111948,-2.3389840915,-4.9914279436,923
123863,180027,237275,8.3772719226,-2.2013967919999997,-4.9483571368,924
124018,179995,237277,8.3126657124,-2.2576281231,-4.9627140724,925
124145,180014,237253,8.3126657124,-2.0398812665,-4.8729832249000005,926
124275,179979,237182,8.231309744,-2.2671994135,-5.000999234,927
124385,179990,237226,8.279166196,-2.1930219129,-4.9734817741,928
124491,179965,237208,8.293523131599999,-2.225325018,-4.953142782,929
124576,179975,237210,8.2779697847,-2.129612114,-5.0763731459,930
124671,179949,237186,8.1643107112,-2.1020946541,-5.0392843956,931
124778,179952,237178,8.4442709554,-2.3006989299,-5.029713105200001,932
124814,179944,237199,8.2516487361,-2.2396819536,-5.0488556860000005,933
124562,180024,237224,8.2743805508,-2.2301106632,-5.044070040799999,934
123891,180172,237292,8.2827554299,-2.1667008643,-4.8586262893,935
123316,180221,237375,8.279166196,-2.1499511061,-5.0153561695999995,936
122993,180254,237346,8.2217384536,-2.129612114,-4.9208396769,937
122885,180225,237350,8.3222370028,-2.2767707039,-4.9435714916,938
122854,180213,237354,8.2995051881,-2.1200408236,-5.010570524399999,939
122915,180161,237304,8.25523797,-2.2683958248,-5.1433721787,940
123048,180141,237311,8.2660056717,-2.0829520733,-5.044070040799999,941
123148,180121,237304,8.3461652288,-2.2396819536,-4.9160540317,942
123227,180148,237275,8.2660056717,-2.2396819536,-4.9914279436,943
123178,180181,237371,8.25523797,-2.1918255016,-4.8825545153,944
123145,180154,237341,8.240881034400001,-2.1164515897,-4.9064827413000005,945
123186,180211,237372,8.4370924876,-2.105683888,-5.0057848792,946
123266,180130,237369,8.4837525283,-2.0494525569,-4.9543391933,947
123367,180156,237324,8.1978102276,-2.1918255016,-4.9962135888,948
123527,180135,237345,8.3832539791,-2.0494525569,-5.0057848792,949
123663,180137,237333,8.373682688699999,-2.2396819536,-4.9112683865,950
123804,180126,237361,8.2325061553,-2.2348963083999998,-5.0811587911,951
123883,180112,237334,8.294719542900001,-2.2396819536,-4.9100719752,952
124073,180124,237313,8.2169528084,-2.1308085253,-4.9100719752,953
124202,180133,237322,8.4215391407,-2.2959132847,-4.953142782,954
124337,180097,237331,8.459824302300001,-2.225325018,-4.8861437492,955
124461,180106,237310,8.3090764785,-2.1499511061,-5.0476592747,956
124600,180120,237304,8.3413795836,-2.0793628394,-5.0823552024,957
124712,180118,237330,8.3844503904,-2.2097716711,-5.029713105200001,958
124802,180126,237357,8.2229348649,-2.0685951377,-4.8873401605,959
124698,180168,237346,8.4023965599,-2.1834506225,-4.9866422984,960
124076,180251,237424,8.3449688175,-2.0542382021,-4.9340002012,961
123345,180335,237488,8.4837525283,-2.0542382021,-4.9974100001,962
122841,180337,237512,8.236095389199999,-2.2863419943,-5.029713105200001,963
122546,180359,237466,8.4658063588,-2.2348963083999998,-5.0285166938999994,964
122421,180329,237478,8.347361640099999,-2.1008982428,-4.8825545153,965
122417,180293,237483,8.3186477689,-2.1008982428,-4.8969114509,966
122463,180293,237466,8.3174513576,-2.0733807828999997,-4.9627140724,967
122603,180248,237454,8.3413795836,-2.2025932033,-4.9818566531999995,968
122695,180220,237464,8.3365939384,-2.1631116304,-4.9351966125,969
122763,180225,237450,8.303094422,-2.0506489682,-4.9304109673,970
122764,180255,237425,8.2887374864,-2.1966111468,-4.8765724588,971
122797,180225,237422,8.3688970435,-2.1643080417,-4.9962135888,972
122866,180227,237460,8.4167534955,-2.1762721547,-4.9818566531999995,973
122909,180237,237434,8.3186477689,-1.9872391693,-4.9686961289000005,974
123127,180204,237422,8.3892360356,-2.0590238472999998,-4.977071008,975
123333,180203,237449,8.350950873999999,-2.0494525569,-4.9483571368,976
123449,180201,237498,8.2600236152,-2.0027925162,-5.026123871299999,977
123627,180185,237442,8.4071822051,-2.1212372348999997,-5.010570524399999,978
123769,180200,237397,8.4646099475,-2.2061824372,-5.0057848792,979
123951,180183,237397,8.445467366699999,-2.1918255016,-4.9758745967,980
124105,180199,237429,8.2564343813,-2.2444675988,-4.90528633,981
124232,180153,237432,8.3653078096,-2.1918255016,-4.8957150396,982
124388,180169,237457,8.364111398299999,-2.0877377184999997,-5.0907300815,983
124482,180177,237382,8.3222370028,-2.1918255016,-4.9579284272,984
124671,180145,237421,8.4777704718,-2.1104695332,-4.9998028226999995,985
124792,180154,237395,8.3545401079,-2.1870398563999998,-4.9399822577,986
124940,180116,237445,8.1846497033,-2.1391834043999998,-4.9734817741,987
124960,180151,237407,8.3449688175,-2.0626130812,-4.9387858464,988
124537,180260,237451,8.2839518412,-2.1690936869,-4.9435714916,989
123894,180372,237544,8.350950873999999,-2.081755662,-4.90528633,990
123393,180396,237613,8.3976109147,-2.1391834043999998,-5.0344987504,991
123186,180394,237629,8.3449688175,-2.1595223965,-4.9304109673,992
123112,180344,237599,8.373682688699999,-2.1152551784,-4.9627140724,993
123093,180318,237507,8.3365939384,-2.129612114,-4.9351966125,994
123136,180291,237486,8.2504523248,-2.1870398563999998,-5.0392843956,995
123241,180279,237562,8.3306118819,-2.1523439287,-4.8394837085,996
123379,180233,237515,8.3449688175,-2.15354034,-5.0907300815,997
123453,180172,237445,8.3126657124,-2.1870398563999998,-4.9914279436,998
123511,180225,237456,8.3078800672,-2.2492532439999997,-4.9112683865,999
123543,180201,237456,8.327022648,-2.1487546948,-4.9806602419,1000
123623,180193,237449,8.3126657124,-2.0877377184999997,-4.9483571368,1001
123721,180195,237382,8.2743805508,-2.1547367513,-4.8909293944,1002
123840,180151,237383,8.5268233351,-2.1212372348999997,-5.0045884679,1003
124003,180116,237395,8.2169528084,-2.0793628394,-4.9866422984,1004
124178,180119,237349,8.2600236152,-2.3485553819,-4.9710889515,1005
124296,180075,237333,8.3353975271,-2.3258235672,-4.90528633,1006
124488,180040,237359,8.3497544627,-2.1487546948,-4.9926243549,1007
124620,180034,237325,8.4119678503,-2.1966111468,-4.9256253221,1008
124797,180032,237304,8.2420774457,-2.3150558654999998,-4.9208396769,1009
124921,180015,237331,8.4035929712,-2.1583259852,-4.9818566531999995,1010
125056,179941,237257,8.25523797,-2.1726829208,-4.9064827413000005,1011
125218,179987,237309,8.4610207136,-2.2013967919999997,-4.9782674193,1012
125331,179976,237265,8.327022648,-2.1631116304,-5.0045884679,1013
125426,179965,237250,8.294719542900001,-2.1008982428,-5.0775695572,1014
125587,179940,237200,8.2504523248,-2.1678972756,-4.9686961289000005,1015
125676,179968,237217,8.3258262367,-2.1678972756,-4.9005006848,1016
125528,180003,237260,8.293523131599999,-2.2588245344,-4.9686961289000005,1017
125220,180114,237343,8.4311104311,-2.1104695332,-4.9818566531999995,1018
124761,180169,237348,8.3365939384,-2.1822542112,-4.8538406441,1019
124516,180194,237410,8.2983087768,-2.1080767106,-4.8071806034,1020
124421,180160,237360,8.458627890999999,-2.2301106632,-4.8634119345,1021
124407,180131,237322,8.3976109147,-2.1882362677000002,-5.0153561695999995,1022
124481,180077,237330,8.3497544627,-2.1870398563999998,-5.02492746,1023
124554,180037,237287,8.352147285300001,-2.1738793321000003,-4.9160540317,1024
124713,180004,237281,8.3174513576,-2.0590238472999998,-4.9483571368,1025
124638,180017,237248,8.2420774457,-2.225325018,-4.977071008,1026
124694,180018,237253,8.3832539791,-2.1068802992999998,-5.0057848792,1027
124767,179983,237315,8.170292767700001,-2.0913269524,-4.9387858464,1028
124750,180006,237201,8.2971123655,-2.1870398563999998,-5.0392843956,1029
124818,179981,237263,8.2731841395,-2.2109680824,-4.9304109673,1030
124908,179981,237199,8.3880396243,-2.1678972756,-4.9734817741,1031
125016,179947,237206,8.2516487361,-2.0865413072,-5.0189454035,1032
125150,179927,237171,8.3688970435,-2.1403798157,-5.0237310487,1033
125260,179885,237160,8.2660056717,-2.1200408236,-5.0620162103,1034
125372,179845,237123,8.2851482525,-2.1116659445,-5.0488556860000005,1035
125478,179871,237129,8.3234334141,-2.1272192914,-5.029713105200001,1036
125552,179850,237099,8.3413795836,-2.2061824372,-4.9627140724,1037
125677,179844,237112,8.236095389199999,-2.1487546948,-4.9447679029,1038
125746,179825,237042,8.3353975271,-2.1678972756,-4.9866422984,1039
125851,179826,237049,8.1750784129,-2.1547367513,-5.1349972996,1040
125898,179802,237073,8.3497544627,-2.2109680824,-5.010570524399999,1041
126003,179778,237030,8.2600236152,-2.2923240508,-5.1338008883,1042
126092,179787,237014,8.445467366699999,-2.177468566,-5.0153561695999995,1043
126154,179815,236984,8.3688970435,-2.1583259852,-4.9627140724,1044
126087,179860,237097,8.364111398299999,-2.0925233637,-4.9962135888,1045
125734,180016,237185,8.2887374864,-2.1583259852,-5.0679982668,1046
125272,180094,237236,8.2468630909,-2.1643080417,-4.9028935074,1047
124929,180125,237272,8.2648092604,-2.2109680824,-5.0344987504,1048
124726,180087,237255,8.4215391407,-2.2767707039,-4.8394837085,1049
124618,180078,237263,8.227720510100001,-2.1391834043999998,-5.000999234,1050
124597,180078,237245,8.2372918005,-2.1308085253,-5.0536413312,1051
124613,180055,237242,8.2133635745,-2.2456640101,-5.0021956453,1052
124713,180022,237203,8.3796647452,-2.0925233637,-5.0153561695999995,1053
124731,180023,237218,8.293523131599999,-2.2384855423,-4.9399822577,1054
124687,180038,237238,8.3784683339,-2.1726829208,-5.0333023391000005,1055
124708,180059,237264,8.3976109147,-2.0985054202,-5.010570524399999,1056
124693,180068,237306,8.3928252695,-2.1678972756,-4.9878387097,1057
124733,180045,237266,8.3222370028,-2.105683888,-5.1050870171,1058
124764,180010,237287,8.2600236152,-2.2348963083999998,-4.9160540317,1059
124897,180013,237288,8.3114693011,-2.2289142519,-4.8825545153,1060
124971,179968,237288,8.1894353485,-2.2025932033,-4.8777688701,1061
124993,179992,237290,8.3018980107,-2.1439690496,-5.044070040799999,1062
125202,179992,237262,8.293523131599999,-2.1487546948,-5.0620162103,1063
125240,179973,237225,8.2875410751,-2.0590238472999998,-4.8825545153,1064
125365,179980,237214,8.226524098799999,-2.2205393728,-4.9866422984,1065
125460,179970,237225,8.2983087768,-2.0877377184999997,-4.9866422984,1066
125543,179943,237223,8.3964145034,-2.1762721547,-4.9148576204,1067
125668,179958,237207,8.303094422,-2.1391834043999998,-4.977071008,1068
125751,179981,237181,8.4251283746,-2.1200408236,-4.9447679029,1069
125859,179948,237213,8.4119678503,-2.1116659445,-4.8825545153,1070
125957,179950,237189,8.4203427294,-2.1008982428,-4.9471607255,1071
126033,179960,237220,8.482556117,-2.15354034,-4.953142782,1072
126139,179933,237193,8.434699665,-2.2289142519,-4.9866422984,1073
126087,179995,237227,8.2707913169,-2.1870398563999998,-4.9196432655999995,1074
125669,180093,237299,8.1224363157,-2.0685951377,-4.9734817741,1075
125041,180214,237393,8.445467366699999,-2.0925233637,-5.0117669357,1076
124581,180255,237416,8.3222370028,-2.1619152191,-4.990231532299999,1077
124146,180228,237394,8.4418781328,-2.1308085253,-4.9674997176,1078
124019,180199,237383,8.236095389199999,-2.15354034,-5.0428736295,1079
123895,180132,237352,8.3557365192,-2.2109680824,-4.9722853628,1080
123800,180125,237370,8.2743805508,-2.15354034,-5.000999234,1081
123817,180129,237321,8.227720510100001,-2.081755662,-4.8825545153,1082
123880,180087,237344,8.3461652288,-2.2013967919999997,-5.0763731459,1083
123883,180100,237344,8.303094422,-1.9286150156,-4.9627140724,1084
123838,180117,237287,8.3318082932,-2.1678972756,-4.9674997176,1085
123808,180137,237322,8.2600236152,-2.1978075581,-5.0153561695999995,1086
123789,180136,237380,8.236095389199999,-2.105683888,-4.9148576204,1087
123835,180079,237298,8.2325061553,-2.3018953412000003,-5.0344987504,1088
123929,180104,237310,8.398807326,-2.1547367513,-4.8909293944,1089
124058,180000,237284,8.2456666796,-2.1678972756,-4.9926243549,1090
124178,180077,237324,8.3461652288,-2.15354034,-4.9256253221,1091
124272,180075,237308,8.2660056717,-2.2157537276,-4.9914279436,1092
124402,180054,237326,8.2468630909,-2.1020946541,-4.9962135888,1093
124539,180043,237288,8.231309744,-2.15354034,-4.9674997176,1094
124623,180049,237290,8.3353975271,-2.2432711875,-4.953142782,1095
124730,180026,237301,8.1798640581,-2.1583259852,-4.8969114509,1096
124861,180026,237260,8.3449688175,-2.1439690496,-4.9722853628,1097
124974,180004,237299,8.2743805508,-2.0590238472999998,-4.9495535481,1098
125104,180001,237262,8.445467366699999,-2.1918255016,-5.02492746,1099
125193,180040,237247,8.3581293418,-2.1726829208,-4.9962135888,1100
125308,180010,237290,8.5028951091,-2.2049860259000003,-4.9112683865,1101
125414,180004,237276,8.4263247859,-2.1631116304,-5.0392843956,1102
125546,179990,237258,8.3174513576,-2.1152551784,-4.990231532299999,1103
125597,180010,237274,8.236095389199999,-2.2671994135,-4.9435714916,1104
125323,180073,237323,8.2600236152,-2.2827527603999997,-4.9674997176,1105
124670,180206,237413,8.4358960763,-2.0159530405,-4.9340002012,1106
124101,180273,237441,8.293523131599999,-1.9692929998,-4.9962135888,1107
123737,180239,237377,8.4681991814,-2.105683888,-4.9579284272,1108
123542,180226,237418,8.4681991814,-2.081755662,-4.9866422984,1109
123460,180221,237394,8.5148592221,-2.0626130812,-4.9722853628,1110
123395,180194,237399,8.3700934548,-2.1726829208,-4.9483571368,1111
123462,180133,237338,8.506484343,-2.0398812665,-5.0153561695999995,1112
123532,180120,237386,8.2229348649,-2.1678972756,-4.9196432655999995,1113
123604,180091,237358,8.4406817215,-2.1248264688,-5.0548377425,1114
123592,180155,237368,8.2169528084,-2.081755662,-4.9244289108,1115
123573,180121,237374,8.4119678503,-2.2205393728,-5.044070040799999,1116
123628,180105,237335,8.2923267203,-2.1152551784,-4.9351966125,1117
123563,180093,237291,8.303094422,-2.0303099761,-4.9387858464,1118
123758,180080,237311,8.303094422,-2.1116659445,-4.9722853628,1119
123868,180063,237310,8.3928252695,-2.1631116304,-5.0679982668,1120
124009,180049,237305,8.3653078096,-2.1667008643,-5.0201418148,1121
124120,179986,237266,8.227720510100001,-2.0865413072,-5.0488556860000005,1122
124246,180014,237295,8.422735552,-2.0733807828999997,-4.977071008,1123
124293,180009,237248,8.2468630909,-2.1583259852,-4.9543391933,1124
124580,179965,237265,8.3413795836,-2.2492532439999997,-4.9866422984,1125
124593,179998,237260,8.226524098799999,-2.0829520733,-4.9914279436,1126
124739,179970,237236,8.4023965599,-2.2301106632,-4.9866422984,1127
124823,179950,237237,8.3018980107,-2.2719850587,-4.883750926599999,1128
124932,179943,237183,8.2025958728,-2.1068802992999998,-4.8873401605,1129
125042,179955,237227,8.434699665,-2.2588245344,-5.0057848792,1130
125161,179930,237170,8.3210405915,-2.1487546948,-5.0045884679,1131
125245,179905,237214,8.4777704718,-2.4394826406999996,-5.0153561695999995,1132
125066,179928,237177,8.3449688175,-2.1834506225,-4.9818566531999995,1133
124529,180054,237282,8.2683984943,-2.0638094925,-4.977071008,1134
123947,180153,237318,8.3234334141,-2.0781664281,-4.9016970961,1135
123644,180182,237364,8.280362607299999,-2.2384855423,-4.90528633,1136
123450,180144,237351,8.3258262367,-2.1667008643,-4.9674997176,1137
123389,180098,237347,8.4933238187,-2.2683958248,-5.02492746,1138
123472,180106,237296,8.445467366699999,-2.15354034,-5.0057848792,1139
123547,180056,237294,8.231309744,-2.2959132847,-4.9579284272,1140
123654,180031,237288,8.2983087768,-2.2576281231,-4.9399822577,1141
123690,180048,237305,8.279166196,-2.2193429615,-5.0285166938999994,1142
123664,180045,237280,8.279166196,-2.1726829208,-5.0428736295,1143
123611,180060,237272,8.360522164399999,-2.1643080417,-4.8969114509,1144
123600,180085,237294,8.2887374864,-2.2193429615,-4.9818566531999995,1145
123649,180040,237269,8.364111398299999,-2.1918255016,-4.9447679029,1146
123718,180061,237272,8.3222370028,-2.1379869930999997,-4.9674997176,1147
123845,180019,237250,8.3258262367,-2.2504496553,-5.0763731459,1148
123961,180007,237262,8.360522164399999,-2.1020946541,-4.8681975797,1149
124087,179979,237229,8.3018980107,-2.0841484846,-4.9160540317,1150
124190,179954,237225,8.2564343813,-2.2109680824,-4.9387858464,1151
124306,179975,237222,8.459824302300001,-2.2671994135,-4.953142782,1152
124332,179936,237236,8.3078800672,-2.2205393728,-4.9148576204,1153
124465,179949,237233,8.3306118819,-2.1104695332,-5.026123871299999,1154
124540,179945,237246,8.2983087768,-2.3485553819,-5.058426976400001,1155
124618,179966,237200,8.3748791,-2.1966111468,-5.071587500700001,1156
124614,179927,237217,8.3114693011,-2.0350956213,-5.0117669357,1157
124755,179979,237185,8.4885381735,-2.1439690496,-4.9758745967,1158
124905,179945,237243,8.2875410751,-2.2121644937,-5.0344987504,1159
124975,179934,237240,8.4646099475,-2.1966111468,-4.977071008,1160
124950,179988,237244,8.2348989779,-2.177468566,-4.9722853628,1161
124528,180063,237292,8.2372918005,-2.2540388892,-5.010570524399999,1162
123802,180174,237377,8.3258262367,-2.0961125976,-4.9447679029,1163
123294,180223,237382,8.3413795836,-2.1487546948,-4.9722853628,1164
123003,180253,237471,8.1786676468,-2.2336998971,-4.9579284272,1165
122874,180226,237442,8.3318082932,-2.1726829208,-4.8550370553999995,1166
122812,180215,237407,8.3880396243,-2.1308085253,-5.0811587911,1167
122849,180185,237472,8.2983087768,-2.2241286067,-5.000999234,1168
122902,180194,237432,8.3928252695,-2.297109696,-5.000999234,1169
122977,180212,237445,8.3258262367,-2.1080767106,-4.9627140724,1170
123019,180221,237454,8.2169528084,-2.1762721547,-4.9962135888,1171
122988,180221,237492,8.2169528084,-2.1966111468,-4.9148576204,1172
122990,180257,237508,8.3126657124,-2.2767707039,-4.9435714916,1173
123035,180267,237500,8.405985793800001,-2.1834506225,-4.9962135888,1174
123105,180251,237543,8.3365939384,-2.0913269524,-5.029713105200001,1175
123203,180241,237565,8.3114693011,-2.2157537276,-5.0811587911,1176
123358,180233,237522,8.3114693011,-2.2241286067,-4.9926243549,1177
123517,180180,237525,8.3688970435,-2.3006989299,-4.9962135888,1178
123587,180270,237518,8.2983087768,-2.1918255016,-4.9340002012,1179
123792,180245,237565,8.3796647452,-2.2827527603999997,-5.029713105200001,1180
123923,180258,237579,8.417949906799999,-2.2492532439999997,-5.010570524399999,1181
124042,180228,237608,8.2983087768,-2.2013967919999997,-5.0201418148,1182
124178,180254,237562,8.5686977306,-2.1200408236,-4.9399822577,1183
124305,180264,237560,8.226524098799999,-2.0542382021,-5.026123871299999,1184
124412,180281,237597,8.2037922841,-2.1104695332,-4.9208396769,1185
124517,180278,237567,8.2456666796,-2.1068802992999998,-4.9663033062999995,1186
124639,180266,237556,8.3880396243,-2.2205393728,-4.8873401605,1187
124778,180280,237582,8.4610207136,-2.225325018,-5.010570524399999,1188
124906,180302,237598,8.227720510100001,-2.0626130812,-4.9914279436,1189
124938,180290,237565,8.1990066389,-2.1978075581,-5.000999234,1190
124596,180364,237684,8.3318082932,-2.1726829208,-4.9447679029,1191
123834,180456,237682,8.2887374864,-2.1822542112,-5.1062834284,1192
123201,180519,237817,8.3593257531,-2.129612114,-5.0392843956,1193
122734,180529,237863,8.2468630909,-2.1930219129,-5.0237310487,1194
122630,180560,237813,8.3449688175,-2.0542382021,-4.9579284272,1195
122567,180527,237852,8.347361640099999,-2.2157537276,-4.8909293944,1196
122565,180513,237814,8.4418781328,-2.2061824372,-4.8969114509,1197
122619,180484,237872,8.227720510100001,-2.1631116304,-4.9016970961,1198
122723,180495,237849,8.3210405915,-2.1918255016,-4.9064827413000005,1199
122836,180495,237839,8.4837525283,-2.1308085253,-5.0632126216,1200
122847,180510,237847,8.3222370028,-2.2624137683,-4.9722853628,1201
122841,180527,237869,8.3653078096,-2.1391834043999998,-4.881358104,1202
122868,180563,237902,8.3306118819,-2.225325018,-5.0201418148,1203
122923,180565,237886,8.294719542900001,-2.1834506225,-4.977071008,1204
123036,180519,237894,8.3210405915,-2.2671994135,-4.9387858464,1205
123197,180551,237916,8.3844503904,-2.0733807828999997,-4.9722853628,1206
123295,180506,237969,8.3318082932,-2.1822542112,-5.057230565099999,1207
123561,180521,237915,8.4071822051,-2.2671994135,-4.9722853628,1208
123670,180551,237878,8.2456666796,-2.0398812665,-4.8681975797,1209
123809,180534,237901,8.1882389372,-2.1583259852,-4.9399822577,1210
123975,180511,237922,8.3784683339,-2.2396819536,-5.0141597583,1211
124136,180545,237943,8.3545401079,-2.1439690496,-5.0141597583,1212
124261,180551,237954,8.240881034400001,-2.2157537276,-4.9256253221,1213
124353,180533,237997,8.3210405915,-1.9680965885,-4.9722853628,1214
124513,180503,237928,8.2085779293,-2.1200408236,-4.9914279436,1215
124649,180550,237963,8.3210405915,-2.1918255016,-4.8346980633,1216
124793,180524,237956,8.3318082932,-2.1439690496,-4.9256253221,1217
124894,180515,237949,8.4418781328,-2.2109680824,-4.8825545153,1218
125027,180536,237990,8.303094422,-2.2540388892,-4.9866422984,1219
125135,180533,238008,8.2971123655,-2.129612114,-4.9196432655999995,1220
125315,180533,238020,8.2217384536,-2.1212372348999997,-5.0763731459,1221
125199,180553,238050,8.3461652288,-2.2528424779,-4.9399822577,1222
124621,180646,238076,8.227720510100001,-2.1439690496,-4.9256253221,1223
123816,180732,238147,8.3557365192,-2.2061824372,-4.977071008,1224
123246,180750,238175,8.4083786164,-2.1248264688,-4.929214556,1225
123020,180771,238177,8.3114693011,-2.27318147,-5.02492746,1226
122914,180737,238173,8.373682688699999,-2.1355941704999997,-5.0344987504,1227
122914,180727,238185,8.2839518412,-2.0350956213,-4.9674997176,1228
122915,180719,238230,8.4406817215,-2.1236300575,-4.8861437492,1229
123063,180693,238195,8.160721477300001,-2.1966111468,-4.9722853628,1230
123177,180719,238198,8.2983087768,-2.1212372348999997,-4.9196432655999995,1231
123211,180696,238212,8.303094422,-2.3054845751,-4.9734817741,1232
123178,180682,238214,8.3186477689,-2.0434705004000002,-5.0093741131,1233
123180,180727,238208,8.303094422,-2.2157537276,-5.0153561695999995,1234
123215,180706,238225,8.2899338977,-2.1260228801,-4.9387858464,1235
123298,180673,238275,8.417949906799999,-2.0590238472999998,-4.9830530645,1236
123424,180697,238243,8.2731841395,-2.2109680824,-4.977071008,1237
123573,180651,238308,8.3401831723,-2.1583259852,-4.977071008,1238
123714,180665,238245,8.417949906799999,-2.2480568327,-4.8251267729,1239
123868,180628,238270,8.1798640581,-2.1678972756,-5.044070040799999,1240
124041,180616,238260,8.3545401079,-2.15354034,-4.977071008,1241
124077,180630,238245,8.3090764785,-2.2157537276,-4.9591248385,1242
124313,180601,238279,8.327022648,-2.0733807828999997,-4.9112683865,1243
124409,180610,238267,8.2085779293,-2.2863419943,-4.9782674193,1244
124534,180633,238264,8.3210405915,-2.0829520733,-4.977071008,1245
124579,180564,238239,8.2504523248,-2.1786649773,-4.9244289108,1246
124749,180561,238258,8.2695949056,-2.1870398563999998,-4.9435714916,1247
124837,180585,238283,8.2743805508,-2.1547367513,-4.9351966125,1248
124973,180543,238269,8.2504523248,-2.2061824372,-4.9112683865,1249
125068,180551,238310,8.2887374864,-2.1308085253,-4.9722853628,1250
125205,180557,238238,8.3497544627,-2.1822542112,-4.9627140724,1251
125328,180548,238269,8.231309744,-2.2145573163,-5.044070040799999,1252
125325,180524,238236,8.3078800672,-2.1547367513,-5.058426976400001,1253
124707,180593,238306,8.3234334141,-2.1212372348999997,-4.9962135888,1254
123947,180689,238310,8.3401831723,-2.1870398563999998,-5.02492746,1255
123401,180721,238369,8.3964145034,-2.1966111468,-5.072783911999999,1256
123123,180728,238374,8.2695949056,-2.2444675988,-5.0392843956,1257
123089,180691,238335,8.3258262367,-2.2396819536,-5.000999234,1258
123053,180664,238412,8.4873417622,-2.2348963083999998,-4.9591248385,1259
123141,180648,238373,8.2971123655,-2.1583259852,-5.1003013719000005,1260
123286,180617,238366,8.3880396243,-2.1870398563999998,-5.0057848792,1261
123349,180618,238374,8.4358960763,-2.1116659445,-5.0153561695999995,1262
123356,180587,238416,8.239684623099999,-2.177468566,-4.9399822577,1263
123276,180625,238367,8.4155570842,-2.1523439287,-4.9722853628,1264
123182,180652,238353,8.4358960763,-2.2911276395,-4.9256253221,1265
123213,180645,238429,8.2636128491,-2.2205393728,-5.0488556860000005,1266
123277,180636,238430,8.4358960763,-2.1966111468,-4.9722853628,1267
123390,180640,238430,8.227720510100001,-2.1822542112,-4.9914279436,1268
123534,180589,238390,8.2743805508,-2.3006989299,-4.9196432655999995,1269
123571,180596,238443,8.2612200265,-2.1834506225,-4.9483571368,1270
123783,180597,238415,8.3222370028,-2.1726829208,-4.9962135888,1271
123890,180576,238471,8.2887374864,-2.2301106632,-5.0392843956,1272
123986,180581,238441,8.450253011900001,-2.1164515897,-4.9005006848,1273
124065,180572,238445,8.293523131599999,-2.1690936869,-4.9244289108,1274
124152,180550,238429,8.3928252695,-2.1487546948,-4.9734817741,1275
124243,180548,238448,8.3700934548,-2.1355941704999997,-4.9256253221,1276
124312,180525,238453,8.3258262367,-2.2301106632,-4.9435714916,1277
124380,180518,238439,8.364111398299999,-2.0781664281,-4.977071008,1278
124469,180546,238458,8.2695949056,-2.1164515897,-4.9734817741,1279
124567,180564,238449,8.2683984943,-2.225325018,-5.0620162103,1280
124655,180569,238461,8.316254946299999,-2.1678972756,-4.9962135888,1281
124730,180530,238467,8.2456666796,-2.1116659445,-5.0428736295,1282
124540,180577,238482,8.2133635745,-2.1822542112,-5.0632126216,1283
123705,180619,238541,8.373682688699999,-2.0590238472999998,-4.977071008,1284
122852,180674,238624,8.3449688175,-2.105683888,-5.0153561695999995,1285
122312,180717,238590,8.4311104311,-2.2002003807,-5.0679982668,1286
122075,180689,238670,8.2504523248,-2.177468566,-4.9100719752,1287
122002,180666,238665,8.293523131599999,-2.3162522768000002,-4.9866422984,1288
121979,180703,238677,8.207381518,-2.0446669117,-4.953142782,1289
122093,180695,238758,8.2683984943,-2.1870398563999998,-4.9722853628,1290
122227,180708,238747,8.3928252695,-2.1726829208,-4.9435714916,1291
122294,180700,238770,8.3365939384,-2.1439690496,-4.9447679029,1292
122278,180715,238797,8.303094422,-2.2013967919999997,-4.9256253221,1293
122196,180751,238828,8.3593257531,-2.1487546948,-4.9208396769,1294
122212,180729,238870,8.2504523248,-2.129612114,-5.010570524399999,1295
122227,180738,238839,8.3413795836,-2.1200408236,-4.8777688701,1296
122351,180739,238884,8.236095389199999,-2.1451654609,-4.9914279436,1297
122463,180756,238909,8.3078800672,-2.1308085253,-5.0679982668,1298
122648,180762,238945,8.2731841395,-2.129612114,-5.114658307499999,1299
122823,180749,238931,8.155935832099999,-2.1439690496,-4.9758745967,1300
122966,180739,238971,8.3353975271,-2.1966111468,-4.9483571368,1301
123144,180761,238964,8.2504523248,-2.1870398563999998,-4.8538406441,1302
123296,180768,239017,8.5447695046,-2.2193429615,-4.9064827413000005,1303
123447,180765,239029,8.2695949056,-2.1355941704999997,-4.8598227006,1304
123580,180763,239063,8.3401831723,-2.1643080417,-4.9722853628,1305
123744,180746,239037,8.2887374864,-2.1726829208,-4.9495535481,1306
123876,180780,239045,8.2564343813,-2.1451654609,-5.0691946781,1307
124036,180759,239100,8.458627890999999,-2.1308085253,-4.9340002012,1308
124143,180779,239091,8.2887374864,-2.129612114,-5.000999234,1309
124296,180785,239070,8.279166196,-2.3054845751,-4.9064827413000005,1310
124415,180763,239100,8.2456666796,-2.2480568327,-4.9878387097,1311
124565,180786,239094,8.3174513576,-2.2683958248,-5.124229597899999,1312
124517,180788,239137,8.2600236152,-2.0590238472999998,-5.029713105200001,1313
123844,180824,239145,8.1882389372,-2.1104695332,-4.9483571368,1314
122847,180900,239169,8.1511501869,-2.1631116304,-5.0811587911,1315
122155,180905,239224,8.4550386571,-2.2109680824,-5.000999234,1316
121823,180895,239286,8.2325061553,-2.1008982428,-4.8861437492,1317
121739,180900,239341,8.279166196,-2.0446669117,-4.9100719752,1318
121703,180898,239310,8.3174513576,-2.2432711875,-4.9962135888,1319
121797,180885,239344,8.3318082932,-2.2863419943,-5.0153561695999995,1320
121933,180878,239321,8.4119678503,-2.1822542112,-5.071587500700001,1321
122095,180858,239405,8.2983087768,-2.1726829208,-4.9962135888,1322
122155,180886,239332,8.2983087768,-2.0865413072,-4.850251410199999,1323
122142,180871,239375,8.2923267203,-2.1391834043999998,-5.02492746,1324
122158,180933,239385,8.183453292,-2.2301106632,-4.9340002012,1325
122186,180859,239438,8.3557365192,-2.2516460665999998,-4.9304109673,1326
122313,180913,239479,8.3174513576,-2.2540388892,-5.1194439527,1327
122463,180900,239540,8.3449688175,-2.1487546948,-4.9256253221,1328
122662,180916,239512,8.3042908333,-2.1822542112,-4.9340002012,1329
122850,180897,239580,8.3928252695,-2.1164515897,-4.9722853628,1330
123049,180924,239566,8.3844503904,-2.0973090089,-4.9304109673,1331
123261,180902,239617,8.5112699882,-2.1068802992999998,-5.029713105200001,1332
123396,180908,239644,8.3784683339,-2.105683888,-5.0093741131,1333
123535,180910,239616,8.1990066389,-2.1678972756,-5.010570524399999,1334
123760,180906,239595,8.3461652288,-2.0482561456,-4.9244289108,1335
123920,180914,239625,8.236095389199999,-2.15354034,-4.9722853628,1336
124084,180929,239631,8.4167534955,-2.1104695332,-4.9304109673,1337
124218,180914,239653,8.398807326,-2.1403798157,-5.0476592747,1338
124370,180928,239627,8.2995051881,-2.0542382021,-4.9674997176,1339
124502,180933,239681,8.2743805508,-2.2013967919999997,-5.0057848792,1340
124659,180922,239629,8.4071822051,-2.129612114,-4.9866422984,1341
124799,180919,239632,8.3880396243,-2.0291135648000003,-4.9722853628,1342
124810,180924,239675,8.398807326,-2.1678972756,-4.9340002012,1343
124285,180986,239699,8.0685978072,-2.2013967919999997,-4.9674997176,1344
123347,181021,239738,8.3748791,-2.0865413072,-4.9962135888,1345
122653,181027,239707,8.3377903497,-2.2779671152,-5.0057848792,1346
122354,181039,239759,8.3617185757,-2.2671994135,-4.9674997176,1347
122298,181017,239770,8.4155570842,-2.2624137683,-5.0488556860000005,1348
122309,181020,239793,8.3844503904,-1.9441683625,-5.0189454035,1349
122404,180994,239863,8.459824302300001,-2.2875384056,-4.9818566531999995,1350
122613,180983,239911,8.2289169214,-2.0685951377,-4.8969114509,1351
122752,181000,239895,8.2995051881,-2.129612114,-4.9674997176,1352
122835,181009,239901,8.303094422,-2.1439690496,-4.9016970961,1353
122866,181039,239938,8.327022648,-2.1583259852,-4.9854458871,1354
122838,181034,239966,8.4263247859,-2.1200408236,-4.845465765,1355
122888,181038,239945,8.2516487361,-2.1726829208,-5.010570524399999,1356
122987,181051,239971,8.293523131599999,-1.9369898947,-4.9351966125,1357
123133,181036,240016,8.2743805508,-2.1487546948,-4.9830530645,1358
123304,181031,240014,8.2648092604,-2.1547367513,-4.9148576204,1359
123500,181041,240038,8.3306118819,-2.1631116304,-4.9782674193,1360
123651,181017,239996,8.3688970435,-2.2002003807,-4.9830530645,1361
123880,181046,240105,8.2564343813,-2.1571295739000003,-5.0153561695999995,1362
124002,181024,240098,8.5399838594,-2.1248264688,-4.8634119345,1363
124135,181029,240096,8.4646099475,-2.177468566,-4.8969114509,1364
124315,181037,240021,8.3928252695,-2.1738793321000003,-4.9100719752,1365
124426,181058,240062,8.3485580514,-2.0147566292,-5.0153561695999995,1366
124614,180995,240092,8.2480595022,-2.1020946541,-4.8825545153,1367
124722,181008,240069,8.2564343813,-2.1439690496,-4.977071008,1368
124835,180993,240031,8.4119678503,-2.1726829208,-4.9674997176,1369
124952,180969,240094,8.360522164399999,-2.2061824372,-4.8346980633,1370
125093,180985,240077,8.2025958728,-2.2157537276,-4.9722853628,1371
125247,180975,240038,8.3653078096,-2.1152551784,-4.9962135888,1372
125373,180968,240026,8.3401831723,-2.0638094925,-4.9818566531999995,1373
125142,180992,240056,8.3700934548,-2.057827436,-5.0093741131,1374
124391,181040,240046,8.3401831723,-2.2348963083999998,-5.0201418148,1375
123512,181066,240101,8.3461652288,-2.2420747762,-4.8825545153,1376
122990,181051,240078,8.327022648,-2.1738793321000003,-4.9914279436,1377
122779,181066,240074,8.410771439,-2.1930219129,-4.953142782,1378
122753,181036,240084,8.2839518412,-2.0590238472999998,-5.0285166938999994,1379
122745,181042,240073,8.1990066389,-2.1966111468,-4.9914279436,1380
122878,181010,240090,8.2564343813,-2.2492532439999997,-5.0189454035,1381
123050,180999,240120,8.459824302300001,-2.1678972756,-5.114658307499999,1382
123134,181004,240132,8.2695949056,-2.2863419943,-4.9974100001,1383
123166,180966,240208,8.352147285300001,-2.1966111468,-4.9483571368,1384
123138,180990,240197,8.3880396243,-2.1858434451,-5.010570524399999,1385
123104,181030,240158,8.303094422,-2.15354034,-4.9447679029,1386
123196,181026,240150,8.3832539791,-2.1008982428,-4.9926243549,1387
123255,180986,240173,8.240881034400001,-2.2301106632,-4.8957150396,1388
123401,180988,240206,8.3078800672,-2.1308085253,-4.9112683865,1389
123558,180963,240225,8.2636128491,-2.1439690496,-4.8490549989,1390
123695,180951,240142,8.373682688699999,-2.2636101795999997,-5.010570524399999,1391
123867,180934,240228,8.3126657124,-2.2301106632,-4.90528633,1392
124014,180959,240236,8.4023965599,-2.1343977592,-5.000999234,1393
124170,180958,240226,8.3222370028,-2.1248264688,-4.9387858464,1394
124230,180919,240236,8.1463645417,-2.1260228801,-4.9148576204,1395
124394,180936,240170,8.4370924876,-2.1595223965,-5.010570524399999,1396
124545,180935,240202,8.4885381735,-2.2205393728,-4.9579284272,1397
124637,180920,240184,8.240881034400001,-2.2588245344,-5.02492746,1398
124777,180907,240211,8.360522164399999,-2.1439690496,-5.000999234,1399
124868,180984,240181,8.2037922841,-2.225325018,-5.044070040799999,1400
124998,180932,240184,8.3880396243,-2.2013967919999997,-4.9591248385,1401
125048,180899,240194,8.2923267203,-2.2205393728,-4.9435714916,1402
124710,180936,240179,8.3174513576,-2.0685951377,-4.9064827413000005,1403
123857,180993,240268,8.2420774457,-2.1152551784,-5.02492746,1404
123169,181026,240233,8.2743805508,-2.27318147,-5.000999234,1405
122858,181023,240221,8.3413795836,-2.1164515897,-4.977071008,1406
122795,181005,240216,8.2695949056,-2.0075781614,-4.953142782,1407
122831,180962,240224,8.4071822051,-2.0638094925,-5.0189454035,1408
122933,180951,240245,8.3365939384,-2.1966111468,-5.0141597583,1409
123131,180948,240273,8.293523131599999,-2.2528424779,-5.0057848792,1410
123224,180922,240289,8.422735552,-2.1164515897,-5.1158547188000005,1411
123226,180954,240286,8.236095389199999,-2.1068802992999998,-5.010570524399999,1412
123156,180960,240348,8.316254946299999,-2.0590238472999998,-5.058426976400001,1413
123120,181004,240332,8.1128650253,-2.2863419943,-4.9579284272,1414
123128,181005,240316,8.3258262367,-2.2923240508,-4.9974100001,1415
123204,180993,240335,8.2456666796,-2.1248264688,-5.0823552024,1416
123311,180993,240357,8.227720510100001,-2.1547367513,-4.9363930238,1417
123494,180976,240389,8.293523131599999,-2.2109680824,-4.929214556,1418
123647,180993,240386,8.3844503904,-2.1583259852,-4.9543391933,1419
123765,180980,240399,8.398807326,-2.1116659445,-4.8957150396,1420
123913,180972,240398,8.2983087768,-2.177468566,-4.9866422984,1421
124071,180988,240446,8.2444702683,-2.2348963083999998,-4.9722853628,1422
124184,181012,240430,8.279166196,-2.1200408236,-4.8873401605,1423
124323,180990,240442,8.2456666796,-2.1595223965,-4.8825545153,1424
124442,181003,240498,8.4406817215,-2.0530417908,-5.0344987504,1425
124567,181040,240476,8.4263247859,-2.2827527603999997,-5.0620162103,1426
124609,181055,240486,8.2660056717,-2.0877377184999997,-4.9866422984,1427
124851,181033,240446,8.303094422,-2.0303099761,-4.8825545153,1428
124960,181026,240508,8.3593257531,-2.225325018,-5.010570524399999,1429
125003,181044,240492,8.3964145034,-2.1104695332,-4.9866422984,1430
124619,181037,240454,8.2169528084,-2.1164515897,-4.9639104837,1431
123686,181120,240493,8.4023965599,-2.0673987264,-5.0045884679,1432
122881,181117,240461,8.2839518412,-2.2157537276,-4.9674997176,1433
122473,181123,240519,8.2025958728,-2.0973090089,-4.9818566531999995,1434
122296,181126,240591,8.362914987,-2.1595223965,-4.9160540317,1435
122239,181145,240529,8.155935832099999,-2.1248264688,-4.9208396769,1436
122253,181113,240550,8.3748791,-2.129612114,-4.9627140724,1437
122330,181126,240613,8.3545401079,-2.1858434451,-4.9483571368,1438
122514,181144,240653,8.2420774457,-1.9680965885,-4.9627140724,1439
122616,181141,240619,8.2695949056,-2.3246271559,-4.8825545153,1440
122638,181141,240664,8.4311104311,-2.0446669117,-4.9304109673,1441
122632,181187,240700,8.227720510100001,-2.1870398563999998,-4.9914279436,1442
122646,181151,240706,8.240881034400001,-2.1487546948,-5.087140847600001,1443
122693,181154,240756,8.360522164399999,-2.1918255016,-4.9591248385,1444
122860,181154,240753,8.3222370028,-2.0781664281,-5.0428736295,1445
123005,181150,240721,8.3174513576,-2.1822542112,-4.9818566531999995,1446
123192,181170,240738,8.3330047045,-2.1786649773,-4.977071008,1447
123333,181145,240758,8.1798640581,-2.1762721547,-4.9387858464,1448
123510,181172,240794,8.303094422,-2.0542382021,-4.9674997176,1449
123693,181153,240728,8.4083786164,-2.1116659445,-5.085944436299999,1450
123840,181190,240811,8.236095389199999,-2.0877377184999997,-4.90528633,1451
123976,181179,240772,8.2779697847,-2.0638094925,-4.8921258057,1452
124143,181188,240789,8.4442709554,-1.9920248145,-5.0153561695999995,1453
124305,181205,240781,8.2695949056,-2.177468566,-4.9591248385,1454
124444,181190,240767,8.3545401079,-2.2097716711,-4.929214556,1455
124574,181210,240802,8.3126657124,-2.0638094925,-4.9340002012,1456
124717,181209,240821,8.3940216808,-2.1403798157,-4.9387858464,1457
124764,181181,240793,8.3688970435,-2.2719850587,-4.9256253221,1458
124928,181200,240782,8.3401831723,-2.2073788485,-5.010570524399999,1459
124532,181207,240780,8.2420774457,-2.1678972756,-4.9974100001,1460
123683,181249,240816,8.2504523248,-2.1439690496,-4.9674997176,1461
123006,181300,240828,8.4299140198,-2.2815563491,-4.9435714916,1462
122698,181277,240786,8.2133635745,-2.2444675988,-4.8346980633,1463
122628,181252,240846,8.25523797,-2.1906290903,-4.9627140724,1464
122607,181242,240822,8.240881034400001,-2.2683958248,-5.0823552024,1465
122693,181197,240866,8.3318082932,-2.129612114,-4.9148576204,1466
122857,181191,240874,8.2648092604,-2.2073788485,-4.8681975797,1467
123074,181171,240816,8.25523797,-2.0925233637,-4.977071008,1468
123193,181182,240852,8.240881034400001,-2.0781664281,-5.0153561695999995,1469
123303,181173,240832,8.1415788965,-2.0877377184999997,-5.000999234,1470
123203,181211,240860,8.2648092604,-2.2348963083999998,-4.9722853628,1471
123326,181181,240915,8.450253011900001,-2.2432711875,-4.9674997176,1472
123455,181189,240824,8.3078800672,-2.1343977592,-4.9866422984,1473
123583,181189,240829,8.3688970435,-2.0542382021,-4.9208396769,1474
123790,181145,240841,8.3318082932,-2.1451654609,-4.9914279436,1475
124013,181158,240855,8.3042908333,-2.0925233637,-5.0201418148,1476
124192,181123,240802,8.3545401079,-2.0303099761,-5.1194439527,1477
124405,181079,240822,8.3210405915,-2.15354034,-4.9962135888,1478
124576,181094,240830,8.25523797,-2.2157537276,-4.7641097966,1479
124761,181093,240797,8.3449688175,-2.0111673952999998,-5.044070040799999,1480
124912,181090,240832,8.1846497033,-2.1583259852,-4.881358104,1481
125084,181063,240788,8.2145599858,-2.2157537276,-5.0536413312,1482
125244,181075,240799,8.3461652288,-2.2336998971,-5.0153561695999995,1483
125377,181074,240783,8.422735552,-2.129612114,-4.9340002012,1484
125561,181051,240775,8.4263247859,-2.1200408236,-4.9208396769,1485
125700,181019,240735,8.4215391407,-2.0733807828999997,-5.0775695572,1486
125867,181043,240766,8.3318082932,-2.0733807828999997,-4.9818566531999995,1487
125869,181031,240751,8.1463645417,-2.1643080417,-5.0333023391000005,1488
125502,181088,240764,8.3461652288,-2.237289131,-4.9005006848,1489
124852,181178,240765,8.3832539791,-2.2289142519,-4.9818566531999995,1490
124581,181193,240773,8.4071822051,-2.2013967919999997,-4.9579284272,1491
124422,181181,240767,8.3461652288,-2.1930219129,-4.8586262893,1492
124467,181136,240805,8.2707913169,-2.1104695332,-4.9435714916,1493
124555,181108,240759,8.4023965599,-2.1439690496,-4.9914279436,1494
124673,181087,240738,8.306683655899999,-2.1248264688,-4.9543391933,1495
124831,181039,240693,8.2695949056,-2.1726829208,-5.029713105200001,1496
124913,181036,240690,8.4311104311,-2.1391834043999998,-5.057230565099999,1497
124925,181060,240653,8.1415788965,-2.177468566,-4.9016970961,1498
124924,181092,240749,8.4263247859,-2.1870398563999998,-5.0488556860000005,1499
124969,181075,240689,8.207381518,-2.1643080417,-5.0536413312,1500
124991,181061,240705,8.3497544627,-2.1104695332,-5.0201418148,1501
125164,181050,240737,8.2504523248,-2.0913269524,-5.0344987504,1502
125279,181018,240675,8.4358960763,-2.2444675988,-5.0823552024,1503
125379,181021,240728,8.373682688699999,-2.2480568327,-4.9064827413000005,1504
125522,181043,240688,8.3114693011,-2.1954147355,-5.0907300815,1505
125653,181008,240696,8.3880396243,-2.2540388892,-4.9340002012,1506
125801,181019,240685,8.303094422,-2.105683888,-5.071587500700001,1507
125943,181014,240669,8.4693955927,-2.1870398563999998,-4.9196432655999995,1508
126069,181001,240684,8.2995051881,-1.9645073545999998,-4.9435714916,1509
126217,180983,240662,8.3114693011,-2.1260228801,-4.9639104837,1510
126325,180973,240695,8.4550386571,-2.1631116304,-5.0907300815,1511
126452,180976,240666,8.3461652288,-2.321037922,-5.0153561695999995,1512
126580,180963,240657,8.2456666796,-2.177468566,-5.0536413312,1513
126701,180957,240648,8.2983087768,-2.2025932033,-4.9639104837,1514
126800,180979,240661,8.280362607299999,-2.1391834043999998,-4.9866422984,1515
126900,180949,240669,8.422735552,-2.0913269524,-4.9627140724,1516
126921,180955,240643,8.3353975271,-2.1068802992999998,-4.9674997176,1517
126820,181041,240673,8.3330047045,-2.1164515897,-4.9722853628,1518
