green,red,IR,acc_x,acc_y,acc_z,sample_index
91026,194785,218425,5.5621161337,7.5469624804,3.0652057506,1
91274,194861,218458,5.653043392499999,7.5541409482,3.0173492985999997,2
91489,194912,218449,5.6004012953,7.6175507471,2.9599215562,3
91637,194903,218486,5.6566326264,7.539784012599999,2.9886354273999998,4
91000,194847,218414,5.6183474648,7.488338326699999,2.9862426048,5
89993,194700,218403,5.7152567801,7.6163543358,2.9575287336000002,6
89386,194681,218355,5.735595772199999,7.7060851833,3.1286155494999996,7
89029,194688,218401,5.624329521299999,7.6163543358,3.0831519201,8
88882,194663,218348,5.7032926670999995,7.6163543358,3.0053851856000002,9
88984,194682,218326,5.637490045600001,7.556533770800001,3.0053851856000002,10
89207,194720,218397,5.620740287399999,7.5349983674,2.99102825,11
89472,194741,218396,5.5860443597,7.6187471584,3.0173492985999997,12
89738,194749,218436,5.7056854897,7.6019974002,3.0592236941,13
89905,194747,218418,5.6913285541,7.5696942951,3.0101708308,14
90023,194764,218429,5.7152567801,7.5661050612,2.9958138952,15
90161,194798,218416,5.5740802467,7.6019974002,2.9934210726,16
90353,194880,218487,5.6733823846,7.5936225210999995,3.0927232105,17
90588,194880,218515,5.7714881112,7.4751778024,3.0831519201,18
90816,194911,218520,5.471188874899999,7.4763742137,3.1238299043,19
91072,194939,218515,5.7631132321,7.5996045776,3.0580272828,20
91333,194957,218506,5.5800623032,7.6019974002,3.0197421212,21
91592,195026,218506,5.6961141993,7.5505517143,3.0005995404,22
91850,195036,218568,5.5106704478,7.6271220375,3.1549365981,23
92105,195072,218542,5.7152567801,7.6235328036,2.9766713144,24
92363,195102,218602,5.6087761744,7.5996045776,3.0819555088,25
92614,195071,218638,5.710471134900001,7.453642399,3.086741154,26
92836,195119,218636,5.620740287399999,7.622336392299999,3.1836504693,27
93093,195162,218637,5.6422756908,7.530212722199999,3.0065815969000003,28
93319,195187,218610,5.4783673427,7.555337359499999,3.1094729686999996,29
93367,195200,218620,5.5764730692999995,7.6271220375,3.1010980895999998,30
92944,195154,218616,5.6231331099999995,7.5804619967999995,3.0460631697999996,31
92427,195128,218624,5.7212388366,7.5780691741999995,3.1334011947,32
92155,195170,218582,5.7224352479,7.5062844962,3.1262227269,33
91944,195126,218568,5.569294601499999,7.6654071991,3.0735806297,34
91914,195098,218558,5.4496534715000005,7.6103722793,3.0604201053999995,35
92012,195132,218577,5.6614182716,7.5086773188,3.0029923629999997,36
92159,195153,218578,5.6805608524,7.6187471584,3.0293134116,37
92328,195160,218562,5.5740802467,7.6594251426,3.1549365981,38
92444,195200,218584,5.6506505699,7.6414789731,2.9982067177999996,39
92518,195192,218568,5.6183474648,7.5206414318,3.0963124444,40
92594,195204,218575,5.6398828682,7.556533770800001,3.0711878071,41
92725,195170,218605,5.7535419417,7.501498850999999,3.0723842184,42
92851,195198,218622,5.583651537100001,7.6187471584,2.9814569596,43
93007,195202,218566,5.6291151665,7.621139981,3.0101708308,44
93194,195208,218519,5.479563754,7.6103722793,3.0137600647,45
93336,195180,218565,5.553741254599999,7.5828548194,3.0939196218,46
93511,195224,218548,5.5968120614000005,7.573283529,3.0245277664,47
93690,195240,218627,5.6973106106,7.6761749007999995,3.0592236941,48
93850,195249,218578,5.637490045600001,7.5936225210999995,2.9970103065,49
94020,195267,218652,5.633900811699999,7.635496916599999,3.0580272828,50
94191,195226,218592,5.599204884000001,7.561319416,3.0077780082,51
94367,195226,218605,5.6458649247,7.6151579245,3.0245277664,52
94394,195239,218567,5.6674003281,7.5948189324,3.062812928,53
93932,195113,218565,5.620740287399999,7.5242306657,3.0759734523,54
93362,195130,218505,5.7188460139999995,7.6019974002,3.0436703472,55
92884,195089,218529,5.6961141993,7.6019974002,3.0747770410000004,56
92577,195070,218509,5.6674003281,7.5948189324,3.0580272828,57
92364,195069,218444,5.5429735529,7.5326055448,3.0544380489000003,58
92282,195060,218450,5.5609197224,7.6307112714,3.0915267992,59
92333,195075,218411,5.7499527078,7.6426753844,2.9886354273999998,60
92437,195043,218478,5.6853464976,7.5696942951,3.0723842184,61
92516,195047,218464,5.6315079891,7.6725856669,3.0340990568,62
92566,194961,218453,5.7379885948,7.4979096170999995,3.0675985732,63
92581,194995,218515,5.5477591981,7.6893354250999995,2.9479574432,64
92607,195060,218469,5.6183474648,7.5900332872,3.0807590974999997,65
92665,195082,218459,5.5728838354,7.5086773188,3.0580272828,66
92741,195067,218460,5.6087761744,7.4979096170999995,3.0580272828,67
92955,195085,218424,5.6865429089,7.612765101899999,2.9862426048,68
93098,195130,218463,5.5968120614000005,7.6582287313,3.0544380489000003,69
93278,195141,218441,5.6410792795,7.6402825618,3.0293134116,70
93357,195125,218459,5.6075797630999995,7.465606512,3.0340990568,71
93528,195133,218474,5.5680981902,7.6115686905999995,3.0640093393,72
93658,195128,218451,5.649454158599999,7.5876404646,3.0233313551,73
93857,195152,218480,5.6039905292,7.6163543358,3.0436703472,74
94006,195140,218504,5.611168996999999,7.606783045399999,2.9168507494,75
94167,195159,218460,5.659025449,7.5828548194,2.9527430884,76
94287,195174,218496,5.666203916800001,7.612765101899999,3.0113672421,77
94414,195201,218497,5.693721376699999,7.5134629639999995,3.0101708308,78
94408,195161,218457,5.6422756908,7.5661050612,3.0484559924,79
93771,195059,218419,5.5920264161999995,7.511070141399999,3.0592236941,80
92862,194974,218414,5.6961141993,7.653443086099999,3.1046873235,81
92142,194999,218381,5.7870414581,7.645068207,3.0604201053999995,82
91657,194986,218318,5.7248280705,7.625925626199999,2.9970103065,83
91312,194936,218311,5.6458649247,7.7240313528,3.0604201053999995,84
91152,194934,218360,5.7044890784,7.6008009889000006,2.9958138952,85
91176,194942,218335,5.599204884000001,7.667800021700001,2.99102825,86
91249,195001,218339,5.5920264161999995,7.645068207,3.1286155494999996,87
91321,194949,218330,5.694917788000001,7.625925626199999,3.0771698636,88
91298,194940,218334,5.7284173044,7.5637122386,2.9288148624,89
91308,194916,218334,5.5561340772,7.5948189324,3.0520452262999997,90
91292,194914,218270,5.5489556094,7.5828548194,3.0759734523,91
91305,194932,218274,5.6410792795,7.6761749007999995,2.9599215562,92
91468,194901,218349,5.6482577473,7.539784012599999,3.0005995404,93
91590,194942,218301,5.635097223,7.539784012599999,3.0185457098999997,94
91768,194989,218341,5.647061336,7.6151579245,2.9108686929000003,95
91906,195005,218318,5.6279187552000005,7.7276205867,2.9886354273999998,96
92049,195001,218297,5.6135618196,7.5529445369,3.1310083721,97
92242,195026,218319,5.6997034332,7.6055866341,3.0005995404,98
92430,195051,218346,5.5046883913,7.5577301821,2.9886354273999998,99
92598,195065,218368,5.6925249654,7.4871419154,2.9946174839,100
92793,195108,218371,5.7714881112,7.6307112714,3.0101708308,101
92977,195103,218334,5.6685967394,7.6893354250999995,3.0281170003,102
93124,195077,218378,5.6889357315,7.6019974002,3.0771698636,103
93321,195098,218403,5.5226345608,7.6019974002,3.1357940173,104
93497,195128,218405,5.653043392499999,7.5876404646,3.0364918793999998,105
93536,195080,218416,5.5657053676,7.6522466748,2.9766713144,106
92834,195115,218379,5.681757263700001,7.5541409482,3.0843483314,107
91959,195061,218384,5.5214381495,7.5182486092000005,3.1190442591,108
91237,195004,218328,5.611168996999999,7.5625158273,3.0293134116,109
90792,194989,218313,5.7439706513,7.6115686905999995,3.0532416376,110
90515,194965,218269,5.670989562,7.6654071991,3.1022945009000003,111
90446,194962,218298,5.5310094399,7.645068207,3.0807590974999997,112
90540,194993,218321,5.5585268998,7.639086150500001,2.9647072014,113
90706,195000,218301,5.5214381495,7.568497883799999,3.0891339766000003,114
90841,194998,218264,5.710471134900001,7.525427077,3.0855447427,115
90888,195007,218286,5.587240771,7.6295148601000005,3.0999016782999997,116
90936,195006,218322,5.5968120614000005,7.5649086499,3.158525832,117
90985,195031,218307,5.6004012953,7.568497883799999,3.0999016782999997,118
91091,195036,218345,5.6291151665,7.5457660691,3.0197421212,119
91217,195075,218332,5.633900811699999,7.612765101899999,3.098705267,120
91382,195127,218324,5.5728838354,7.5385876013,3.0915267992,121
91593,195101,218367,5.553741254599999,7.5326055448,3.1178478478000002,122
91755,195118,218362,5.7032926670999995,7.6414789731,3.0412775246,123
91950,195110,218420,5.7224352479,7.6402825618,2.9359933301999996,124
92171,195133,218393,5.6267223439,7.6606215538999995,3.0711878071,125
92373,195108,218424,5.5501520207,7.5158557866,3.1322047834,126
92581,195235,218390,5.7056854897,7.7001031268,2.9359933301999996,127
92789,195279,218404,5.7810594016,7.5469624804,3.086741154,128
92974,195236,218481,5.637490045600001,7.6893354250999995,3.0472595810999996,129
93167,195279,218467,5.6004012953,7.573283529,3.0293134116,130
93346,195318,218442,5.6638110942,7.561319416,3.0580272828,131
92987,195218,218400,5.7032926670999995,7.6366933279,3.0795626862,132
92093,195137,218426,5.5920264161999995,7.5062844962,3.0556344602,133
91352,195123,218342,5.659025449,7.6295148601000005,3.0293134116,134
91004,195065,218370,5.6159546422,7.5409804239,3.1046873235,135
90757,195058,218335,5.4975099235,7.5637122386,3.1094729686999996,136
90664,195009,218337,5.6099725857,7.679764134699999,3.0269205889999995,137
90774,195006,218335,5.582455125799999,7.549355303,3.0819555088,138
90944,194997,218363,5.7248280705,7.666603610399999,3.0999016782999997,139
91048,194984,218344,5.7798629903,7.5349983674,3.0508488149999997,140
91156,195066,218346,5.6721859733,7.6163543358,3.1070801461,141
91123,195085,218316,5.6087761744,7.621139981,3.0173492985999997,142
91172,195072,218315,5.5728838354,7.5326055448,3.0508488149999997,143
91248,195077,218294,5.6063833518,7.501498850999999,2.9718856692,144
91349,195086,218302,5.6506505699,7.555337359499999,3.062812928,145
91500,194983,218340,5.551348432,7.6893354250999995,3.134597606,146
91650,195055,218338,5.599204884000001,7.6630143765,3.0879375653000003,147
91815,195071,218308,5.553741254599999,7.5062844962,3.0771698636,148
91989,195082,218347,5.7535419417,7.4512495764,2.99102825,149
92176,195068,218350,5.5800623032,7.720442118899999,3.0843483314,150
92336,195076,218316,5.5728838354,7.5936225210999995,3.0939196218,151
92512,195049,218356,5.6973106106,7.4524459877,3.0221349438,152
92673,195055,218373,5.7044890784,7.539784012599999,2.9623143788,153
92361,195040,218295,5.6231331099999995,7.5158557866,3.0077780082,154
91462,194931,218213,5.6769716185,7.539784012599999,3.1286155494999996,155
90692,194925,218178,5.6674003281,7.585247642000001,2.9862426048,156
90169,194859,218178,5.7523455304,7.5900332872,3.062812928,157
89877,194846,218171,5.6398828682,7.573283529,3.014956476,158
89784,194827,218167,5.620740287399999,7.625925626199999,3.0807590974999997,159
89824,194822,218185,5.7128639575,7.5062844962,3.0400811133000003,160
90005,194818,218168,5.566901778899999,7.549355303,3.0927232105,161
90219,194836,218201,5.6638110942,7.6821569573,2.9491538545,162
90388,194816,218165,5.5776694806,7.5673014725,2.9647072014,163
90468,194846,218209,5.7296137157,7.5625158273,3.0759734523,164
90545,194848,218169,5.844469200500001,7.6618179652,3.0221349438,165
90650,194830,218238,5.5920264161999995,7.549355303,3.0125636533999995,166
90839,194863,218193,5.553741254599999,7.6235328036,3.038884702,167
90950,194891,218163,5.6398828682,7.5158557866,2.9635107901000004,168
91141,194904,218253,5.4939206895999995,7.4356962295,3.1501509529,169
91335,194867,218240,5.6004012953,7.4117680035,3.1046873235,170
91513,194913,218238,5.5908300049,7.5816584081,3.0580272828,171
91705,194937,218228,5.6039905292,7.4452675199,2.8737799425999997,172
91962,194988,218264,5.659025449,7.6103722793,3.0281170003,173
92160,194961,218233,5.7248280705,7.568497883799999,3.0927232105,174
92367,194986,218248,5.6614182716,7.5541409482,3.0209385325,175
92573,195029,218289,5.6147582309,7.505088084900001,3.0460631697999996,176
92763,195011,218306,5.6733823846,7.622336392299999,3.1022945009000003,177
92976,195057,218284,5.7678988773,7.556533770800001,3.1250263156,178
92959,195015,218322,5.8037912163000005,7.5170521979,3.0125636533999995,179
92155,194918,218246,5.647061336,7.5984081663000005,3.0616165167,180
91245,194847,218140,5.541777141600001,7.621139981,3.1812576466999998,181
90579,194799,218190,5.566901778899999,7.5326055448,3.0293134116,182
90222,194746,218136,5.5776694806,7.7108708285,2.9156543381000004,183
90017,194750,218111,5.6638110942,7.5900332872,3.0819555088,184
89985,194731,218105,5.540580730299999,7.6103722793,2.9934210726,185
90125,194692,218134,5.7678988773,7.6630143765,3.0508488149999997,186
90306,194767,218136,5.4687960523,7.570890706399999,3.0532416376,187
90456,194769,218115,5.6410792795,7.5517481256,3.0329026454999997,188
90527,194785,218135,5.599204884000001,7.6462646183,2.9383861528,189
90598,194776,218145,5.6039905292,7.5948189324,2.9455646206,190
90688,194762,218141,5.6985070219,7.453642399,3.0508488149999997,191
90813,194811,218104,5.6745787959,7.6725856669,3.0963124444,192
91012,194803,218166,5.637490045600001,7.5589265934,3.0053851856000002,193
91182,194857,218222,5.570491012800001,7.7192457076,3.0245277664,194
91341,194885,218139,5.4987063348,7.4428746973,3.1262227269,195
91559,194847,218205,5.637490045600001,7.5517481256,3.0197421212,196
91712,194882,218255,5.6027941179,7.5996045776,3.0556344602,197
91941,194918,218218,5.6327044004,7.5661050612,3.062812928,198
92133,194957,218268,5.6303115778,7.6558359087,2.8905297008,199
92386,194941,218210,5.6075797630999995,7.5158557866,2.9934210726,200
92599,194971,218242,5.6542398038,7.511070141399999,3.0915267992,201
92792,194988,218293,5.7044890784,7.5601230047,2.9718856692,202
92997,195028,218255,5.7008998445,7.5349983674,2.9766713144,203
93170,195050,218313,5.6255259326000004,7.622336392299999,2.99102825,204
92805,194966,218283,5.659025449,7.5673014725,3.0819555088,205
92065,194871,218209,5.6159546422,7.6139615132000005,2.9431717980000003,206
91340,194838,218146,5.6123654083000005,7.526623488299999,3.0245277664,207
90869,194804,218142,5.620740287399999,7.645068207,3.0556344602,208
90617,194816,218180,5.7870414581,7.4261249391,3.0424739359,209
90474,194816,218147,5.5968120614000005,7.6139615132000005,3.0005995404,210
90504,194841,218155,5.6674003281,7.5182486092000005,2.9814569596,211
90669,194845,218158,5.8133625067,7.6761749007999995,3.0999016782999997,212
90880,194845,218174,5.7272208931,7.6773713121,3.0891339766000003,213
90998,194896,218175,5.566901778899999,7.6019974002,3.1238299043,214
91070,194857,218192,5.732006538299999,7.5828548194,3.0412775246,215
91160,194930,218195,5.6099725857,7.6917282476999995,3.0532416376,216
91296,194901,218223,5.6578290377,7.6319076827,3.0508488149999997,217
91442,194930,218265,5.6410792795,7.612765101899999,3.0221349438,218
91662,194997,218276,5.6291151665,7.6474610296,3.0963124444,219
91789,194992,218217,5.6697931507,7.6725856669,3.0891339766000003,220
91973,194990,218285,5.6327044004,7.5900332872,3.0664021618999997,221
92193,195021,218270,5.7020962558,7.4763742137,2.9814569596,222
92400,195112,218335,5.6961141993,7.5529445369,3.0939196218,223
92602,195077,218315,5.6303115778,7.667800021700001,3.1070801461,224
92835,195109,218353,5.6638110942,7.5780691741999995,3.1525437755,225
93024,195179,218366,5.7367921835,7.6175507471,3.0580272828,226
93245,195205,218346,5.710471134900001,7.6307112714,3.0819555088,227
93426,195218,218405,5.6913285541,7.5948189324,3.0580272828,228
93279,195162,218349,5.710471134900001,7.5661050612,3.0269205889999995,229
92617,195034,218293,5.6087761744,7.4835526815,3.1214370817,230
92052,195037,218250,5.5573304885,7.5469624804,3.1836504693,231
91620,194970,218285,5.6422756908,7.6438717957,3.0580272828,232
91376,194939,218332,5.553741254599999,7.5649086499,3.0197421212,233
91299,194966,218239,5.6422756908,7.7132636511,3.0005995404,234
91375,194984,218288,5.6973106106,7.7108708285,3.0340990568,235
91508,194984,218281,5.647061336,7.570890706399999,3.098705267,236
91661,194959,218288,5.5489556094,7.6115686905999995,3.1561330094,237
91814,194912,218270,5.7296137157,7.585247642000001,3.0197421212,238
91886,195007,218308,5.5274202059999995,7.570890706399999,3.0532416376,239
91966,195039,218337,5.7140603688,7.549355303,3.0915267992,240
92083,195035,218326,5.6721859733,7.488338326699999,3.0101708308,241
92243,195073,218302,5.620740287399999,7.6989067155,3.1298119607999997,242
92385,195116,218359,5.599204884000001,7.5481588917,3.1525437755,243
92543,195082,218376,5.5968120614000005,7.6187471584,2.9862426048,244
92708,195128,218374,5.6159546422,7.5349983674,2.9742784918,245
92940,195145,218331,5.6063833518,7.573283529,3.1489545415999998,246
93140,195166,218400,5.6697931507,7.6749784895,3.1178478478000002,247
93338,195204,218424,5.599204884000001,7.495516794499999,3.098705267,248
93511,195272,218395,5.6303115778,7.6115686905999995,3.0927232105,249
93686,195192,218428,5.6303115778,7.6115686905999995,3.0640093393,250
93747,195214,218424,5.6099725857,7.585247642000001,3.0125636533999995,251
93278,195051,218379,5.6279187552000005,7.5314091335,3.1381868399,252
92694,195067,218304,5.7463634739,7.6043902228,2.9575287336000002,253
92296,195004,218269,5.7978091598,7.7563344578999995,3.0484559924,254
92045,194970,218280,5.587240771,7.5457660691,3.1214370817,255
91932,194980,218296,5.662614682899999,7.561319416,2.9754749031,256
91933,194900,218308,5.6398828682,7.5170521979,3.1262227269,257
92031,194853,218270,5.7008998445,7.639086150500001,3.062812928,258
92171,194911,218251,5.5178489156,7.6115686905999995,3.1525437755,259
92244,194969,218245,5.6004012953,7.5756763516,3.0293134116,260
92306,194962,218262,5.5345986738,7.6271220375,2.979064137,261
92379,194916,218288,5.487938633100001,7.6989067155,3.0664021618999997,262
92461,194911,218265,5.6614182716,7.570890706399999,2.9371897415,263
92587,194935,218291,5.6267223439,7.5996045776,3.1046873235,264
92688,194900,218310,5.710471134900001,7.5158557866,3.0484559924,265
92842,194902,218278,5.5764730692999995,7.7096744172000005,3.1154550251999997,266
93000,194921,218263,5.637490045600001,7.6103722793,2.9886354273999998,267
93167,194957,218259,5.6458649247,7.6402825618,3.0340990568,268
93306,194979,218299,5.5525448433,7.585247642000001,3.1286155494999996,269
93460,194962,218323,5.670989562,7.556533770800001,3.1238299043,270
93613,194963,218384,5.6063833518,7.5673014725,2.979064137,271
93496,194943,218306,5.6889357315,7.6366933279,2.99102825,272
92872,194794,218276,5.706881900999999,7.5158557866,3.0197421212,273
92256,194771,218171,5.6889357315,7.6414789731,2.8893332895,274
91814,194699,218133,5.5010991574000005,7.6115686905999995,2.99102825,275
91519,194653,218134,5.6039905292,7.6008009889000006,2.9491538545,276
91324,194595,218164,5.6039905292,7.651050263499999,3.0975088557,277
91288,194639,218144,5.7176496027,7.5338019561000005,3.0448667585,278
91365,194632,218143,5.6458649247,7.6079794567,3.0484559924,279
91481,194633,218140,5.569294601499999,7.6486574409,3.1022945009000003,280
91561,194639,218124,5.5800623032,7.645068207,3.0197421212,281
91667,194645,218184,5.7092747236,7.570890706399999,3.0005995404,282
91741,194667,218137,5.6841500863,7.639086150500001,3.0376882907,283
91812,194668,218177,5.7296137157,7.5649086499,2.9934210726,284
91922,194665,218178,5.5884371823,7.5900332872,3.0616165167,285
92084,194677,218176,5.678168029799999,7.4584280442,2.9694928465999997,286
92238,194774,218178,5.6434721021,7.5900332872,2.9838497821999996,287
92430,194767,218213,5.7272208931,7.612765101899999,3.0879375653000003,288
92584,194773,218218,5.6614182716,7.5984081663000005,2.9587251449000003,289
92769,194774,218236,5.653043392499999,7.6307112714,3.014956476,290
92931,194803,218247,5.6685967394,7.4799634476,3.0699913958000002,291
93116,194829,218230,5.7332029496,7.5756763516,3.0652057506,292
93236,194864,218287,5.7463634739,7.6115686905999995,3.0161528873,293
93009,194774,218268,5.6913285541,7.5158557866,2.967100024,294
92323,194666,218189,5.528616617299999,7.6271220375,3.0101708308,295
91657,194595,218148,5.6279187552000005,7.5577301821,3.1262227269,296
91181,194668,218128,5.587240771,7.7300134093,3.0340990568,297
90857,194543,218148,5.4987063348,7.5756763516,2.9958138952,298
90698,194516,218119,5.6674003281,7.568497883799999,2.979064137,299
90699,194499,218097,5.6602218603,7.5589265934,3.0269205889999995,300
90759,194510,218124,5.582455125799999,7.7108708285,3.0771698636,301
90975,194576,218169,5.6805608524,7.4165536487,3.1190442591,302
91121,194594,218177,5.5740802467,7.6606215538999995,3.1238299043,303
91143,194587,218165,5.6410792795,7.6008009889000006,2.9682964353,304
91171,194545,218156,5.5202417382,7.5541409482,2.9958138952,305
91341,194601,218129,5.6865429089,7.651050263499999,3.1010980895999998,306
91465,194620,218142,5.554937665900001,7.5625158273,2.9826533709,307
91615,194664,218182,5.659025449,7.6139615132000005,3.0053851856000002,308
91801,194658,218199,5.635097223,7.667800021700001,3.0185457098999997,309
92021,194707,218209,5.6231331099999995,7.625925626199999,2.9886354273999998,310
92137,194722,218178,5.6255259326000004,7.4644101007,3.0819555088,311
92391,194748,218259,5.6099725857,7.5481588917,3.062812928,312
92558,194767,218276,5.566901778899999,7.568497883799999,3.0640093393,313
92764,194788,218336,5.6853464976,7.6307112714,3.0568308715,314
92968,194834,218280,5.681757263700001,7.6055866341,3.0017959517,315
93158,194877,218300,5.6721859733,7.570890706399999,3.1393832512,316
93366,194913,218334,5.6506505699,7.5541409482,2.9706892578999997,317
93500,194929,218316,5.7750773451,7.585247642000001,3.1118657913,318
93353,194812,218311,5.5345986738,7.6091758679999995,3.0723842184,319
92508,194730,218220,5.6638110942,7.6175507471,2.9575287336000002,320
91665,194662,218207,5.6745787959,7.549355303,2.979064137,321
91075,194654,218206,5.551348432,7.6307112714,3.086741154,322
90696,194617,218204,5.5477591981,7.4811598589,3.0221349438,323
90468,194563,218170,5.4963135121999995,7.5984081663000005,3.0520452262999997,324
90448,194582,218174,5.620740287399999,7.6426753844,3.1070801461,325
90563,194628,218170,5.6482577473,7.621139981,2.9336005076,326
90725,194610,218204,5.538187907699999,7.573283529,2.9647072014,327
90825,194626,218207,5.665007505499999,7.570890706399999,3.0855447427,328
90867,194597,218173,5.6853464976,7.6295148601000005,2.9742784918,329
90946,194621,218180,5.6004012953,7.654639497399999,2.9012974024999996,330
91004,194618,218234,5.5848479484,7.6558359087,3.0520452262999997,331
91143,194566,218206,5.6614182716,7.5756763516,2.9886354273999998,332
91287,194654,218180,5.6841500863,7.7156564737,2.9886354273999998,333
91454,194671,218272,5.554937665900001,7.543373246500001,3.0532416376,334
91646,194704,218229,5.620740287399999,7.6008009889000006,2.9623143788,335
91846,194765,218282,5.647061336,7.6008009889000006,2.9862426048,336
92044,194796,218258,5.6039905292,7.6414789731,3.0233313551,337
92293,194827,218286,5.7284173044,7.6103722793,3.0496524037,338
92468,194865,218336,5.682953675,7.639086150500001,3.0125636533999995,339
92716,194906,218334,5.4759745201,7.7300134093,2.9491538545,340
92840,194929,218382,5.6685967394,7.6079794567,3.0999016782999997,341
93126,194989,218388,5.6614182716,7.6199435697,2.9479574432,342
93362,195015,218406,5.6183474648,7.6426753844,3.0508488149999997,343
93525,195074,218442,5.6458649247,7.5278198996,3.0592236941,344
93193,194979,218339,5.670989562,7.624729214899999,3.0855447427,345
92362,194911,218315,5.6027941179,7.5349983674,2.9802605483,346
91667,194841,218309,5.6865429089,7.6630143765,3.0616165167,347
91198,194871,218343,5.7499527078,7.6115686905999995,3.014956476,348
90959,194861,218279,5.6219366987,7.525427077,2.9766713144,349
90809,194832,218284,5.5728838354,7.6965138929000005,3.1214370817,350
90859,194826,218305,5.6889357315,7.5445696578,3.0484559924,351
91045,194832,218286,5.6327044004,7.6522466748,3.0101708308,352
91135,194871,218328,5.665007505499999,7.447660342499999,3.0412775246,353
91327,194901,218317,5.6087761744,7.5804619967999995,3.014956476,354
91389,194899,218292,5.599204884000001,7.525427077,3.0652057506,355
91451,194912,218345,5.6219366987,7.6749784895,3.1118657913,356
91544,194932,218301,5.5657053676,7.6845497799,3.0915267992,357
91693,194920,218335,5.651846981199999,7.6175507471,3.0029923629999997,358
91862,194982,218357,5.6542398038,7.6043902228,3.1334011947,359
92055,195016,218411,5.5657053676,7.6031938115,3.0484559924,360
92274,195068,218352,5.747559885199999,7.6414789731,2.9814569596,361
92450,195110,218410,5.5908300049,7.6139615132000005,3.0317062341999996,362
92639,195073,218439,5.5334022625,7.6319076827,3.1058837348,363
92834,195135,218419,5.5776694806,7.4069823583000005,3.0652057506,364
93037,195141,218397,5.647061336,7.5828548194,3.0795626862,365
93196,195143,218420,5.6147582309,7.5756763516,3.0999016782999997,366
93423,195183,218452,5.659025449,7.5768727629,3.1740791789,367
93338,195110,218443,5.637490045600001,7.5206414318,3.0675985732,368
92700,195047,218437,5.611168996999999,7.624729214899999,2.9467610319,369
92052,195002,218355,5.570491012800001,7.573283529,3.0855447427,370
91581,195011,218377,5.666203916800001,7.4213392939,3.1118657913,371
91433,195000,218363,5.528616617299999,7.639086150500001,3.062812928,372
91359,194968,218316,5.7080783123000005,7.5182486092000005,2.99102825,373
91405,195025,218335,5.7272208931,7.633104094,3.0221349438,374
91589,195024,218359,5.8337014988,7.624729214899999,3.1034909122000003,375
91744,195057,218380,5.6614182716,7.6043902228,3.0604201053999995,376
91829,194956,218352,5.620740287399999,7.5170521979,3.0065815969000003,377
91877,195008,218382,5.5920264161999995,7.585247642000001,3.0640093393,378
91925,195026,218352,5.6697931507,7.5206414318,3.0999016782999997,379
92047,195039,218355,5.582455125799999,7.6055866341,3.038884702,380
92124,195000,218335,5.6674003281,7.539784012599999,3.062812928,381
92240,194996,218374,5.678168029799999,7.4021967130999995,3.0197421212,382
92480,195060,218379,5.611168996999999,7.6103722793,3.0364918793999998,383
92597,195008,218380,5.649454158599999,7.5756763516,2.9802605483,384
92824,195046,218350,5.6434721021,7.5876404646,3.0963124444,385
92938,195033,218390,5.6757752072,7.5529445369,3.0939196218,386
93092,195053,218393,5.583651537100001,7.5924261098,3.0101708308,387
93222,195052,218353,5.6542398038,7.561319416,2.9814569596,388
92885,194960,218367,5.6482577473,7.4620172781,3.0484559924,389
92137,194911,218269,5.7092747236,7.624729214899999,3.0472595810999996,390
91637,194848,218256,5.7439706513,7.6115686905999995,2.8618158296000002,391
91306,194850,218278,5.6674003281,7.633104094,3.0604201053999995,392
91099,194797,218210,5.6183474648,7.4907311493,3.0269205889999995,393
91049,194796,218225,5.563312545,7.7252277641000004,3.0448667585,394
91098,194790,218186,5.6721859733,7.6199435697,2.9587251449000003,395
91271,194860,218233,5.5968120614000005,7.585247642000001,2.9443682093000003,396
91419,194822,218245,5.710471134900001,7.5469624804,3.0173492985999997,397
91519,194790,218191,5.7511491191,7.6295148601000005,2.9623143788,398
91613,194823,218218,5.6171510535,7.5924261098,3.0520452262999997,399
91677,194792,218217,5.5657053676,7.7587272805,3.0927232105,400
91779,194799,218221,5.6231331099999995,7.5625158273,2.979064137,401
91959,194796,218233,5.5788658919,7.6151579245,3.0927232105,402
92109,194836,218280,5.6733823846,7.6426753844,3.0915267992,403
92294,194839,218279,5.6602218603,7.549355303,3.0604201053999995,404
92423,194884,218228,5.6745787959,7.5134629639999995,3.0125636533999995,405
92646,194787,218275,5.5680981902,7.4751778024,3.0807590974999997,406
92830,194925,218310,5.4963135121999995,7.6139615132000005,2.9814569596,407
93004,194932,218311,5.6303115778,7.6151579245,3.0604201053999995,408
93196,194940,218300,5.678168029799999,7.5996045776,3.1070801461,409
93391,195001,218305,5.706881900999999,7.5577301821,3.0484559924,410
93484,194971,218343,5.611168996999999,7.5074809075,3.0484559924,411
92944,194877,218245,5.679364441100001,7.573283529,3.0077780082,412
92242,194824,218219,5.6279187552000005,7.6414789731,3.0951160330999996,413
91789,194786,218191,5.679364441100001,7.718049296299999,3.0664021618999997,414
91471,194748,218196,5.6027941179,7.621139981,3.1094729686999996,415
91179,194716,218153,5.587240771,7.5517481256,2.9072794589999997,416
91246,194742,218143,5.6303115778,7.53739119,3.0161528873,417
91332,194712,218170,5.599204884000001,7.6701928443,3.0017959517,418
91436,194727,218165,5.6482577473,7.5326055448,3.0460631697999996,419
91557,194764,218197,5.760720409499999,7.5637122386,2.9886354273999998,420
91664,194756,218168,5.7188460139999995,7.651050263499999,3.0077780082,421
91725,194752,218191,5.6267223439,7.5038916736,2.9958138952,422
91816,194769,218213,5.706881900999999,7.5338019561000005,2.9587251449000003,423
91916,194781,218206,5.6183474648,7.511070141399999,3.0113672421,424
92060,194793,218196,5.6004012953,7.5445696578,3.0340990568,425
92228,194791,218178,5.6015977066,7.5673014725,3.0951160330999996,426
92402,194870,218251,5.570491012800001,7.5996045776,3.0089744195,427
92557,194873,218260,5.6075797630999995,7.5194450205,2.99102825,428
92744,194863,218253,5.6015977066,7.5996045776,2.9359933301999996,429
92979,194925,218256,5.575276658,7.526623488299999,2.967100024,430
93110,194929,218274,5.6877393201999995,7.6163543358,2.9934210726,431
93315,194917,218276,5.566901778899999,7.542176835199999,3.0448667585,432
93484,194986,218315,5.5728838354,7.639086150500001,3.0580272828,433
93576,195015,218345,5.5944192388,7.7192457076,3.0412775246,434
93837,194958,218360,5.6697931507,7.5828548194,3.0556344602,435
93749,194927,218339,5.6123654083000005,7.606783045399999,3.0616165167,436
93105,194893,218239,5.5202417382,7.6091758679999995,3.1692935337,437
92433,194826,218207,5.5645089563,7.6019974002,2.9431717980000003,438
91977,194801,218230,5.6039905292,7.6235328036,3.0652057506,439
91708,194760,218189,5.587240771,7.570890706399999,3.0209385325,440
91524,194747,218178,5.6733823846,7.549355303,2.9336005076,441
91496,194750,218190,5.5920264161999995,7.6486574409,3.014956476,442
91604,194752,218195,5.6327044004,7.6498538522,3.0245277664,443
91726,194831,218189,5.6961141993,7.5230342544,3.0340990568,444
91800,194778,218214,5.6087761744,7.5661050612,3.0077780082,445
91879,194813,218230,5.5716874241,7.6115686905999995,3.0317062341999996,446
91921,194813,218188,5.6410792795,7.495516794499999,3.0975088557,447
91940,194793,218175,5.637490045600001,7.625925626199999,3.0221349438,448
92127,194824,218260,5.6135618196,7.6594251426,2.9814569596,449
92265,194837,218227,5.6386864569,7.6031938115,3.1070801461,450
92414,194854,218227,5.6183474648,7.5469624804,3.0101708308,451
92554,194857,218235,5.6961141993,7.5936225210999995,3.0819555088,452
92730,194941,218259,5.6638110942,7.5864440533,2.9575287336000002,453
92914,194902,218256,5.5932228275,7.4763742137,2.9647072014,454
93109,194907,218271,5.6398828682,7.5816584081,2.9527430884,455
93274,194910,218328,5.6087761744,7.6008009889000006,3.0352954681,456
93452,194913,218289,5.582455125799999,7.6151579245,3.0436703472,457
93660,195024,218346,5.5680981902,7.5804619967999995,2.9503502657999996,458
93833,195039,218327,5.681757263700001,7.6163543358,3.0400811133000003,459
93663,195014,218318,5.6219366987,7.4548388103,3.0412775246,460
92996,194935,218266,5.6027941179,7.5541409482,3.0472595810999996,461
92326,194898,218252,5.6578290377,7.6079794567,2.99102825,462
91874,194873,218217,5.651846981199999,7.5756763516,3.0855447427,463
91546,194839,218199,5.7056854897,7.5134629639999995,3.0879375653000003,464
91452,194843,218272,5.681757263700001,7.6055866341,3.0005995404,465
91521,194882,218248,5.6171510535,7.6187471584,3.0580272828,466
91590,194913,218247,5.6482577473,7.6079794567,3.0951160330999996,467
91755,194945,218235,5.6315079891,7.6151579245,3.0711878071,468
91861,194926,218239,5.6075797630999995,7.6187471584,2.9156543381000004,469
91898,194919,218274,5.732006538299999,7.4751778024,3.0340990568,470
92027,194967,218262,5.6039905292,7.6725856669,3.038884702,471
92116,194995,218290,5.7403814174,7.6366933279,3.0891339766000003,472
92227,194971,218302,5.670989562,7.6271220375,2.9886354273999998,473
92367,194933,218309,5.6303115778,7.6845497799,3.1381868399,474
92533,194931,218347,5.7032926670999995,7.5278198996,3.014956476,475
92712,195014,218392,5.611168996999999,7.6654071991,3.0903303879,476
92903,195080,218361,5.6303115778,7.555337359499999,3.0412775246,477
93109,195106,218384,5.6219366987,7.612765101899999,3.086741154,478
93254,195140,218354,5.6805608524,7.6522466748,3.0723842184,479
93430,195180,218398,5.7595239982,7.53739119,3.0101708308,480
93678,195196,218420,5.651846981199999,7.549355303,3.086741154,481
93780,195243,218415,5.659025449,7.4679993346,3.1082765574000004,482
93608,195147,218375,5.6434721021,7.6498538522,3.1417760738,483
92874,195039,218369,5.7080783123000005,7.6307112714,3.0197421212,484
92238,194975,218307,5.6566326264,7.4967132058,3.1812576466999998,485
91756,194976,218290,5.635097223,7.633104094,2.9934210726,486
91559,194993,218295,5.5776694806,7.5445696578,3.0532416376,487
91440,194969,218304,5.6841500863,7.5517481256,3.0221349438,488
91516,195028,218311,5.5968120614000005,7.5876404646,3.1369904286000003,489
91633,195015,218291,5.6398828682,7.7156564737,3.0508488149999997,490
91740,195011,218322,5.7152567801,7.477570625,3.0723842184,491
91778,194988,218290,5.760720409499999,7.585247642000001,3.0376882907,492
91847,194964,218288,5.5597233111,7.5469624804,3.0807590974999997,493
91894,194994,218344,5.6159546422,7.4835526815,2.9455646206,494
91941,195074,218325,5.540580730299999,7.635496916599999,3.1716863562999995,495
92050,195008,218315,5.6386864569,7.5864440533,2.9228328059,496
92168,195012,218349,5.670989562,7.53739119,3.1262227269,497
92318,195041,218353,5.6697931507,7.597211754999999,3.1334011947,498
92429,195013,218302,5.682953675,7.6307112714,3.1070801461,499
92580,195105,218301,5.6171510535,7.5696942951,3.0939196218,500
92719,195110,218321,5.5202417382,7.570890706399999,3.0017959517,501
92780,195102,218365,5.682953675,7.570890706399999,2.9180471607,502
92903,195127,218362,5.7655060547,7.7036923607,2.9958138952,503
92259,194922,218262,5.5932228275,7.6019974002,3.0580272828,504
91402,194881,218240,5.6506505699,7.5876404646,3.0532416376,505
90917,194836,218204,5.6805608524,7.485945504099999,3.0652057506,506
90538,194805,218196,5.551348432,7.4715885685,2.9012974024999996,507
90352,194744,218175,5.6039905292,7.5900332872,3.0664021618999997,508
90334,194675,218181,5.5788658919,7.5445696578,3.0101708308,509
90469,194762,218138,5.5800623032,7.561319416,3.062812928,510
90633,194719,218184,5.649454158599999,7.572087117700001,3.0101708308,511
90775,194759,218163,5.778666579,7.4919275606,3.0245277664,512
90850,194760,218164,5.6231331099999995,7.5661050612,3.0939196218,513
90909,194744,218217,5.635097223,7.525427077,2.9718856692,514
91016,194762,218177,5.6398828682,7.6366933279,3.0053851856000002,515
91115,194753,218208,5.4975099235,7.6366933279,3.0364918793999998,516
91253,194774,218189,5.5310094399,7.5924261098,3.0843483314,517
91454,194803,218213,5.6757752072,7.525427077,3.0783662749,518
91673,194818,218188,5.662614682899999,7.6522466748,3.0077780082,519
91873,194833,218229,5.7032926670999995,7.5984081663000005,3.0077780082,520
92058,194849,218251,5.5920264161999995,7.6019974002,2.8414768375,521
92241,194886,218243,5.6279187552000005,7.5900332872,3.1022945009000003,522
92415,194910,218251,5.651846981199999,7.6283184488,3.0029923629999997,523
92595,194932,218276,5.5812587145,7.5278198996,2.9802605483,524
92412,194834,218248,5.599204884000001,7.5242306657,3.0711878071,525
91552,194728,218202,5.611168996999999,7.5349983674,3.0340990568,526
90708,194676,218135,5.6901321428,7.4823562701999995,3.0436703472,527
90130,194649,218118,5.6841500863,7.53739119,3.0197421212,528
89764,194604,218121,5.5860443597,7.543373246500001,2.9718856692,529
89579,194573,218067,5.659025449,7.718049296299999,3.11066938,530
89622,194562,218058,5.6039905292,7.5326055448,3.1453653077,531
89794,194608,218099,5.6219366987,7.6139615132000005,3.0819555088,532
89989,194629,218067,5.5274202059999995,7.549355303,3.0604201053999995,533
90168,194631,218072,5.7750773451,7.653443086099999,2.9970103065,534
90216,194649,218106,5.6614182716,7.4991060284,2.9347969189,535
90300,194596,218118,5.6195438761,7.6199435697,2.9180471607,536
90448,194647,218133,5.6482577473,7.5661050612,3.0807590974999997,537
90645,194676,218133,5.5920264161999995,7.4835526815,3.0340990568,538
90789,194734,218148,5.5621161337,7.7228349415,3.0484559924,539
90986,194677,218166,5.6685967394,7.667800021700001,3.1334011947,540
91193,194712,218177,5.6327044004,7.5062844962,3.0329026454999997,541
91404,194728,218181,5.7655060547,7.6737820782,2.9826533709,542
91631,194768,218165,5.635097223,7.5314091335,3.1190442591,543
91858,194777,218214,5.5106704478,7.511070141399999,3.0795626862,544
92081,194828,218207,5.694917788000001,7.6235328036,2.9108686929000003,545
92308,194846,218225,5.6135618196,7.5888368759,3.0640093393,546
92529,194869,218250,5.748756296500001,7.7934232082,3.1154550251999997,547
92718,194897,218301,5.6255259326000004,7.584051230699999,2.9551359109999997,548
92944,194919,218276,5.637490045600001,7.645068207,3.1022945009000003,549
92723,194846,218224,5.5501520207,7.539784012599999,3.0269205889999995,550
91850,194754,218212,5.553741254599999,7.6079794567,2.9886354273999998,551
91122,194702,218178,5.5525448433,7.6725856669,3.1094729686999996,552
90577,194680,218155,5.5561340772,7.7132636511,3.0412775246,553
90203,194637,218126,5.539384319,7.561319416,2.9551359109999997,554
90114,194642,218088,5.679364441100001,7.6582287313,2.9419753867,555
90158,194632,218117,5.681757263700001,7.5469624804,3.0173492985999997,556
90325,194671,218145,5.649454158599999,7.625925626199999,3.0747770410000004,557
90507,194645,218143,5.748756296500001,7.5003024396999995,3.0412775246,558
90616,194643,218148,5.6506505699,7.6402825618,3.0161528873,559
90824,194671,218149,5.6674003281,7.489534738000001,3.0364918793999998,560
90927,194667,218152,5.886343596000001,7.6366933279,2.9934210726,561
91011,194655,218143,5.569294601499999,7.514659375300001,3.0101708308,562
91062,194689,218138,5.5920264161999995,7.6558359087,2.9886354273999998,563
91401,194774,218177,5.6267223439,7.5888368759,3.0819555088,564
91589,194740,218202,5.605186940499999,7.5756763516,3.014956476,565
91725,194773,218209,5.6398828682,7.6881390138,3.0687949845,566
91971,194798,218243,5.662614682899999,7.5445696578,2.9407789753999998,567
92189,194835,218276,5.5609197224,7.6426753844,2.9838497821999996,568
92442,194877,218260,5.7595239982,7.624729214899999,2.9766713144,569
92659,194929,218295,5.5657053676,7.6594251426,2.9982067177999996,570
92944,194968,218353,5.4855458105,7.6438717957,3.0640093393,571
93180,195043,218330,5.5740802467,7.6295148601000005,2.9228328059,572
93371,195028,218307,5.670989562,7.624729214899999,3.014956476,573
93582,195052,218420,5.5597233111,7.5062844962,3.0173492985999997,574
93462,195072,218367,5.6913285541,7.5661050612,3.0520452262999997,575
92870,194928,218302,5.7128639575,7.584051230699999,3.0173492985999997,576
92302,194937,218288,5.6422756908,7.6187471584,3.0077780082,577
91942,194927,218315,5.5501520207,7.5828548194,3.1286155494999996,578
91729,194887,218280,5.5489556094,7.5996045776,3.1070801461,579
91669,194877,218283,5.5980084727,7.6737820782,2.9383861528,580
91745,194899,218257,5.7152567801,7.4380890521,3.0173492985999997,581
91916,194941,218287,5.7702916999,7.5792655855,3.0340990568,582
92134,194972,218283,5.6039905292,7.6283184488,3.0269205889999995,583
92252,194938,218334,5.6566326264,7.542176835199999,3.0436703472,584
92416,194971,218326,5.540580730299999,7.5038916736,3.1381868399,585
92486,195019,218329,5.5788658919,7.5230342544,3.0221349438,586
92616,195019,218304,5.6554362151,7.635496916599999,3.038884702,587
92807,195046,218357,5.6099725857,7.6737820782,3.062812928,588
92937,195116,218366,5.6099725857,7.5768727629,3.1250263156,589
93113,195108,218352,5.6482577473,7.5182486092000005,3.0053851856000002,590
93277,195091,218379,5.6279187552000005,7.570890706399999,3.1669007111,591
93462,195130,218406,5.6542398038,7.5780691741999995,3.0221349438,592
93668,195175,218431,5.5298130286000005,7.5290163108999995,2.9252256285000002,593
93898,195074,218434,5.6147582309,7.721638530200001,3.1429724850999996,594
94116,195240,218439,5.5525448433,7.6713892556,3.1094729686999996,595
94310,195281,218439,5.6506505699,7.5828548194,3.0101708308,596
94480,195268,218499,5.7343993608999995,7.5948189324,3.0819555088,597
94347,195234,218436,5.662614682899999,7.606783045399999,3.0675985732,598
93880,195137,218421,5.6255259326000004,7.5589265934,3.0340990568,599
93532,195115,218388,5.5944192388,7.6175507471,3.1310083721,600
93314,195082,218370,5.6614182716,7.6163543358,3.014956476,601
93185,195070,218389,5.5800623032,7.6414789731,3.0436703472,602
93180,195082,218373,5.6889357315,7.4871419154,2.9922246613000003,603
93266,195086,218376,5.6542398038,7.4404818747,3.0915267992,604
93406,195068,218390,5.681757263700001,7.6498538522,3.0496524037,605
93516,195088,218403,5.467599641,7.5062844962,3.098705267,606
93589,195065,218391,5.6123654083000005,7.654639497399999,3.0448667585,607
93649,195072,218425,5.6063833518,7.5888368759,3.1010980895999998,608
93690,195079,218368,5.636293634299999,7.5230342544,3.0077780082,609
93781,195119,218371,5.7511491191,7.4225357052000005,3.0293134116,610
93863,195138,218403,5.7559347643,7.6642107878,2.979064137,611
93985,195132,218399,5.569294601499999,7.6295148601000005,3.0269205889999995,612
94107,195127,218429,5.5477591981,7.5661050612,3.1884361145,613
94172,195104,218390,5.659025449,7.4847490928,3.0376882907,614
94371,195104,218411,5.6135618196,7.5445696578,3.0029923629999997,615
94509,195148,218397,5.6398828682,7.5529445369,2.9455646206,616
94616,195166,218458,5.6865429089,7.4943203832,3.0580272828,617
94568,195066,218387,5.5501520207,7.5062844962,3.1166514365,618
94108,194978,218301,5.665007505499999,7.5349983674,2.9886354273999998,619
93630,194924,218293,5.6506505699,7.5756763516,2.9359933301999996,620
93303,194889,218273,5.6183474648,7.5804619967999995,3.038884702,621
93080,194841,218274,5.636293634299999,7.549355303,2.9407789753999998,622
92945,194860,218237,5.6099725857,7.621139981,2.9934210726,623
92922,194862,218279,5.633900811699999,7.612765101899999,2.931207685,624
93024,194849,218230,5.5776694806,7.472784979799999,3.0532416376,625
93106,194792,218253,5.6231331099999995,7.5649086499,3.0843483314,626
93181,194846,218231,5.6446685134,7.651050263499999,3.0412775246,627
93237,194849,218236,5.5932228275,7.5625158273,3.0436703472,628
93302,194820,218279,5.7152567801,7.5230342544,3.0664021618999997,629
93365,194871,218235,5.553741254599999,7.5828548194,2.9599215562,630
93497,194877,218274,5.6961141993,7.666603610399999,3.0951160330999996,631
93555,194862,218268,5.5441699642,7.5768727629,3.1381868399,632
93717,194838,218310,5.649454158599999,7.6402825618,3.0269205889999995,633
93812,194894,218272,5.818148151899999,7.549355303,3.1046873235,634
93978,194927,218280,5.6327044004,7.5948189324,3.0484559924,635
94128,194976,218324,5.6554362151,7.477570625,3.0460631697999996,636
94256,194994,218317,5.5106704478,7.477570625,3.1405796625,637
94372,194969,218319,5.6901321428,7.5996045776,3.0077780082,638
94546,194998,218334,5.582455125799999,7.6031938115,3.0197421212,639
94326,194940,218276,5.5980084727,7.5003024396999995,3.1094729686999996,640
93795,194837,218221,5.7439706513,7.5469624804,2.9551359109999997,641
93287,194794,218240,5.6997034332,7.6618179652,2.9551359109999997,642
92886,194800,218186,5.5728838354,7.6462646183,3.1022945009000003,643
92567,194744,218162,5.665007505499999,7.488338326699999,3.1094729686999996,644
92411,194739,218180,5.6315079891,7.6701928443,2.9814569596,645
92381,194681,218189,5.7655060547,7.6235328036,3.0843483314,646
92453,194709,218182,5.6697931507,7.584051230699999,3.0532416376,647
92534,194704,218153,5.7032926670999995,7.585247642000001,3.1046873235,648
92631,194739,218147,5.7535419417,7.556533770800001,3.0293134116,649
92679,194723,218215,5.528616617299999,7.5541409482,3.0005995404,650
92717,194777,218205,5.682953675,7.683353368600001,3.0448667585,651
92791,194748,218201,5.4975099235,7.5780691741999995,3.0759734523,652
92904,194774,218195,5.5322058512000005,7.6199435697,3.0221349438,653
93009,194756,218153,5.6578290377,7.6115686905999995,2.9742784918,654
93176,194822,218225,5.7655060547,7.570890706399999,3.0233313551,655
93281,194833,218258,5.6087761744,7.7455667562,3.0197421212,656
93407,194823,218244,5.6434721021,7.5984081663000005,3.062812928,657
93584,194869,218252,5.5776694806,7.5062844962,3.0329026454999997,658
93753,194859,218255,5.7056854897,7.6594251426,3.0484559924,659
93897,194917,218293,5.6685967394,7.6917282476999995,3.0245277664,660
94077,194918,218300,5.636293634299999,7.6235328036,2.9156543381000004,661
94104,194890,218265,5.6674003281,7.525427077,3.0879375653000003,662
93601,194789,218246,5.5453663755000004,7.584051230699999,2.99102825,663
92894,194810,218217,5.651846981199999,7.572087117700001,2.9252256285000002,664
92396,194718,218191,5.6219366987,7.621139981,2.9587251449000003,665
92061,194663,218141,5.5609197224,7.4787670363,2.9431717980000003,666
91874,194642,218155,5.5453663755000004,7.5134629639999995,3.0173492985999997,667
91796,194677,218070,5.6195438761,7.6582287313,3.0975088557,668
91838,194658,218101,5.5896335936,7.6019974002,3.0233313551,669
91923,194665,218136,5.5728838354,7.6043902228,3.0460631697999996,670
92053,194646,218110,5.6291151665,7.5876404646,3.0077780082,671
92047,194649,218145,5.6554362151,7.4584280442,2.9623143788,672
92195,194709,218101,5.5453663755000004,7.5517481256,3.038884702,673
92299,194702,218147,5.6542398038,7.597211754999999,3.0305098229,674
92358,194755,218139,5.6267223439,7.5445696578,3.0269205889999995,675
92474,194696,218189,5.6422756908,7.561319416,3.0221349438,676
92582,194766,218168,5.583651537100001,7.6019974002,3.0376882907,677
92785,194676,218209,5.670989562,7.4691957459,3.098705267,678
93002,194815,218183,5.5465627868,7.6414789731,3.0101708308,679
93118,194840,218193,5.6004012953,7.5062844962,2.9527430884,680
93344,194864,218272,5.7798629903,7.5457660691,3.0879375653000003,681
93518,194925,218304,5.7212388366,7.4799634476,2.9766713144,682
93703,194926,218276,5.6123654083000005,7.639086150500001,3.0604201053999995,683
93843,194976,218312,5.6398828682,7.5158557866,2.9862426048,684
93467,194892,218255,5.6015977066,7.6618179652,3.0556344602,685
92761,194831,218248,5.6327044004,7.473981391100001,2.9982067177999996,686
92198,194746,218199,5.5920264161999995,7.5326055448,3.1453653077,687
91725,194737,218171,5.7236316592000005,7.6343005053,2.9455646206,688
91646,194740,218195,5.6063833518,7.561319416,2.9718856692,689
91555,194735,218166,5.649454158599999,7.7036923607,3.1034909122000003,690
91583,194740,218199,5.659025449,7.6343005053,3.0664021618999997,691
91707,194793,218189,5.5764730692999995,7.7108708285,3.1070801461,692
91831,194784,218191,5.7152567801,7.4823562701999995,3.0999016782999997,693
91945,194811,218160,5.633900811699999,7.542176835199999,3.0771698636,694
92024,194851,218181,5.7583275869,7.6199435697,3.0951160330999996,695
92114,194886,218233,5.7092747236,7.6139615132000005,3.0999016782999997,696
92220,194861,218274,5.6183474648,7.5230342544,3.0005995404,697
92336,194893,218206,5.5070812139,7.6139615132000005,2.9826533709,698
92489,194896,218254,5.5968120614000005,7.5062844962,3.0556344602,699
92668,194896,218209,5.7008998445,7.539784012599999,3.0879375653000003,700
92840,194948,218318,5.491527867,7.5134629639999995,2.9276184511,701
93028,194947,218328,5.6506505699,7.695317481599999,3.0221349438,702
93145,195007,218316,5.8372907327,7.7431739336,3.0412775246,703
93384,195038,218375,5.5585268998,7.539784012599999,3.0508488149999997,704
93566,195053,218390,5.6135618196,7.5673014725,2.9838497821999996,705
93443,195009,218293,5.566901778899999,7.6091758679999995,3.2027930501,706
92774,194888,218295,5.7463634739,7.624729214899999,3.0317062341999996,707
92190,194860,218273,5.5800623032,7.4452675199,3.0879375653000003,708
91838,194842,218217,5.620740287399999,7.5445696578,3.0580272828,709
91588,194819,218223,5.6985070219,7.4045895357,3.0508488149999997,710
91471,194816,218234,5.5657053676,7.5278198996,2.967100024,711
91500,194813,218167,5.6027941179,7.585247642000001,3.0508488149999997,712
91626,194854,218228,5.653043392499999,7.5780691741999995,3.0305098229,713
91761,194819,218209,5.7559347643,7.4679993346,3.0017959517,714
91824,194829,218173,5.6434721021,7.597211754999999,2.9766713144,715
91846,194822,218219,5.6566326264,7.5984081663000005,3.0699913958000002,716
91920,194829,218238,5.6231331099999995,7.6977103042,3.1429724850999996,717
91974,194912,218229,5.5920264161999995,7.5601230047,2.9934210726,718
92054,194818,218196,5.694917788000001,7.6271220375,3.0903303879,719
92207,194859,218217,5.682953675,7.6175507471,3.1058837348,720
92394,194855,218255,5.5848479484,7.4261249391,3.0317062341999996,721
92510,194885,218267,5.662614682899999,7.7515488127,3.1274191382,722
92605,194883,218235,5.5800623032,7.6402825618,3.1322047834,723
92780,194914,218240,5.599204884000001,7.6438717957,3.0484559924,724
92923,194934,218245,5.5884371823,7.6630143765,2.9730820805000002,725
92721,194819,218238,5.653043392499999,7.625925626199999,3.0711878071,726
91934,194690,218121,5.665007505499999,7.6031938115,3.0317062341999996,727
91267,194633,218108,5.5573304885,7.6869426025,3.0173492985999997,728
90821,194581,218076,5.6183474648,7.5278198996,3.0711878071,729
90526,194548,218051,5.5465627868,7.6773713121,3.0101708308,730
90391,194488,218010,5.4903314557,7.6139615132000005,3.0424739359,731
90422,194473,218032,5.6685967394,7.465606512,2.9742784918,732
90552,194428,218051,5.5944192388,7.489534738000001,3.1716863562999995,733
90732,194530,218037,5.6925249654,7.6187471584,3.0029923629999997,734
90768,194565,218054,5.6398828682,7.5003024396999995,2.9982067177999996,735
90975,194533,218010,5.6004012953,7.5505517143,3.1477581302999997,736
91102,194577,218058,5.620740287399999,7.5864440533,2.9419753867,737
91156,194539,218053,5.6925249654,7.5696942951,2.9527430884,738
91287,194580,218076,5.599204884000001,7.5206414318,2.9455646206,739
91463,194606,218104,5.5585268998,7.549355303,3.014956476,740
91645,194602,218097,5.4831529879,7.4691957459,2.9647072014,741
91833,194644,218125,5.5166525043000005,7.4823562701999995,2.9934210726,742
92073,194662,218093,5.5920264161999995,7.6498538522,3.1070801461,743
92253,194703,218143,5.5597233111,7.5804619967999995,2.9575287336000002,744
92429,194707,218164,5.6015977066,7.5804619967999995,3.0317062341999996,745
92596,194711,218116,5.5944192388,7.5589265934,2.9766713144,746
92307,194628,218105,5.528616617299999,7.637889739199999,2.99102825,747
91490,194516,218064,5.5788658919,7.6486574409,2.9958138952,748
90782,194465,218017,5.6135618196,7.5541409482,3.0125636533999995,749
90288,194474,218001,5.637490045600001,7.4871419154,3.0508488149999997,750
89986,194349,218016,5.637490045600001,7.501498850999999,2.9024938138,751
89889,194362,217961,5.5848479484,7.5996045776,2.9551359109999997,752
89901,194390,217993,5.6865429089,7.5984081663000005,3.1561330094,753
90131,194429,217956,5.6422756908,7.5780691741999995,3.0005995404,754
90283,194429,217990,5.5884371823,7.5541409482,3.0532416376,755
90477,194418,218018,5.5944192388,7.6103722793,3.0460631697999996,756
90540,194411,218026,5.7032926670999995,7.585247642000001,2.9934210726,757
90728,194440,217996,5.6961141993,7.5828548194,2.8989045799,758
90838,194450,217973,5.7822558129,7.6701928443,2.9395825641,759
90967,194495,218030,5.7415778287,7.4919275606,3.0448667585,760
91170,194553,218029,5.6733823846,7.5816584081,3.098705267,761
91374,194575,218055,5.611168996999999,7.654639497399999,2.9922246613000003,762
91592,194560,218118,5.6542398038,7.53739119,2.9742784918,763
91818,194561,218105,5.7954163372,7.6773713121,2.9467610319,764
92019,194534,218126,5.7248280705,7.651050263499999,3.0711878071,765
92239,194520,218147,5.5621161337,7.6031938115,2.9862426048,766
92385,194634,218170,5.6183474648,7.6618179652,3.0556344602,767
92668,194691,218176,5.582455125799999,7.5996045776,2.979064137,768
92443,194637,218125,5.6303115778,7.573283529,2.9802605483,769
91604,194488,218076,5.6255259326000004,7.5290163108999995,3.1525437755,770
90896,194485,218047,5.6099725857,7.606783045399999,2.9706892578999997,771
90405,194451,217997,5.7343993608999995,7.5649086499,3.0376882907,772
90091,194369,217966,5.5944192388,7.5924261098,3.0053851856000002,773
89979,194368,217990,5.6578290377,7.6115686905999995,3.1118657913,774
90051,194380,218032,5.6566326264,7.6965138929000005,3.0245277664,775
90227,194412,218019,5.662614682899999,7.6462646183,2.9886354273999998,776
90394,194423,218010,5.5968120614000005,7.5804619967999995,2.9599215562,777
90619,194419,218025,5.6303115778,7.6474610296,3.0101708308,778
90767,194484,218025,5.682953675,7.5003024396999995,3.1046873235,779
90849,194472,218053,5.620740287399999,7.5948189324,3.0951160330999996,780
90974,194513,218035,5.6063833518,7.570890706399999,2.9982067177999996,781
91152,194487,218050,5.5334022625,7.5828548194,3.0269205889999995,782
91331,194553,218106,5.5920264161999995,7.549355303,3.0556344602,783
91539,194621,218123,5.6566326264,7.6785677234,2.9443682093000003,784
91758,194589,218125,5.7008998445,7.5864440533,3.0616165167,785
91995,194652,218148,5.5728838354,7.542176835199999,2.9467610319,786
92209,194698,218239,5.649454158599999,7.7192457076,3.0293134116,787
92428,194724,218207,5.6697931507,7.622336392299999,2.9694928465999997,788
92672,194735,218239,5.5310094399,7.6019974002,3.062812928,789
92888,194776,218225,5.6279187552000005,7.6163543358,3.0293134116,790
93131,194845,218274,5.620740287399999,7.651050263499999,3.0699913958000002,791
93120,194829,218268,5.4891350444,7.5912296985,3.0221349438,792
92416,194696,218177,5.6985070219,7.6414789731,3.0436703472,793
91617,194613,218164,5.6255259326000004,7.570890706399999,3.1094729686999996,794
91001,194619,218139,5.7152567801,7.6115686905999995,3.0568308715,795
90773,194567,218111,5.6985070219,7.585247642000001,3.0508488149999997,796
90630,194593,218122,5.569294601499999,7.5098737301,2.9300112737000004,797
90621,194638,218114,5.7535419417,7.5756763516,3.0305098229,798
90795,194602,218101,5.637490045600001,7.737191877099999,3.0101708308,799
90997,194630,218176,5.4065826647,7.6893354250999995,3.0723842184,800
91169,194659,218162,5.6554362151,7.6008009889000006,3.0340990568,801
91265,194671,218169,5.6255259326000004,7.5649086499,3.0281170003,802
91381,194671,218179,5.540580730299999,7.6654071991,3.0735806297,803
91475,194688,218189,5.670989562,7.4488567538,3.0831519201,804
91645,194692,218196,5.553741254599999,7.5876404646,2.9132615155,805
91858,194788,218251,5.6697931507,7.5876404646,3.146561719,806
91919,194796,218248,5.5142596817000005,7.612765101899999,3.0352954681,807
92242,194842,218289,5.6410792795,7.530212722199999,3.0699913958000002,808
92390,194837,218200,5.5764730692999995,7.5134629639999995,3.0412775246,809
92518,194872,218261,5.7870414581,7.6414789731,3.098705267,810
92851,194871,218295,5.6853464976,7.5924261098,3.1118657913,811
93032,194930,218265,5.6685967394,7.639086150500001,3.1896325258,812
93143,194929,218342,5.5429735529,7.651050263499999,3.098705267,813
92609,194796,218239,5.6482577473,7.570890706399999,3.0963124444,814
91864,194796,218225,5.6913285541,7.6283184488,3.1860432919,815
91339,194715,218237,5.6446685134,7.5062844962,3.1932217597,816
90990,194660,218195,5.6099725857,7.6989067155,3.0161528873,817
90866,194665,218155,5.6853464976,7.5960153436999995,3.0723842184,818
90874,194664,218150,5.582455125799999,7.5936225210999995,3.0317062341999996,819
91008,194691,218168,5.7080783123000005,7.549355303,3.062812928,820
91198,194727,218183,5.5944192388,7.525427077,3.1740791789,821
91338,194764,218191,5.6422756908,7.6175507471,3.0747770410000004,822
91441,194742,218241,5.7535419417,7.5517481256,3.0173492985999997,823
91445,194726,218205,5.6279187552000005,7.6965138929000005,3.0664021618999997,824
91565,194751,218207,5.7188460139999995,7.6343005053,3.1202406704,825
91652,194737,218210,5.4783673427,7.5445696578,3.1190442591,826
91777,194807,218186,5.633900811699999,7.525427077,3.1369904286000003,827
91938,194723,218259,5.6291151665,7.6582287313,3.0927232105,828
92077,194763,218194,5.6015977066,7.5876404646,3.0747770410000004,829
92258,194782,218191,5.553741254599999,7.6582287313,3.0340990568,830
92430,194807,218241,5.570491012800001,7.6486574409,3.1046873235,831
92597,194800,218265,5.539384319,7.6654071991,3.0101708308,832
92540,194763,218219,5.6159546422,7.651050263499999,3.1238299043,833
91837,194614,218108,5.754738353,7.6163543358,3.0029923629999997,834
91068,194574,218135,5.6865429089,7.5960153436999995,3.0520452262999997,835
90504,194567,218119,5.6614182716,7.5696942951,3.0747770410000004,836
90153,194472,218088,5.6973106106,7.6043902228,2.9276184511,837
89981,194458,218027,5.6386864569,7.6414789731,2.979064137,838
90043,194475,218058,5.7367921835,7.679764134699999,2.931207685,839
90170,194526,218071,5.6434721021,7.485945504099999,3.0221349438,840
90307,194472,218054,5.6841500863,7.6582287313,2.8941189347,841
90542,194503,218076,5.6015977066,7.5326055448,3.0125636533999995,842
90681,194493,218090,5.5884371823,7.6008009889000006,3.0352954681,843
90737,194482,218103,5.6542398038,7.6845497799,3.1238299043,844
90862,194507,218119,5.5621161337,7.5768727629,2.9814569596,845
90998,194525,218103,5.6578290377,7.5756763516,3.1094729686999996,846
91175,194562,218123,5.5274202059999995,7.447660342499999,3.1094729686999996,847
91315,194540,218093,5.6697931507,7.511070141399999,3.0364918793999998,848
91591,194575,218132,5.6087761744,7.556533770800001,2.9551359109999997,849
91783,194528,218143,5.5010991574000005,7.542176835199999,3.0005995404,850
92007,194651,218153,5.6877393201999995,7.5876404646,2.9994031291,851
92227,194685,218211,5.7188460139999995,7.5816584081,3.0771698636,852
92293,194695,218196,5.5214381495,7.5864440533,3.014956476,853
91658,194597,218135,5.5106704478,7.625925626199999,3.0616165167,854
90802,194471,218106,5.7403814174,7.668996433,2.8965117573,855
90143,194429,218059,5.7212388366,7.6630143765,3.0604201053999995,856
89767,194394,218003,5.611168996999999,7.555337359499999,2.9742784918,857
89504,194372,218039,5.647061336,7.5230342544,3.0041887742999998,858
89421,194348,218021,5.678168029799999,7.5278198996,3.0735806297,859
89681,194388,218033,5.620740287399999,7.651050263499999,3.0424739359,860
89925,194427,218038,5.563312545,7.635496916599999,3.1022945009000003,861
90108,194467,218064,5.6542398038,7.4919275606,3.0125636533999995,862
90262,194443,218069,5.6602218603,7.5804619967999995,2.931207685,863
90383,194450,218081,5.6614182716,7.485945504099999,3.0436703472,864
90541,194491,218070,5.7140603688,7.651050263499999,2.9443682093000003,865
90704,194503,218095,5.6997034332,7.6151579245,2.9336005076,866
90854,194497,218125,5.563312545,7.5900332872,3.0580272828,867
91045,194508,218129,5.6015977066,7.5828548194,3.0173492985999997,868
91265,194555,218154,5.4640104071,7.5828548194,2.9718856692,869
91473,194558,218164,5.7367921835,7.679764134699999,3.0436703472,870
91677,194509,218139,5.6614182716,7.683353368600001,2.9108686929000003,871
91898,194650,218228,5.611168996999999,7.5182486092000005,3.0340990568,872
92067,194620,218197,5.5106704478,7.5780691741999995,3.0448667585,873
91558,194575,218149,5.6674003281,7.542176835199999,3.0580272828,874
90741,194475,218090,5.670989562,7.5158557866,3.0532416376,875
90068,194432,218090,5.7032926670999995,7.5984081663000005,2.9156543381000004,876
89677,194403,218077,5.806184038900001,7.6845497799,3.0317062341999996,877
89437,194358,218032,5.575276658,7.5206414318,3.0903303879,878
89346,194344,218033,5.4831529879,7.5409804239,2.9814569596,879
89643,194387,218049,5.6745787959,7.5996045776,3.0568308715,880
89866,194457,218074,5.6219366987,7.5637122386,3.1764720014999996,881
90070,194385,218076,5.563312545,7.5457660691,3.0125636533999995,882
90242,194451,218107,5.5680981902,7.525427077,3.1046873235,883
90377,194436,218107,5.6697931507,7.477570625,3.0197421212,884
90510,194479,218102,5.6398828682,7.6103722793,3.0233313551,885
90666,194520,218139,5.5680981902,7.6031938115,3.0460631697999996,886
90845,194496,218077,5.6769716185,7.5816584081,3.0532416376,887
91027,194521,218187,5.5860443597,7.5948189324,2.9539394997,888
91218,194558,218158,5.6386864569,7.447660342499999,2.9635107901000004,889
91511,194557,218184,5.7439706513,7.5828548194,3.0197421212,890
91704,194604,218206,5.710471134900001,7.5661050612,3.0005995404,891
91954,194624,218190,5.6554362151,7.525427077,3.0065815969000003,892
92165,194654,218233,5.6015977066,7.6917282476999995,3.0819555088,893
92383,194699,218281,5.6745787959,7.624729214899999,2.9982067177999996,894
92595,194686,218255,5.620740287399999,7.6773713121,2.9706892578999997,895
92665,194688,218292,5.5585268998,7.5505517143,2.9228328059,896
92040,194634,218245,5.605186940499999,7.5170521979,3.0556344602,897
91227,194557,218162,5.620740287399999,7.4979096170999995,3.0293134116,898
90661,194472,218136,5.6614182716,7.621139981,2.9838497821999996,899
90275,194352,218130,5.4341001246000005,7.645068207,2.9359933301999996,900
90071,194437,218086,5.6267223439,7.5445696578,3.0879375653000003,901
90083,194458,218107,5.7020962558,7.6486574409,3.0664021618999997,902
90205,194490,218167,5.694917788000001,7.501498850999999,2.9958138952,903
90518,194531,218143,5.6183474648,7.530212722199999,3.0305098229,904
90699,194595,218145,5.7511491191,7.5326055448,3.0460631697999996,905
90856,194516,218165,5.620740287399999,7.7300134093,3.0771698636,906
90978,194603,218169,5.5776694806,7.568497883799999,3.1070801461,907
91145,194604,218170,5.5728838354,7.6163543358,2.9934210726,908
91295,194626,218198,5.6386864569,7.5541409482,3.0496524037,909
91460,194643,218190,5.5776694806,7.6773713121,3.0005995404,910
91728,194706,218245,5.635097223,7.5206414318,3.0652057506,911
91929,194773,218257,5.6063833518,7.6486574409,3.0340990568,912
92109,194742,218262,5.4891350444,7.6498538522,2.9060830476999997,913
92375,194693,218304,5.6901321428,7.573283529,3.1501509529,914
92612,194797,218326,5.7092747236,7.5589265934,3.0269205889999995,915
92848,194840,218365,5.6877393201999995,7.6893354250999995,3.1130622026,916
93007,194855,218345,5.6614182716,7.6869426025,3.0460631697999996,917
92545,194741,218257,5.6087761744,7.5278198996,3.0293134116,918
91881,194716,218253,5.4508498828,7.555337359499999,3.0831519201,919
91483,194687,218215,5.6063833518,7.585247642000001,2.9766713144,920
91219,194621,218215,5.6398828682,7.6582287313,3.0400811133000003,921
91098,194645,218226,5.5585268998,7.6785677234,2.979064137,922
91114,194634,218234,5.5800623032,7.457231632899999,3.0197421212,923
91277,194682,218213,5.6183474648,7.5158557866,3.1034909122000003,924
91455,194636,218234,5.6303115778,7.597211754999999,3.0652057506,925
91617,194687,218262,5.4640104071,7.5780691741999995,3.0795626862,926
91721,194719,218239,5.6638110942,7.5900332872,2.9168507494,927
91831,194695,218258,5.611168996999999,7.5170521979,3.0281170003,928
91932,194732,218270,5.5142596817000005,7.5744799403,2.9898318387,929
92128,194791,218271,5.6542398038,7.4811598589,3.0747770410000004,930
92246,194790,218300,5.6542398038,7.495516794499999,2.9766713144,931
92324,194825,218295,5.6769716185,7.489534738000001,2.9587251449000003,932
92502,194834,218334,5.575276658,7.5326055448,3.1322047834,933
92809,194870,218326,5.681757263700001,7.5469624804,3.1621150658999997,934
92913,194896,218339,5.6961141993,7.5804619967999995,3.1202406704,935
93218,194954,218369,5.6985070219,7.4823562701999995,3.0053851856000002,936
93402,194943,218428,5.662614682899999,7.4703921572,3.1238299043,937
93437,194914,218364,5.5226345608,7.5230342544,3.0221349438,938
92879,194798,218314,5.6889357315,7.622336392299999,3.1884361145,939
92307,194733,218276,5.6685967394,7.5517481256,3.0939196218,940
92061,194769,218263,5.662614682899999,7.5996045776,2.9718856692,941
91854,194754,218267,5.7296137157,7.539784012599999,3.0963124444,942
91742,194717,218251,5.665007505499999,7.460820866800001,3.1022945009000003,943
91768,194679,218243,5.6004012953,7.639086150500001,3.038884702,944
91971,194775,218277,5.7020962558,7.5469624804,3.1082765574000004,945
92025,194758,218260,5.6422756908,7.5326055448,3.086741154,946
92197,194712,218288,5.7224352479,7.6019974002,3.086741154,947
92255,194739,218228,5.6769716185,7.5756763516,3.0723842184,948
92342,194719,218278,5.513063270399999,7.6151579245,3.1250263156,949
92422,194758,218286,5.6638110942,7.6941210703,3.0652057506,950
92543,194758,218293,5.6841500863,7.621139981,2.9898318387,951
92666,194796,218258,5.6063833518,7.585247642000001,3.0807590974999997,952
92805,194765,218263,5.7248280705,7.6091758679999995,2.9718856692,953
92962,194754,218301,5.6877393201999995,7.7060851833,2.9934210726,954
93095,194796,218290,5.7008998445,7.573283529,2.9718856692,955
93235,194785,218263,5.6638110942,7.539784012599999,2.9934210726,956
93450,194824,218312,5.6997034332,7.683353368600001,3.0269205889999995,957
93549,194785,218318,5.7116675462,7.525427077,2.9982067177999996,958
93126,194717,218267,5.7152567801,7.5756763516,3.0855447427,959
92402,194597,218187,5.635097223,7.5469624804,2.99102825,960
91784,194562,218151,5.5345986738,7.6965138929000005,2.9874390161,961
91562,194525,218145,5.5860443597,7.5589265934,3.1262227269,962
91299,194491,218139,5.541777141600001,7.612765101899999,3.038884702,963
91126,194452,218134,5.647061336,7.6055866341,3.0723842184,964
91180,194470,218103,5.6303115778,7.5900332872,3.0903303879,965
91454,194505,218119,5.5776694806,7.4871419154,3.0412775246,966
91549,194573,218100,5.6422756908,7.635496916599999,3.0640093393,967
91594,194516,218124,5.50349198,7.5074809075,3.0795626862,968
91714,194506,218184,5.5429735529,7.4919275606,2.9934210726,969
91844,194553,218167,5.6267223439,7.5349983674,3.0675985732,970
91923,194595,218170,5.6685967394,7.622336392299999,3.1142586138999997,971
92059,194586,218183,5.662614682899999,7.6845497799,3.0125636533999995,972
92222,194634,218214,5.7655060547,7.5349983674,3.0460631697999996,973
92371,194584,218234,5.5740802467,7.6235328036,3.0747770410000004,974
92503,194623,218218,5.554937665900001,7.5876404646,3.0759734523,975
92757,194674,218241,5.6578290377,7.6582287313,3.0687949845,976
92941,194739,218254,5.679364441100001,7.5804619967999995,3.0424739359,977
93111,194720,218263,5.681757263700001,7.654639497399999,3.0652057506,978
93291,194753,218290,5.6039905292,7.6618179652,2.9503502657999996,979
93486,194755,218299,5.6913285541,7.6139615132000005,3.0269205889999995,980
93355,194703,218314,5.605186940499999,7.5912296985,3.0376882907,981
92635,194645,218205,5.5884371823,7.5326055448,2.9479574432,982
91753,194528,218202,5.583651537100001,7.6043902228,3.0604201053999995,983
91263,194518,218112,5.6674003281,7.4871419154,3.0604201053999995,984
90782,194448,218144,5.6063833518,7.5445696578,2.99102825,985
90680,194467,218115,5.570491012800001,7.53739119,2.9647072014,986
90641,194475,218126,5.570491012800001,7.459624455499999,2.9862426048,987
90725,194476,218143,5.651846981199999,7.5876404646,3.0137600647,988
90935,194516,218142,5.553741254599999,7.5170521979,3.086741154,989
91040,194520,218132,5.5298130286000005,7.4991060284,3.0412775246,990
91096,194544,218140,5.5788658919,7.542176835199999,3.0197421212,991
91241,194542,218182,5.6877393201999995,7.584051230699999,3.0376882907,992
91285,194621,218187,5.6087761744,7.6343005053,3.0005995404,993
91325,194561,218221,5.5740802467,7.568497883799999,2.9694928465999997,994
91612,194612,218218,5.5453663755000004,7.5026952623000005,3.1357940173,995
91740,194616,218189,5.647061336,7.5182486092000005,2.9742784918,996
91930,194629,218232,5.7678988773,7.511070141399999,3.0029923629999997,997
92120,194720,218237,5.4987063348,7.543373246500001,2.9407789753999998,998
92312,194678,218249,5.7116675462,7.6019974002,3.134597606,999
92505,194676,218257,5.5944192388,7.5792655855,2.9694928465999997,1000
92720,194731,218286,5.525027383399999,7.5876404646,2.9407789753999998,1001
92912,194766,218265,5.637490045600001,7.573283529,3.1094729686999996,1002
93103,194880,218325,5.678168029799999,7.542176835199999,2.9635107901000004,1003
93272,194786,218364,5.6901321428,7.6043902228,3.1549365981,1004
93412,194817,218383,5.6159546422,7.5409804239,3.0520452262999997,1005
92956,194734,218333,5.637490045600001,7.530212722199999,3.0364918793999998,1006
91881,194656,218243,5.6159546422,7.720442118899999,2.9694928465999997,1007
91265,194691,218252,5.6255259326000004,7.6941210703,2.9814569596,1008
90718,194567,218205,5.670989562,7.561319416,3.0412775246,1009
90506,194609,218244,5.6985070219,7.6426753844,3.0340990568,1010
90456,194564,218186,5.7080783123000005,7.6414789731,2.9407789753999998,1011
90553,194634,218201,5.6159546422,7.568497883799999,2.9682964353,1012
90746,194628,218183,5.653043392499999,7.6366933279,3.0951160330999996,1013
90932,194591,218229,5.7343993608999995,7.4548388103,2.9527430884,1014
91037,194623,218243,5.6961141993,7.6163543358,3.0652057506,1015
91112,194667,218222,5.624329521299999,7.4715885685,3.0771698636,1016
91187,194631,218241,5.6877393201999995,7.549355303,3.0005995404,1017
91299,194699,218291,5.6805608524,7.5900332872,2.9515466771,1018
91443,194582,218257,5.6279187552000005,7.542176835199999,3.0699913958000002,1019
91614,194726,218276,5.5896335936,7.4979096170999995,2.9958138952,1020
91802,194786,218307,5.6398828682,7.6582287313,3.1094729686999996,1021
92038,194780,218269,5.587240771,7.5864440533,2.9407789753999998,1022
92186,194795,218328,5.678168029799999,7.4691957459,3.0951160330999996,1023
92393,194754,218340,5.539384319,7.622336392299999,2.9886354273999998,1024
92613,194833,218330,5.7008998445,7.5469624804,3.0424739359,1025
92830,194864,218393,5.5094740364999994,7.5924261098,2.9862426048,1026
93047,194900,218387,5.7092747236,7.6965138929000005,2.99102825,1027
93241,194921,218433,5.682953675,7.5661050612,3.0951160330999996,1028
93481,195013,218405,5.6063833518,7.6701928443,3.0053851856000002,1029
93653,195059,218492,5.635097223,7.6295148601000005,2.9694928465999997,1030
93299,195021,218373,5.5561340772,7.625925626199999,2.9742784918,1031
92440,194914,218375,5.7678988773,7.4799634476,2.99102825,1032
91857,194879,218322,5.7116675462,7.6821569573,2.9862426048,1033
91474,194888,218349,5.651846981199999,7.6414789731,3.0197421212,1034
91289,194886,218298,5.651846981199999,7.4907311493,3.0759734523,1035
91189,194846,218304,5.7260244818,7.525427077,2.9419753867,1036
91275,194872,218347,5.624329521299999,7.635496916599999,2.9647072014,1037
91522,194907,218390,5.6482577473,7.5876404646,3.0221349438,1038
91715,194935,218381,5.582455125799999,7.5768727629,3.1286155494999996,1039
91903,194953,218359,5.491527867,7.5948189324,3.0508488149999997,1040
91958,194966,218381,5.5070812139,7.622336392299999,3.0747770410000004,1041
92063,194985,218410,5.7571311756,7.5589265934,2.9766713144,1042
92188,194989,218404,5.6674003281,7.505088084900001,3.0460631697999996,1043
92338,195025,218379,5.5621161337,7.6319076827,3.0424739359,1044
92523,195114,218445,5.6721859733,7.460820866800001,3.0711878071,1045
92661,195079,218395,5.7092747236,7.4907311493,2.9479574432,1046
92844,195094,218467,5.6422756908,7.568497883799999,3.0245277664,1047
93045,195129,218514,5.6063833518,7.6343005053,3.0771698636,1048
93244,195054,218469,5.587240771,7.5756763516,2.9611179675,1049
93444,195157,218510,5.6231331099999995,7.5086773188,3.0699913958000002,1050
93649,195221,218495,5.5944192388,7.5744799403,2.9778677257000004,1051
93823,195232,218498,5.587240771,7.6091758679999995,3.0723842184,1052
93941,195237,218520,5.582455125799999,7.542176835199999,3.1310083721,1053
93994,195258,218551,5.732006538299999,7.5816584081,3.0652057506,1054
93381,195156,218494,5.6602218603,7.6989067155,3.1286155494999996,1055
92789,195129,218467,5.6147582309,7.6558359087,3.11066938,1056
92404,195094,218451,5.6805608524,7.5445696578,2.9623143788,1057
92110,195068,218419,5.6638110942,7.511070141399999,3.0735806297,1058
92101,195118,218430,5.5058848026,7.6630143765,3.1716863562999995,1059
92084,195085,218413,5.651846981199999,7.5278198996,3.0687949845,1060
92318,195092,218429,5.637490045600001,7.4991060284,3.0352954681,1061
92441,195119,218449,5.6973106106,7.5756763516,3.1286155494999996,1062
92568,195101,218428,5.6303115778,7.5888368759,3.1238299043,1063
92628,195128,218469,5.6769716185,7.5541409482,3.0412775246,1064
92693,195141,218398,5.554937665900001,7.6749784895,3.1573294206999996,1065
92785,195158,218434,5.6961141993,7.622336392299999,3.0855447427,1066
92916,195186,218397,5.5680981902,7.5924261098,2.9635107901000004,1067
93018,195190,218442,5.7367921835,7.573283529,3.0532416376,1068
93146,195193,218441,5.6087761744,7.597211754999999,3.0520452262999997,1069
93331,195199,218472,5.7296137157,7.4835526815,3.0340990568,1070
93499,195211,218466,5.790630692000001,7.5517481256,3.0699913958000002,1071
93604,195235,218460,5.7044890784,7.5900332872,3.0592236941,1072
93720,195236,218474,5.7367921835,7.6630143765,3.0771698636,1073
93907,195228,218485,5.6327044004,7.5756763516,3.0233313551,1074
94080,195282,218504,5.6279187552000005,7.6079794567,2.9575287336000002,1075
94076,195212,218450,5.6566326264,7.511070141399999,3.0939196218,1076
93567,195159,218422,5.6542398038,7.5134629639999995,3.0029923629999997,1077
92954,195033,218353,5.7559347643,7.6019974002,3.0951160330999996,1078
92510,194986,218357,5.5764730692999995,7.572087117700001,3.0999016782999997,1079
92240,194949,218309,5.710471134900001,7.5780691741999995,2.979064137,1080
92093,194945,218349,5.6159546422,7.6498538522,3.1669007111,1081
92076,194921,218305,5.570491012800001,7.4751778024,3.038884702,1082
92149,194936,218337,5.6745787959,7.5864440533,3.0759734523,1083
92291,194953,218259,5.582455125799999,7.6031938115,2.9838497821999996,1084
92340,194946,218271,5.7248280705,7.624729214899999,3.038884702,1085
92365,194860,218266,5.4831529879,7.5182486092000005,3.0592236941,1086
92426,194905,218276,5.6219366987,7.542176835199999,3.0233313551,1087
92485,194885,218303,5.6279187552000005,7.5469624804,3.0053851856000002,1088
92573,194826,218243,5.6985070219,7.4847490928,3.014956476,1089
92639,194916,218277,5.605186940499999,7.5589265934,3.0245277664,1090
92868,194923,218304,5.5561340772,7.6163543358,3.0568308715,1091
92971,194933,218286,5.6398828682,7.6139615132000005,3.0436703472,1092
93116,194849,218279,5.50349198,7.485945504099999,2.9623143788,1093
93270,194931,218289,5.7128639575,7.4763742137,3.0173492985999997,1094
93440,194962,218314,5.7272208931,7.5900332872,3.0484559924,1095
93578,194974,218280,5.666203916800001,7.5230342544,2.979064137,1096
93437,194926,218320,5.6386864569,7.505088084900001,3.0137600647,1097
92735,194824,218193,5.7523455304,7.4835526815,3.0077780082,1098
92147,194719,218197,5.6602218603,7.6115686905999995,3.0652057506,1099
91693,194731,218140,5.7152567801,7.6295148601000005,3.0317062341999996,1100
91370,194686,218138,5.659025449,7.4691957459,3.0855447427,1101
91191,194628,218141,5.7343993608999995,7.514659375300001,2.9838497821999996,1102
91172,194659,218132,5.6147582309,7.5469624804,3.0412775246,1103
91258,194710,218100,5.6075797630999995,7.6989067155,3.0675985732,1104
91389,194643,218157,5.4987063348,7.5804619967999995,3.1405796625,1105
91457,194670,218112,5.693721376699999,7.6019974002,2.9898318387,1106
91517,194705,218118,5.6997034332,7.5661050612,3.0269205889999995,1107
91578,194670,218112,5.6614182716,7.405785946999999,3.0364918793999998,1108
91670,194656,218170,5.635097223,7.489534738000001,2.9024938138,1109
91776,194681,218091,5.651846981199999,7.472784979799999,2.9766713144,1110
91921,194728,218123,5.7080783123000005,7.6295148601000005,3.0221349438,1111
92065,194749,218136,5.7643096434,7.489534738000001,3.0364918793999998,1112
92240,194757,218174,5.730810127,7.5804619967999995,2.99102825,1113
92358,194789,218193,5.5310094399,7.4165536487,3.0101708308,1114
92507,194778,218202,5.670989562,7.549355303,2.979064137,1115
92696,194832,218229,5.6279187552000005,7.6402825618,3.0568308715,1116
92877,194863,218227,5.6135618196,7.606783045399999,3.0747770410000004,1117
92977,194828,218195,5.6015977066,7.543373246500001,2.9359933301999996,1118
92465,194794,218169,5.653043392499999,7.514659375300001,3.0005995404,1119
91646,194701,218102,5.636293634299999,7.5768727629,2.9838497821999996,1120
90963,194610,218158,5.5453663755000004,7.5206414318,3.0448667585,1121
90592,194608,218147,5.7272208931,7.6941210703,3.0783662749,1122
90318,194581,218139,5.747559885199999,7.612765101899999,2.8725835312999997,1123
90279,194587,218079,5.5585268998,7.5230342544,3.0532416376,1124
90323,194577,218135,5.6267223439,7.5948189324,2.9084758702999998,1125
90523,194667,218146,5.6458649247,7.5625158273,2.9407789753999998,1126
90621,194650,218092,5.5357950851,7.5517481256,3.0125636533999995,1127
90717,194666,218113,5.7140603688,7.6618179652,3.1214370817,1128
90803,194720,218152,5.6327044004,7.5481588917,3.0532416376,1129
90831,194688,218202,5.5848479484,7.668996433,3.0173492985999997,1130
90946,194738,218150,5.7690952886,7.539784012599999,3.0831519201,1131
91193,194790,218158,5.540580730299999,7.6438717957,3.0807590974999997,1132
91305,194755,218190,5.666203916800001,7.549355303,3.0329026454999997,1133
91492,194811,218198,5.4939206895999995,7.5158557866,2.9659036127,1134
91687,194807,218246,5.5944192388,7.6426753844,3.0795626862,1135
91888,194877,218254,5.6410792795,7.5828548194,3.1597222433,1136
92058,194897,218262,5.587240771,7.6019974002,3.0053851856000002,1137
92279,194957,218316,5.6638110942,7.53739119,2.9826533709,1138
92439,194968,218291,5.7128639575,7.4787670363,3.0173492985999997,1139
92630,194970,218336,5.665007505499999,7.4823562701999995,3.0005995404,1140
92320,194929,218326,5.6925249654,7.5589265934,2.9934210726,1141
91441,194855,218295,5.541777141600001,7.5912296985,2.9718856692,1142
90588,194830,218256,5.7140603688,7.6235328036,3.0652057506,1143
89969,194766,218239,5.6745787959,7.5625158273,2.9587251449000003,1144
89636,194743,218156,5.6841500863,7.6055866341,3.0352954681,1145
89508,194760,218200,5.575276658,7.7252277641000004,3.1405796625,1146
89588,194767,218195,5.6674003281,7.473981391100001,3.1274191382,1147
89793,194772,218241,5.7080783123000005,7.6283184488,3.0484559924,1148
89953,194783,218235,5.6566326264,7.6438717957,3.0197421212,1149
90052,194808,218266,5.5238309721,7.65703232,2.9874390161,1150
90087,194782,218246,5.599204884000001,7.5326055448,3.014956476,1151
90127,194808,218253,5.6255259326000004,7.6019974002,3.0293134116,1152
90191,194883,218233,5.525027383399999,7.460820866800001,2.9479574432,1153
90293,194795,218249,5.653043392499999,7.621139981,3.1860432919,1154
90460,194836,218228,5.6554362151,7.3591259063,3.0125636533999995,1155
90598,194867,218270,5.6506505699,7.4871419154,3.1202406704,1156
90766,194864,218268,5.8085768615,7.597211754999999,3.1166514365,1157
90933,194888,218279,5.5298130286000005,7.6917282476999995,3.0317062341999996,1158
91014,194893,218311,5.6961141993,7.556533770800001,3.0317062341999996,1159
91292,194910,218303,5.624329521299999,7.5804619967999995,3.1262227269,1160
91454,194894,218311,5.5585268998,7.5876404646,3.1010980895999998,1161
91155,194853,218304,5.541777141600001,7.5637122386,3.1190442591,1162
90056,194689,218205,5.5106704478,7.708478005899999,3.0412775246,1163
89110,194698,218204,5.6542398038,7.4835526815,3.0005995404,1164
88557,194632,218145,5.5884371823,7.6558359087,3.1549365981,1165
88283,194627,218133,5.595615650099999,7.5086773188,3.0305098229,1166
88300,194611,218124,5.647061336,7.625925626199999,2.8534409504999996,1167
88451,194616,218157,5.499902746099999,7.5876404646,3.1238299043,1168
88712,194619,218136,5.6291151665,7.5804619967999995,3.0029923629999997,1169
88967,194604,218177,5.6638110942,7.5900332872,2.9814569596,1170
89128,194624,218188,5.6614182716,7.4835526815,3.0747770410000004,1171
89193,194641,218171,5.6841500863,7.5601230047,3.0293134116,1172
89288,194623,218216,5.651846981199999,7.5445696578,2.9886354273999998,1173
89486,194638,218168,5.5728838354,7.549355303,2.9958138952,1174
89678,194657,218208,5.6279187552000005,7.633104094,3.0293134116,1175
89901,194688,218255,5.6315079891,7.6199435697,2.9802605483,1176
90126,194762,218220,5.6769716185,7.6582287313,3.0664021618999997,1177
90370,194727,218274,5.6865429089,7.6151579245,3.0005995404,1178
90631,194717,218249,5.7248280705,7.5673014725,2.9742784918,1179
90889,194788,218219,5.6961141993,7.5828548194,2.9647072014,1180
91170,194799,218286,5.5190453269,7.5984081663000005,2.919243572,1181
91381,194829,218240,5.720042425300001,7.5326055448,3.0281170003,1182
91581,194802,218238,5.6757752072,7.5661050612,2.9359933301999996,1183
91902,194910,218296,5.5968120614000005,7.5601230047,3.0699913958000002,1184
91957,194861,218313,5.6410792795,7.5804619967999995,3.0305098229,1185
91500,194800,218265,5.587240771,7.6498538522,2.9599215562,1186
90658,194752,218226,5.637490045600001,7.6869426025,3.1022945009000003,1187
90153,194746,218225,5.6255259326000004,7.5661050612,3.0855447427,1188
89914,194731,218258,5.5680981902,7.5170521979,3.1010980895999998,1189
89833,194724,218202,5.5274202059999995,7.501498850999999,3.0400811133000003,1190
89942,194738,218210,5.6087761744,7.5206414318,2.99102825,1191
90164,194763,218200,5.7224352479,7.525427077,3.0412775246,1192
90429,194748,218253,5.5166525043000005,7.624729214899999,3.0699913958000002,1193
90683,194761,218245,5.611168996999999,7.6618179652,3.0029923629999997,1194
90874,194792,218295,5.6231331099999995,7.5326055448,3.062812928,1195
91046,194796,218228,5.5573304885,7.4967132058,2.9694928465999997,1196
91179,194848,218252,5.551348432,7.5996045776,3.0245277664,1197
91355,194834,218254,5.6231331099999995,7.5756763516,3.1501509529,1198
91534,194799,218286,5.563312545,7.6163543358,3.0532416376,1199
91781,194847,218227,5.6566326264,7.5457660691,3.0053851856000002,1200
92013,194861,218296,5.7248280705,7.568497883799999,3.0975088557,1201
92251,194849,218289,5.6135618196,7.5625158273,3.0556344602,1202
92505,194875,218257,5.6973106106,7.561319416,3.0460631697999996,1203
92745,194826,218299,5.6183474648,7.6043902228,3.0723842184,1204
92878,194946,218280,5.620740287399999,7.511070141399999,3.1621150658999997,1205
93231,194931,218352,5.6255259326000004,7.4979096170999995,3.0185457098999997,1206
93440,195051,218351,5.566901778899999,7.6307112714,3.0317062341999996,1207
93646,195005,218313,5.716453191399999,7.653443086099999,2.9718856692,1208
93879,195029,218343,5.5657053676,7.6187471584,3.014956476,1209
93883,195032,218347,5.6446685134,7.7228349415,2.9838497821999996,1210
93443,194955,218326,5.720042425300001,7.5780691741999995,3.0436703472,1211
93065,194886,218296,5.7643096434,7.485945504099999,3.1334011947,1212
92854,194976,218299,5.6721859733,7.637889739199999,2.9946174839,1213
92727,194961,218317,5.4640104071,7.597211754999999,2.9850461935,1214
92709,194982,218311,5.7152567801,7.561319416,3.0544380489000003,1215
92790,195032,218289,5.563312545,7.5637122386,3.0364918793999998,1216
92954,194998,218334,5.720042425300001,7.7024959494,3.0364918793999998,1217
93133,194953,218286,5.6135618196,7.7108708285,3.0317062341999996,1218
93268,195010,218339,5.6039905292,7.6701928443,2.9934210726,1219
93411,195083,218364,5.8133625067,7.5948189324,3.0723842184,1220
93509,195084,218354,5.681757263700001,7.6175507471,2.9431717980000003,1221
93634,195051,218365,5.7343993608999995,7.5912296985,2.99102825,1222
93782,195134,218327,5.6566326264,7.4811598589,2.967100024,1223
93928,195182,218340,5.5932228275,7.621139981,3.038884702,1224
94073,195142,218352,5.693721376699999,7.556533770800001,3.0915267992,1225
94213,195190,218380,5.7559347643,7.6199435697,3.0771698636,1226
94408,195164,218404,5.4975099235,7.6474610296,3.0783662749,1227
94579,195148,218461,5.6159546422,7.5445696578,3.1166514365,1228
94763,195238,218356,5.6422756908,7.5230342544,3.0544380489000003,1229
94921,195288,218432,5.605186940499999,7.621139981,3.0412775246,1230
95027,195260,218461,5.4903314557,7.3926254227,3.0556344602,1231
95268,195325,218490,5.5848479484,7.6307112714,3.0364918793999998,1232
95395,195310,218460,5.583651537100001,7.568497883799999,3.1537401868,1233
95500,195334,218482,5.637490045600001,7.5206414318,3.1848468806000003,1234
95714,195371,218444,5.6015977066,7.561319416,2.9838497821999996,1235
95641,195312,218448,5.6147582309,7.5816584081,3.1369904286000003,1236
95180,195284,218499,5.6865429089,7.5744799403,3.0771698636,1237
94838,195267,218429,5.583651537100001,7.5349983674,3.1070801461,1238
94488,195230,218391,5.7140603688,7.530212722199999,3.0687949845,1239
94213,195215,218461,5.6745787959,7.5696942951,3.0077780082,1240
94223,195256,218362,5.7152567801,7.4668029232999995,2.967100024,1241
94160,195224,218376,5.682953675,7.6474610296,3.0747770410000004,1242
94188,195219,218385,5.7499527078,7.752745224,3.1908289370999996,1243
94242,195216,218391,5.620740287399999,7.4979096170999995,3.1142586138999997,1244
94262,195188,218395,5.7056854897,7.570890706399999,3.0687949845,1245
94221,195234,218368,5.6231331099999995,7.6295148601000005,2.9982067177999996,1246
94234,195201,218408,5.662614682899999,7.573283529,3.0795626862,1247
94250,195233,218371,5.5561340772,7.5756763516,3.1190442591,1248
94309,195241,218386,5.7020962558,7.5936225210999995,2.99102825,1249
94332,195305,218369,5.6219366987,7.6307112714,2.9012974024999996,1250
94331,195228,218390,5.4987063348,7.542176835199999,3.0412775246,1251
94465,195272,218364,5.659025449,7.5385876013,3.0604201053999995,1252
94555,195285,218351,5.5118668590999995,7.5206414318,3.0783662749,1253
94655,195301,218395,5.6303115778,7.7012995381,3.0568308715,1254
94690,195268,218340,5.5585268998,7.6893354250999995,3.1537401868,1255
94860,195322,218322,5.6303115778,7.5445696578,2.9934210726,1256
94858,195271,218342,5.6063833518,7.5828548194,3.1202406704,1257
95028,195280,218378,5.6398828682,7.6175507471,3.0855447427,1258
95128,195315,218310,5.4616175845,7.5936225210999995,2.9659036127,1259
95112,195241,218317,5.7702916999,7.5290163108999995,2.9766713144,1260
94555,195129,218283,5.6291151665,7.597211754999999,3.0759734523,1261
93793,195094,218248,5.7152567801,7.5661050612,3.038884702,1262
93245,195106,218202,5.6554362151,7.542176835199999,3.0807590974999997,1263
92848,194996,218174,5.6422756908,7.585247642000001,3.0197421212,1264
92552,194951,218181,5.5657053676,7.5673014725,3.0400811133000003,1265
92433,195014,218095,5.620740287399999,7.5541409482,3.0005995404,1266
92425,194958,218132,5.732006538299999,7.5637122386,3.0723842184,1267
92456,194899,218152,5.583651537100001,7.5182486092000005,2.9527430884,1268
92450,194964,218143,5.446064237599999,7.5409804239,3.0233313551,1269
92446,194948,218114,5.587240771,7.597211754999999,3.0520452262999997,1270
92446,194931,218086,5.5860443597,7.667800021700001,3.0101708308,1271
92404,194909,218065,5.5202417382,7.549355303,2.9288148624,1272
92440,194942,218136,5.7367921835,7.5756763516,3.0053851856000002,1273
92455,194916,218099,5.554937665900001,7.5948189324,3.0053851856000002,1274
92578,194946,218094,5.7272208931,7.639086150500001,3.0556344602,1275
92715,194955,218108,5.6291151665,7.5230342544,3.0101708308,1276
92799,194946,218135,5.6255259326000004,7.5661050612,3.0460631697999996,1277
92930,194936,218107,5.538187907699999,7.539784012599999,3.0532416376,1278
93075,194987,218097,5.5525448433,7.5888368759,3.1645078885,1279
93183,195011,218099,5.6279187552000005,7.6019974002,3.0101708308,1280
93262,194983,218092,5.5968120614000005,7.5338019561000005,3.0508488149999997,1281
93560,195025,218144,5.6925249654,7.6187471584,3.0400811133000003,1282
93654,195008,218148,5.7116675462,7.6917282476999995,2.9958138952,1283
93485,195017,218143,5.6985070219,7.5804619967999995,3.0723842184,1284
92734,194891,218098,5.7343993608999995,7.6031938115,2.9431717980000003,1285
91975,194837,218050,5.7559347643,7.5505517143,3.0771698636,1286
91350,194792,218012,5.6063833518,7.5445696578,3.0436703472,1287
90956,194784,218006,5.6458649247,7.4871419154,2.9886354273999998,1288
90723,194773,217959,5.7834522241999995,7.6558359087,2.9742784918,1289
90662,194707,218012,5.6063833518,7.6079794567,2.9491538545,1290
90751,194808,218033,5.528616617299999,7.572087117700001,3.0352954681,1291
90864,194718,217970,5.7056854897,7.5469624804,2.9742784918,1292
90948,194728,217987,5.4233324229,7.635496916599999,3.0604201053999995,1293
91010,194741,217976,5.635097223,7.5338019561000005,3.0101708308,1294
91074,194779,217979,5.7463634739,7.653443086099999,2.9527430884,1295
91114,194743,218004,5.5585268998,7.5948189324,3.1022945009000003,1296
91191,194768,217997,5.5585268998,7.5828548194,2.9383861528,1297
91329,194770,217990,5.6913285541,7.572087117700001,3.0197421212,1298
91461,194793,218013,5.5453663755000004,7.5206414318,2.9682964353,1299
91658,194868,218028,5.6506505699,7.4488567538,3.0197421212,1300
91820,194797,217996,5.694917788000001,7.5696942951,2.9659036127,1301
92011,194860,218048,5.720042425300001,7.5661050612,3.1214370817,1302
92211,194871,218055,5.732006538299999,7.5924261098,3.0376882907,1303
92416,194891,218079,5.7140603688,7.6319076827,3.0293134116,1304
92569,194911,218083,5.6841500863,7.5122665527,3.1800612354,1305
92687,194927,218062,5.6087761744,7.7300134093,3.0771698636,1306
92939,194949,218103,5.6889357315,7.7012995381,2.9766713144,1307
93025,194968,218108,5.566901778899999,7.6402825618,2.9551359109999997,1308
93008,194946,218079,5.6255259326000004,7.6271220375,3.0077780082,1309
92167,194797,218034,5.6159546422,7.6115686905999995,3.0412775246,1310
91360,194758,217994,5.6039905292,7.597211754999999,3.0711878071,1311
90797,194759,217908,5.6327044004,7.5768727629,3.0161528873,1312
90361,194693,217934,5.6889357315,7.5469624804,2.9455646206,1313
90261,194736,217930,5.635097223,7.5744799403,2.9718856692,1314
90218,194685,217916,5.6685967394,7.6558359087,3.1046873235,1315
90367,194679,217946,5.647061336,7.584051230699999,2.9718856692,1316
90536,194686,217968,5.5501520207,7.473981391100001,3.1334011947,1317
90643,194652,217953,5.5226345608,7.5780691741999995,2.9982067177999996,1318
90716,194713,217945,5.6303115778,7.6426753844,2.9479574432,1319
90832,194735,217978,5.595615650099999,7.568497883799999,3.0329026454999997,1320
90857,194702,217930,5.583651537100001,7.4835526815,2.9551359109999997,1321
91000,194734,217985,5.6925249654,7.6163543358,3.0879375653000003,1322
91145,194757,218007,5.6267223439,7.573283529,2.9216363945999997,1323
91279,194793,218038,5.6386864569,7.5984081663000005,3.0053851856000002,1324
91522,194810,218023,5.6602218603,7.5744799403,3.0771698636,1325
91753,194855,218028,5.636293634299999,7.5876404646,3.1058837348,1326
91933,194886,218047,5.5920264161999995,7.5469624804,2.9766713144,1327
92104,194892,218097,5.6267223439,7.6199435697,3.0113672421,1328
92345,194949,218112,5.7858450468,7.6091758679999995,3.1238299043,1329
92578,194999,218129,5.4975099235,7.5194450205,2.9838497821999996,1330
92768,195022,218107,5.6147582309,7.6031938115,3.0927232105,1331
92982,195030,218118,5.670989562,7.6343005053,3.0340990568,1332
93106,195051,218109,5.651846981199999,7.5744799403,3.0640093393,1333
93083,195006,218145,5.6458649247,7.4045895357,3.0999016782999997,1334
92372,194912,218096,5.6853464976,7.555337359499999,3.0173492985999997,1335
91575,194867,218077,5.7188460139999995,7.5589265934,3.0640093393,1336
91094,194878,218100,5.6255259326000004,7.6522466748,3.0771698636,1337
90711,194823,218036,5.7439706513,7.5637122386,2.9575287336000002,1338
90510,194789,218027,5.5896335936,7.5637122386,3.1226334930000004,1339
90560,194826,218035,5.5788658919,7.6414789731,3.0005995404,1340
90712,194902,218031,5.7056854897,7.624729214899999,3.062812928,1341
90884,194850,218034,5.6841500863,7.597211754999999,3.0927232105,1342
91021,194796,218081,5.6386864569,7.6283184488,2.9443682093000003,1343
91109,194904,218047,5.651846981199999,7.6558359087,3.1334011947,1344
91185,194915,218085,5.5573304885,7.5828548194,2.9132615155,1345
91250,194865,218100,5.651846981199999,7.5134629639999995,2.9874390161,1346
91310,194925,218134,5.5465627868,7.6319076827,3.0424739359,1347
91520,194850,218075,5.5944192388,7.6917282476999995,3.0125636533999995,1348
91740,194978,218142,5.5477591981,7.6319076827,3.0903303879,1349
91903,195003,218116,5.6255259326000004,7.4763742137,3.0269205889999995,1350
92057,195012,218128,5.6015977066,7.7120672398000005,2.9862426048,1351
92305,195014,218146,5.605186940499999,7.6701928443,2.9886354273999998,1352
92515,195060,218170,5.528616617299999,7.4380890521,2.9730820805000002,1353
92696,195088,218205,5.635097223,7.6103722793,2.9551359109999997,1354
92860,195093,218217,5.7367921835,7.6366933279,3.1094729686999996,1355
93121,195138,218215,5.7559347643,7.597211754999999,3.0783662749,1356
93295,195151,218227,5.6039905292,7.5158557866,3.1142586138999997,1357
93190,195109,218207,5.679364441100001,7.6199435697,3.0783662749,1358
92513,195013,218169,5.6997034332,7.5541409482,3.0460631697999996,1359
92023,194984,218118,5.748756296500001,7.6773713121,3.0245277664,1360
91635,194926,218128,5.679364441100001,7.7012995381,3.0939196218,1361
91410,194926,218127,5.710471134900001,7.6151579245,3.0687949845,1362
91312,194945,218081,5.5585268998,7.6630143765,3.0592236941,1363
91462,194962,218142,5.7152567801,7.5517481256,3.0125636533999995,1364
91601,194965,218125,5.620740287399999,7.6319076827,3.0759734523,1365
91756,194987,218134,5.6303115778,7.5541409482,3.014956476,1366
91857,195025,218147,5.6291151665,7.5529445369,3.0484559924,1367
91938,194980,218111,5.7296137157,7.6019974002,3.0125636533999995,1368
92024,195005,218102,5.6697931507,7.5780691741999995,2.9527430884,1369
92132,194963,218168,5.5657053676,7.556533770800001,3.1453653077,1370
92251,194946,218134,5.6135618196,7.570890706399999,3.086741154,1371
92324,194956,218124,5.6769716185,7.6199435697,3.038884702,1372
92615,194988,218150,5.6135618196,7.6199435697,3.0197421212,1373
92748,194990,218116,5.6123654083000005,7.549355303,3.0364918793999998,1374
92931,194994,218122,5.6279187552000005,7.5673014725,3.1142586138999997,1375
93117,195005,218162,5.7559347643,7.4823562701999995,2.9814569596,1376
93293,195036,218173,5.6195438761,7.5900332872,3.0903303879,1377
93368,195015,218149,5.6865429089,7.645068207,3.0532416376,1378
93645,195044,218207,5.582455125799999,7.5517481256,2.9132615155,1379
93646,195028,218186,5.6123654083000005,7.6462646183,3.1238299043,1380
93336,194966,218070,5.6769716185,7.622336392299999,3.062812928,1381
92728,194882,218095,5.6757752072,7.5589265934,3.0472595810999996,1382
92449,194849,218082,5.649454158599999,7.6091758679999995,3.0424739359,1383
92137,194828,218026,5.5441699642,7.5349983674,3.0257241777000004,1384
92149,194805,218023,5.5226345608,7.666603610399999,3.014956476,1385
92183,194785,218082,5.554937665900001,7.4979096170999995,3.0783662749,1386
92322,194817,218086,5.6458649247,7.7383882884,3.1142586138999997,1387
92422,194810,218056,5.6410792795,7.5828548194,3.0783662749,1388
92495,194817,218071,5.4783673427,7.556533770800001,3.0675985732,1389
92703,194826,218108,5.611168996999999,7.4823562701999995,2.9623143788,1390
92781,194899,218067,5.6219366987,7.53739119,2.967100024,1391
92856,194851,218083,5.6099725857,7.4141608261,3.0939196218,1392
93003,194856,218069,5.553741254599999,7.525427077,3.0939196218,1393
93153,194906,218126,5.5561340772,7.6019974002,3.0245277664,1394
93298,194904,218095,5.6602218603,7.5338019561000005,3.0245277664,1395
93461,194903,218110,5.5728838354,7.6163543358,3.038884702,1396
93617,194833,218136,5.5848479484,7.695317481599999,2.9551359109999997,1397
93719,194952,218105,5.6889357315,7.6414789731,3.0245277664,1398
93995,194968,218150,5.6769716185,7.6151579245,3.1070801461,1399
94156,194962,218134,5.620740287399999,7.5828548194,2.9970103065,1400
94362,194984,218161,5.7678988773,7.635496916599999,3.0101708308,1401
94558,195052,218158,5.5465627868,7.621139981,3.0580272828,1402
94679,195070,218232,5.5800623032,7.6079794567,2.967100024,1403
94727,195018,218136,5.649454158599999,7.4584280442,3.0460631697999996,1404
94277,194938,218103,5.5262237947,7.4524459877,3.0161528873,1405
93854,194873,218105,5.7296137157,7.5996045776,3.0209385325,1406
93611,194842,218069,5.5369914964,7.6402825618,2.9647072014,1407
93375,194847,218052,5.6039905292,7.573283529,2.8941189347,1408
93235,194822,218070,5.6841500863,7.621139981,3.0412775246,1409
93210,194825,218071,5.563312545,7.5876404646,3.0209385325,1410
93279,194847,218049,5.7272208931,7.6414789731,3.0197421212,1411
93354,194842,218092,5.6039905292,7.5768727629,3.0927232105,1412
93447,194841,218048,5.6566326264,7.597211754999999,3.1046873235,1413
93515,194875,218081,5.7535419417,7.5768727629,3.0053851856000002,1414
93553,194821,218048,5.5968120614000005,7.5673014725,2.9599215562,1415
93603,194802,218023,5.670989562,7.6271220375,3.0017959517,1416
93706,194836,218083,5.5896335936,7.5637122386,3.038884702,1417
93817,194880,218087,5.5848479484,7.4979096170999995,3.0448667585,1418
93807,194886,218108,5.5680981902,7.5481588917,3.1118657913,1419
94042,194883,218080,5.6255259326000004,7.6175507471,3.0293134116,1420
94178,194888,218095,5.5944192388,7.7060851833,3.0245277664,1421
94300,194915,218136,5.7822558129,7.645068207,3.1262227269,1422
94445,194987,218103,5.7678988773,7.5349983674,3.0448667585,1423
94587,195019,218105,5.6291151665,7.5876404646,3.038884702,1424
94761,194958,218118,5.5968120614000005,7.6642107878,3.0221349438,1425
94940,195016,218164,5.5657053676,7.621139981,2.9718856692,1426
95014,195008,218205,5.659025449,7.5828548194,3.1621150658999997,1427
95132,195029,218160,5.777470167700001,7.6941210703,3.0711878071,1428
95286,195060,218181,5.6279187552000005,7.5637122386,3.0879375653000003,1429
95275,195021,218143,5.599204884000001,7.6402825618,3.0400811133000003,1430
94819,194938,218107,5.6015977066,7.6271220375,3.1393832512,1431
94257,194918,218040,5.7032926670999995,7.5637122386,3.0508488149999997,1432
93805,194810,218078,5.6482577473,7.667800021700001,2.9156543381000004,1433
93532,194851,218069,5.5657053676,7.430910584299999,2.9922246613000003,1434
93284,194808,218038,5.5214381495,7.549355303,3.0532416376,1435
93227,194828,218008,5.5621161337,7.639086150500001,3.0747770410000004,1436
93210,194802,218045,5.6195438761,7.5182486092000005,3.0185457098999997,1437
93287,194843,218032,5.637490045600001,7.6055866341,3.1166514365,1438
93314,194825,218007,5.7655060547,7.4691957459,3.038884702,1439
93395,194865,218054,5.599204884000001,7.5338019561000005,3.014956476,1440
93369,194870,218045,5.5728838354,7.6175507471,3.1094729686999996,1441
93410,194845,218037,5.6135618196,7.5924261098,2.9958138952,1442
93485,194885,218076,5.5728838354,7.6115686905999995,2.9491538545,1443
93534,194859,218063,5.6159546422,7.651050263499999,3.038884702,1444
93635,194862,218034,5.6303115778,7.6821569573,3.0352954681,1445
93716,194846,218094,5.6255259326000004,7.488338326699999,3.0783662749,1446
93861,194949,218097,5.5489556094,7.5326055448,3.0101708308,1447
94009,195036,218124,5.6865429089,7.6965138929000005,2.9503502657999996,1448
94150,195028,218093,5.776273756399999,7.651050263499999,2.979064137,1449
94255,195065,218129,5.6159546422,7.5924261098,3.0675985732,1450
94419,195035,218157,5.5441699642,7.5182486092000005,2.9718856692,1451
94569,195106,218181,5.5573304885,7.5900332872,3.038884702,1452
94707,195109,218165,5.682953675,7.6606215538999995,3.1046873235,1453
94852,195138,218149,5.7714881112,7.5038916736,3.086741154,1454
94975,195159,218219,5.599204884000001,7.5924261098,3.0293134116,1455
94810,195131,218156,5.7056854897,7.549355303,3.0460631697999996,1456
94167,195006,218126,5.6733823846,7.5349983674,3.0364918793999998,1457
93571,194956,218064,5.6685967394,7.6319076827,3.098705267,1458
93160,194943,218086,5.587240771,7.6965138929000005,3.098705267,1459
92890,194948,218061,5.4209396003000005,7.5828548194,3.0771698636,1460
92752,194937,218046,5.7248280705,7.561319416,3.0436703472,1461
92750,194923,218112,5.6697931507,7.5828548194,3.0173492985999997,1462
92774,194912,218077,5.6027941179,7.5637122386,3.0771698636,1463
92871,194853,218086,5.6446685134,7.6486574409,3.0759734523,1464
92922,194959,218051,5.7188460139999995,7.625925626199999,2.9766713144,1465
92968,194993,218128,5.569294601499999,7.4691957459,3.0484559924,1466
92960,195027,218119,5.611168996999999,7.53739119,2.9647072014,1467
92941,194947,218058,5.6877393201999995,7.5385876013,2.9958138952,1468
93093,194974,218118,5.633900811699999,7.6319076827,3.0029923629999997,1469
93151,194877,218099,5.6279187552000005,7.5996045776,3.0963124444,1470
93281,195002,218113,5.651846981199999,7.5948189324,2.9922246613000003,1471
93425,195068,218116,5.6063833518,7.7024959494,3.0675985732,1472
93534,195055,218173,5.6015977066,7.5589265934,3.1178478478000002,1473
93629,195074,218180,5.570491012800001,7.637889739199999,2.9814569596,1474
93774,195065,218184,5.651846981199999,7.5577301821,3.1154550251999997,1475
93938,195126,218211,5.4951171009,7.597211754999999,3.0101708308,1476
94072,195127,218192,5.5262237947,7.556533770800001,3.0340990568,1477
94162,195106,218165,5.587240771,7.5529445369,3.1190442591,1478
93710,195028,218148,5.7056854897,7.5062844962,3.038884702,1479
92990,194932,218091,5.6769716185,7.6965138929000005,3.0412775246,1480
92503,194917,218043,5.6255259326000004,7.561319416,3.0903303879,1481
92085,194916,218025,5.587240771,7.5637122386,3.0245277664,1482
91878,194845,218023,5.6075797630999995,7.6498538522,2.9958138952,1483
91786,194845,218009,5.6889357315,7.5242306657,3.0675985732,1484
91852,194833,218008,5.760720409499999,7.6343005053,3.0269205889999995,1485
91938,194836,218063,5.7678988773,7.5900332872,3.0975088557,1486
91993,194806,217990,5.6087761744,7.5828548194,2.9754749031,1487
92054,194816,217990,5.6554362151,7.459624455499999,3.0077780082,1488
92062,194828,217977,5.5848479484,7.6103722793,3.038884702,1489
92139,194837,218015,5.605186940499999,7.6486574409,3.1202406704,1490
92223,194882,218032,5.5728838354,7.639086150500001,2.9982067177999996,1491
92272,194822,218022,5.5597233111,7.4560352216,3.1286155494999996,1492
92389,194859,218014,5.8157553293,7.543373246500001,3.0604201053999995,1493
92521,194845,218022,5.6063833518,7.6055866341,3.0424739359,1494
92594,194837,218010,5.5166525043000005,7.6271220375,3.0747770410000004,1495
92823,194871,218028,5.653043392499999,7.6630143765,2.9766713144,1496
92962,194869,218047,5.5369914964,7.6917282476999995,3.0173492985999997,1497
93131,194889,218061,5.6063833518,7.4428746973,3.0137600647,1498
93270,194911,218059,5.6183474648,7.568497883799999,2.9838497821999996,1499
93042,194834,218049,5.486742221799999,7.5948189324,3.0568308715,1500
92241,194708,217999,5.5609197224,7.6079794567,2.9934210726,1501
91520,194723,217944,5.5010991574000005,7.639086150500001,3.0221349438,1502
91012,194575,217901,5.633900811699999,7.514659375300001,3.1429724850999996,1503
90667,194584,217873,5.5980084727,7.530212722199999,2.9371897415,1504
90526,194564,217862,5.6255259326000004,7.447660342499999,3.0221349438,1505
90393,194586,217887,5.649454158599999,7.585247642000001,2.9862426048,1506
90602,194637,217877,5.6674003281,7.5134629639999995,2.9862426048,1507
90713,194588,217914,5.633900811699999,7.6271220375,3.0640093393,1508
90753,194638,217841,5.563312545,7.6462646183,3.0293134116,1509
90968,194618,217887,5.6566326264,7.606783045399999,3.0735806297,1510
90981,194588,217894,5.6159546422,7.585247642000001,3.0400811133000003,1511
91078,194631,217866,5.5848479484,7.6402825618,3.0927232105,1512
91158,194626,217903,5.6434721021,7.633104094,2.8893332895,1513
91329,194623,217871,5.6602218603,7.5816584081,2.9742784918,1514
91402,194640,217903,5.5441699642,7.7036923607,3.0053851856000002,1515
91709,194718,217907,5.5561340772,7.542176835199999,3.0460631697999996,1516
91918,194735,217940,5.7750773451,7.5469624804,3.0879375653000003,1517
92054,194732,217963,5.5525448433,7.6103722793,3.0017959517,1518
