green,red,IR,acc_x,acc_y,acc_z,sample_index
124523,228679,288964,-6.1603217837,4.9005006848,5.8193445632000005,1
124648,228736,288973,-6.094519162199999,4.8155554825,5.8791651282,2
125036,228738,288961,-6.0083775485999995,4.7760739096,5.86241537,3
125508,228734,289018,-6.1830535984,4.917250443,5.922235935,4
125733,228725,288981,-6.1531433159,4.9220360882000005,5.8636117813,5
125634,228722,288987,-6.1292150899,4.8741796362,5.8097732728,6
125694,228750,288964,-6.228517227799999,4.8299124181,5.8552369022,7
125846,228787,289013,-6.161518194999999,5.044070040799999,5.827719442299999,8
126148,228768,288998,-6.0885371056999995,4.9328037898999995,5.8348979101000005,9
126509,228807,289037,-6.0622160571,4.7940200791,5.8695938378,10
127064,228871,289112,-6.1088760978000005,4.9136612091,5.8899328299,11
127600,228922,289170,-6.0837514605,4.9005006848,5.8456656118,12
128092,228941,289200,-6.2201423487000005,4.8299124181,5.7810594016,13
128633,229043,289158,-6.089733517,4.9232324995,5.9066825881,14
129139,229110,289237,-6.2201423487000005,4.9040899186999996,5.760720409499999,15
129592,229163,289302,-6.2356956956000005,4.8550370553999995,5.9808600887,16
130086,229240,289328,-6.1567325498,4.869393991,5.8073804502,17
130489,229259,289371,-6.174678719299999,4.7748774982999995,5.9294144028,18
130927,229375,289332,-6.3182480753000005,4.9256253221,5.9114682333,19
131266,229365,289396,-6.1710894854,4.7533420949,5.8002019824,20
130772,229300,289352,-6.1926248888,4.9758745967,5.8480584344,21
128363,229051,289178,-6.2679988007,4.8550370553999995,5.806184038900001,22
125879,228773,289033,-6.0753765814,4.8921258057,5.871986660399999,23
124757,228760,288910,-6.1423756142,4.816751893799999,5.710471134900001,24
124463,228657,288888,-6.1603217837,5.0177489922000005,5.778666579,25
124448,228659,288969,-6.0933227509000005,4.9986064114,5.8408799666,26
124649,228642,288886,-6.148357670699999,4.8598227006,5.9078789994,27
125109,228672,288885,-6.051448355400001,4.8526442328,5.886343596000001,28
125629,228635,288957,-6.2045890018000005,4.9340002012,5.8193445632000005,29
125905,228691,288992,-6.287141381500001,4.9710889515,5.9018969429000006,30
125904,228718,288956,-6.3182480753000005,4.8526442328,5.8002019824,31
125855,228702,289011,-6.2476598086,4.90528633,5.8552369022,32
125999,228698,288975,-6.025127306799999,4.9232324995,5.7858450468,33
126309,228683,288986,-6.0263237181000004,4.8705904022999995,5.886343596000001,34
126746,228818,289038,-6.1710894854,4.9340002012,5.8217373858000006,35
127206,228869,288998,-6.162714606300001,4.850251410199999,5.8648081926,36
127774,228914,289106,-6.177071541899999,4.881358104,5.9054861768,37
128348,229007,289151,-6.132804323799999,4.7581277401,5.7655060547,38
128863,229043,289262,-6.145964848099999,4.8598227006,5.8528440796,39
129361,229130,289238,-6.2297136391,4.8777688701,5.8923256525,40
129853,229137,289273,-6.2249279939,4.7126641107,5.8839507734,41
130342,229248,289328,-6.120840210799999,4.7246282237,5.761916820800001,42
130754,229263,289345,-6.1890356549,4.8430729424,5.8839507734,43
131200,229288,289425,-6.2380885182,5.0057848792,5.8145589179999995,44
131533,229335,289399,-6.080162226600001,4.8203411277,5.942574927099999,45
131186,229331,289398,-6.209374647,4.8646083458,5.777470167700001,46
128967,229152,289247,-6.0478591215,4.8047877808,5.8695938378,47
126582,228855,289105,-6.1986069453,4.7772703209000005,5.8815579507999995,48
125492,228812,289052,-6.1591253724,4.7521456836,5.9641103305,49
125253,228787,288980,-6.270391623299999,4.883750926599999,5.789434280699999,50
125456,228751,288952,-6.134000735100001,4.7892344339,5.8337014988,51
125768,228845,289007,-6.092126339599999,5.036891573,5.8695938378,52
126330,228857,289019,-6.2297136391,4.8215375389999995,5.8935220638,53
126819,228836,289011,-6.134000735100001,4.8143590712,5.9042897655,54
126997,228853,289072,-6.1280186786,4.8825545153,5.871986660399999,55
126831,228879,289069,-6.0933227509000005,4.6624148361,5.9054861768,56
126735,228870,289050,-6.0849478718,4.8550370553999995,5.8815579507999995,57
126792,228824,289076,-6.117250976899999,4.9591248385,5.8169517405999995,58
127055,228831,289066,-6.212963880899999,4.7174497559,5.9078789994,59
127357,228931,289136,-6.117250976899999,4.6660040700000005,5.9198431124,60
127831,229014,289128,-6.1423756142,4.8514478215,5.8755758943,61
128337,229033,289107,-6.259623921599999,4.869393991,5.885147184699999,62
128769,229084,289190,-6.2045890018000005,4.7653062079,5.8372907327,63
129275,229133,289234,-6.1531433159,4.8801616927,5.9174502898000005,64
129766,229207,289276,-6.0239308954999995,4.9866422984,5.8169517405999995,65
130165,229228,289270,-6.1028940413,4.8287160068,5.7810594016,66
130646,229363,289327,-6.0454662989,4.9483571368,5.7643096434,67
130845,229322,289358,-6.149554082000001,4.9136612091,5.8289158536,68
129550,229149,289245,-6.1878392436,4.7724846757,5.9162538785,69
126978,228929,289065,-6.1316079125,4.7904308452,5.7080783123000005,70
125339,228733,288944,-6.178267953200001,4.797609313,5.8791651282,71
124823,228683,288965,-6.1064832752,4.9316073786,5.8289158536,72
124865,228676,288888,-6.3086767849,4.8861437492,5.8899328299,73
125100,228692,288917,-6.1567325498,4.9459643142,5.9330036367,74
125559,228676,288896,-6.136393557699999,4.8526442328,5.8360943214,75
126139,228727,288921,-6.077769404,4.701896409,5.8289158536,76
126473,228757,289039,-6.2261244052,4.8251267729,5.8672010152,77
126478,228718,288970,-6.197410534,4.8825545153,5.9102718219999995,78
126436,228760,288962,-6.1304115012,4.737788748,5.8516476683,79
126512,228766,288985,-6.0406806537,4.8131626599,5.7463634739,80
126700,228833,289029,-6.1926248888,4.9734817741,5.8504512570000005,81
127136,228805,289015,-6.1148581543,4.8490549989,5.9330036367,82
127553,228842,289041,-6.0693945249,4.878965281399999,5.7463634739,83
128069,228889,289065,-6.0849478718,4.9806602419,5.9377892819,84
128539,228974,289109,-6.132804323799999,4.7988057243,5.8648081926,85
129025,229017,289157,-6.1423756142,4.8346980633,5.8145589179999995,86
129551,229058,289216,-6.173482308,4.7330031028,5.8779687169,87
130029,229144,289239,-6.1064832752,4.9519463707,5.8959148864,88
130539,229221,289253,-6.1100725091,4.7449672158,5.8791651282,89
130945,229282,289312,-6.259623921599999,5.0093741131,5.9401821045,90
130635,229149,289286,-6.1698930741,4.8131626599,5.7870414581,91
128399,228952,289119,-6.1710894854,4.878965281399999,5.8540404909,92
125966,228722,288959,-6.1543397272,4.833501652,5.9533426288,93
124705,228611,288900,-6.0191452503,4.7090748768,5.8911292412,94
124282,228543,288798,-6.2512490425,4.9280181447,5.8193445632000005,95
124258,228504,288779,-6.1878392436,4.8981078622,5.8408799666,96
124443,228387,288814,-6.0873406944,4.8526442328,5.8360943214,97
124876,228554,288794,-6.2668023894,4.7856452,5.7595239982,98
125397,228590,288837,-6.1830535984,4.8430729424,5.860022547400001,99
125721,228605,288893,-6.095715573500001,4.8466621763,5.8552369022,100
125731,228583,288858,-6.2500526312,4.7294138689,5.9330036367,101
125747,228615,288811,-6.1100725091,4.9328037898999995,5.8073804502,102
125871,228603,288827,-6.1088760978000005,4.8358944746,5.9318072254,103
126200,228620,288854,-6.203392590499999,4.8825545153,5.871986660399999,104
126617,228687,288930,-6.2141602922,4.782055966100001,5.888736418600001,105
127103,228696,288944,-6.2380885182,4.8562334667,5.838487144,106
127617,228768,289027,-6.2356956956000005,4.9471607255,5.8995041203,107
128172,228856,289078,-6.161518194999999,4.8658047571,5.8767723056,108
128676,228910,289098,-6.161518194999999,4.8945186283,5.8169517405999995,109
129186,228964,289065,-6.1160545656,4.8981078622,5.8408799666,110
129670,229034,289175,-6.107679686499999,4.9423750803,5.8241302084,111
130165,229086,289176,-6.2225351713,4.857429878,5.885147184699999,112
130527,229113,289265,-6.2141602922,4.8622155232,5.8145589179999995,113
131031,229215,289270,-6.1423756142,4.857429878,5.8468620231,114
131049,229183,289270,-6.185446421,4.9148576204,5.8145589179999995,115
129258,228979,289140,-6.1268222673,4.8000021356,5.9054861768,116
126821,228779,289013,-6.2141602922,4.7198425785,5.9330036367,117
125429,228660,288889,-6.148357670699999,4.6660040700000005,5.8528440796,118
125012,228554,288843,-6.1890356549,4.8897329831,5.7858450468,119
125000,228506,288839,-6.1220366221,4.8514478215,5.8576297248,120
125164,228541,288759,-6.388836342,4.8909293944,5.968895975700001,121
125593,228636,288852,-6.2356956956000005,4.9722853628,5.8875400073,122
126108,228621,288878,-6.178267953200001,4.8430729424,5.8504512570000005,123
126487,228655,288940,-6.067001702300001,4.8071806034,5.888736418600001,124
126507,228629,288858,-6.3601224708,4.9746781854,5.8815579507999995,125
126487,228602,288925,-6.1663038402,4.816751893799999,5.8396835553,126
126556,228663,288870,-6.2368921069,4.8239303616,5.9150574672000005,127
126831,228655,288927,-6.2560346877,4.8538406441,5.9042897655,128
127181,228740,288999,-6.120840210799999,4.8263231842,5.7798629903,129
127600,228801,288985,-6.0406806537,4.9710889515,5.7870414581,130
128182,228805,289056,-6.2009997679,4.7449672158,5.8013983936999995,131
128720,228855,289076,-6.1842500096999995,4.8538406441,5.831308676200001,132
129265,228938,289099,-6.2656059781,4.809573426,5.8480584344,133
129758,229010,289163,-6.173482308,4.8418765311,5.9282179915,134
130231,229110,289195,-6.1088760978000005,5.060819799,5.8504512570000005,135
130717,229171,289190,-6.0693945249,4.8119662486,5.8337014988,136
131102,229206,289263,-6.1603217837,4.8897329831,5.8073804502,137
131578,229232,289356,-6.0622160571,4.9459643142,5.812166095399999,138
131925,229374,289297,-6.0813586379,4.9316073786,5.86241537,139
131307,229226,289327,-6.2117674696,4.734199514099999,5.871986660399999,140
129070,229021,289121,-6.0430734763,4.749752861,5.8552369022,141
127131,228833,289036,-6.1148581543,4.8311088294,5.773880933799999,142
126339,228797,288947,-6.161518194999999,4.8490549989,5.8492548457,143
126300,228779,288894,-6.1447684368,4.850251410199999,5.8672010152,144
126495,228798,289000,-6.1998033565999995,4.9328037898999995,5.7714881112,145
126835,228775,288949,-6.2404813408,4.9351966125,5.8815579507999995,146
127395,228859,289046,-6.1519469046,4.8765724588,5.8456656118,147
127748,228842,289069,-6.1244294447000005,4.9184468543,5.8911292412,148
127795,228836,289024,-6.162714606300001,4.8741796362,5.8755758943,149
127533,228781,288974,-6.190232066199999,4.7856452,5.9485569836,150
127635,228794,288990,-6.1531433159,4.797609313,5.8241302084,151
127797,228853,289022,-6.0263237181000004,4.844269353700001,5.790630692000001,152
128107,228867,289091,-6.0933227509000005,4.8729832249000005,5.871986660399999,153
128463,228953,289070,-6.1196437994999995,4.7952164904,5.8456656118,154
128908,228949,289051,-6.1651074289,4.8598227006,5.8360943214,155
129275,229032,289120,-6.1698930741,4.7413779819,5.8552369022,156
129793,229057,289151,-6.1471612594,4.7760739096,5.8815579507999995,157
130253,229083,289211,-6.0813586379,4.7688954418,5.9712887983,158
130732,229190,289228,-6.3062839623,4.8023949582,5.9114682333,159
131124,229215,289218,-6.063412468399999,4.9328037898999995,5.9114682333,160
131460,229263,289340,-6.0430734763,4.941178669,5.7690952886,161
130631,229173,289236,-6.1806607758,4.8873401605,5.8779687169,162
128215,228946,289088,-6.2907306154,4.893322217,5.8767723056,163
126351,228752,289002,-6.1806607758,4.7330031028,5.9294144028,164
125651,228642,288894,-6.134000735100001,4.9232324995,5.9449677497,165
125419,228614,288849,-6.0526447667,4.8861437492,5.7690952886,166
125474,228566,288852,-6.0993048074,4.8191447164,5.8576297248,167
125768,228619,288870,-6.1387863803,4.8526442328,5.934200048,168
126220,228633,288897,-6.281159325,4.8263231842,5.761916820800001,169
126705,228713,288879,-6.259623921599999,4.8777688701,5.843272789199999,170
126777,228699,288910,-6.078965815299999,4.8610191119,5.7595239982,171
126777,228683,288909,-6.260820332899999,4.6588256022,5.9724852096,172
126901,228655,288893,-6.178267953200001,4.8430729424,5.7678988773,173
127062,228732,288975,-6.2919270267,4.893322217,5.923432346299999,174
127471,228769,288934,-6.2835521476,5.0500520973,5.8923256525,175
127824,228802,288977,-6.0323057746,4.7808595548,5.8360943214,176
128345,228859,289035,-6.2309100503999995,4.953142782,5.8337014988,177
128826,228895,289061,-6.1663038402,4.816751893799999,5.8289158536,178
129327,228949,289099,-6.1663038402,5.000999234,5.7714881112,179
129863,229009,289141,-6.22133876,4.8622155232,5.9569318627,180
130348,229076,289141,-6.1244294447000005,4.9280181447,5.826523031,181
130833,229173,289208,-6.0610196458,4.9040899186999996,5.954539040099999,182
131286,229214,289278,-6.1112689204,4.9938207662,5.8516476683,183
131772,229309,289314,-6.0861442831,4.8466621763,5.844469200500001,184
131632,229209,289383,-6.1579289611,4.9124647978,5.871986660399999,185
129678,228986,289162,-6.1232330334,4.7593241513999995,5.8241302084,186
127133,228827,289022,-6.1866428323,4.7581277401,5.8959148864,187
125696,228645,288863,-6.1088760978000005,4.7246282237,5.8097732728,188
125176,228612,288864,-6.218945937399999,4.9196432655999995,5.9569318627,189
125108,228575,288823,-6.1663038402,4.8227339503,5.923432346299999,190
125118,228573,288812,-6.3517475917,4.9447679029,5.838487144,191
125460,228631,288848,-6.1830535984,4.8526442328,5.8408799666,192
125953,228653,288831,-6.1806607758,4.9447679029,5.8660046039,193
126253,228587,288914,-6.1292150899,4.9686961289000005,5.7332029496,194
126303,228634,288849,-6.2105710583,4.8035913695,5.9449677497,195
126233,228616,288880,-6.1830535984,4.8119662486,5.8337014988,196
126383,228670,288932,-6.1280186786,4.8538406441,5.9102718219999995,197
126587,228672,288889,-6.2775700911,4.9555356046000005,5.938985693199999,198
126987,228711,288947,-6.0933227509000005,4.878965281399999,5.8205409745,199
127495,228760,288991,-6.0287165407000005,4.9591248385,5.8839507734,200
128031,228830,289008,-6.1304115012,4.9507499594,5.8636117813,201
128521,228867,289033,-6.009573959900001,4.809573426,5.923432346299999,202
129072,228949,289097,-6.117250976899999,4.8957150396,5.9736816209,203
129551,228967,289159,-6.2117674696,4.9998028226999995,5.8241302084,204
130021,229026,289148,-6.0263237181000004,4.9136612091,5.8013983936999995,205
130506,229100,289174,-6.0442698876,4.7282174576000005,5.8815579507999995,206
130959,229178,289276,-6.1806607758,4.7306102802,5.838487144,207
131336,229218,289301,-6.0825550492,4.9399822577,5.8911292412,208
131109,229112,289269,-6.0837514605,4.9016970961,5.86241537,209
129098,228955,289117,-6.1986069453,4.926821733400001,5.8815579507999995,210
126759,228725,289019,-6.1005012187,4.844269353700001,5.802594804999999,211
125602,228654,288917,-6.0705909362,4.8957150396,5.9162538785,212
125329,228608,288818,-6.22133876,4.8406801198,5.8995041203,213
125393,228618,288910,-6.2763736798,4.8670011684,5.9736816209,214
125640,228651,288777,-6.136393557699999,4.7832523774,5.952146217499999,215
126115,228701,288936,-6.175875130600001,4.8323052407,5.7942199259,216
126602,228740,288901,-6.1675002515,4.8646083458,5.7882378694,217
126764,228717,288924,-6.113661743,4.8275195955,5.8408799666,218
126672,228747,288940,-6.1663038402,4.7210389898,5.8815579507999995,219
126591,228659,288944,-6.2177495260999995,4.7425743932,5.8169517405999995,220
126696,228682,288922,-6.0693945249,4.8263231842,5.8097732728,221
126942,228781,288891,-6.1842500096999995,4.9399822577,5.7690952886,222
127339,228766,288968,-6.2356956956000005,4.8550370553999995,5.9150574672000005,223
127776,228825,289020,-6.078965815299999,4.7952164904,5.8672010152,224
128228,228902,289065,-6.1543397272,4.8957150396,5.923432346299999,225
128681,228936,289134,-6.1651074289,4.7748774982999995,5.8576297248,226
129140,228992,289121,-6.067001702300001,4.9112683865,5.8480584344,227
129615,229043,289138,-6.0849478718,4.788038022599999,5.925825168899999,228
130057,229069,289173,-6.175875130600001,4.8586262893,5.838487144,229
130358,229149,289246,-6.0993048074,4.883750926599999,5.8049876276,230
130131,229068,289185,-6.2835521476,4.7688954418,5.954539040099999,231
128050,228833,289078,-6.1950177114,4.8717868136,5.7930235146,232
125870,228665,288898,-6.2656059781,4.9878387097,5.8157553293,233
124876,228602,288844,-6.1112689204,4.7856452,5.8037912163000005,234
124697,228521,288774,-5.983252911299999,4.9854458871,5.86241537,235
124763,228533,288798,-5.9892349678,4.9184468543,5.748756296500001,236
125027,228535,288770,-6.185446421,4.8753760475,5.8145589179999995,237
125562,228576,288800,-6.1028940413,4.7772703209000005,5.802594804999999,238
125994,228579,288828,-6.1686966628,4.8323052407,5.9066825881,239
126122,228607,288888,-6.3110696074999995,4.7198425785,5.8480584344,240
126104,228597,288861,-6.2081782357,4.917250443,5.8612189587,241
126074,228582,288842,-6.1040904525999995,5.041677218199999,5.8193445632000005,242
126364,228604,288840,-6.209374647,4.899304273499999,5.9018969429000006,243
126712,228657,288943,-6.1842500096999995,4.9663033062999995,5.8289158536,244
127123,228710,288901,-6.0885371056999995,4.9076791526,5.8552369022,245
127530,228781,288956,-6.0311093633,4.9064827413000005,5.900700531599999,246
128065,228802,288935,-6.0729837587999995,4.8729832249000005,5.8408799666,247
128571,228877,289028,-6.2644095668,5.032105927799999,5.86241537,248
129070,228927,289082,-6.1005012187,4.8239303616,5.8839507734,249
129511,228978,289121,-6.244070574699999,4.7521456836,5.9042897655,250
130014,229052,289186,-6.161518194999999,4.845465765,5.773880933799999,251
130353,229086,289130,-6.216553114800001,4.9567320159,5.9162538785,252
129498,228935,289088,-6.161518194999999,4.7413779819,5.886343596000001,253
127000,228684,288939,-6.1040904525999995,4.8526442328,5.9306108141000005,254
125102,228512,288801,-6.1064832752,4.9136612091,5.7643096434,255
124297,228372,288750,-6.1399827916000005,4.8215375389999995,5.8468620231,256
124055,228373,288683,-6.0430734763,5.0356951617,5.777470167700001,257
123956,228308,288645,-6.1555361385,5.0811587911,5.7822558129,258
124153,228301,288664,-6.0813586379,4.8861437492,5.8097732728,259
124605,228347,288713,-6.148357670699999,4.8825545153,5.8337014988,260
125077,228367,288711,-6.0969119848,4.9806602419,5.8504512570000005,261
125295,228371,288720,-5.9928242016999995,4.869393991,5.874379483,262
125347,228375,288740,-6.029912952,4.9878387097,5.8205409745,263
125420,228415,288719,-6.148357670699999,4.953142782,5.8504512570000005,264
125694,228448,288714,-6.161518194999999,4.8562334667,5.874379483,265
126103,228443,288785,-6.1686966628,4.845465765,5.8049876276,266
126553,228461,288808,-6.1579289611,4.7425743932,5.844469200500001,267
127019,228568,288876,-6.1244294447000005,4.7629133853,5.8456656118,268
127640,228624,288879,-6.1686966628,4.941178669,5.8097732728,269
128213,228734,288925,-6.301498317099999,4.7940200791,5.9042897655,270
128678,228727,288992,-6.2476598086,4.8083770147,5.7690952886,271
129134,228801,289006,-6.1507504933,4.9698925402,5.8073804502,272
129637,228862,289035,-6.244070574699999,4.8131626599,5.8217373858000006,273
130087,228894,289064,-6.132804323799999,4.9304109673,5.898307709,274
130527,229001,289190,-6.1112689204,4.8801616927,5.8456656118,275
130687,229017,289136,-6.1543397272,4.8418765311,5.827719442299999,276
129441,228833,289019,-6.1040904525999995,4.8981078622,5.7954163372,277
127049,228644,288944,-6.0741801701,4.878965281399999,5.871986660399999,278
125565,228476,288822,-6.0598232345,4.9136612091,5.873183071700001,279
125112,228421,288766,-6.1351971464,4.8885365718,5.8803615395,280
124964,228400,288711,-6.101697629999999,5.032105927799999,5.8193445632000005,281
125018,228386,288705,-6.137589969,4.8849473379,5.968895975700001,282
125352,228335,288693,-6.1950177114,4.9710889515,5.9641103305,283
125897,228390,288745,-6.2021961791999995,4.8466621763,5.927021580200001,284
126300,228446,288753,-6.228517227799999,4.8969114509,5.8097732728,285
126378,228444,288744,-6.3110696074999995,4.8215375389999995,5.8803615395,286
126361,228471,288862,-6.1686966628,4.833501652,5.8217373858000006,287
126496,228449,288762,-6.1686966628,4.8598227006,5.778666579,288
126759,228522,288824,-6.2464633973,4.9280181447,5.802594804999999,289
127103,228590,288854,-6.1196437994999995,4.8562334667,5.8480584344,290
127562,228566,288886,-6.190232066199999,4.8323052407,5.874379483,291
128081,228688,288925,-6.101697629999999,4.7174497559,5.7272208931,292
128604,228743,288961,-6.1663038402,4.7078784655,5.8480584344,293
129099,228845,288984,-6.1399827916000005,4.9136612091,5.8217373858000006,294
129630,228863,289083,-6.232106461699999,4.816751893799999,5.913861055899999,295
130104,228863,289052,-6.385247108100001,4.8394837085,5.9114682333,296
130574,228925,289112,-6.1112689204,4.7868416113,5.8241302084,297
130997,229073,289168,-6.2273208165,4.8610191119,5.8839507734,298
131405,229121,289218,-6.2620167442,4.7629133853,5.886343596000001,299
131808,229179,289219,-6.1591253724,4.8897329831,5.9066825881,300
132170,229213,289279,-6.1447684368,4.788038022599999,5.8073804502,301
132514,229324,289299,-6.0263237181000004,4.8203411277,5.8289158536,302
132104,229216,289300,-6.0933227509000005,4.917250443,5.8552369022,303
130093,228957,289121,-6.190232066199999,4.8741796362,5.8049876276,304
128103,228823,289049,-6.0454662989,4.8071806034,5.812166095399999,305
127177,228731,288941,-6.1411792029,4.9028935074,5.8241302084,306
126999,228711,288904,-6.0837514605,4.9399822577,5.886343596000001,307
127003,228701,288832,-6.2979090831999995,4.9447679029,5.8002019824,308
127302,228696,288910,-6.1196437994999995,4.833501652,5.7750773451,309
127597,228771,288979,-6.0705909362,4.8969114509,5.9497533949,310
127981,228763,288991,-6.1663038402,4.7868416113,5.844469200500001,311
127981,228756,288928,-6.0873406944,4.7928236678,5.7702916999,312
127834,228743,288958,-6.0466627102,4.881358104,5.802594804999999,313
127769,228760,288951,-6.1124653317,4.788038022599999,5.8875400073,314
127933,228764,288946,-6.191428477500001,4.8011985469,5.826523031,315
128204,228841,288936,-6.2428741634,4.8107698373000005,5.9210395237,316
128519,228803,288954,-6.2644095668,4.8861437492,5.8133625067,317
128936,228858,289074,-6.078965815299999,4.9363930238,5.873183071700001,318
129301,228920,289034,-6.216553114800001,4.9112683865,5.886343596000001,319
129748,229000,289047,-6.0143596051,4.8753760475,5.9569318627,320
130166,228972,289150,-6.1100725091,4.8071806034,5.858826136099999,321
130576,229019,289133,-6.1292150899,4.9136612091,5.7846486355,322
130910,229105,289269,-6.1555361385,4.8047877808,5.8648081926,323
131366,229148,289220,-6.078965815299999,4.9232324995,5.8145589179999995,324
131774,229240,289222,-6.1890356549,4.9124647978,5.86241537,325
131582,229167,289184,-6.1842500096999995,4.9543391933,5.8695938378,326
129682,228932,289079,-6.212963880899999,4.8311088294,5.7643096434,327
127267,228697,288956,-6.094519162199999,4.9782674193,5.8480584344,328
125885,228593,288815,-6.0406806537,4.8047877808,5.954539040099999,329
125395,228532,288815,-6.0981083961,4.7665026192,5.8767723056,330
125189,228450,288787,-6.3122660188,4.941178669,5.7535419417,331
125202,228477,288734,-6.2117674696,4.9328037898999995,5.8935220638,332
125442,228439,288760,-6.2141602922,4.929214556,5.8480584344,333
125879,228490,288827,-6.1938213001,4.9328037898999995,5.8779687169,334
126101,228541,288744,-6.2548382764,4.8550370553999995,5.8672010152,335
126069,228537,288758,-6.2045890018000005,4.7174497559,5.9485569836,336
126020,228498,288760,-6.0933227509000005,4.8382872972,5.7702916999,337
126123,228534,288753,-6.1005012187,4.8622155232,5.7834522241999995,338
126378,228525,288816,-6.078965815299999,4.9710889515,5.8205409745,339
126743,228583,288794,-6.2021961791999995,4.7413779819,5.9736816209,340
127156,228615,288847,-5.9772708547999995,4.8011985469,5.8540404909,341
127674,228682,288903,-6.1998033565999995,4.8406801198,5.8193445632000005,342
128157,228632,288962,-6.0526447667,4.845465765,5.874379483,343
128616,228792,288973,-6.259623921599999,4.8191447164,5.826523031,344
129106,228829,289064,-6.209374647,4.9112683865,5.8145589179999995,345
129521,228958,289079,-6.1842500096999995,4.8406801198,5.9030933542,346
129971,229005,289176,-6.078965815299999,4.7808595548,5.9042897655,347
130371,229015,289139,-6.2309100503999995,4.9782674193,5.8695938378,348
130750,229103,289162,-6.092126339599999,4.9459643142,5.8528440796,349
131137,229156,289223,-6.0574304119,4.7533420949,5.8193445632000005,350
131392,229128,289270,-6.1698930741,4.7330031028,5.927021580200001,351
130501,229021,289154,-6.1292150899,4.844269353700001,5.8337014988,352
127831,228790,288984,-6.1040904525999995,4.797609313,5.898307709,353
125651,228603,288842,-6.0622160571,4.809573426,5.8169517405999995,354
124745,228525,288765,-6.0993048074,4.7808595548,5.7882378694,355
124478,228399,288771,-6.2045890018000005,4.8670011684,5.8935220638,356
124435,228415,288678,-6.1304115012,4.9543391933,5.873183071700001,357
124653,228381,288691,-6.2488562199,4.7569313288,5.8911292412,358
125090,228410,288789,-6.145964848099999,4.8550370553999995,5.8552369022,359
125550,228462,288731,-6.1423756142,4.8191447164,5.860022547400001,360
125654,228492,288785,-6.0885371056999995,4.7892344339,5.860022547400001,361
125591,228452,288804,-6.0155560164,4.881358104,5.8456656118,362
125592,228461,288768,-6.190232066199999,4.9543391933,5.9892349678,363
125738,228531,288821,-6.117250976899999,4.8263231842,5.9246287576,364
126063,228492,288766,-6.1686966628,4.8634119345,5.8480584344,365
126489,228575,288838,-6.1423756142,4.8849473379,5.8097732728,366
126998,228600,288884,-6.117250976899999,4.8083770147,5.8360943214,367
127531,228537,288885,-6.161518194999999,4.7712882644,5.858826136099999,368
128077,228768,288914,-6.0227344842,4.8801616927,5.747559885199999,369
128595,228811,288994,-6.149554082000001,4.8263231842,5.86241537,370
129102,228920,289127,-6.1268222673,4.9543391933,5.8755758943,371
129580,228913,289125,-6.1447684368,4.9160540317,5.9198431124,372
130007,228993,289120,-6.2297136391,4.8550370553999995,5.7714881112,373
130451,229049,289179,-6.0191452503,5.026123871299999,5.8337014988,374
130832,229096,289237,-6.1387863803,4.833501652,5.8516476683,375
131212,229188,289287,-6.145964848099999,4.816751893799999,5.938985693199999,376
131626,229265,289306,-6.0526447667,4.9028935074,5.86241537,377
131924,229297,289287,-6.1639110176,4.8323052407,5.8959148864,378
131176,229167,289194,-6.132804323799999,4.8801616927,5.9593246853,379
128685,228949,289054,-6.1423756142,4.9567320159,5.8923256525,380
126450,228701,288934,-5.996413435599999,4.9124647978,5.8360943214,381
125614,228665,288877,-6.1040904525999995,4.9998028226999995,5.8839507734,382
125546,228615,288873,-6.065805290999999,4.9519463707,5.8145589179999995,383
125749,228639,288861,-6.3708901725,4.8729832249000005,5.8695938378,384
126093,228675,288852,-6.1184473882,4.7832523774,5.871986660399999,385
126650,228682,288901,-6.1567325498,4.883750926599999,5.8408799666,386
127062,228750,288936,-6.0849478718,4.8897329831,5.9018969429000006,387
127094,228751,288933,-6.2297136391,4.9112683865,5.860022547400001,388
126834,228721,288913,-6.1507504933,4.8670011684,5.9282179915,389
126736,228729,288925,-6.1423756142,4.7748774982999995,5.8815579507999995,390
126805,228724,288899,-6.0813586379,4.8945186283,5.831308676200001,391
127083,228752,288906,-6.1351971464,4.9854458871,5.7571311756,392
127450,228783,288933,-6.1399827916000005,4.8681975797,5.860022547400001,393
127893,228864,288992,-5.9916277904,4.8382872972,5.888736418600001,394
128359,228875,289037,-5.9593246853,4.8311088294,5.7954163372,395
128790,228912,289056,-6.185446421,4.7856452,5.8576297248,396
129237,228961,289129,-6.218945937399999,4.8622155232,5.9401821045,397
129688,228997,289140,-6.0981083961,4.833501652,5.9318072254,398
130025,229053,289117,-6.1399827916000005,4.8179483051,5.8169517405999995,399
130532,229136,289178,-6.0813586379,4.9016970961,5.7343993608999995,400
131001,229161,289211,-6.1663038402,4.9686961289000005,5.831308676200001,401
130860,229162,289207,-6.2560346877,4.816751893799999,5.8241302084,402
128956,228936,289064,-6.1280186786,4.8646083458,5.9617175078999995,403
126323,228666,288879,-6.0598232345,4.9375894351,5.826523031,404
124962,228572,288791,-6.2536418651,4.8406801198,5.8648081926,405
124579,228497,288769,-6.1567325498,4.845465765,5.8073804502,406
124662,228523,288781,-6.053841177999999,4.917250443,5.8755758943,407
124817,228441,288806,-6.134000735100001,4.899304273499999,5.8337014988,408
125298,228487,288763,-6.0705909362,4.9423750803,5.8576297248,409
125834,228522,288811,-6.216553114800001,4.8885365718,5.8636117813,410
126110,228527,288818,-6.178267953200001,4.8957150396,5.8145589179999995,411
126119,228504,288823,-6.149554082000001,4.9256253221,5.8456656118,412
126080,228528,288791,-6.1579289611,4.7294138689,5.8169517405999995,413
126166,228541,288820,-6.1830535984,4.9112683865,5.8875400073,414
126476,228608,288829,-6.1531433159,4.809573426,5.860022547400001,415
126776,228604,288895,-6.1663038402,4.8646083458,5.9210395237,416
127216,228654,288902,-6.302694728400001,4.6743789491,5.925825168899999,417
127733,228623,288923,-6.132804323799999,4.8071806034,5.838487144,418
128214,228771,288951,-6.1184473882,4.7401815706,5.9210395237,419
128785,228860,289052,-6.2309100503999995,4.8191447164,5.7918271033,420
129264,228893,289039,-6.2045890018000005,4.8562334667,5.7571311756,421
129770,228960,289125,-6.355336825599999,4.8741796362,5.8959148864,422
130235,228986,289142,-6.0717873475,4.8418765311,5.873183071700001,423
130707,229100,289136,-6.1196437994999995,4.8466621763,5.8193445632000005,424
130611,229036,289209,-6.113661743,4.9040899186999996,5.8002019824,425
128654,228812,289016,-6.1866428323,4.9399822577,5.773880933799999,426
125925,228523,288821,-6.0909299283,4.809573426,5.8947184750999995,427
124405,228382,288705,-6.025127306799999,4.8717868136,5.802594804999999,428
123936,228318,288677,-6.1435720255,4.9100719752,5.7631132321,429
123893,228230,288626,-6.2787665024,4.8287160068,5.8911292412,430
123960,228301,288634,-6.1005012187,4.8358944746,5.898307709,431
124447,228295,288700,-6.134000735100001,4.7760739096,5.827719442299999,432
124987,228345,288697,-6.1878392436,4.8586262893,5.8899328299,433
125383,228372,288705,-6.2177495260999995,4.797609313,5.9162538785,434
125394,228359,288758,-6.1591253724,4.9136612091,5.7978091598,435
125358,228371,288690,-6.1806607758,4.7222354011,5.886343596000001,436
125457,228393,288781,-5.9892349678,4.7700918531,5.8193445632000005,437
125701,228403,288727,-6.185446421,4.8000021356,6.0191452503,438
126083,228436,288775,-6.145964848099999,4.8215375389999995,5.7499527078,439
126549,228374,288842,-6.1471612594,4.9591248385,5.9150574672000005,440
127069,228538,288882,-6.3349978335,4.8358944746,5.778666579,441
127587,228545,288908,-6.107679686499999,4.8466621763,5.7810594016,442
128112,228677,288995,-6.094519162199999,4.8155554825,5.8002019824,443
128612,228728,288988,-6.2368921069,4.8023949582,5.856433313499999,444
129129,228794,289051,-6.1100725091,4.8550370553999995,5.8791651282,445
129616,228869,289054,-6.1950177114,4.7641097966,5.873183071700001,446
130051,228920,289105,-6.3134624300999995,4.9495535481,5.802594804999999,447
130368,228960,289119,-6.0394842424,4.9351966125,5.9198431124,448
129413,228820,289019,-6.041877065,4.773681087,5.8408799666,449
126823,228571,288902,-6.2584275103,4.8921258057,5.9294144028,450
124840,228353,288721,-6.080162226600001,4.6947179412,5.938985693199999,451
124132,228298,288690,-6.1112689204,4.8861437492,5.844469200500001,452
124056,228249,288646,-6.0550375893,4.7437708044999995,5.843272789199999,453
124315,228244,288688,-6.281159325,4.705485642899999,5.8695938378,454
124756,228321,288698,-6.161518194999999,4.8873401605,5.8827543621,455
125363,228383,288755,-6.161518194999999,4.90528633,5.818148151899999,456
125786,228423,288715,-6.0442698876,4.9160540317,5.8049876276,457
125806,228382,288796,-6.191428477500001,4.8753760475,5.8576297248,458
125665,228401,288760,-6.2799629137,4.8550370553999995,5.8695938378,459
125634,228347,288701,-6.185446421,4.749752861,5.8707902491,460
125801,228450,288707,-6.2237315826,4.7952164904,5.9042897655,461
126120,228412,288751,-6.1184473882,4.857429878,5.812166095399999,462
126491,228461,288827,-6.0562340006,4.7940200791,5.8456656118,463
127019,228540,288954,-6.0885371056999995,5.1014977832,5.860022547400001,464
127447,228580,288879,-6.1698930741,4.845465765,5.7535419417,465
127899,228701,288894,-6.1651074289,4.7952164904,5.9174502898000005,466
128367,228693,288967,-6.041877065,4.9280181447,5.874379483,467
128859,228714,289025,-6.245266986000001,4.9100719752,5.8217373858000006,468
129286,228801,289058,-6.0993048074,4.9100719752,5.8695938378,469
129367,228816,289055,-6.22133876,4.8466621763,5.8552369022,470
127621,228590,288911,-6.1842500096999995,4.9710889515,5.9066825881,471
125084,228340,288763,-6.1567325498,4.8969114509,5.9102718219999995,472
123741,228173,288586,-6.0071811373,4.7533420949,5.8504512570000005,473
123375,228111,288594,-6.185446421,4.9926243549,5.7643096434,474
123441,228117,288558,-6.0969119848,4.8885365718,5.790630692000001,475
123768,228115,288585,-6.1722858967,4.8430729424,5.8480584344,476
124269,228135,288582,-6.1471612594,4.9591248385,5.927021580200001,477
124827,228154,288678,-6.3110696074999995,4.8203411277,5.923432346299999,478
125058,228153,288650,-5.9988062582,4.7521456836,5.8540404909,479
125028,228216,288635,-6.1710894854,4.9471607255,5.8241302084,480
125024,228151,288613,-6.1423756142,4.9483571368,5.8337014988,481
125180,228246,288696,-6.3038911397,4.8083770147,5.7822558129,482
125481,228259,288733,-6.1998033565999995,4.7676990305,5.8707902491,483
125906,228356,288698,-6.1112689204,4.8478585876,5.8169517405999995,484
126302,228318,288750,-6.1890356549,4.9806602419,5.8755758943,485
126766,228419,288802,-6.2117674696,4.8801616927,5.7846486355,486
127319,228447,288876,-6.185446421,4.9232324995,5.8707902491,487
127784,228544,288854,-6.218945937399999,4.8251267729,5.844469200500001,488
128327,228616,288902,-6.095715573500001,4.90528633,5.8791651282,489
128769,228668,288980,-6.1603217837,4.6504507231,5.888736418600001,490
129235,228713,288999,-6.0598232345,4.8131626599,5.8241302084,491
129458,228713,288984,-6.2141602922,4.8885365718,5.9162538785,492
128057,228606,288884,-6.0442698876,4.8000021356,5.8169517405999995,493
125211,228261,288724,-6.2021961791999995,4.782055966100001,5.8516476683,494
123310,228087,288599,-6.174678719299999,4.7258246349999995,5.831308676200001,495
122567,228024,288483,-6.2644095668,5.0069812905,5.885147184699999,496
122391,227895,288438,-6.0430734763,4.8107698373000005,5.983252911299999,497
122365,227816,288454,-6.0263237181000004,4.833501652,5.8528440796,498
122615,227824,288441,-6.148357670699999,4.8681975797,5.8947184750999995,499
123150,227897,288464,-6.2117674696,4.8023949582,5.8911292412,500
123586,227930,288469,-6.1543397272,4.9040899186999996,5.8253266197,501
123742,227922,288506,-5.9641103305,4.965106895,5.8217373858000006,502
123699,227972,288564,-6.2261244052,4.893322217,5.8002019824,503
123783,227927,288521,-6.1399827916000005,4.8909293944,5.8492548457,504
124033,227950,288523,-6.0717873475,4.90528633,5.74277424,505
124417,228038,288563,-6.1100725091,4.8717868136,5.8456656118,506
124910,228095,288564,-6.216553114800001,4.9974100001,5.9162538785,507
125388,228134,288613,-6.2943198493,4.9040899186999996,5.8755758943,508
126009,228202,288693,-6.1423756142,5.0524449199,5.8325050875,509
126531,228267,288767,-6.0717873475,4.7712882644,5.8217373858000006,510
127079,228391,288753,-6.145964848099999,4.9196432655999995,5.874379483,511
127590,228387,288817,-6.1124653317,4.8801616927,5.790630692000001,512
128040,228471,288881,-6.1686966628,4.8263231842,5.886343596000001,513
128572,228550,288976,-6.2679988007,4.926821733400001,5.873183071700001,514
129031,228678,288977,-6.148357670699999,4.893322217,5.9210395237,515
129374,228663,289001,-6.125625856,5.0237310487,5.747559885199999,516
129099,228612,289006,-6.2548382764,4.7030928203,5.8767723056,517
126843,228366,288845,-6.1794643645,4.899304273499999,5.913861055899999,518
124405,228145,288627,-6.1663038402,4.8035913695,5.8528440796,519
123273,227989,288534,-6.0239308954999995,4.8777688701,5.871986660399999,520
122964,227896,288533,-6.1064832752,5.0309095165,5.745167062599999,521
123069,227905,288498,-6.0765729927,4.869393991,5.8360943214,522
123311,227897,288506,-6.078965815299999,4.9782674193,5.9090754107,523
123823,227960,288545,-6.120840210799999,4.8155554825,5.994020613,524
124390,227983,288508,-6.0849478718,4.9112683865,5.7834522241999995,525
124591,228008,288603,-6.1028940413,4.7234318124,5.900700531599999,526
124591,228036,288580,-6.1304115012,4.8538406441,5.7846486355,527
124553,227999,288611,-6.2177495260999995,4.9232324995,5.8767723056,528
124711,228070,288600,-6.2404813408,4.8981078622,5.898307709,529
125012,228096,288630,-6.0837514605,4.8311088294,5.838487144,530
125450,228121,288646,-5.9808600887,4.965106895,5.8049876276,531
125902,228214,288702,-6.2344992843,4.7246282237,5.8899328299,532
126471,228261,288765,-6.161518194999999,4.8550370553999995,5.8360943214,533
126963,228348,288781,-6.1052868639,4.8418765311,5.8923256525,534
127490,228393,288873,-6.245266986000001,4.9160540317,5.8408799666,535
127958,228469,288912,-6.063412468399999,4.9423750803,5.8145589179999995,536
128452,228550,288922,-6.1794643645,4.8741796362,5.7559347643,537
128869,228623,288987,-6.0717873475,4.8777688701,5.8707902491,538
129202,228647,289054,-6.385247108100001,4.9746781854,5.8217373858000006,539
129420,228660,289007,-6.0227344842,4.9088755639,5.9018969429000006,540
128008,228463,288865,-6.2153567034999995,4.9136612091,5.858826136099999,541
125479,228210,288713,-6.0693945249,4.7186461672,5.7822558129,542
124044,228080,288632,-6.218945937399999,4.8586262893,5.86241537,543
123692,228031,288514,-6.0765729927,4.8203411277,5.8396835553,544
123780,228014,288560,-6.177071541899999,4.9794638306,5.7439706513,545
124064,228015,288546,-6.2823557362999995,4.8287160068,5.8480584344,546
124593,228089,288595,-6.0813586379,4.9040899186999996,5.923432346299999,547
125176,228090,288620,-6.259623921599999,4.7760739096,5.773880933799999,548
125400,228148,288676,-6.2261244052,4.9579284272,5.8899328299,549
125345,228079,288619,-6.1399827916000005,4.9734817741,5.9712887983,550
125319,228115,288665,-6.1280186786,4.7832523774,5.9090754107,551
125452,228120,288656,-6.0765729927,4.5918265694,5.831308676200001,552
125750,228174,288686,-6.0705909362,4.8945186283,5.8325050875,553
126134,228193,288717,-6.2273208165,4.9184468543,5.8695938378,554
126545,228256,288740,-6.0430734763,4.7461636271,5.8504512570000005,555
126999,228304,288776,-6.1399827916000005,4.8430729424,5.8767723056,556
127473,228402,288827,-6.2428741634,4.8000021356,5.9090754107,557
127943,228419,288870,-6.0981083961,4.9567320159,5.8169517405999995,558
128443,228469,288879,-6.2943198493,4.8598227006,5.9449677497,559
128856,228542,288956,-6.0574304119,4.6707897152,5.8839507734,560
129382,228702,288962,-6.1507504933,4.9627140724,5.9186467011,561
129810,228708,289022,-6.3134624300999995,4.8107698373000005,5.8612189587,562
130212,228770,289048,-6.0861442831,4.8538406441,5.8839507734,563
129957,228667,289046,-6.2835521476,4.8741796362,5.838487144,564
127732,228429,288876,-6.132804323799999,4.845465765,5.7367921835,565
125085,228179,288704,-5.9892349678,4.9722853628,5.898307709,566
123714,228061,288550,-6.302694728400001,4.8179483051,5.8695938378,567
123229,227936,288485,-6.1280186786,4.6935215299,5.8827543621,568
123136,227861,288434,-6.113661743,4.6995035864000005,5.7595239982,569
123216,227900,288474,-6.1387863803,4.965106895,5.7236316592000005,570
123638,227914,288447,-6.0478591215,4.9088755639,5.8923256525,571
124179,227957,288526,-6.190232066199999,5.0117669357,5.8552369022,572
124448,227983,288484,-6.1423756142,4.9328037898999995,5.843272789199999,573
124426,227962,288491,-6.0526447667,4.7952164904,5.8337014988,574
124398,227916,288528,-6.067001702300001,4.8897329831,5.8169517405999995,575
124500,227961,288557,-6.1519469046,4.738985159299999,5.8899328299,576
124810,227962,288582,-6.2644095668,4.7030928203,5.8636117813,577
125243,228051,288527,-6.1351971464,4.8849473379,5.856433313499999,578
125713,228089,288674,-6.2225351713,4.8981078622,5.885147184699999,579
126255,228184,288716,-6.2380885182,4.8538406441,5.766702466,580
126837,228244,288710,-6.1698930741,4.8215375389999995,5.7942199259,581
127342,228304,288861,-6.1579289611,4.8598227006,5.888736418600001,582
127873,228379,288807,-6.0167524277,4.8287160068,5.9030933542,583
128395,228453,288870,-6.2045890018000005,4.797609313,5.9772708547999995,584
128886,228484,288923,-6.0969119848,4.9938207662,5.9282179915,585
129356,228605,288981,-6.2117674696,4.917250443,5.8552369022,586
129805,228662,289020,-6.216553114800001,4.7928236678,5.886343596000001,587
130253,228710,289067,-6.1064832752,4.9375894351,5.6482577473,588
130491,228751,289093,-6.2237315826,4.9363930238,5.8959148864,589
129660,228660,289025,-6.2057854131,4.7808595548,5.9748780322,590
127003,228387,288791,-6.0490555328,4.8765724588,5.8552369022,591
124876,228218,288682,-6.041877065,4.8323052407,5.8480584344,592
124026,228076,288614,-6.0047883147,4.8801616927,5.874379483,593
123916,228057,288575,-6.1220366221,4.8466621763,5.8767723056,594
124055,228081,288528,-6.107679686499999,4.8311088294,5.8827543621,595
124363,228027,288587,-6.1280186786,4.8885365718,5.9365928706,596
124951,228103,288601,-6.1543397272,4.833501652,5.8636117813,597
125407,228125,288642,-6.1639110176,4.8047877808,5.8217373858000006,598
125496,228105,288664,-6.1112689204,4.9328037898999995,5.8337014988,599
125401,228118,288601,-6.178267953200001,4.8825545153,6.0071811373,600
125323,228067,288644,-6.2344992843,4.9184468543,5.8217373858000006,601
125509,228151,288594,-6.1447684368,4.9387858464,5.8480584344,602
125778,228154,288722,-6.2021961791999995,4.8418765311,5.8073804502,603
126277,228264,288684,-6.080162226600001,4.8526442328,5.9246287576,604
126742,228312,288784,-6.1998033565999995,4.8634119345,5.922235935,605
127254,228387,288809,-6.2153567034999995,4.8346980633,5.8109696841,606
127788,228468,288850,-6.2380885182,4.9746781854,5.8672010152,607
128270,228508,288913,-6.092126339599999,4.8741796362,5.8145589179999995,608
128783,228556,288929,-6.1100725091,4.7078784655,5.8456656118,609
129185,228685,288965,-6.148357670699999,4.9758745967,5.885147184699999,610
129638,228693,289028,-6.1220366221,4.8873401605,5.8767723056,611
129919,228729,289061,-6.173482308,4.8741796362,5.766702466,612
128999,228586,288907,-6.1603217837,4.7856452,5.7248280705,613
126515,228319,288760,-6.174678719299999,4.7150569333,5.8408799666,614
124636,228126,288674,-6.050251944099999,4.7964129017,5.8337014988,615
123978,228093,288578,-6.1998033565999995,4.8670011684,5.8073804502,616
124008,228040,288593,-6.2261244052,4.8861437492,5.888736418600001,617
124215,228057,288560,-6.0023954921,4.8598227006,5.8899328299,618
124815,228096,288637,-6.1603217837,4.9028935074,5.942574927099999,619
125416,228123,288651,-6.269195212,4.7605205627,5.8612189587,620
125776,228182,288661,-6.209374647,4.7234318124,5.925825168899999,621
125750,228202,288687,-6.1244294447000005,4.929214556,5.8839507734,622
125663,228111,288624,-6.1399827916000005,4.8550370553999995,5.8480584344,623
125798,228203,288681,-6.0681981136,4.8909293944,5.8193445632000005,624
126055,228152,288682,-6.134000735100001,4.7234318124,5.954539040099999,625
126397,228234,288721,-6.1351971464,5.0141597583,5.9186467011,626
126827,228287,288794,-6.0442698876,4.8263231842,5.8073804502,627
127247,228346,288791,-6.3134624300999995,4.7832523774,5.9760744435,628
127738,228374,288852,-6.1220366221,5.072783911999999,5.838487144,629
128192,228458,288924,-6.197410534,4.8981078622,5.8779687169,630
128663,228524,288927,-6.1806607758,4.7940200791,5.86241537,631
129176,228609,288941,-6.2045890018000005,4.9196432655999995,5.860022547400001,632
129665,228592,288990,-6.113661743,5.0117669357,5.860022547400001,633
129842,228608,289039,-6.2847485589,4.9471607255,5.8193445632000005,634
128336,228455,288880,-6.0071811373,4.9375894351,5.874379483,635
125596,228184,288725,-6.0849478718,4.8849473379,5.8815579507999995,636
123768,228007,288599,-6.175875130600001,4.8538406441,5.766702466,637
123081,227928,288461,-6.22133876,4.8358944746,5.8767723056,638
122900,227819,288426,-6.0909299283,5.057230565099999,5.7343993608999995,639
122920,227780,288458,-6.1950177114,4.7641097966,5.8576297248,640
123261,227800,288407,-6.1280186786,4.7832523774,5.7595239982,641
123783,227881,288451,-6.2081782357,4.9220360882000005,5.9078789994,642
124185,227936,288536,-6.1232330334,4.8885365718,5.7643096434,643
124240,227884,288467,-6.0873406944,4.8119662486,5.8468620231,644
124199,227866,288528,-6.094519162199999,4.8071806034,5.812166095399999,645
124272,227917,288477,-6.1292150899,4.7365923367,5.8827543621,646
124545,227931,288506,-6.2105710583,4.9435714916,5.812166095399999,647
124895,227950,288538,-6.2344992843,4.8263231842,5.8456656118,648
125405,228025,288547,-6.0837514605,4.749752861,5.7535419417,649
125917,228128,288629,-6.1830535984,4.869393991,5.9018969429000006,650
126390,228138,288681,-6.3744794064,4.7198425785,5.8971112976999995,651
126915,228237,288653,-6.2464633973,4.878965281399999,5.790630692000001,652
127350,228285,288751,-6.149554082000001,4.788038022599999,5.773880933799999,653
127874,228363,288799,-6.245266986000001,4.7904308452,5.8241302084,654
128302,228417,288804,-6.1639110176,4.8634119345,5.8169517405999995,655
128120,228391,288829,-6.1052868639,4.8981078622,5.9772708547999995,656
126028,228074,288658,-6.1710894854,4.7473600384,5.7978091598,657
123686,227883,288449,-6.113661743,4.9447679029,5.860022547400001,658
122539,227733,288435,-6.1519469046,4.9674997176,5.773880933799999,659
122198,227691,288378,-6.1088760978000005,4.9806602419,5.8169517405999995,660
122212,227639,288333,-6.1304115012,4.8849473379,5.826523031,661
122385,227643,288371,-6.0825550492,4.9806602419,5.86241537,662
122852,227644,288363,-6.0406806537,4.9507499594,5.7954163372,663
123451,227716,288421,-6.1543397272,4.9136612091,5.871986660399999,664
123643,227746,288387,-6.1639110176,4.9208396769,5.913861055899999,665
123724,227725,288462,-6.1387863803,4.8729832249000005,5.8301122648999995,666
123800,227830,288496,-6.021538072899999,4.893322217,5.8217373858000006,667
123996,227772,288401,-6.22133876,4.7940200791,5.8145589179999995,668
124237,227813,288521,-6.1663038402,5.0404808069,5.8337014988,669
124743,227881,288547,-6.0646088797,4.8622155232,5.7810594016,670
125224,227923,288587,-6.0335021859,4.8071806034,5.8480584344,671
125796,228044,288618,-5.994020613,4.9160540317,5.8169517405999995,672
126254,228096,288607,-6.197410534,4.7712882644,5.8767723056,673
126784,228209,288697,-6.0981083961,4.7676990305,5.790630692000001,674
127227,228214,288738,-6.1830535984,4.8299124181,5.8337014988,675
127683,228304,288830,-6.1806607758,4.8897329831,5.9078789994,676
128171,228379,288762,-6.0119667825,4.9124647978,5.7954163372,677
128601,228388,288917,-6.089733517,4.878965281399999,5.8552369022,678
128958,228431,288950,-6.1471612594,4.9986064114,5.9377892819,679
128481,228361,288860,-6.2883377928,4.6624148361,5.8360943214,680
126210,228146,288754,-6.0909299283,4.7629133853,5.860022547400001,681
124069,227956,288613,-6.245266986000001,4.878965281399999,5.9102718219999995,682
123181,227818,288519,-6.1962141227,4.7617169740000005,5.856433313499999,683
123016,227780,288441,-6.2081782357,4.9124647978,5.8791651282,684
123090,227717,288442,-6.0681981136,4.8358944746,5.9042897655,685
123406,227807,288445,-6.136393557699999,4.9603212498,5.776273756399999,686
123922,227814,288488,-6.1579289611,4.8598227006,6.009573959900001,687
124413,227877,288535,-6.0047883147,4.9328037898999995,5.8289158536,688
124492,227859,288524,-6.1675002515,4.883750926599999,5.8552369022,689
124439,227861,288526,-6.2500526312,4.7964129017,5.8576297248,690
124433,227871,288539,-6.1148581543,4.8227339503,5.898307709,691
124624,227852,288522,-6.1806607758,4.7425743932,5.8157553293,692
124942,227913,288580,-6.1244294447000005,4.8358944746,5.8552369022,693
125361,227982,288573,-6.148357670699999,4.90528633,5.8576297248,694
125814,228037,288601,-6.1591253724,4.8909293944,5.8959148864,695
126317,228125,288690,-6.1519469046,4.953142782,5.735595772199999,696
126818,228229,288733,-6.2584275103,4.8586262893,5.9162538785,697
127299,228307,288778,-6.206981824400001,4.6660040700000005,5.8899328299,698
127714,228263,288852,-6.0203416616,4.8681975797,5.812166095399999,699
128135,228347,288885,-6.2751772685,4.8143590712,5.8289158536,700
128524,228430,288918,-5.9784672661,4.9471607255,5.7595239982,701
128486,228383,288862,-6.134000735100001,4.857429878,5.8995041203,702
126721,228163,288780,-5.9904313791,5.041677218199999,5.8839507734,703
124361,227944,288569,-6.1160545656,4.7401815706,5.8145589179999995,704
123284,227853,288525,-6.1232330334,4.850251410199999,5.8408799666,705
123041,227779,288448,-6.2943198493,4.8897329831,5.8839507734,706
123099,227725,288431,-6.2117674696,4.9088755639,5.8767723056,707
123361,227684,288444,-6.1160545656,4.816751893799999,5.802594804999999,708
123898,227809,288501,-6.233302873,4.9005006848,5.8672010152,709
124406,227883,288538,-6.0993048074,4.7832523774,5.8947184750999995,710
124550,227825,288572,-6.053841177999999,4.850251410199999,5.831308676200001,711
124549,227851,288547,-5.9952170243,4.9710889515,5.7583275869,712
124580,227828,288537,-6.2249279939,4.8299124181,5.888736418600001,713
124831,227873,288577,-6.1998033565999995,4.8430729424,5.8360943214,714
125114,227869,288604,-6.0358950085,4.9028935074,5.8492548457,715
125503,227942,288641,-6.2057854131,4.7700918531,5.838487144,716
125925,228031,288692,-6.2153567034999995,4.9471607255,5.886343596000001,717
126429,228115,288731,-6.2847485589,4.8765724588,5.8899328299,718
126907,228203,288733,-6.1280186786,4.8358944746,5.8660046039,719
127359,228247,288759,-6.0873406944,4.7641097966,5.8755758943,720
127857,228295,288811,-6.1268222673,4.989035121000001,5.874379483,721
128275,228351,288896,-6.078965815299999,4.8023949582,5.9054861768,722
128644,228409,288964,-6.2476598086,4.833501652,5.8648081926,723
128024,228278,288854,-6.1447684368,4.7330031028,5.9748780322,724
125615,228031,288650,-6.2656059781,4.8514478215,5.8217373858000006,725
123498,227807,288524,-6.2632131555,4.8191447164,5.9808600887,726
122537,227692,288426,-6.1890356549,4.8825545153,5.8791651282,727
122172,227587,288359,-6.2751772685,4.7521456836,5.8109696841,728
122080,227542,288348,-6.1160545656,4.881358104,5.7296137157,729
122207,227572,288342,-6.317051664,4.7796631435,5.8241302084,730
122651,227619,288377,-6.2021961791999995,4.8119662486,5.6997034332,731
123118,227581,288378,-6.0598232345,4.990231532299999,5.8959148864,732
123298,227623,288399,-6.241677752099999,4.8263231842,5.8672010152,733
123344,227599,288373,-6.1998033565999995,4.8382872972,5.86241537,734
123359,227611,288413,-6.029912952,4.9340002012,5.86241537,735
123665,227666,288409,-6.2249279939,4.7940200791,5.8648081926,736
124001,227701,288478,-6.1866428323,4.7916272565,5.8360943214,737
124494,227701,288530,-6.1220366221,4.8263231842,5.8205409745,738
125015,227800,288606,-6.037091419799999,4.9974100001,5.86241537,739
125563,227863,288620,-6.0969119848,4.8370908858999995,5.7858450468,740
126064,228002,288605,-6.0885371056999995,4.7114676994,5.8660046039,741
126569,228057,288699,-6.1591253724,4.7760739096,5.7834522241999995,742
127016,228139,288735,-6.245266986000001,4.8346980633,5.8504512570000005,743
127457,228186,288762,-6.178267953200001,4.8119662486,5.8528440796,744
127884,228233,288841,-6.177071541899999,4.8059841921,5.8097732728,745
128311,228296,288872,-6.2524454538,4.9686961289000005,5.8289158536,746
128664,228376,288901,-6.1052868639,4.9447679029,5.8528440796,747
128624,228301,288896,-6.021538072899999,4.8897329831,5.860022547400001,748
126768,228147,288784,-6.1531433159,4.8729832249000005,5.8995041203,749
124205,227935,288567,-6.1998033565999995,4.9471607255,5.860022547400001,750
122913,227796,288458,-6.1543397272,4.7425743932,5.8947184750999995,751
122428,227669,288398,-6.1292150899,4.8885365718,5.9210395237,752
122355,227651,288365,-6.1567325498,4.8263231842,5.8971112976999995,753
122418,227599,288402,-6.0646088797,4.961517661099999,5.7643096434,754
122808,227660,288419,-6.1232330334,4.8047877808,5.9353964593,755
123351,227732,288519,-6.185446421,4.8179483051,5.8672010152,756
123627,227754,288457,-6.1878392436,4.850251410199999,5.826523031,757
123671,227748,288558,-5.9569318627,4.8945186283,5.927021580200001,758
123680,227749,288527,-6.1842500096999995,4.8370908858999995,5.8947184750999995,759
123818,227781,288558,-6.0287165407000005,4.8717868136,5.776273756399999,760
124170,227811,288494,-6.2368921069,4.881358104,5.923432346299999,761
124616,227867,288529,-6.094519162199999,4.8658047571,5.8827543621,762
125174,227977,288670,-6.1603217837,5.029713105200001,5.8073804502,763
125689,228082,288615,-6.185446421,4.8897329831,5.923432346299999,764
126177,228052,288691,-6.2368921069,4.8275195955,5.8827543621,765
126780,228113,288769,-6.1244294447000005,4.7904308452,5.826523031,766
127271,228227,288809,-6.0442698876,4.850251410199999,5.8157553293,767
127751,228224,288821,-6.272784445899999,4.8670011684,5.8935220638,768
128211,228382,288879,-6.216553114800001,4.8957150396,5.9437713384,769
128612,228462,288976,-6.1005012187,4.7617169740000005,5.8815579507999995,770
128989,228462,288970,-6.233302873,4.8849473379,5.8827543621,771
129378,228578,289016,-6.2117674696,4.8909293944,5.773880933799999,772
129638,228604,289072,-6.1710894854,4.850251410199999,5.9353964593,773
128820,228559,288953,-6.1722858967,4.7330031028,5.8193445632000005,774
126271,228206,288843,-6.2309100503999995,4.9124647978,5.9712887983,775
124446,228043,288716,-6.050251944099999,4.8526442328,5.8695938378,776
123904,227985,288649,-6.0454662989,4.8299124181,5.761916820800001,777
123834,227985,288647,-6.1651074289,4.8562334667,5.8289158536,778
124066,227917,288687,-6.2847485589,4.8215375389999995,5.8923256525,779
124459,228063,288668,-6.0143596051,4.7784667322,5.860022547400001,780
125016,228065,288720,-6.161518194999999,4.9148576204,5.9401821045,781
125324,228111,288680,-6.0765729927,4.9435714916,5.7678988773,782
125269,228102,288749,-6.2775700911,4.738985159299999,5.8923256525,783
125166,228103,288712,-6.1651074289,4.7162533446,5.8169517405999995,784
125190,228137,288710,-6.092126339599999,4.8945186283,5.9018969429000006,785
125499,228099,288764,-6.136393557699999,4.7246282237,5.8193445632000005,786
125851,228172,288744,-6.1232330334,4.9710889515,5.8360943214,787
126290,228244,288834,-6.2117674696,4.8670011684,5.874379483,788
126778,228325,288878,-6.1447684368,4.8119662486,5.843272789199999,789
127257,228366,288836,-6.1950177114,4.881358104,5.8552369022,790
127785,228441,288909,-6.0646088797,4.9316073786,5.8037912163000005,791
128221,228453,288912,-6.137589969,4.9112683865,5.7870414581,792
128668,228405,288977,-6.0993048074,4.7832523774,5.8660046039,793
129094,228596,288977,-6.0933227509000005,4.9423750803,5.8815579507999995,794
129507,228658,289048,-6.1591253724,4.9710889515,5.8971112976999995,795
129207,228560,289057,-6.1316079125,4.7294138689,5.831308676200001,796
127086,228342,288890,-6.2273208165,4.9005006848,5.8791651282,797
124884,228157,288751,-6.0849478718,4.8526442328,5.9401821045,798
123894,228045,288702,-6.1112689204,4.9184468543,5.7882378694,799
123715,228023,288606,-6.0358950085,4.8765724588,5.8097732728,800
123814,228040,288662,-6.1040904525999995,4.7832523774,5.873183071700001,801
124064,228109,288661,-6.117250976899999,4.9471607255,5.8576297248,802
124555,228063,288761,-6.0119667825,4.8622155232,5.8791651282,803
125011,228153,288704,-6.2751772685,4.9423750803,5.9330036367,804
125221,228094,288703,-6.1411792029,4.8921258057,5.886343596000001,805
125282,228089,288658,-6.2237315826,4.8143590712,5.7332029496,806
125378,228120,288758,-6.1351971464,4.8083770147,5.8253266197,807
125639,228171,288827,-6.021538072899999,4.816751893799999,5.806184038900001,808
125951,228218,288813,-6.132804323799999,4.7676990305,5.9569318627,809
126415,228263,288776,-6.0765729927,4.7808595548,5.8193445632000005,810
126918,228328,288864,-6.134000735100001,4.9866422984,5.7583275869,811
127461,228393,288949,-6.1399827916000005,4.9627140724,5.8971112976999995,812
128042,228500,288929,-6.1447684368,4.8921258057,5.8301122648999995,813
128493,228560,288969,-6.2500526312,4.8406801198,5.86241537,814
129008,228616,289043,-6.0837514605,4.9519463707,5.8002019824,815
129465,228636,289046,-6.1387863803,5.0069812905,5.9150574672000005,816
129922,228697,289111,-6.0705909362,4.8179483051,5.8456656118,817
130414,228768,289102,-6.1232330334,4.9782674193,5.8337014988,818
130525,228757,289093,-6.2237315826,4.8011985469,5.925825168899999,819
128994,228565,288960,-6.1112689204,4.8670011684,5.8827543621,820
126406,228296,288832,-6.1962141227,4.869393991,5.8456656118,821
124916,228201,288758,-6.0263237181000004,4.7641097966,5.843272789199999,822
124480,228203,288707,-5.9976098469000005,4.9256253221,5.858826136099999,823
124416,228154,288695,-6.1064832752,5.0165525809,5.8516476683,824
124520,228168,288669,-6.050251944099999,4.8586262893,5.7930235146,825
124855,228180,288736,-6.197410534,4.8119662486,5.818148151899999,826
125368,228206,288758,-5.9736816209,4.7892344339,5.923432346299999,827
125743,228255,288751,-6.0693945249,4.7090748768,5.9114682333,828
125886,228233,288756,-6.1806607758,4.8681975797,5.8360943214,829
125924,228226,288740,-6.1998033565999995,4.9758745967,5.9198431124,830
126099,228313,288825,-6.22133876,4.869393991,5.8660046039,831
126412,228300,288845,-6.406782511499999,4.8418765311,5.9054861768,832
126828,228341,288864,-6.1603217837,4.8646083458,5.8683974265,833
127326,228465,288885,-6.051448355400001,4.8921258057,5.922235935,834
127854,228469,288938,-6.0454662989,5.0021956453,5.9210395237,835
128414,228542,288990,-6.0035919034,4.9244289108,5.812166095399999,836
128961,228595,289045,-6.0239308954999995,4.8885365718,5.8576297248,837
129488,228641,289047,-6.2249279939,4.7844487887,5.9174502898000005,838
129939,228755,289127,-6.0610196458,4.8203411277,5.8947184750999995,839
130444,228792,289155,-6.0837514605,4.845465765,5.9114682333,840
130929,228848,289180,-6.0717873475,4.8478585876,5.748756296500001,841
131367,228907,289210,-6.1950177114,4.8777688701,5.7882378694,842
131762,228954,289231,-6.149554082000001,4.929214556,5.844469200500001,843
131617,228925,289221,-6.2249279939,4.7748774982999995,5.8971112976999995,844
129709,228732,289007,-6.113661743,4.899304273499999,6.0023954921,845
127477,228550,288960,-6.000002669500001,4.8478585876,5.8959148864,846
126434,228476,288881,-6.1555361385,4.926821733400001,5.8755758943,847
126249,228437,288938,-6.1112689204,4.9567320159,5.7750773451,848
126319,228453,288824,-6.245266986000001,4.8957150396,5.8959148864,849
126518,228486,288865,-6.1663038402,4.8251267729,5.9497533949,850
126985,228524,288933,-6.094519162199999,4.8717868136,5.8289158536,851
127457,228580,288930,-6.050251944099999,4.8346980633,5.7559347643,852
127627,228554,288913,-6.3445691239,4.7533420949,5.8648081926,853
127613,228565,288925,-6.22133876,4.9005006848,5.9485569836,854
127620,228610,288944,-6.0849478718,4.8155554825,5.8145589179999995,855
127746,228544,288984,-6.0717873475,4.8634119345,5.843272789199999,856
128031,228616,288963,-6.1052868639,4.9184468543,5.8480584344,857
128440,228706,289009,-6.1124653317,4.8981078622,5.8947184750999995,858
128878,228663,289046,-6.1268222673,4.9148576204,5.9509498062,859
129339,228780,289048,-6.161518194999999,4.8777688701,5.7810594016,860
129820,228871,289098,-6.2955162605999995,4.8370908858999995,5.9030933542,861
130326,228919,289142,-6.1040904525999995,4.9686961289000005,5.8839507734,862
130786,228995,289157,-6.1447684368,4.6923251185999995,5.812166095399999,863
131224,229024,289243,-6.1124653317,4.8275195955,5.8839507734,864
131660,229109,289267,-6.2057854131,4.8550370553999995,5.888736418600001,865
132016,229103,289256,-6.1028940413,4.7282174576000005,5.8241302084,866
132013,229099,289259,-6.233302873,4.6277189084,5.9485569836,867
130333,228878,289067,-6.233302873,5.029713105200001,5.900700531599999,868
128270,228698,289010,-6.137589969,4.8861437492,5.9210395237,869
127282,228627,289029,-6.1268222673,4.833501652,5.7463634739,870
127139,228639,288980,-6.203392590499999,4.7904308452,5.885147184699999,871
127294,228663,288989,-6.2201423487000005,4.7629133853,5.8552369022,872
127551,228651,288999,-6.1100725091,4.6935215299,5.8923256525,873
128042,228713,289002,-6.1806607758,4.8897329831,5.8552369022,874
128427,228773,288993,-6.0717873475,4.8562334667,5.8672010152,875
128639,228775,289066,-6.101697629999999,4.9663033062999995,5.8504512570000005,876
128621,228766,289008,-6.1184473882,4.7078784655,5.8695938378,877
128689,228732,289051,-6.125625856,4.8622155232,5.954539040099999,878
128854,228786,289083,-6.228517227799999,4.9926243549,5.8193445632000005,879
129176,228799,289100,-6.1878392436,4.8287160068,5.9353964593,880
129523,228847,289101,-6.1686966628,4.7928236678,5.8205409745,881
129967,228939,289152,-6.1005012187,4.8681975797,5.8217373858000006,882
130453,229004,289178,-6.077769404,4.8191447164,5.843272789199999,883
130866,229007,289281,-6.0873406944,4.893322217,5.856433313499999,884
131351,229141,289273,-6.0861442831,4.9232324995,5.8552369022,885
131805,229132,289289,-6.0287165407000005,4.9304109673,5.8289158536,886
132279,229181,289323,-6.0909299283,4.8203411277,5.776273756399999,887
132725,229210,289292,-6.148357670699999,4.7832523774,5.9282179915,888
133133,229296,289397,-6.0837514605,5.0344987504,5.8049876276,889
133102,229231,289373,-6.162714606300001,4.9124647978,5.8348979101000005,890
131378,229025,289236,-6.2117674696,4.9375894351,5.9377892819,891
129088,228810,289061,-6.1686966628,4.9435714916,5.9856457339,892
127930,228707,288964,-6.2237315826,4.8394837085,5.9078789994,893
127460,228710,288959,-6.218945937399999,4.8741796362,5.952146217499999,894
127379,228699,288976,-6.1244294447000005,4.8717868136,5.8672010152,895
127373,228669,288990,-6.137589969,4.9734817741,5.8540404909,896
127661,228717,288997,-6.038287831100001,4.7724846757,5.8408799666,897
128042,228770,288963,-6.1519469046,4.8717868136,5.9401821045,898
128312,228720,289008,-6.1710894854,4.8430729424,5.9282179915,899
128329,228757,289012,-6.149554082000001,4.899304273499999,5.8779687169,900
128323,228715,289000,-6.173482308,4.7401815706,5.7882378694,901
128426,228775,289045,-6.1675002515,4.9040899186999996,5.7702916999,902
128644,228812,288972,-6.1244294447000005,4.9280181447,5.983252911299999,903
128975,228768,289074,-6.1064832752,4.883750926599999,5.8923256525,904
129381,228863,289037,-6.1543397272,4.8717868136,5.9054861768,905
129724,228870,289060,-6.107679686499999,4.7629133853,5.9437713384,906
130295,228988,289115,-6.089733517,4.9734817741,5.874379483,907
130724,228989,289186,-6.1543397272,4.8598227006,5.9078789994,908
131182,229085,289222,-6.145964848099999,4.9543391933,5.818148151899999,909
131611,229108,289272,-6.1184473882,4.816751893799999,5.8947184750999995,910
131998,229170,289266,-6.1423756142,4.869393991,5.9617175078999995,911
132421,229222,289330,-6.269195212,4.8370908858999995,5.843272789199999,912
132806,229225,289292,-6.0478591215,4.9363930238,5.8360943214,913
132743,229230,289297,-6.101697629999999,4.7832523774,5.8576297248,914
131019,228988,289144,-6.0705909362,4.883750926599999,5.8456656118,915
128771,228795,289073,-6.1603217837,4.8658047571,5.9330036367,916
127474,228714,288979,-6.2261244052,4.9160540317,5.8767723056,917
127052,228657,288945,-6.0394842424,4.8885365718,5.7978091598,918
127002,228638,288902,-6.1794643645,4.9184468543,5.844469200500001,919
127080,228694,288910,-6.078965815299999,4.9579284272,5.856433313499999,920
127403,228699,288879,-6.175875130600001,4.857429878,5.8528440796,921
127783,228807,289000,-6.314658841399999,4.9184468543,5.8923256525,922
127993,228736,288949,-6.22133876,4.8861437492,5.826523031,923
128013,228682,288967,-6.1447684368,4.8957150396,5.8289158536,924
127951,228711,289015,-6.1710894854,4.7641097966,5.898307709,925
128036,228779,288972,-6.101697629999999,4.881358104,5.7750773451,926
128228,228782,289007,-6.065805290999999,4.9076791526,5.9054861768,927
128634,228823,288987,-6.1112689204,4.8610191119,5.773880933799999,928
128964,228840,289047,-6.0526447667,4.9447679029,5.8959148864,929
129407,228879,289081,-6.2249279939,4.7940200791,5.8576297248,930
129861,228940,289144,-6.1686966628,4.8526442328,5.8145589179999995,931
130365,229010,289100,-6.197410534,4.8909293944,5.8205409745,932
130796,229068,289222,-6.1196437994999995,4.7473600384,5.7954163372,933
131218,229124,289188,-6.185446421,4.8071806034,5.860022547400001,934
131704,229211,289259,-6.1005012187,4.8430729424,5.8971112976999995,935
132069,229220,289247,-6.021538072899999,5.0033920566,5.8672010152,936
131986,229217,289292,-6.0861442831,4.7186461672,5.8337014988,937
130230,228982,289133,-6.2524454538,4.899304273499999,5.8456656118,938
127974,228781,289007,-6.1196437994999995,4.9316073786,5.8815579507999995,939
126812,228677,288893,-6.0741801701,4.8239303616,5.970092387,940
126550,228666,288965,-6.092126339599999,4.8729832249000005,5.9282179915,941
126574,228673,288944,-6.1531433159,4.989035121000001,5.888736418600001,942
126852,228691,288896,-6.216553114800001,4.8885365718,5.8337014988,943
127325,228738,288965,-6.1675002515,4.857429878,5.8803615395,944
127739,228725,288987,-6.1232330334,4.8071806034,5.7798629903,945
127872,228805,289011,-6.175875130600001,4.7868416113,5.8049876276,946
127726,228761,288952,-6.1196437994999995,4.8358944746,5.927021580200001,947
127580,228747,288987,-6.1567325498,4.8634119345,5.913861055899999,948
127689,228738,288996,-6.0011990808,4.9471607255,5.934200048,949
127918,228798,289026,-6.2368921069,4.6875394734,5.9449677497,950
128178,228823,289040,-6.1196437994999995,4.9555356046000005,5.9485569836,951
128609,228891,289041,-6.2368921069,4.713860522,5.9760744435,952
129037,228896,289096,-6.2799629137,4.845465765,5.9784672661,953
129461,228981,289098,-6.1088760978000005,4.8071806034,5.8779687169,954
129847,229019,289096,-6.136393557699999,5.0153561695999995,5.8791651282,955
130278,229062,289163,-6.107679686499999,4.8287160068,5.938985693199999,956
130694,229107,289220,-6.1471612594,4.8550370553999995,5.766702466,957
130839,229115,289184,-6.1830535984,4.9196432655999995,5.86241537,958
129296,228900,289060,-6.22133876,4.9375894351,5.790630692000001,959
126869,228626,288917,-6.2225351713,4.9878387097,5.8767723056,960
125481,228564,288766,-6.1052868639,4.8490549989,5.9377892819,961
125131,228493,288773,-6.1926248888,4.9304109673,5.8767723056,962
125143,228509,288831,-6.0813586379,4.953142782,5.826523031,963
125329,228482,288837,-6.1447684368,4.8047877808,5.7942199259,964
125762,228527,288793,-6.080162226600001,5.0141597583,5.838487144,965
126210,228549,288811,-6.034698597199999,4.8969114509,5.8480584344,966
126416,228620,288855,-6.065805290999999,4.8957150396,5.8648081926,967
126365,228546,288798,-6.0311093633,4.917250443,5.8540404909,968
126379,228570,288829,-6.149554082000001,4.7246282237,5.7499527078,969
126568,228566,288888,-6.1100725091,4.9734817741,5.8193445632000005,970
126794,228581,288922,-6.1435720255,4.8681975797,5.9198431124,971
127222,228635,288853,-6.2297136391,4.844269353700001,5.831308676200001,972
127674,228647,288946,-6.0693945249,4.9016970961,5.9030933542,973
128088,228764,288959,-6.1040904525999995,4.8478585876,5.8959148864,974
128540,228719,288978,-5.9988062582,4.8897329831,5.7631132321,975
129028,228847,289060,-6.1639110176,4.6576291909,5.858826136099999,976
129487,228817,289070,-6.1686966628,4.7724846757,5.9377892819,977
129905,228958,289141,-6.050251944099999,4.9220360882000005,5.802594804999999,978
129879,228942,289055,-6.1435720255,4.9579284272,5.9162538785,979
127898,228641,288994,-6.1280186786,5.0201418148,5.7930235146,980
125437,228444,288767,-6.1591253724,4.9028935074,5.7810594016,981
124263,228319,288675,-6.125625856,4.8658047571,5.858826136099999,982
123850,228238,288646,-6.0681981136,4.8514478215,5.858826136099999,983
123780,228180,288617,-6.2679988007,4.6803610056,5.8899328299,984
123890,228189,288622,-6.2021961791999995,4.8466621763,5.8576297248,985
124311,228227,288620,-6.1686966628,4.6839502395,5.8923256525,986
124835,228245,288683,-6.2177495260999995,4.8957150396,5.8480584344,987
125140,228335,288680,-6.1399827916000005,4.8729832249000005,5.843272789199999,988
125190,228284,288710,-6.1710894854,5.0428736295,5.8947184750999995,989
125230,228303,288717,-6.2141602922,4.8059841921,5.766702466,990
125427,228233,288732,-6.2057854131,4.9316073786,5.8803615395,991
125700,228304,288755,-6.1806607758,4.9028935074,5.9186467011,992
126142,228294,288770,-6.1543397272,4.9866422984,5.8157553293,993
126646,228447,288772,-6.197410534,4.9555356046000005,5.9473605723,994
127097,228516,288822,-6.2368921069,4.7653062079,5.844469200500001,995
127605,228576,288905,-6.1531433159,4.816751893799999,5.9641103305,996
128099,228613,288957,-6.037091419799999,4.8406801198,5.7750773451,997
128588,228728,288969,-6.218945937399999,4.941178669,5.8707902491,998
129036,228756,288981,-6.050251944099999,4.8490549989,5.952146217499999,999
128957,228718,288973,-6.2751772685,4.7868416113,5.8552369022,1000
127166,228532,288834,-6.095715573500001,4.8981078622,5.8456656118,1001
124891,228295,288721,-6.120840210799999,4.845465765,5.8648081926,1002
123830,228189,288638,-6.1268222673,4.8670011684,5.8528440796,1003
123474,228099,288628,-6.2512490425,4.881358104,5.942574927099999,1004
123555,228131,288606,-6.1710894854,4.9507499594,5.843272789199999,1005
123780,228136,288614,-6.1710894854,4.7772703209000005,5.8456656118,1006
124217,228138,288636,-6.203392590499999,5.029713105200001,5.773880933799999,1007
124731,228215,288649,-6.1148581543,4.9734817741,5.9509498062,1008
125024,228238,288666,-6.1471612594,4.9328037898999995,5.8253266197,1009
125096,228245,288660,-6.1387863803,4.7988057243,5.9605210966,1010
125179,228242,288647,-6.0143596051,4.9088755639,5.8301122648999995,1011
125321,228238,288698,-6.1447684368,4.7784667322,5.8049876276,1012
125669,228278,288733,-6.1232330334,4.8430729424,5.8827543621,1013
126101,228319,288785,-6.1986069453,4.8119662486,5.9330036367,1014
126620,228425,288813,-6.2644095668,4.6959143525,5.8289158536,1015
127072,228470,288855,-6.2476598086,4.9100719752,5.776273756399999,1016
127606,228562,288864,-6.161518194999999,4.8849473379,5.8504512570000005,1017
128039,228613,288930,-5.952146217499999,4.713860522,5.9449677497,1018
128504,228696,288989,-6.1507504933,4.782055966100001,5.8636117813,1019
128946,228757,289001,-6.1794643645,4.845465765,5.8097732728,1020
129347,228713,289050,-6.2021961791999995,4.8897329831,5.9760744435,1021
128760,228692,288958,-6.2428741634,4.671986126499999,5.826523031,1022
126530,228451,288830,-6.2297136391,4.9076791526,5.954539040099999,1023
124794,228298,288712,-6.3110696074999995,4.8059841921,5.802594804999999,1024
124275,228199,288693,-6.1722858967,4.8215375389999995,5.942574927099999,1025
124284,228246,288652,-6.0837514605,4.7952164904,5.858826136099999,1026
124451,228282,288662,-6.1818571871,4.8263231842,5.8815579507999995,1027
124849,228308,288666,-6.092126339599999,4.7832523774,5.886343596000001,1028
125378,228326,288762,-6.0693945249,4.7832523774,5.8420763779,1029
125684,228385,288760,-6.185446421,4.9483571368,5.9186467011,1030
125723,228395,288765,-5.9868421452,4.8203411277,5.9282179915,1031
125687,228362,288833,-6.0406806537,4.8670011684,5.8193445632000005,1032
125807,228374,288777,-6.190232066199999,4.9196432655999995,5.838487144,1033
126053,228430,288784,-6.0885371056999995,4.9962135888,5.898307709,1034
126412,228540,288827,-6.038287831100001,4.7952164904,5.8779687169,1035
126866,228572,288866,-6.2668023894,4.965106895,5.8480584344,1036
127276,228591,288892,-6.233302873,4.788038022599999,5.8911292412,1037
127737,228645,288896,-6.0119667825,4.9926243549,5.8289158536,1038
128154,228685,288949,-6.0023954921,4.9363930238,5.7846486355,1039
128544,228739,288993,-6.132804323799999,4.8741796362,5.8145589179999995,1040
129034,228840,289055,-6.1005012187,4.9591248385,5.8337014988,1041
129194,228855,289022,-6.257231098999999,4.9160540317,5.8480584344,1042
127575,228672,288907,-6.149554082000001,4.8849473379,5.8935220638,1043
125321,228447,288796,-6.000002669500001,4.7605205627,5.7978091598,1044
124267,228366,288701,-6.0119667825,4.7557349175,5.8648081926,1045
124035,228334,288697,-6.0574304119,4.9854458871,5.7690952886,1046
124044,228283,288650,-6.1686966628,4.9016970961,5.9473605723,1047
124211,228299,288695,-6.009573959900001,4.8311088294,5.8755758943,1048
124633,228312,288701,-6.0574304119,5.0679982668,5.8660046039,1049
125123,228416,288760,-6.327819365700001,4.8717868136,5.9497533949,1050
125396,228398,288725,-6.2117674696,4.8550370553999995,5.7272208931,1051
125442,228481,288819,-6.2967126719,4.7928236678,5.9282179915,1052
125607,228462,288793,-6.1316079125,4.9196432655999995,5.8815579507999995,1053
125790,228414,288757,-6.0562340006,4.7090748768,5.8408799666,1054
126153,228485,288830,-6.107679686499999,4.9459643142,5.9449677497,1055
126582,228566,288914,-6.1675002515,4.9208396769,5.8480584344,1056
127053,228591,288904,-6.050251944099999,4.7533420949,5.7858450468,1057
127566,228675,288916,-5.954539040099999,4.953142782,5.8815579507999995,1058
128071,228785,288987,-6.0035919034,4.8550370553999995,5.7810594016,1059
128573,228780,289024,-6.0646088797,4.8358944746,5.8528440796,1060
129012,228747,289021,-6.2500526312,4.8239303616,5.7415778287,1061
129512,228912,289114,-6.1567325498,4.833501652,5.9282179915,1062
129919,228904,289117,-6.1830535984,4.9112683865,5.9282179915,1063
129746,228913,289096,-6.2356956956000005,4.7569313288,5.773880933799999,1064
127800,228692,288907,-6.0993048074,4.738985159299999,5.8337014988,1065
125762,228557,288837,-6.1304115012,4.9148576204,5.831308676200001,1066
124988,228421,288825,-6.1052868639,4.7856452,5.8360943214,1067
124789,228497,288816,-6.0693945249,4.878965281399999,5.8085768615,1068
124785,228475,288764,-6.0813586379,4.7952164904,5.8695938378,1069
124938,228425,288845,-6.162714606300001,4.788038022599999,5.8360943214,1070
125362,228520,288799,-6.0885371056999995,4.8897329831,5.812166095399999,1071
125881,228547,288784,-6.2428741634,5.0069812905,5.7690952886,1072
126138,228582,288865,-6.067001702300001,4.9555356046000005,5.8576297248,1073
126257,228574,288854,-6.228517227799999,4.737788748,5.812166095399999,1074
126336,228573,288883,-6.1184473882,4.929214556,5.7954163372,1075
126645,228647,288945,-6.1411792029,4.9040899186999996,5.8480584344,1076
127017,228577,288932,-6.2105710583,4.8634119345,5.860022547400001,1077
127478,228738,288980,-6.2644095668,4.7569313288,5.8779687169,1078
127996,228807,289038,-6.0478591215,4.8358944746,5.8672010152,1079
128505,228831,289025,-6.1794643645,4.8358944746,5.871986660399999,1080
129021,228924,289035,-6.1160545656,4.9974100001,5.8301122648999995,1081
129489,228972,289078,-6.299105494500001,4.7952164904,5.871986660399999,1082
129968,229103,289157,-6.0861442831,4.8215375389999995,5.8959148864,1083
130423,229119,289216,-5.9736816209,4.8610191119,5.8899328299,1084
130879,229181,289279,-6.1316079125,4.8526442328,5.8815579507999995,1085
131314,229209,289283,-6.2141602922,4.857429878,5.8612189587,1086
131631,229255,289317,-6.137589969,4.773681087,5.8576297248,1087
130967,229168,289238,-6.1423756142,4.773681087,5.9294144028,1088
128798,228979,289095,-6.1304115012,4.833501652,5.9174502898000005,1089
127338,228898,289030,-6.051448355400001,4.8406801198,5.858826136099999,1090
126849,228844,289068,-6.178267953200001,4.9974100001,5.8289158536,1091
126791,228830,289047,-6.0741801701,4.8610191119,5.8695938378,1092
126857,228825,289014,-6.218945937399999,4.7892344339,5.9485569836,1093
127153,228863,289035,-6.078965815299999,4.9232324995,5.8348979101000005,1094
127608,228890,288994,-6.136393557699999,4.7425743932,5.7954163372,1095
127897,228893,289045,-6.0873406944,4.6995035864000005,5.8815579507999995,1096
127944,228895,289059,-5.9736816209,4.8490549989,5.9605210966,1097
127904,228930,289079,-6.0813586379,4.809573426,5.9042897655,1098
127979,228913,289137,-6.1710894854,4.995017177499999,5.8995041203,1099
128197,228958,289090,-6.2344992843,4.8071806034,5.888736418600001,1100
128514,228999,289139,-6.107679686499999,4.7425743932,5.874379483,1101
128950,229031,289088,-6.206981824400001,4.8143590712,5.8636117813,1102
129371,229093,289206,-6.174678719299999,4.788038022599999,5.8097732728,1103
129784,229152,289213,-6.1028940413,4.899304273499999,5.8552369022,1104
130206,229180,289232,-6.175875130600001,4.7294138689,5.9330036367,1105
130549,229205,289254,-6.178267953200001,4.6983071751,5.8947184750999995,1106
131030,229309,289290,-6.148357670699999,4.9256253221,5.9306108141000005,1107
131421,229257,289317,-6.117250976899999,4.8598227006,5.8205409745,1108
131779,229325,289352,-6.0598232345,4.754538506199999,5.8480584344,1109
131959,229289,289325,-6.1471612594,4.8323052407,5.8803615395,1110
130708,229214,289269,-6.1220366221,4.7772703209000005,5.831308676200001,1111
128449,229012,289149,-6.025127306799999,4.8717868136,5.8145589179999995,1112
127215,228905,289054,-6.080162226600001,4.8071806034,5.838487144,1113
126727,228904,288993,-6.0430734763,4.9124647978,5.7930235146,1114
126674,228884,289026,-6.1028940413,4.8358944746,5.831308676200001,1115
126664,228867,288966,-6.0047883147,4.8562334667,5.7870414581,1116
127000,228896,289026,-6.2309100503999995,4.833501652,5.898307709,1117
127368,228929,289040,-6.0526447667,4.6755753604,5.8289158536,1118
127508,228932,289030,-6.1639110176,4.8717868136,5.843272789199999,1119
127468,228949,289037,-6.1675002515,4.8538406441,5.8360943214,1120
127475,228912,289026,-6.173482308,4.7653062079,5.9306108141000005,1121
127617,228935,289038,-6.2344992843,4.9459643142,5.9330036367,1122
127867,228969,289057,-6.136393557699999,4.7844487887,5.838487144,1123
128164,228986,289051,-6.136393557699999,4.7844487887,5.838487144,1124
128604,229064,289146,-6.136393557699999,4.7844487887,5.838487144,1125
129037,229114,289168,-6.136393557699999,4.7844487887,5.838487144,1126
129495,229160,289131,-6.136393557699999,4.7844487887,5.838487144,1127
129928,229174,289246,-6.136393557699999,4.7844487887,5.838487144,1128
130365,229221,289255,-6.136393557699999,4.7844487887,5.838487144,1129
130810,229283,289285,-6.136393557699999,4.7844487887,5.838487144,1130
131223,229358,289324,-6.136393557699999,4.7844487887,5.838487144,1131
131641,229399,289364,-6.136393557699999,4.7844487887,5.838487144,1132
131939,229418,289353,-6.136393557699999,4.7844487887,5.838487144,1133
131270,229310,289313,-6.136393557699999,4.7844487887,5.838487144,1134
128898,229054,289173,-6.136393557699999,4.7844487887,5.838487144,1135
127014,228925,289042,-6.136393557699999,4.7844487887,5.838487144,1136
126200,228893,288904,-6.136393557699999,4.7844487887,5.838487144,1137
125946,228856,288925,-6.136393557699999,4.7844487887,5.838487144,1138
125911,228834,288959,-6.136393557699999,4.7844487887,5.838487144,1139
125994,228819,289028,-6.136393557699999,4.7844487887,5.838487144,1140
126389,228827,288960,-6.136393557699999,4.7844487887,5.838487144,1141
126764,228868,288999,-6.136393557699999,4.7844487887,5.838487144,1142
126866,228812,289003,-6.136393557699999,4.7844487887,5.838487144,1143
126836,228873,288998,-6.136393557699999,4.7844487887,5.838487144,1144
126915,228857,289018,-6.136393557699999,4.7844487887,5.838487144,1145
127094,228899,289021,-6.136393557699999,4.7844487887,5.838487144,1146
127446,228898,289052,-6.136393557699999,4.7844487887,5.838487144,1147
127854,228969,289084,-6.136393557699999,4.7844487887,5.838487144,1148
128347,229057,289144,-6.136393557699999,4.7844487887,5.838487144,1149
128856,229073,289124,-6.136393557699999,4.7844487887,5.838487144,1150
129350,229175,289213,-6.136393557699999,4.7844487887,5.838487144,1151
129874,229173,289227,-6.136393557699999,4.7844487887,5.838487144,1152
130338,229224,289184,-6.136393557699999,4.7844487887,5.838487144,1153
130798,229320,289300,-6.136393557699999,4.7844487887,5.838487144,1154
131259,229356,289279,-6.136393557699999,4.7844487887,5.838487144,1155
131681,229412,289377,-6.136393557699999,4.7844487887,5.838487144,1156
132089,229480,289373,-6.0083775485999995,4.7928236678,5.8193445632000005,1157
132502,229478,289422,-6.0083775485999995,4.7928236678,5.8193445632000005,1158
132446,229475,289372,-6.0083775485999995,4.7928236678,5.8193445632000005,1159
130757,229284,289347,-6.0083775485999995,4.7928236678,5.8193445632000005,1160
128535,229078,289135,-6.0083775485999995,4.7928236678,5.8193445632000005,1161
127489,229005,289075,-6.0083775485999995,4.7928236678,5.8193445632000005,1162
127230,229019,289078,-6.0490555328,4.869393991,5.9282179915,1163
127242,229045,289100,-6.1351971464,4.8083770147,5.900700531599999,1164
127366,229096,289036,-6.1292150899,4.878965281399999,5.8971112976999995,1165
127664,229012,289052,-6.1447684368,4.8550370553999995,5.9282179915,1166
128087,229075,289043,-6.0311093633,4.788038022599999,5.8456656118,1167
128300,229060,289123,-6.161518194999999,4.9710889515,5.9330036367,1168
128261,229040,289163,-6.1962141227,4.961517661099999,5.8995041203,1169
128159,229036,289108,-6.117250976899999,4.8047877808,5.7978091598,1170
128319,229065,289082,-6.209374647,4.8275195955,5.9210395237,1171
128623,229085,289062,-6.0263237181000004,4.8131626599,5.8923256525,1172
128951,229170,289199,-6.1423756142,4.8634119345,5.8504512570000005,1173
129331,229197,289092,-6.2883377928,4.9722853628,5.8839507734,1174
129828,229198,289192,-6.2380885182,4.869393991,5.8576297248,1175
130282,229303,289242,-6.2392849295,4.8765724588,5.8552369022,1176
130733,229367,289272,-6.0598232345,4.8717868136,5.923432346299999,1177
131170,229331,289340,-6.1567325498,4.844269353700001,5.874379483,1178
131599,229418,289333,-6.1722858967,4.9232324995,5.86241537,1179
131972,229501,289361,-6.1531433159,4.8071806034,5.8360943214,1180
132385,229537,289376,-5.923432346299999,4.8478585876,5.8576297248,1181
132755,229588,289360,-6.095715573500001,4.8430729424,5.8552369022,1182
133032,229598,289418,-6.1722858967,4.9591248385,5.9102718219999995,1183
132448,229462,289351,-6.120840210799999,4.8215375389999995,5.9162538785,1184
130320,229223,289192,-6.1184473882,4.8179483051,5.898307709,1185
128563,229098,289092,-6.1280186786,4.8873401605,5.9318072254,1186
128031,229105,289053,-6.1519469046,4.7509492723,5.9330036367,1187
127991,229040,289053,-6.0681981136,4.929214556,5.9198431124,1188
128090,229067,289100,-6.1423756142,4.7461636271,5.860022547400001,1189
128341,229095,289063,-6.0717873475,4.9399822577,5.7966127485,1190
128731,229088,289145,-6.0873406944,4.7629133853,5.8672010152,1191
128974,229130,289138,-6.125625856,4.9998028226999995,5.874379483,1192
128920,229113,289083,-6.212963880899999,4.7126641107,5.954539040099999,1193
128787,229110,289056,-6.1280186786,4.9005006848,5.8672010152,1194
128843,229098,289109,-6.1112689204,4.748556449700001,5.9030933542,1195
129021,229121,289124,-6.174678719299999,4.893322217,5.9282179915,1196
129286,229112,289146,-6.0969119848,4.9495535481,5.8923256525,1197
129595,229176,289148,-6.0466627102,4.7162533446,5.8923256525,1198
129972,229135,289155,-6.1663038402,4.833501652,5.925825168899999,1199
130344,229230,289228,-6.137589969,4.9256253221,5.7930235146,1200
130744,229328,289215,-6.3003019058,4.989035121000001,5.871986660399999,1201
131135,229351,289218,-6.0622160571,4.8921258057,5.958128274,1202
131559,229282,289253,-6.1710894854,4.8873401605,5.8480584344,1203
131945,229423,289304,-6.1304115012,4.8382872972,5.831308676200001,1204
132351,229445,289350,-6.0622160571,5.0524449199,5.8660046039,1205
132564,229477,289351,-6.0526447667,4.965106895,5.9102718219999995,1206
131738,229407,289180,-6.0263237181000004,4.8239303616,5.7966127485,1207
129245,229095,289086,-6.067001702300001,4.8741796362,5.6889357315,1208
127256,228935,288991,-6.0681981136,4.7306102802,5.925825168899999,1209
126487,228886,288953,-6.0526447667,4.8000021356,5.8648081926,1210
126191,228829,288926,-6.2560346877,4.9028935074,5.9078789994,1211
126037,228799,288864,-6.137589969,4.8598227006,5.9054861768,1212
126097,228790,288812,-6.185446421,4.9005006848,5.7595239982,1213
126392,228825,288915,-6.1567325498,4.8598227006,5.9306108141000005,1214
126686,228863,288892,-6.1938213001,4.8119662486,5.8648081926,1215
126731,228831,288871,-6.117250976899999,4.9280181447,5.838487144,1216
126682,228806,288877,-6.1567325498,4.9184468543,5.8480584344,1217
126591,228815,288879,-6.132804323799999,5.0392843956,5.8217373858000006,1218
126780,228801,288931,-6.178267953200001,4.8849473379,5.7511491191,1219
127053,228808,288916,-6.2009997679,4.8969114509,5.8289158536,1220
127388,228789,288871,-6.134000735100001,4.7760739096,5.888736418600001,1221
127833,228789,288950,-6.1579289611,4.797609313,5.7415778287,1222
128277,228961,288990,-6.1196437994999995,4.9184468543,5.9210395237,1223
128740,228990,289064,-6.216553114800001,4.8263231842,5.8504512570000005,1224
129144,229059,289061,-6.2907306154,4.8011985469,5.874379483,1225
129538,229126,289098,-6.0143596051,4.9124647978,5.8875400073,1226
129975,229141,289108,-6.080162226600001,4.9208396769,5.8612189587,1227
130414,229115,289165,-6.206981824400001,4.9818566531999995,5.7499527078,1228
130658,229200,289158,-6.1280186786,4.8670011684,5.812166095399999,1229
130498,229147,289108,-6.113661743,4.8239303616,5.8337014988,1230
128359,228882,288978,-6.1651074289,4.7665026192,5.790630692000001,1231
126006,228734,288828,-6.0275201294,4.9184468543,5.9294144028,1232
124906,228610,288787,-6.197410534,4.7605205627,5.8145589179999995,1233
124549,228555,288780,-6.077769404,5.0512485086,5.7690952886,1234
124491,228534,288726,-6.161518194999999,5.0069812905,5.8073804502,1235
124712,228542,288682,-6.1806607758,4.797609313,5.8827543621,1236
125152,228559,288740,-6.178267953200001,4.9663033062999995,5.9736816209,1237
125609,228604,288764,-6.0358950085,4.9567320159,5.831308676200001,1238
125807,228616,288763,-6.0526447667,4.8311088294,5.7858450468,1239
125779,228583,288751,-6.125625856,4.8275195955,5.958128274,1240
125792,228629,288723,-6.0873406944,4.9567320159,5.922235935,1241
125934,228595,288779,-6.113661743,4.8490549989,5.9952170243,1242
126204,228653,288813,-6.232106461699999,4.8059841921,5.8695938378,1243
126584,228627,288801,-6.1148581543,4.7904308452,5.8456656118,1244
126951,228775,288800,-6.2261244052,4.738985159299999,5.9497533949,1245
127487,228770,288896,-6.0729837587999995,4.9220360882000005,5.9018969429000006,1246
127984,228825,288910,-6.1579289611,4.8957150396,5.8325050875,1247
128386,228931,288988,-6.1280186786,4.7712882644,5.8480584344,1248
128938,228991,288980,-6.178267953200001,4.8646083458,5.8971112976999995,1249
129423,228996,289063,-6.161518194999999,4.8646083458,5.8109696841,1250
129849,229063,289050,-6.0239308954999995,4.7760739096,5.8707902491,1251
130249,229133,289109,-6.0705909362,4.9220360882000005,5.885147184699999,1252
129771,229061,289078,-6.2380885182,4.8023949582,5.8085768615,1253
127485,228755,288896,-6.1411792029,4.7772703209000005,5.8803615395,1254
125457,228613,288755,-6.0550375893,4.8071806034,5.8528440796,1255
124629,228531,288769,-6.1351971464,4.8646083458,6.009573959900001,1256
124588,228519,288739,-6.0071811373,4.8287160068,5.8217373858000006,1257
124763,228483,288722,-6.148357670699999,4.9232324995,5.925825168899999,1258
125156,228532,288707,-6.175875130600001,4.9579284272,5.885147184699999,1259
125714,228612,288793,-6.0035919034,4.8227339503,5.8695938378,1260
126139,228625,288753,-6.1124653317,4.7748774982999995,5.9150574672000005,1261
126198,228641,288793,-6.1890356549,4.7832523774,5.802594804999999,1262
126080,228603,288781,-6.136393557699999,4.8023949582,5.9030933542,1263
126088,228598,288836,-6.1686966628,4.8263231842,5.9042897655,1264
126284,228657,288829,-5.9820565,4.9663033062999995,5.8408799666,1265
126583,228707,288789,-6.0981083961,4.7832523774,5.8947184750999995,1266
126986,228693,288842,-6.0203416616,4.9232324995,5.858826136099999,1267
127396,228794,288945,-6.1878392436,4.6791645943,5.8683974265,1268
127886,228842,288968,-6.1794643645,4.90528633,5.7930235146,1269
128291,228911,288921,-6.0693945249,4.749752861,5.8815579507999995,1270
128762,228957,288973,-6.209374647,4.899304273499999,5.8480584344,1271
129125,228958,288997,-6.2979090831999995,4.8203411277,5.952146217499999,1272
129427,229010,289047,-6.1710894854,4.8957150396,5.8899328299,1273
128712,228818,289017,-6.1830535984,4.7641097966,5.7882378694,1274
126377,228664,288852,-6.1663038402,4.816751893799999,5.941378515799999,1275
124664,228500,288680,-6.1196437994999995,4.8131626599,5.7439706513,1276
124092,228417,288630,-6.3038911397,4.8526442328,5.8707902491,1277
124084,228379,288625,-6.0574304119,4.9184468543,5.8612189587,1278
124312,228414,288638,-6.1471612594,4.9256253221,5.826523031,1279
124706,228446,288707,-6.185446421,4.7306102802,5.900700531599999,1280
125297,228512,288633,-6.1232330334,4.8490549989,5.9162538785,1281
125547,228493,288739,-6.2668023894,4.9064827413000005,6.0155560164,1282
125558,228451,288721,-6.0729837587999995,4.8598227006,5.8839507734,1283
125516,228505,288713,-6.120840210799999,4.8957150396,5.8408799666,1284
125677,228528,288695,-6.120840210799999,4.917250443,5.8660046039,1285
125944,228549,288798,-6.2835521476,4.833501652,5.9401821045,1286
126330,228555,288764,-6.0442698876,4.8957150396,5.7631132321,1287
126722,228582,288704,-6.1112689204,4.7964129017,5.8947184750999995,1288
127162,228656,288829,-6.2117674696,4.8011985469,5.8456656118,1289
127585,228690,288905,-6.0741801701,4.9519463707,5.9066825881,1290
128053,228790,288908,-6.1160545656,4.8346980633,5.8779687169,1291
128474,228822,288917,-6.1268222673,4.7856452,5.860022547400001,1292
128879,228831,288978,-6.241677752099999,4.9495535481,5.9306108141000005,1293
128597,228764,288961,-6.2045890018000005,4.9088755639,5.8552369022,1294
126379,228541,288784,-6.0287165407000005,4.9304109673,6.0263237181000004,1295
124200,228320,288701,-6.145964848099999,4.878965281399999,5.860022547400001,1296
123242,228277,288609,-6.2464633973,4.90528633,5.7978091598,1297
122865,228151,288522,-6.0753765814,4.9423750803,5.8923256525,1298
122809,228018,288554,-6.1148581543,4.7521456836,5.941378515799999,1299
122928,228095,288505,-6.178267953200001,4.7676990305,5.8013983936999995,1300
123331,228165,288527,-6.191428477500001,4.8035913695,5.8360943214,1301
123832,228185,288526,-6.185446421,4.883750926599999,5.886343596000001,1302
124058,228169,288546,-5.9904313791,4.9244289108,5.8767723056,1303
124107,228152,288552,-6.1040904525999995,5.044070040799999,5.9126646445999995,1304
124162,228150,288567,-6.1806607758,4.844269353700001,5.8767723056,1305
124315,228220,288566,-6.1351971464,4.8000021356,5.8528440796,1306
124734,228250,288636,-6.260820332899999,4.9112683865,5.8767723056,1307
125209,228296,288680,-6.1447684368,4.637290198800001,5.9497533949,1308
125684,228367,288696,-6.149554082000001,4.8562334667,5.843272789199999,1309
126190,228389,288698,-6.1423756142,4.8466621763,5.7798629903,1310
126647,228375,288769,-6.0969119848,4.8562334667,5.9330036367,1311
127109,228555,288804,-6.0933227509000005,4.8251267729,5.886343596000001,1312
127590,228622,288849,-6.209374647,4.9232324995,5.8648081926,1313
128076,228669,288887,-6.092126339599999,4.8406801198,5.812166095399999,1314
128111,228630,288914,-6.173482308,4.8370908858999995,5.8935220638,1315
126556,228453,288780,-6.053841177999999,4.9316073786,5.9449677497,1316
124205,228238,288580,-6.1567325498,4.788038022599999,5.9569318627,1317
123056,228109,288608,-6.0969119848,4.677968183,5.8576297248,1318
122722,228091,288510,-6.1866428323,4.7557349175,5.8672010152,1319
122682,228066,288463,-6.1196437994999995,4.8729832249000005,5.8289158536,1320
122815,228024,288489,-6.0693945249,4.9818566531999995,5.777470167700001,1321
123232,228096,288557,-6.1423756142,4.8801616927,5.984449322600001,1322
123767,228096,288505,-6.1543397272,4.809573426,5.8935220638,1323
124061,228148,288601,-6.0311093633,4.7605205627,5.873183071700001,1324
124166,228141,288530,-6.1663038402,4.8311088294,5.9078789994,1325
124297,228172,288622,-6.0598232345,4.7162533446,5.967699564399999,1326
124548,228204,288575,-6.1686966628,4.8287160068,5.9042897655,1327
124915,228248,288648,-6.0861442831,4.788038022599999,5.843272789199999,1328
125362,228210,288696,-6.162714606300001,4.8143590712,5.9114682333,1329
125865,228375,288698,-6.0753765814,4.990231532299999,5.7918271033,1330
126372,228411,288787,-6.0969119848,4.8011985469,5.9186467011,1331
126949,228520,288768,-6.0191452503,4.8957150396,5.8241302084,1332
127428,228521,288848,-6.0490555328,4.9160540317,5.838487144,1333
127965,228633,288866,-6.2141602922,4.8323052407,5.9078789994,1334
128438,228687,288971,-6.1292150899,4.797609313,5.8504512570000005,1335
128916,228744,288974,-6.0550375893,4.7234318124,5.874379483,1336
129365,228789,288949,-6.1220366221,4.9627140724,5.8803615395,1337
129697,228868,288948,-6.2428741634,4.8346980633,5.9377892819,1338
129027,228692,288960,-6.1806607758,4.816751893799999,5.8672010152,1339
126849,228467,288854,-6.162714606300001,4.7365923367,5.9282179915,1340
125382,228437,288746,-6.0610196458,4.7928236678,5.8815579507999995,1341
124928,228329,288665,-6.3086767849,4.8538406441,5.8002019824,1342
124893,228310,288672,-6.1064832752,4.9005006848,5.7750773451,1343
124917,228268,288709,-6.132804323799999,4.9351966125,5.827719442299999,1344
125322,228345,288683,-6.029912952,4.788038022599999,5.8217373858000006,1345
125857,228410,288729,-6.0263237181000004,4.788038022599999,5.8097732728,1346
126222,228446,288728,-6.2057854131,4.7365923367,5.9030933542,1347
126383,228460,288736,-6.0335021859,5.0356951617,5.732006538299999,1348
126436,228464,288753,-6.0729837587999995,4.8251267729,5.9114682333,1349
126629,228502,288750,-6.1878392436,4.9351966125,5.8013983936999995,1350
126947,228527,288796,-6.1926248888,4.9064827413000005,5.900700531599999,1351
127348,228573,288820,-6.161518194999999,4.8705904022999995,5.927021580200001,1352
127819,228627,288859,-6.080162226600001,4.7928236678,5.8911292412,1353
128407,228681,288902,-6.113661743,4.8143590712,5.8301122648999995,1354
128919,228670,288956,-6.0586268232,4.9974100001,5.968895975700001,1355
129509,228686,288957,-5.826523031,5.3563333901,6.272784445899999,1356
130028,228799,288997,-5.873183071700001,4.7581277401,5.9629139192,1357
130505,228783,289035,-5.9174502898000005,5.0093741131,6.0394842424,1358
130968,228953,289065,-5.9485569836,5.1266224204999995,5.9150574672000005,1359
131394,229012,289109,-5.873183071700001,4.9244289108,5.968895975700001,1360
131718,228999,289115,-5.941378515799999,5.032105927799999,5.994020613,1361
130928,228830,289016,-5.8899328299,5.026123871299999,5.9629139192,1362
129021,228730,288939,-5.9449677497,5.0081777018,5.968895975700001,1363
127898,228609,288850,-5.827719442299999,4.917250443,6.0239308954999995,1364
127547,228599,288819,-5.958128274,5.112265484900001,5.9880385565,1365
127591,228633,288877,-5.9437713384,4.977071008,5.8815579507999995,1366
127785,228621,288839,-6.005984725999999,4.990231532299999,5.9054861768,1367
128050,228685,288830,-6.0753765814,5.0691946781,6.0287165407000005,1368
128551,228739,288898,-6.0598232345,4.9184468543,5.871986660399999,1369
128779,228732,288938,-5.9605210966,5.045266452099999,5.9318072254,1370
128801,228748,288910,-5.9353964593,4.845465765,5.8755758943,1371
128882,228731,288890,-5.9318072254,5.073980323300001,5.9509498062,1372
129094,228777,288976,-5.888736418600001,4.8658047571,5.900700531599999,1373
129337,228784,288926,-6.0981083961,4.9627140724,5.838487144,1374
129690,228818,288960,-6.1028940413,4.9196432655999995,5.9174502898000005,1375
130112,228917,289038,-6.0526447667,4.9962135888,5.9198431124,1376
130541,228994,288979,-6.009573959900001,4.8071806034,5.952146217499999,1377
130945,229000,289016,-6.0083775485999995,4.788038022599999,5.8241302084,1378
131389,229038,289104,-5.9449677497,4.8885365718,5.9150574672000005,1379
131786,229103,289060,-6.1603217837,4.8239303616,5.8959148864,1380
132224,229106,289102,-6.0466627102,4.9914279436,5.922235935,1381
132612,229189,289150,-6.191428477500001,4.9375894351,5.923432346299999,1382
132527,229145,289171,-6.162714606300001,4.9423750803,5.8911292412,1383
130987,228990,289059,-6.1184473882,5.1098726623,5.8360943214,1384
129276,228846,288950,-6.005984725999999,4.9387858464,5.900700531599999,1385
128369,228754,288895,-6.1471612594,4.9028935074,5.9784672661,1386
128051,228710,288843,-5.8995041203,4.9375894351,5.8145589179999995,1387
127931,228688,288917,-6.1040904525999995,5.0093741131,5.8911292412,1388
127981,228706,288831,-6.1148581543,4.8825545153,5.900700531599999,1389
128260,228706,288863,-6.000002669500001,5.000999234,5.9760744435,1390
128650,228786,288824,-5.9760744435,4.929214556,5.874379483,1391
128821,228715,288911,-6.1088760978000005,5.0512485086,5.9593246853,1392
128818,228741,288817,-6.0203416616,4.9483571368,5.9150574672000005,1393
128914,228750,288815,-6.0849478718,4.8299124181,5.9126646445999995,1394
129111,228778,288867,-6.0681981136,4.9567320159,5.9641103305,1395
129392,228812,288866,-6.1435720255,4.8765724588,5.8456656118,1396
129679,228878,288906,-6.0071811373,4.8119662486,5.7810594016,1397
130164,228880,288948,-5.9760744435,4.8873401605,5.838487144,1398
130561,228944,288994,-5.934200048,5.041677218199999,5.8672010152,1399
131043,229023,289012,-6.1005012187,4.9543391933,5.86241537,1400
131470,229048,289056,-5.9952170243,5.0632126216,5.9210395237,1401
131844,229114,288996,-6.0873406944,4.8430729424,5.8755758943,1402
132305,229128,289125,-5.9808600887,4.9734817741,5.9784672661,1403
132686,229215,289170,-6.1005012187,4.8861437492,5.8301122648999995,1404
133101,229226,289168,-5.9593246853,4.9938207662,5.8337014988,1405
133205,229235,289182,-6.0466627102,4.9124647978,5.9102718219999995,1406
132034,229101,289073,-6.005984725999999,4.869393991,5.7834522241999995,1407
130006,228903,288963,-6.2009997679,4.9148576204,5.8911292412,1408
128703,228802,288868,-6.113661743,4.9483571368,5.934200048,1409
128300,228750,288791,-5.9653067418,4.893322217,5.8791651282,1410
128099,228748,288805,-6.0358950085,5.0536413312,5.8672010152,1411
128014,228704,288806,-6.1244294447000005,4.8011985469,5.8049876276,1412
128199,228710,288833,-5.9653067418,4.8705904022999995,5.9365928706,1413
128538,228718,288831,-5.9736816209,4.9806602419,5.900700531599999,1414
128801,228803,288803,-6.0526447667,4.8873401605,5.8791651282,1415
128789,228803,288867,-6.041877065,4.9686961289000005,5.9318072254,1416
128755,228749,288842,-6.1280186786,4.965106895,5.9078789994,1417
128873,228767,288859,-6.1447684368,4.90528633,5.8073804502,1418
129079,228818,288901,-6.2021961791999995,4.9591248385,5.8612189587,1419
129404,228752,288887,-6.065805290999999,5.0536413312,5.9162538785,1420
129801,228875,288946,-6.080162226600001,4.9686961289000005,5.8289158536,1421
130268,228952,288964,-6.1794643645,4.953142782,5.954539040099999,1422
130663,229013,288998,-6.0454662989,4.8203411277,5.938985693199999,1423
131109,229057,288957,-6.089733517,4.9579284272,5.8480584344,1424
131546,229104,289107,-5.970092387,4.8275195955,5.983252911299999,1425
131878,229125,289089,-5.9904313791,4.7617169740000005,5.8839507734,1426
132335,229171,289124,-6.0490555328,4.8885365718,5.8911292412,1427
132719,229272,289096,-5.9952170243,4.7688954418,5.927021580200001,1428
133099,229262,289174,-6.162714606300001,4.8765724588,5.9904313791,1429
133433,229231,289129,-6.2009997679,4.8849473379,5.8456656118,1430
133419,229212,289206,-5.9880385565,4.7581277401,5.9210395237,1431
131951,229090,289098,-5.9641103305,4.9758745967,5.8552369022,1432
130038,228953,288977,-6.1040904525999995,4.881358104,5.8791651282,1433
129051,228837,288940,-5.9976098469000005,4.9088755639,5.8360943214,1434
128759,228877,288874,-6.0993048074,4.8430729424,5.9102718219999995,1435
128722,228859,288821,-6.017948839,4.8777688701,6.009573959900001,1436
128747,228915,288950,-6.0454662989,4.878965281399999,5.927021580200001,1437
129144,228918,288956,-6.0275201294,4.8765724588,5.9377892819,1438
129487,228944,288958,-6.0765729927,4.9220360882000005,5.8755758943,1439
129403,228932,288946,-6.063412468399999,4.8646083458,5.8959148864,1440
129380,228907,288939,-6.0490555328,4.8741796362,5.874379483,1441
129333,228921,288914,-6.1890356549,4.9016970961,5.8947184750999995,1442
129409,228880,288934,-6.077769404,4.8394837085,5.8456656118,1443
129644,228966,288951,-6.0969119848,4.9483571368,5.8648081926,1444
129988,229031,288924,-6.101697629999999,4.9519463707,5.8085768615,1445
130371,229040,288995,-6.053841177999999,4.8801616927,5.941378515799999,1446
130660,229083,289004,-6.051448355400001,4.7078784655,5.9808600887,1447
131171,229111,288954,-6.177071541899999,4.9148576204,5.967699564399999,1448
131605,229098,289024,-6.0263237181000004,4.833501652,5.941378515799999,1449
131987,229231,289065,-6.034698597199999,4.8885365718,5.9174502898000005,1450
132382,229287,289131,-6.0107703712000005,4.8598227006,5.9724852096,1451
132749,229331,289171,-5.9760744435,4.8729832249000005,5.8791651282,1452
133097,229406,289204,-6.0442698876,4.9806602419,5.86241537,1453
132678,229281,289088,-6.1112689204,4.9340002012,5.8803615395,1454
130800,229090,289001,-6.203392590499999,4.881358104,5.8923256525,1455
129180,228946,288890,-6.1005012187,5.084748025,5.927021580200001,1456
128496,228812,288859,-6.0969119848,4.844269353700001,5.8456656118,1457
128288,228918,288872,-6.1531433159,5.010570524399999,5.860022547400001,1458
128283,228853,288830,-6.0478591215,4.8897329831,5.9210395237,1459
128391,228905,288854,-6.0741801701,4.9208396769,5.9916277904,1460
128761,228969,288867,-6.077769404,4.8526442328,5.8935220638,1461
129089,228982,288876,-5.9796636774,4.8825545153,5.888736418600001,1462
129109,228955,288898,-6.037091419799999,4.7808595548,5.8528440796,1463
129108,228898,288880,-6.0933227509000005,4.8358944746,5.9306108141000005,1464
129185,228816,288879,-6.162714606300001,4.9328037898999995,5.9353964593,1465
129359,228938,288914,-6.117250976899999,4.8394837085,5.871986660399999,1466
129642,229001,288918,-6.0430734763,4.8370908858999995,5.7655060547,1467
130019,229074,288909,-6.1543397272,4.8945186283,5.871986660399999,1468
130364,229110,289008,-6.0705909362,4.9543391933,5.9808600887,1469
130785,229151,289037,-6.0705909362,5.0081777018,5.8648081926,1470
131198,229192,289036,-5.9808600887,4.8418765311,5.9126646445999995,1471
131597,229255,289005,-6.0311093633,4.8658047571,5.8337014988,1472
132034,229282,289085,-6.2273208165,4.961517661099999,5.958128274,1473
132453,229326,289154,-6.095715573500001,4.8765724588,5.927021580200001,1474
132854,229393,289180,-6.1962141227,4.7318066915,5.900700531599999,1475
133253,229468,289163,-6.051448355400001,4.9196432655999995,5.838487144,1476
133376,229434,289192,-6.0023954921,4.883750926599999,5.9042897655,1477
132090,229276,289074,-6.077769404,4.816751893799999,5.8791651282,1478
130157,229127,288996,-6.1040904525999995,4.609772738899999,5.9365928706,1479
129013,229000,288886,-6.0335021859,4.9076791526,5.8839507734,1480
128608,229031,288854,-5.983252911299999,4.7688954418,5.9114682333,1481
128484,228976,288839,-5.9665031531,5.0069812905,5.871986660399999,1482
128500,228947,288822,-6.0454662989,4.893322217,5.9377892819,1483
128663,228942,288868,-6.0358950085,4.9459643142,5.8408799666,1484
129008,228917,288895,-6.1675002515,4.9627140724,6.0047883147,1485
129250,228948,288876,-6.0849478718,4.9423750803,5.7343993608999995,1486
129307,229014,288868,-6.067001702300001,4.9399822577,5.9102718219999995,1487
129309,228991,288897,-6.050251944099999,4.8299124181,5.983252911299999,1488
129421,229019,288931,-5.954539040099999,5.0093741131,5.8133625067,1489
129691,229097,288900,-6.0406806537,4.8945186283,5.9485569836,1490
129981,229086,288960,-5.954539040099999,4.9005006848,5.8468620231,1491
130413,229137,288972,-6.1304115012,4.9005006848,5.8504512570000005,1492
130833,229156,288943,-5.9485569836,4.8598227006,5.9665031531,1493
131243,229207,289009,-5.9126646445999995,4.9782674193,5.86241537,1494
131670,229282,289047,-6.092126339599999,4.9005006848,5.8325050875,1495
132071,229305,289075,-5.8971112976999995,4.9519463707,5.9294144028,1496
132549,229344,289048,-6.0023954921,4.8610191119,5.8672010152,1497
132954,229414,289160,-6.1148581543,4.8861437492,5.968895975700001,1498
133315,229471,289182,-6.005984725999999,4.7892344339,5.898307709,1499
133688,229532,289217,-6.0681981136,4.8538406441,5.9533426288,1500
134070,229570,289273,-6.0622160571,4.8131626599,5.888736418600001,1501
134521,229618,289300,-6.2823557362999995,4.8215375389999995,6.0047883147,1502
134702,229614,289224,-5.9090754107,5.0691946781,5.9018969429000006,1503
133972,229529,289217,-6.148357670699999,4.9124647978,5.831308676200001,1504
132031,229338,289052,-6.1543397272,4.8897329831,5.8348979101000005,1505
130530,229252,288948,-6.0765729927,4.8143590712,5.9784672661,1506
129967,229235,288961,-6.0311093633,4.9423750803,5.9066825881,1507
129767,229165,288973,-5.9916277904,4.9220360882000005,5.934200048,1508
129782,229211,288978,-6.145964848099999,4.9387858464,5.9748780322,1509
129909,229247,288952,-6.101697629999999,4.8406801198,5.8672010152,1510
130166,229265,288984,-6.0562340006,4.899304273499999,5.9150574672000005,1511
130414,229246,288985,-6.051448355400001,4.8622155232,5.8695938378,1512
130307,229233,289015,-6.0011990808,4.953142782,5.8648081926,1513
130258,229199,288974,-6.053841177999999,4.8143590712,5.8911292412,1514
130292,229246,288938,-6.0083775485999995,4.9591248385,5.9904313791,1515
130344,229128,288998,-6.0813586379,4.8370908858999995,5.8193445632000005,1516
130562,229263,289050,-6.0083775485999995,4.8035913695,5.9401821045,1517
130868,229306,288984,-6.0753765814,4.90528633,5.8456656118,1518
