green,red,IR,acc_x,acc_y,acc_z,sample_index
97675,187641,215289,0.5120640364,-9.6275217311,-0.4211367776,1
97541,187629,215226,0.5934200048,-9.5724868113,-0.48574298779999997,2
97410,187596,215215,0.6580262149999999,-9.6370930215,-0.3625126239,3
97289,187558,215157,0.8255237969999999,-9.786644434,-0.35772697870000003,4
97155,187555,215187,0.8829515394,-9.5844509243,-0.3672982691,5
96843,187508,215110,1.0001998468,-10.060622621699999,-0.22492532440000002,6
96448,187570,215129,1.0683952909,-10.0582297991,-0.2656033086,7
96086,187872,215332,1.1557333158,-9.678967417,-0.7310073043,8
95840,188136,215539,1.2873385588,-9.2674019298,-0.6580262149999999,9
95739,188279,215652,1.3639088819999998,-9.3595255999,-0.7046862557000001,10
95696,188329,215722,1.5649059803999998,-9.6406822554,-0.7310073043,11
95623,188253,215698,1.4213366244,-9.345168664300001,-0.7872386353999999,12
95647,188155,215642,1.4739787216,-9.2135634213,-0.7369893608,13
95618,188154,215589,0.9343972253,-9.6358966102,-0.5479563754,14
95544,187941,215415,0.9284151688,-9.7818587888,-0.6041877065,15
95405,187806,215268,0.3146561719,-8.267202082999999,0.1220339526,16
95286,187826,215219,1.0851450490999999,-10.584650771100002,-0.7716852885,17
95181,187841,215187,0.6472585133,-10.2197453246,-0.3002992363,18
95099,187804,215208,0.7274180704000001,-9.976873830699999,-0.5814558918,19
95000,187680,215166,0.8231309743999999,-10.0761759686,-0.5886343596,20
94837,187569,215046,0.7022934331,-9.391828705,-0.30747770409999997,21
94686,187508,214957,0.7106683122,-9.463613383,-0.43429730190000004,22
94545,187309,214859,0.8398807326,-9.687342296099999,-0.5754738353000001,23
94401,187345,214801,0.8913264185,-9.5976114486,-0.5670989562,24
94137,187270,214757,0.9260223462,-9.6239324972,-0.526420972,25
93703,187151,214685,0.9487541609,-9.7830552001,-0.6077769404,26
93302,187144,214656,1.0612168231,-9.7651090306,-0.5874379483000001,27
92986,187108,214631,0.8518448456000001,-9.726823869,-0.5503491979999999,28
92766,187070,214584,0.8889335959,-9.6538427797,-0.7154539574000001,29
92654,187095,214664,0.945164927,-9.7722874984,-0.6245266986,30
92595,187084,214582,1.0133603711,-9.6945207639,-0.5491527867,31
92539,187056,214607,0.8530412569000001,-9.745966449800001,-0.6771687957999999,32
92481,187037,214514,0.9762716208,-9.6514499571,-0.6293123438,33
92372,187006,214531,0.9906285563999999,-9.7531449176,-0.6963113766000001,34
92308,187006,214507,1.1353943237,-9.7351987481,-0.7441678286,35
92195,186993,214527,1.0791629926,-9.726823869,-0.7369893608,36
92116,186999,214470,1.0588240005,-9.750752095,-0.7130611348,37
92028,186975,214471,1.1234302107,-9.7651090306,-0.7872386353999999,38
91964,186931,214468,1.0456634762,-9.7052884656,-0.7166503687,39
91918,187001,214478,0.9858429111999999,-9.8237331843,-0.6783652070999999,40
91862,186919,214436,1.0803594039,-9.6837530622,-0.7106683122,41
91793,186937,214416,1.0983055734,-9.6681997153,-0.8303094421999999,42
91683,186929,214390,1.0336993632,-9.7184489899,-0.7190431913,43
91401,186933,214365,0.969093153,-9.4731846734,-0.8231309743999999,44
91055,186854,214309,1.2179467034,-9.655039191,-0.7489534738,45
90714,186683,214265,1.1114660977,-9.6035935051,-0.8817551281,46
90523,186757,214239,1.0695917021999999,-9.6801638283,-0.7752745223999999,47
90493,186783,214253,0.9954142015999999,-9.6179504407,-0.8590233134,48
90383,186737,214258,0.9631110964999999,-9.7052884656,-0.8470592004,49
90393,186697,214244,0.9906285563999999,-9.6861458848,-0.7920242806,50
90389,186722,214237,1.040877831,-9.7124669334,-0.8626125473,51
90354,186684,214222,1.0803594039,-9.6681997153,-0.7872386353999999,52
90293,186676,214193,1.0683952909,-9.7495556837,-0.729810893,53
90234,186688,214195,1.1174481541999999,-9.7160561673,-0.753739119,54
90167,186672,214189,1.2825529136,-9.5904329808,-0.6867400861999999,55
90175,186840,214309,1.1976077113,-9.511469835,-0.5395814963,56
90236,187069,214543,1.3351950108,-9.786644434,-0.7453642399,57
90329,187242,214600,1.6378870697,-9.4612205604,-0.9248259349,58
90422,187252,214684,1.8364913454999998,-9.4707918508,-0.8925228298,59
90544,187381,214744,1.8975083218,-9.4169533423,-1.0612168231,60
90630,187363,214770,1.7994025952000001,-9.621539674600001,-0.8506484343,61
90556,187247,214644,1.7455640867,-9.438488745699999,-1.0636096457,62
90301,186968,214469,1.5637095691,-9.6969135865,-0.8147560952999999,63
90007,186840,214353,1.3172488413,-9.918249677,-0.801595571,64
89793,186730,214221,1.2035897678,-9.6813602396,-0.7202396026000001,65
89667,186622,214157,1.3112667848,-9.7076812882,-0.7848458128,66
89626,186660,214142,1.2933206153,-9.675378183100001,-0.7345965382,67
89664,186571,214160,1.0384850084,-9.6861458848,-0.6580262149999999,68
89702,186561,214110,1.2299108163999999,-9.6502535458,-0.7992027483999999,69
89730,186563,214162,1.1581261384000001,-9.6705925379,-0.6113661743,70
89722,186509,214100,1.1665010175000001,-9.6777710057,-0.6376872229,71
89687,186534,214150,1.1090732750999999,-9.7220382238,-0.7633104094,72
89644,186510,214139,1.2406785181,-9.6526463684,-0.6699903279999999,73
89704,186498,214131,1.2885349701,-9.8763752815,-0.6783652070999999,74
89714,186511,214078,1.1808579531,-9.667003304,-0.6987041992,75
89751,186524,214068,0.9511469834999999,-9.6323073763,-0.6544369810999999,76
89790,186476,214085,1.1904292435000001,-9.631110965,-0.6628118601999999,77
89795,186424,214037,1.1641081949,-9.6490571345,-0.6340979889999999,78
89810,186454,214045,1.0743773474,-9.6155576181,-0.7130611348,79
89746,186477,213984,1.1282158559,-9.6717889492,-0.6544369810999999,80
89538,186393,213929,1.1330015010999999,-9.710074110799999,-0.753739119,81
89281,186365,213929,0.9128618219,-9.7220382238,-0.5670989562,82
89123,186313,213883,1.1138589203,-9.7244310464,-0.6029912952,83
89023,186280,213911,0.981057266,-9.688538707400001,-0.5611168997,84
89017,186286,213895,1.0612168231,-9.7483592724,-0.6173482308,85
89000,186295,213888,1.064806057,-9.6777710057,-0.6640082715,86
89126,186265,213912,1.0073783146,-9.620343263299999,-0.5575276658,87
89151,186259,213888,1.0791629926,-9.3643112451,-0.7190431913,88
89169,186271,213867,1.0923235169,-9.757930562799999,-0.5682953675,89
89176,186270,213891,0.921236701,-9.6861458848,-0.5718846014,90
89103,186252,213844,1.0145567824000001,-9.750752095,-0.5814558918,91
89088,186221,213848,1.040877831,-9.7698946758,-0.6436692794,92
88951,186219,213814,1.0073783146,-9.674181771799999,-0.5670989562,93
89072,186109,213754,1.1174481541999999,-9.655039191,-0.6508477471999999,94
89092,186131,213800,1.0695917021999999,-9.7124669334,-0.6317051664,95
89133,186220,213837,1.0097711372,-9.6107719729,-0.6173482308,96
89152,186220,213800,0.981057266,-9.6155576181,-0.7190431913,97
89140,186187,213794,1.0827522265,-9.6705925379,-0.5778666579,98
88973,186131,213779,1.1066804525,-9.7172525786,-0.49531427819999996,99
88703,186120,213744,0.8638089586000001,-9.7208418125,-0.5467599640999999,100
88504,186119,213657,1.028913718,-9.7591269741,-0.574277424,101
88391,186087,213728,1.0145567824000001,-9.6012006825,-0.5635097223,102
88348,186103,213750,1.0384850084,-9.6538427797,-0.5874379483000001,103
88345,186030,213821,1.1796615418,-9.5820581017,-0.5682953675,104
88406,186204,213799,1.3543375915999998,-9.822536773,-0.5838487144,105
88481,186301,213892,1.172483074,-9.7076812882,-0.6257231099,106
88431,186435,213963,1.4464612617,-9.7088776995,-0.5922235935,107
88535,186514,214072,1.5110674719,-9.549754996599999,-0.6687939167,108
88566,186662,214111,2.8606194183,-9.8608219346,-0.5443671415,109
88628,186854,214258,1.8221344098999999,-9.564111932200001,-1.0025926694,110
88678,186889,214296,1.6869399330000001,-9.5916293921,-1.0241280728,111
88758,186986,214326,1.5625131578,-9.6705925379,-0.9523433948,112
88841,186989,214371,1.6426727149,-9.6155576181,-1.0372885971,113
88904,186948,214369,1.5708880369,-9.6562356023,-0.861416136,114
88870,186757,214241,1.2813565023,-9.5246303593,-0.8374879099999999,115
88827,186747,214090,0.9702895642999999,-8.6333039408,-0.5515456093,116
88687,186676,214102,1.2406785181,-9.937392257800001,-1.1521440819,117
88384,186685,214074,1.1665010175000001,-10.141978590099999,-0.8243273857,118
88131,186621,214017,1.0588240005,-10.0295159279,-0.6388836341999999,119
87960,186574,214023,1.0348957745,-10.035497984400001,-0.8279166196,120
87807,186498,214034,1.0229316615,-10.1300144771,-0.8590233134,121
87641,186352,213928,0.8925228298,-9.4193461649,-0.39960137419999997,122
87552,186242,213801,0.8063812161999999,-9.3475614869,-0.6388836341999999,123
87494,186081,213751,1.0911271056,-9.643075077999999,-0.7848458128,124
87417,186063,213685,1.016949605,-9.6502535458,-0.7848458128,125
87362,186047,213695,0.9320044027,-9.455238503899999,-0.7393821834000001,126
87350,186086,213670,0.9894321450999999,-9.420542576199999,-0.6640082715,127
87335,186160,213749,0.9834500885999999,-9.6095755616,-0.7322037156,128
87357,186176,213761,1.1676974288,-9.5138626576,-0.49531427819999996,129
87418,186210,213847,0.933200814,-9.068797654,-0.41276189849999995,130
87595,186310,213918,1.2729816232,-10.360921858,-1.2000005339,131
87821,186445,214082,0.8721838377000001,-10.073783146,-0.4271188341,132
88042,186523,214038,1.0372885971,-10.083354436399999,-0.7668996433,133
87961,186364,213995,1.2478569859,-10.163513993499999,-0.6041877065,134
87637,186086,213799,0.8099704500999999,-8.9778703952,-0.3684946804,135
87101,185900,213621,1.0719845248,-9.4707918508,-0.7788637562999999,136
86715,185806,213617,1.3639088819999998,-9.700502820399999,-0.7106683122,137
86477,185761,213580,1.0372885971,-9.5150590689,-0.8937192411,138
86380,185702,213575,0.9942177902999999,-9.6263253198,-0.8542376682,139
86366,185709,213554,1.0157531937,-9.7962157244,-0.8470592004,140
86323,185738,213553,1.0791629926,-9.667003304,-0.7716852885,141
86440,185697,213587,1.1318050897999998,-9.7782695549,-0.8877371846000001,142
86467,185701,213596,1.1222337994,-9.69093153,-0.8291130308999999,143
86446,185682,213537,1.1736794853,-9.7052884656,-0.8877371846000001,144
86416,185737,213587,1.0671988796,-9.633503787599999,-0.7980063370999999,145
86288,185698,213610,1.1952148887,-9.6933243526,-0.8506484343,146
86364,185621,213567,1.1090732750999999,-9.6861458848,-0.8338986760999999,147
86369,185720,213616,1.2299108163999999,-9.7483592724,-0.8506484343,148
86379,185681,213574,1.1617153723,-9.6717889492,-0.8051848049,149
86345,185661,213641,1.0959127508,-9.6442714893,-0.7190431913,150
86422,185691,213645,1.1389835576,-9.774680321,-0.9044869428,151
86401,185637,213612,1.2047861791,-9.7351987481,-0.789631458,152
86210,185498,213571,0.9738787981999999,-9.667003304,-0.7812565789,153
85829,185534,213460,1.1461620254,-9.750752095,-0.8171489179,154
85499,185522,213501,1.0456634762,-9.688538707400001,-0.7812565789,155
85350,185495,213503,1.0360921858,-9.6825566509,-0.8135596839999999,156
85276,185495,213530,1.0492527101,-9.6598248362,-0.8231309743999999,157
85254,185528,213568,1.1186445655,-9.6406822554,-0.753739119,158
85336,185400,213583,1.0671988796,-9.6251289085,-0.8697910151,159
85397,185461,213552,1.1868400096,-9.5868437469,-0.8650053699,160
85419,185541,213605,1.1054840412,-9.621539674600001,-0.6305087550999999,161
85388,185481,213530,1.0205388389,-9.7172525786,-0.8063812161999999,162
85395,185471,213545,1.0420742423,-9.7244310464,-0.8111668613999999,163
85349,185458,213545,1.1306086785,-9.674181771799999,-0.753739119,164
85341,185398,213577,1.0121639598,-9.5820581017,-0.7094719009,165
85363,185443,213589,0.9954142015999999,-9.5677011661,-0.6771687957999999,166
85422,185460,213629,0.9870393224999999,-9.6287181424,-0.7944171031999999,167
85409,185452,213601,1.1318050897999998,-9.710074110799999,-0.6628118601999999,168
85444,185433,213590,0.9439685157,-9.6993064091,-0.6400800455,169
85440,185441,213605,1.0947163395,-9.726823869,-0.7489534738,170
85324,185394,213525,1.0061819033000001,-9.634700198900001,-0.6771687957999999,171
85009,185349,213577,0.8673981925,-9.6454679006,-0.6568298037,172
84680,185266,213471,1.1425727915,-9.6813602396,-0.5946164161,173
84487,185238,213510,0.9667003303999999,-9.8297152408,-0.7202396026000001,174
84435,185238,213536,0.9367900479,-9.714859756,-0.6484549246,175
84425,185232,213509,1.0313065406,-9.7722874984,-0.6819544409999999,176
84445,185223,213523,1.0277173067,-9.767501853199999,-0.610169763,177
84554,185256,213545,1.0061819033000001,-9.6179504407,-0.7082754896000001,178
84639,185263,213521,0.9583254512999999,-9.741180804599999,-0.6819544409999999,179
84568,185251,213541,1.1820543644000001,-9.7232346351,-0.6652046827999999,180
84595,185175,213539,0.981057266,-9.7340023368,-0.5539384319,181
84611,185288,213543,1.0253244841,-9.6538427797,-0.5371886737,182
84627,185234,213523,0.9882357338,-9.7076812882,-0.6317051664,183
84664,185214,213517,1.0660024683,-9.8333044747,-0.5324030285,184
84701,185230,213572,1.0229316615,-9.6765745944,-0.5659025448999999,185
84677,185228,213559,0.9403792818,-9.6681997153,-0.5347958510999999,186
84784,185130,213580,0.9367900479,-9.620343263299999,-0.5419743189,187
84862,185203,213570,0.9858429111999999,-9.688538707400001,-0.4761716974,188
84903,185245,213610,0.9463613382999999,-9.7136633447,-0.6843472636,189
84833,185209,213551,0.933200814,-9.7124669334,-0.5048855686,190
84588,185124,213549,0.9427721043999999,-9.750752095,-0.538385085,191
84296,185091,213518,0.8303094421999999,-9.6933243526,-0.6388836341999999,192
84153,185083,213512,0.9655039191,-9.674181771799999,-0.5335994398,193
84131,185071,213503,0.9403792818,-9.7435736272,-0.5371886737,194
84142,185080,213532,0.9846464999,-9.7974121357,-0.5216353268,195
84226,185040,213523,0.9224331123,-9.798608546999999,-0.538385085,196
84328,185084,213513,0.9595218625999999,-9.7244310464,-0.6245266986,197
84309,185094,213562,0.8889335959,-9.6825566509,-0.5108676251000001,198
84424,185048,213569,0.95712904,-9.7244310464,-0.5934200048,199
84421,185132,213528,0.8566304908000001,-9.5940222147,-0.5240281494,200
84429,185016,213522,1.0193424276,-9.7603233854,-0.4606183505,201
84448,185059,213525,1.1928220661,-9.741180804599999,-0.5718846014,202
84474,185071,213506,0.9894321450999999,-9.6502535458,-0.7094719009,203
84506,184953,213550,0.9870393224999999,-9.7064848769,-0.5790630692000001,204
84536,185036,213512,1.0001998468,-9.7471628611,-0.6329015777,205
84559,185039,213564,0.9236295236,-9.7435736272,-0.526420972,206
84599,184991,213522,0.9667003303999999,-9.757930562799999,-0.5324030285,207
84641,185029,213530,0.981057266,-9.655039191,-0.5335994398,208
84673,185094,213493,1.1066804525,-9.7244310464,-0.6496513358999999,209
84608,185024,213466,1.0336993632,-9.8153583052,-0.5599204884,210
84363,184911,213454,1.0325029519,-9.6418786667,-0.6460621019999999,211
84112,184917,213405,1.0923235169,-9.5653083435,-0.6293123438,212
83984,184915,213410,0.9355936366,-9.7196454012,-0.6197410534,213
83960,184904,213373,1.0671988796,-9.6897351187,-0.6903293201,214
83983,184905,213404,1.1545369045,-9.7292166916,-0.5838487144,215
84150,184917,213390,1.0384850084,-9.6454679006,-0.5850451257,216
84201,184956,213413,1.088734283,-9.7591269741,-0.7106683122,217
84267,184907,213426,1.0121639598,-9.728020280299999,-0.729810893,218
84286,184908,213419,1.0971091621,-9.700502820399999,-0.5754738353000001,219
84312,184917,213447,1.0277173067,-9.7483592724,-0.7800601676,220
84315,184955,213443,1.0145567824000001,-9.7172525786,-0.705882667,221
84316,184968,213428,1.1557333158,-9.675378183100001,-0.71784678,222
84359,184890,213458,1.0348957745,-9.6155576181,-0.7274180704000001,223
84404,184947,213432,1.2095718243,-9.7292166916,-0.7226324252,224
84447,184997,213391,1.088734283,-9.6957171752,-0.753739119,225
84522,184964,213468,1.112662509,-9.7710910871,-0.7633104094,226
84522,184991,213445,1.1976077113,-9.6538427797,-0.7872386353999999,227
84575,184937,213454,1.1150553316,-9.8596255233,-0.7010970218,228
84641,184972,213434,1.2035897678,-9.6717889492,-0.8279166196,229
84663,185057,213457,1.1437692028,-9.5748796339,-0.8231309743999999,230
84567,184976,213456,1.1904292435000001,-9.6454679006,-0.8350950873999999,231
84379,184955,213469,1.1617153723,-9.7076812882,-0.8315058535,232
84104,184891,213385,1.1940184774,-9.7232346351,-0.8207381518,233
84004,184784,213403,1.1389835576,-9.589236569499999,-0.8207381518,234
84010,184859,213367,1.1928220661,-9.5808616904,-0.6807580296999999,235
84054,184873,213372,1.1006983959999999,-9.6598248362,-0.6951149653,236
84119,184895,213425,1.1018948073,-9.5677011661,-0.8638089586000001,237
84217,184817,213417,1.0983055734,-9.69093153,-0.7788637562999999,238
84281,184909,213465,1.148554848,-9.6981099978,-0.6879364975,239
84278,184805,213393,1.2394821068,-9.710074110799999,-0.8087740388,240
84286,184890,213434,1.2011969452,-9.6837530622,-0.7226324252,241
84282,184943,213401,1.1868400096,-9.7603233854,-0.7932206919,242
84339,184912,213390,1.172483074,-9.726823869,-0.8231309743999999,243
84349,184892,213391,1.2275179938,-9.750752095,-0.7561319416,244
84395,184834,213393,1.1784651305,-9.643075077999999,-0.6317051664,245
84426,184950,213402,1.184447187,-9.7363951594,-0.6747759731999999,246
84468,184922,213425,1.1760723079,-9.7806623775,-0.8231309743999999,247
84512,184894,213413,1.0995019847,-9.7555377402,-0.8027919822999999,248
84551,184894,213364,1.0384850084,-9.6526463684,-0.6987041992,249
84594,184950,213391,1.148554848,-9.5748796339,-0.8219345630999999,250
84607,184900,213409,1.172483074,-9.6227360859,-0.8051848049,251
84594,184919,213415,1.2011969452,-9.6059863277,-0.8039883936,252
84439,184904,213347,0.9942177902999999,-9.6119683842,-0.7609175868,253
84107,184833,213356,1.4141581566,-9.464809794299999,-0.6209374647,254
83839,184719,213229,1.2311072277,-9.6969135865,-0.7788637562999999,255
83661,184758,213256,1.3639088819999998,-9.9924271776,-0.6747759731999999,256
83650,184842,213313,1.4141581566,-9.6981099978,-0.885344362,257
83699,184901,213418,1.3722837611,-9.4576313265,-0.7441678286,258
83799,184976,213413,1.5230315848999998,-9.661021247499999,-0.7800601676,259
83878,184962,213422,1.2777672683999999,-9.607182739,-0.6999006105000001,260
84013,184988,213503,1.2155538808,-9.702895643,-0.7369893608,261
84114,185011,213484,1.256231865,-9.6227360859,-0.6903293201,262
84220,184877,213457,1.256231865,-9.6646104814,-0.6496513358999999,263
84289,184917,213464,1.2287144051,-9.633503787599999,-0.7034898444000001,264
84354,184973,213469,1.1377871463,-9.661021247499999,-0.6484549246,265
84437,184960,213482,0.9619146851999999,-9.6957171752,-0.6723831506,266
84511,184942,213502,1.0588240005,-9.762716208,-0.5814558918,267
84581,184953,213520,1.0133603711,-9.5581298757,-0.6556333924,268
84665,184971,213572,1.1425727915,-9.7758767323,-0.6173482308,269
84707,184948,213500,0.9367900479,-9.579665279099999,-0.6532405698,270
84785,185007,213457,1.0839486378,-9.785448022699999,-0.6759723845,271
84842,184996,213566,0.9463613382999999,-9.6514499571,-0.5922235935,272
84892,184967,213511,1.0325029519,-9.7483592724,-0.705882667,273
84925,184962,213523,1.1808579531,-9.6933243526,-0.6436692794,274
84838,184975,213409,1.0480562988,-9.741180804599999,-0.6364908116,275
84605,184896,213446,1.040877831,-9.6693961266,-0.5766702466,276
84416,184833,213398,1.0707881135,-9.4731846734,-0.5694917788,277
84334,184799,213436,0.9643075078,-9.8045906035,-0.5611168997,278
84367,184829,213457,0.9044869428,-9.6442714893,-0.5455635528,279
84426,184846,213450,0.8913264185,-9.7710910871,-0.6867400861999999,280
84531,184845,213402,1.0025926694,-9.7722874984,-0.5455635528,281
84636,184876,213459,1.004985492,-9.6035935051,-0.5551348432,282
84698,184880,213440,1.0109675485,-9.7052884656,-0.6317051664,283
84765,184872,213424,1.1186445655,-9.7040920543,-0.5503491979999999,284
84780,184766,213438,1.0660024683,-9.7340023368,-0.4414757697,285
84789,184862,213488,1.1892328322,-9.6634140701,-0.5252245607,286
84849,184902,213455,0.9858429111999999,-9.6442714893,-0.5431707302,287
84899,184846,213447,0.9714859755999999,-9.6562356023,-0.47976093129999997,288
84942,184908,213473,1.0384850084,-9.757930562799999,-0.514456859,289
85011,184900,213423,0.9248259349,-9.7399843933,-0.47377887479999997,290
85055,184909,213485,1.1210373881,-9.7040920543,-0.4414757697,291
85101,184903,213462,0.9834500885999999,-9.732805925500001,-0.49531427819999996,292
85145,184847,213451,1.0073783146,-9.774680321,-0.5276173833,293
85189,184935,213408,1.0779665813,-9.7483592724,-0.5431707302,294
85166,184923,213408,0.9858429111999999,-9.6622176588,-0.5048855686,295
85213,184870,213452,0.9702895642999999,-9.6945207639,-0.5527420206,296
85201,184927,213467,1.1042876299,-9.7423772159,-0.5682953675,297
85101,184880,213380,1.1377871463,-9.687342296099999,-0.502492746,298
84873,184815,213366,1.0875378717,-9.741180804599999,-0.48933222169999996,299
84647,184803,213327,1.1270194446,-9.7136633447,-0.5359922624,300
84520,184635,213347,1.0384850084,-9.7435736272,-0.6149554081999999,301
84479,184734,213317,1.0576275892,-9.7722874984,-0.6269195211999999,302
84514,184768,213341,0.9774680320999999,-9.700502820399999,-0.5766702466,303
84579,184780,213318,1.0145567824000001,-9.6394858441,-0.5060819799,304
84619,184776,213345,1.2119646469,-9.700502820399999,-0.5108676251000001,305
84661,184698,213393,1.0432706536,-9.7292166916,-0.514456859,306
84674,184774,213355,1.0480562988,-9.7196454012,-0.6173482308,307
84659,184794,213324,1.1868400096,-9.6083791503,-0.6711867393,308
84643,184811,213317,1.1581261384000001,-9.7603233854,-0.5252245607,309
84643,184797,213284,1.1234302107,-9.646664311899999,-0.5958128274,310
84674,184760,213294,1.0971091621,-9.7076812882,-0.5623133109999999,311
84640,184765,213319,0.9487541609,-9.8261260069,-0.610169763,312
84738,184768,213322,1.0671988796,-9.562915520899999,-0.5228317381,313
84746,184797,213248,1.0205388389,-9.6454679006,-0.5814558918,314
84791,184805,213309,1.1222337994,-9.6813602396,-0.6460621019999999,315
84786,184800,213303,1.1868400096,-9.7292166916,-0.6532405698,316
84816,184784,213293,1.136590735,-9.7196454012,-0.610169763,317
84822,184798,213270,1.1090732750999999,-9.6275217311,-0.6628118601999999,318
84845,184812,213265,1.0995019847,-9.688538707400001,-0.6029912952,319
84869,184788,213277,1.2179467034,-9.629914553699999,-0.7345965382,320
84820,184860,213328,1.148554848,-9.5413801175,-0.801595571,321
84609,184725,213192,1.1557333158,-9.5461657627,-0.7154539574000001,322
84387,184700,213142,1.1868400096,-9.7435736272,-0.6436692794,323
84256,184592,213159,1.1581261384000001,-9.6263253198,-0.7274180704000001,324
84207,184639,213171,1.1700902514,-9.7076812882,-0.7238288365000001,325
84231,184701,213191,1.244267752,-9.6598248362,-0.6963113766000001,326
84280,184715,213197,1.2263215825,-9.6765745944,-0.6795616184,327
84343,184725,213191,1.1820543644000001,-9.7363951594,-0.7752745223999999,328
84415,184729,213167,1.1856435983,-9.714859756,-0.7345965382,329
84383,184712,213196,1.1270194446,-9.5581298757,-0.6388836341999999,330
84361,184691,213189,1.2933206153,-9.7519485063,-0.7968099258,331
84389,184687,213185,1.2634103328,-9.6861458848,-0.8111668613999999,332
84343,184676,213115,1.2622139215000001,-9.6729853605,-0.6388836341999999,333
84311,184732,213157,1.2705888006,-9.714859756,-0.7585247642,334
84395,184707,213121,1.1042876299,-9.714859756,-0.7441678286,335
84421,184687,213162,1.1557333158,-9.757930562799999,-0.6448656907,336
84447,184713,213152,1.244267752,-9.799804958300001,-0.7585247642,337
84466,184731,213143,1.2275179938,-9.7483592724,-0.6807580296999999,338
84500,184719,213130,1.1808579531,-9.7531449176,-0.7848458128,339
84540,184750,213149,1.088734283,-9.8237331843,-0.6699903279999999,340
84564,184718,213157,1.1856435983,-9.741180804599999,-0.7764709337,341
84626,184748,213154,1.1784651305,-9.757930562799999,-0.7226324252,342
84647,184741,213201,1.2514462198,-9.6622176588,-0.6376872229,343
84573,184609,213098,1.1054840412,-9.6993064091,-0.610169763,344
84402,184645,213080,1.0277173067,-9.7567341515,-0.6723831506,345
84200,184617,213086,1.0504491214,-9.7758767323,-0.6137589969,346
84097,184635,213086,1.0875378717,-9.6454679006,-0.7070790783,347
84083,184638,213106,1.07677017,-9.661021247499999,-0.7190431913,348
84121,184662,213146,1.1389835576,-9.5557370531,-0.5850451257,349
84180,184572,213102,1.0983055734,-9.667003304,-0.6209374647,350
84257,184674,213141,1.0947163395,-9.7196454012,-0.7345965382,351
84374,184718,213152,1.2239287599,-9.6275217311,-0.6496513358999999,352
84358,184686,213121,1.1641081949,-9.702895643,-0.59820565,353
84368,184702,213075,1.1688938401,-9.6705925379,-0.6209374647,354
84363,184738,213138,1.0660024683,-9.5808616904,-0.6340979889999999,355
84414,184695,213144,1.1186445655,-9.7160561673,-0.6137589969,356
84436,184706,213168,1.0803594039,-9.7040920543,-0.7250252478,357
84512,184718,213136,1.1473584366999998,-9.8249295956,-0.6233302873,358
84560,184637,213173,1.016949605,-9.7686982645,-0.5515456093,359
84643,184781,213166,1.0217352502000001,-9.598807859899999,-0.5515456093,360
84660,184642,213110,0.9930213789999999,-9.7184489899,-0.5922235935,361
84703,184726,213159,1.016949605,-9.6777710057,-0.5395814963,362
84739,184739,213130,1.0325029519,-9.7292166916,-0.6245266986,363
84806,184789,213126,1.1700902514,-9.738787982,-0.610169763,364
84851,184703,213124,1.0313065406,-9.726823869,-0.6233302873,365
84897,184758,213120,1.1150553316,-9.6945207639,-0.5455635528,366
84900,184763,213117,1.0181460163,-9.7160561673,-0.6711867393,367
84779,184728,213111,1.0097711372,-9.6622176588,-0.6173482308,368
84571,184676,213068,1.0313065406,-9.6598248362,-0.6915257314000001,369
84427,184560,213068,0.9475577495999999,-9.6777710057,-0.5371886737,370
84402,184607,213068,1.1042876299,-9.7926264905,-0.6293123438,371
84423,184666,213093,0.969093153,-9.6729853605,-0.5479563754,372
84497,184625,213079,1.0947163395,-9.7806623775,-0.5371886737,373
84587,184660,213097,1.0995019847,-9.7124669334,-0.5790630692000001,374
84685,184677,213100,1.1042876299,-9.633503787599999,-0.6125625856,375
84734,184709,213136,0.969093153,-9.7531449176,-0.5407779076,376
84739,184711,213084,1.004985492,-9.7375915707,-0.4366901245,377
84752,184714,213125,0.9930213789999999,-9.700502820399999,-0.5359922624,378
84752,184733,213101,1.0624132344,-9.6478607232,-0.5168496816,379
84820,184735,213086,1.1341979124,-9.7340023368,-0.5192425042,380
84863,184602,213136,1.0277173067,-9.767501853199999,-0.4558327053,381
84915,184651,213154,0.921236701,-9.7698946758,-0.5335994398,382
84954,184691,213133,1.0504491214,-9.6502535458,-0.526420972,383
84988,184753,213097,0.9523433948,-9.741180804599999,-0.3840480273,384
85030,184718,213085,0.8877371846000001,-9.6442714893,-0.5503491979999999,385
85143,184809,213076,1.0755737587,-9.744770038499999,-0.4821537539,386
85170,184791,213119,0.9068797654,-9.6921279413,-0.4558327053,387
85154,184787,213111,0.9786644433999999,-9.767501853199999,-0.5431707302,388
85187,184768,213107,1.2215359373,-9.6382894328,-0.5623133109999999,389
85152,184677,213058,1.0157531937,-9.7651090306,-0.5503491979999999,390
85044,184719,213047,0.95712904,-9.741180804599999,-0.5455635528,391
84811,184662,213015,0.9296115801,-9.6837530622,-0.3888336725,392
84619,184614,213013,0.9355936366,-9.7016992317,-0.4761716974,393
84546,184668,212949,1.1784651305,-9.738787982,-0.5000999234,394
84545,184633,212993,1.0241280728,-9.81057266,-0.5324030285,395
84543,184612,212969,0.9523433948,-9.7124669334,-0.47856452,396
84604,184637,213014,1.1473584366999998,-9.762716208,-0.5228317381,397
84607,184647,212957,0.9200402897,-9.646664311899999,-0.6556333924,398
84625,184665,213007,1.0743773474,-9.7770731436,-0.6640082715,399
84627,184596,212965,1.07677017,-9.6442714893,-0.5670989562,400
84595,184604,212935,1.0755737587,-9.7435736272,-0.5120640364,401
84593,184622,212906,1.1461620254,-9.7651090306,-0.5527420206,402
84580,184532,212906,1.1389835576,-9.6634140701,-0.6364908116,403
84573,184577,212955,1.1174481541999999,-9.6227360859,-0.6185446421,404
84608,184545,212911,1.1401799688999998,-9.6861458848,-0.5575276658,405
84619,184597,212919,1.1102696864,-9.631110965,-0.5084748025,406
84634,184637,212927,1.0325029519,-9.750752095,-0.5886343596,407
84648,184653,212919,1.0229316615,-9.6131647955,-0.6460621019999999,408
84682,184645,212899,0.8769694829,-9.7435736272,-0.6293123438,409
84687,184552,212921,1.1413763801999999,-9.6574320136,-0.5156532703,410
84698,184670,212922,1.2011969452,-9.69093153,-0.5694917788,411
84723,184640,212906,1.1437692028,-9.774680321,-0.6987041992,412
84726,184649,212960,1.064806057,-9.6275217311,-0.7082754896000001,413
84640,184646,212880,1.1461620254,-9.607182739,-0.5395814963,414
84426,184500,212845,1.2358928729,-9.6957171752,-0.6029912952,415
84233,184534,212813,1.1054840412,-9.7124669334,-0.6747759731999999,416
84131,184566,212781,1.160518961,-9.6849494735,-0.7106683122,417
84161,184555,212840,1.1820543644000001,-9.6370930215,-0.7022934331,418
84124,184512,212790,1.2047861791,-9.6837530622,-0.6352944003,419
84050,184521,212802,1.2191431147,-9.7196454012,-0.6795616184,420
84189,184461,212846,1.1102696864,-9.7124669334,-0.6963113766000001,421
84222,184530,212793,1.1760723079,-9.6119683842,-0.6448656907,422
84191,184548,212828,1.1940184774,-9.69093153,-0.7226324252,423
84178,184530,212802,1.2610175101999999,-9.714859756,-0.71784678,424
84156,184512,212798,1.1868400096,-9.6454679006,-0.6795616184,425
84068,184512,212808,1.1437692028,-9.7220382238,-0.7393821834000001,426
84189,184453,212808,1.1377871463,-9.7651090306,-0.71784678,427
84212,184516,212762,1.0683952909,-9.6155576181,-0.6771687957999999,428
84240,184577,212818,1.0779665813,-9.7292166916,-0.6891329087999999,429
84275,184550,212841,1.1461620254,-9.6981099978,-0.7262216591,430
84316,184556,212766,1.112662509,-9.6012006825,-0.6029912952,431
84324,184558,212746,1.2167502921,-9.5940222147,-0.6891329087999999,432
84366,184483,212783,1.2346964616,-9.741180804599999,-0.6604190376,433
84397,184545,212769,1.1246266219999999,-9.5700939887,-0.7010970218,434
84422,184644,212785,1.148554848,-9.6921279413,-0.6843472636,435
84460,184573,212793,1.2155538808,-9.6179504407,-0.6831508522999999,436
84405,184539,212773,1.07677017,-9.619146852,-0.6795616184,437
84250,184543,212709,1.0552347666,-9.5916293921,-0.6113661743,438
84094,184470,212704,1.0935199281999999,-9.8548398781,-0.6975077879,439
84003,184493,212755,1.1736794853,-9.6897351187,-0.6161518195,440
83966,184467,212732,1.1641081949,-9.7962157244,-0.6568298037,441
84047,184489,212769,1.0265208954,-9.6442714893,-0.6077769404,442
84085,184394,212768,1.2299108163999999,-9.5724868113,-0.6556333924,443
84154,184475,212756,1.1461620254,-9.738787982,-0.5659025448999999,444
84197,184548,212772,1.1653046062,-9.8189475391,-0.6508477471999999,445
84238,184528,212771,1.160518961,-9.554540641800001,-0.6269195211999999,446
84251,184525,212729,1.0612168231,-9.785448022699999,-0.7668996433,447
84278,184494,212721,1.0504491214,-9.6323073763,-0.5994020613,448
84320,184533,212750,1.1258230332999999,-9.6646104814,-0.6436692794,449
84363,184543,212769,1.052841944,-9.5437729401,-0.5431707302,450
84428,184557,212794,1.0839486378,-9.6083791503,-0.586241537,451
84375,184559,212807,1.160518961,-9.6586284249,-0.5563312545,452
84536,184493,212798,0.9667003303999999,-9.7483592724,-0.5228317381,453
84566,184552,212822,1.1018948073,-9.7531449176,-0.5539384319,454
84633,184570,212818,1.0097711372,-9.6765745944,-0.6819544409999999,455
84667,184612,212819,1.0205388389,-9.7818587888,-0.5599204884,456
84754,184604,212852,0.9750752094999999,-9.6562356023,-0.5431707302,457
84779,184630,212817,1.0636096457,-9.7770731436,-0.6508477471999999,458
84760,184616,212799,1.07677017,-9.7555377402,-0.6723831506,459
84816,184528,212787,1.1294122672,-9.6155576181,-0.47976093129999997,460
84655,184548,212772,0.9044869428,-9.6957171752,-0.6460621019999999,461
84488,184511,212743,1.0827522265,-9.6993064091,-0.5826523031,462
84409,184530,212744,0.9966106129000001,-9.7172525786,-0.48574298779999997,463
84425,184551,212737,1.0432706536,-9.7399843933,-0.586241537,464
84437,184529,212749,1.0695917021999999,-9.6490571345,-0.6197410534,465
84474,184469,212776,1.004985492,-9.7555377402,-0.5527420206,466
84554,184551,212825,0.9427721043999999,-9.6717889492,-0.4677968183,467
84615,184641,212788,1.0145567824000001,-9.6418786667,-0.6077769404,468
84580,184589,212736,0.9511469834999999,-9.7710910871,-0.526420972,469
84689,184507,212755,0.8626125473,-9.774680321,-0.574277424,470
84713,184562,212800,0.9379864592,-9.7040920543,-0.4558327053,471
84762,184679,212771,0.9583254512999999,-9.7375915707,-0.4881358104,472
84810,184613,212804,0.9403792818,-9.7950193131,-0.5060819799,473
84854,184615,212807,0.9343972253,-9.812965482600001,-0.5790630692000001,474
84904,184605,212748,1.1090732750999999,-9.714859756,-0.49531427819999996,475
84945,184617,212781,0.9020941202,-9.675378183100001,-0.4235296002,476
84993,184690,212813,1.016949605,-9.6394858441,-0.48933222169999996,477
85049,184627,212805,1.0480562988,-9.7196454012,-0.49531427819999996,478
85071,184644,212796,0.9870393224999999,-9.6933243526,-0.4103690759,479
85100,184661,212788,1.028913718,-9.7052884656,-0.4474578262,480
85165,184591,212850,0.9619146851999999,-9.688538707400001,-0.454636294,481
85163,184634,212806,1.1066804525,-9.7555377402,-0.5623133109999999,482
85152,184625,212759,0.9200402897,-9.6586284249,-0.574277424,483
85096,184659,212759,1.0217352502000001,-9.5964150373,-0.48574298779999997,484
84837,184533,212720,1.0552347666,-9.655039191,-0.5288137946,485
84642,184534,212643,1.0516455327,-9.678967417,-0.5312066172,486
84558,184507,212665,1.07677017,-9.728020280299999,-0.5599204884,487
84530,184485,212691,0.9511469834999999,-9.6945207639,-0.5647061336,488
84512,184522,212681,0.8877371846000001,-9.8368937086,-0.4295116567,489
84549,184499,212648,0.9667003303999999,-9.8177511278,-0.4606183505,490
84578,184512,212689,1.1030912186,-9.6921279413,-0.5395814963,491
84589,184457,212688,1.1054840412,-9.726823869,-0.466600407,492
84571,184481,212680,0.9918249677,-9.6574320136,-0.574277424,493
84455,184505,212645,0.9439685157,-9.7734839097,-0.6819544409999999,494
84510,184481,212612,1.040877831,-9.6981099978,-0.5503491979999999,495
84539,184506,212659,1.088734283,-9.7483592724,-0.4606183505,496
84527,184448,212634,1.1114660977,-9.7794659662,-0.5060819799,497
84535,184535,212574,1.1461620254,-9.5748796339,-0.6604190376,498
84562,184484,212588,1.2023933565,-9.8500542329,-0.5551348432,499
84577,184480,212656,1.0779665813,-9.6825566509,-0.6496513358999999,500
84551,184517,212613,1.2011969452,-9.750752095,-0.6077769404,501
84591,184462,212649,1.2669995667,-9.6227360859,-0.5730810127,502
84597,184441,212596,1.1916256548,-9.741180804599999,-0.59820565,503
84619,184498,212610,1.1054840412,-9.6933243526,-0.5778666579,504
84622,184509,212594,1.2993026717999998,-9.7172525786,-0.6891329087999999,505
84606,184494,212633,1.2765708571,-9.631110965,-0.6041877065,506
84538,184488,212568,1.1114660977,-9.7292166916,-0.5730810127,507
84365,184423,212550,1.1054840412,-9.7220382238,-0.5754738353000001,508
84146,184411,212506,1.1772687192,-9.7172525786,-0.6628118601999999,509
84027,184406,212538,1.1772687192,-9.5485585853,-0.6723831506,510
83987,184351,212519,1.2693923893,-9.6454679006,-0.7154539574000001,511
83955,184374,212502,1.1557333158,-9.6945207639,-0.6747759731999999,512
83961,184398,212530,1.2574282763000002,-9.6825566509,-0.7513462964000001,513
84010,184365,212465,1.2035897678,-9.6502535458,-0.7441678286,514
84024,184436,212481,1.2394821068,-9.6406822554,-0.6687939167,515
84000,184360,212498,1.1904292435000001,-9.6897351187,-0.7094719009,516
83976,184345,212523,1.1581261384000001,-9.619146852,-0.7453642399,517
83877,184371,212498,1.3028919057000001,-9.6143612068,-0.6987041992,518
83945,184350,212440,1.1234302107,-9.6646104814,-0.7393821834000001,519
83959,184362,212464,1.0971091621,-9.6981099978,-0.71784678,520
83966,184355,212507,1.2394821068,-9.5736832226,-0.59820565,521
83992,184336,212501,1.2011969452,-9.6251289085,-0.7070790783,522
84019,184355,212435,1.0540383553,-9.8141618939,-0.7728816998,523
84054,184389,212487,1.2574282763000002,-9.667003304,-0.7561319416,524
84083,184421,212463,1.1509476706000001,-9.6693961266,-0.6951149653,525
84119,184343,212487,1.2909277927,-9.6227360859,-0.7226324252,526
84138,184375,212476,1.1437692028,-9.5700939887,-0.5611168997,527
84201,184436,212506,1.0133603711,-9.7363951594,-0.6915257314000001,528
84143,184389,212505,1.2311072277,-9.937392257800001,-0.6675975054,529
84228,184362,212452,1.1222337994,-9.6693961266,-0.7190431913,530
84158,184409,212475,1.0540383553,-9.762716208,-0.6699903279999999,531
83979,184343,212413,1.0193424276,-9.6945207639,-0.7274180704000001,532
83828,184314,212450,1.1880364209,-9.745966449800001,-0.5934200048,533
83737,184329,212421,1.1078768638,-9.7782695549,-0.6412764568,534
83742,184318,212437,0.9631110964999999,-9.6095755616,-0.6747759731999999,535
83755,184251,212466,1.1892328322,-9.6981099978,-0.6711867393,536
83778,184322,212447,1.1330015010999999,-9.8010013696,-0.7022934331,537
83847,184323,212419,1.1150553316,-9.6035935051,-0.6245266986,538
83884,184357,212500,1.1258230332999999,-9.6693961266,-0.6376872229,539
83925,184343,212463,1.1509476706000001,-9.6849494735,-0.5946164161,540
83925,184321,212489,1.1856435983,-9.6478607232,-0.705882667,541
83952,184411,212491,1.0863414604,-9.6813602396,-0.6197410534,542
83966,184368,212461,1.0671988796,-9.7196454012,-0.5551348432,543
84019,184375,212511,1.2550354537,-9.7435736272,-0.5539384319,544
84079,184427,212523,1.0540383553,-9.8045906035,-0.6281159325,545
84145,184422,212521,1.1952148887,-9.6586284249,-0.5958128274,546
84169,184330,212539,1.1832507757,-9.655039191,-0.6508477471999999,547
84226,184472,212533,1.0959127508,-9.6562356023,-0.5706881900999999,548
84296,184489,212592,1.0803594039,-9.6502535458,-0.6245266986,549
84339,184453,212550,1.0181460163,-9.786644434,-0.5922235935,550
84431,184474,212559,0.9619146851999999,-9.7232346351,-0.6436692794,551
84376,184476,212587,0.945164927,-9.757930562799999,-0.6173482308,552
84521,184435,212548,1.0480562988,-9.750752095,-0.5694917788,553
84533,184532,212535,1.1401799688999998,-9.726823869,-0.5419743189,554
84459,184443,212533,1.0731809361,-9.7316095142,-0.5718846014,555
84271,184368,212519,0.95712904,-9.6969135865,-0.49651068949999994,556
84145,184397,212463,0.9619146851999999,-9.6933243526,-0.5000999234,557
84063,184340,212513,1.0241280728,-9.6442714893,-0.5312066172,558
84103,184392,212497,1.112662509,-9.8057870148,-0.5300102059,559
84124,184407,212505,1.1461620254,-9.702895643,-0.5443671415,560
84188,184397,212500,1.0253244841,-9.583254513,-0.5288137946,561
84315,184451,212538,1.0516455327,-9.700502820399999,-0.5874379483000001,562
84329,184421,212513,0.9858429111999999,-9.7639126193,-0.5335994398,563
84357,184384,212566,0.9798608547,-9.745966449800001,-0.46540399569999996,564
84378,184463,212544,1.0827522265,-9.5712904,-0.5359922624,565
84394,184447,212544,1.088734283,-9.6849494735,-0.47736810869999996,566
84428,184435,212580,1.0121639598,-9.8548398781,-0.622133876,567
84427,184448,212553,0.9762716208,-9.8249295956,-0.59820565,568
84536,184478,212569,0.9834500885999999,-9.786644434,-0.5503491979999999,569
84571,184521,212622,0.9355936366,-9.7926264905,-0.5096712138,570
84620,184437,212537,1.0468598875,-9.7567341515,-0.4689932296,571
84635,184545,212554,0.9463613382999999,-9.7890372566,-0.5168496816,572
84695,184494,212535,1.0827522265,-9.646664311899999,-0.6305087550999999,573
84689,184506,212536,1.0193424276,-9.6382894328,-0.5455635528,574
84713,184439,212557,1.0707881135,-9.6442714893,-0.5288137946,575
84744,184512,212553,0.9882357338,-9.6418786667,-0.5096712138,576
84748,184510,212527,1.0121639598,-9.7172525786,-0.48335016519999996,577
84726,184487,212498,1.1030912186,-9.738787982,-0.5994020613,578
84586,184455,212484,1.0241280728,-9.678967417,-0.5168496816,579
84366,184372,212436,1.0827522265,-9.629914553699999,-0.48095734259999995,580
84213,184314,212408,1.1437692028,-9.687342296099999,-0.574277424,581
84129,184341,212441,0.9774680320999999,-9.7423772159,-0.4390829471,582
84102,184405,212478,1.0719845248,-9.7363951594,-0.5419743189,583
84091,184362,212442,1.1820543644000001,-9.6622176588,-0.5479563754,584
84136,184322,212421,1.1174481541999999,-9.6813602396,-0.5647061336,585
84147,184444,212401,0.9702895642999999,-9.8285188295,-0.5240281494,586
84152,184333,212411,1.1222337994,-9.7686982645,-0.5910271822000001,587
84153,184349,212395,1.1306086785,-9.7196454012,-0.4881358104,588
84102,184372,212404,1.028913718,-9.7435736272,-0.5503491979999999,589
84123,184355,212371,1.0695917021999999,-9.6981099978,-0.6855436748999999,590
84106,184335,212362,1.2933206153,-9.7615197967,-0.5551348432,591
84101,184241,212432,1.1006983959999999,-9.5964150373,-0.6580262149999999,592
84114,184341,212421,1.1808579531,-9.7471628611,-0.6388836341999999,593
84132,184410,212396,1.148554848,-9.6693961266,-0.5934200048,594
84143,184321,212422,1.1461620254,-9.726823869,-0.6675975054,595
84165,184234,212376,1.1700902514,-9.6382894328,-0.5324030285,596
84157,184344,212382,1.1413763801999999,-9.688538707400001,-0.5611168997,597
84178,184385,212386,1.2693923893,-9.744770038499999,-0.7202396026000001,598
84190,184362,212395,1.0755737587,-9.6622176588,-0.6795616184,599
84191,184372,212384,1.0552347666,-9.7698946758,-0.610169763,600
84202,184365,212373,1.088734283,-9.667003304,-0.7633104094,601
84094,184333,212319,1.0863414604,-9.7016992317,-0.71784678,602
84030,184282,212292,1.1904292435000001,-9.678967417,-0.6795616184,603
83795,184253,212280,1.1246266219999999,-9.4408815683,-0.6867400861999999,604
83643,184158,212284,1.1688938401,-9.7112705221,-0.6915257314000001,605
83602,184242,212260,1.1497512593,-9.6777710057,-0.7202396026000001,606
83563,184248,212240,1.1916256548,-9.6119683842,-0.6711867393,607
83600,184236,212241,1.2155538808,-9.6406822554,-0.7154539574000001,608
83606,184243,212332,1.2370892842,-9.5784688678,-0.7369893608,609
83629,184216,212270,1.1629117836,-9.69093153,-0.7968099258,610
83638,184199,212274,1.232303639,-9.6993064091,-0.6568298037,611
83623,184198,212290,1.2071790017,-9.6586284249,-0.6017948839,612
83532,184220,212285,1.0911271056,-9.5557370531,-0.7752745223999999,613
83615,184183,212294,1.1401799688999998,-9.6921279413,-0.7680960546,614
83636,184263,212264,1.1988041226,-9.6059863277,-0.7728816998,615
83665,184217,212264,1.1676974288,-9.6801638283,-0.7956135145,616
83711,184147,212262,1.1006983959999999,-9.6239324972,-0.7345965382,617
83741,184205,212267,1.2693923893,-9.655039191,-0.6520441585,618
83800,184242,212300,1.2825529136,-9.621539674600001,-0.7010970218,619
83812,184230,212301,1.1473584366999998,-9.7663054419,-0.6807580296999999,620
83846,184210,212281,1.07677017,-9.5916293921,-0.6987041992,621
83871,184251,212295,1.1880364209,-9.7435736272,-0.6652046827999999,622
83979,184319,212304,1.1569297271,-9.6526463684,-0.5802594805,623
84016,184301,212351,1.1318050897999998,-9.7435736272,-0.6197410534,624
84037,184211,212298,1.1988041226,-9.7842516114,-0.7154539574000001,625
84015,184265,212312,1.2406785181,-9.8057870148,-0.7286144817,626
83902,184229,212244,1.1688938401,-9.6729853605,-0.6197410534,627
83744,184181,212272,1.2095718243,-9.7172525786,-0.5563312545,628
83640,184200,212257,1.2023933565,-9.7878408453,-0.6149554081999999,629
83639,184194,212274,1.2358928729,-9.726823869,-0.5647061336,630
83640,184183,212321,1.0791629926,-9.559326287,-0.6795616184,631
83695,184205,212287,1.0983055734,-9.6765745944,-0.6628118601999999,632
83763,184245,212291,1.1042876299,-9.5880401582,-0.6364908116,633
83812,184236,212304,1.0671988796,-9.6837530622,-0.6987041992,634
83881,184272,212347,1.1018948073,-9.5581298757,-0.6843472636,635
83899,184267,212385,1.1066804525,-9.6777710057,-0.6891329087999999,636
83938,184261,212358,1.1090732750999999,-9.7196454012,-0.5790630692000001,637
84000,184272,212309,1.1114660977,-9.741180804599999,-0.6029912952,638
84031,184300,212350,1.1904292435000001,-9.8680004024,-0.5132604477,639
84076,184205,212318,1.0947163395,-9.6155576181,-0.6831508522999999,640
84130,184351,212311,1.1258230332999999,-9.7016992317,-0.622133876,641
84207,184347,212363,1.0025926694,-9.7531449176,-0.6077769404,642
84272,184342,212360,1.0719845248,-9.6239324972,-0.5910271822000001,643
84322,184392,212388,1.088734283,-9.6514499571,-0.5754738353000001,644
84389,184350,212365,1.1808579531,-9.7435736272,-0.622133876,645
84446,184351,212393,1.0719845248,-9.6765745944,-0.574277424,646
84501,184349,212381,1.0600204118,-9.6957171752,-0.526420972,647
84586,184381,212379,1.1150553316,-9.762716208,-0.5443671415,648
84682,184373,212417,1.1425727915,-9.8021977809,-0.5766702466,649
84582,184396,212352,1.0121639598,-9.6801638283,-0.6197410534,650
84613,184311,212345,0.8937192411,-9.5844509243,-0.4821537539,651
84450,184313,212329,0.9619146851999999,-9.8045906035,-0.5180460929,652
84357,184291,212322,1.0073783146,-9.7842516114,-0.5096712138,653
84332,184215,212285,1.1210373881,-9.8512506442,-0.6664010940999999,654
84343,184277,212362,1.1006983959999999,-9.6490571345,-0.4941178669,655
84375,184360,212325,1.0325029519,-9.7232346351,-0.46540399569999996,656
84457,184327,212369,1.016949605,-9.8057870148,-0.5096712138,657
84534,184342,212396,1.1018948073,-9.6993064091,-0.48933222169999996,658
84570,184338,212356,0.8877371846000001,-9.6945207639,-0.3840480273,659
84607,184374,212384,1.0552347666,-9.702895643,-0.5455635528,660
84660,184365,212384,0.9595218625999999,-9.714859756,-0.5168496816,661
84694,184278,212406,1.0193424276,-9.6897351187,-0.5216353268,662
84732,184354,212412,1.0600204118,-9.6394858441,-0.5790630692000001,663
84802,184427,212388,0.9906285563999999,-9.6394858441,-0.48095734259999995,664
84840,184405,212403,1.0863414604,-9.774680321,-0.4761716974,665
84899,184401,212415,1.1306086785,-9.750752095,-0.48335016519999996,666
84851,184426,212436,1.0683952909,-9.6418786667,-0.5814558918,667
84989,184337,212419,0.9667003303999999,-9.774680321,-0.5312066172,668
85021,184407,212388,1.0803594039,-9.8452685877,-0.5826523031,669
85114,184468,212369,0.9080761767,-9.7639126193,-0.4534398827,670
85103,184455,212379,0.9523433948,-9.6933243526,-0.5850451257,671
85131,184427,212370,1.0540383553,-9.6586284249,-0.49172504429999997,672
85164,184456,212385,1.052841944,-9.7555377402,-0.526420972,673
85188,184450,212375,1.1162517428999998,-9.7830552001,-0.5395814963,674
85116,184436,212383,1.0743773474,-9.7651090306,-0.5108676251000001,675
85050,184323,212337,0.9475577495999999,-9.598807859899999,-0.4079762533,676
84839,184341,212306,1.0683952909,-9.7914300792,-0.5551348432,677
84670,184346,212270,1.1042876299,-9.7531449176,-0.48335016519999996,678
84596,184269,212278,1.1425727915,-9.6993064091,-0.5898307709,679
84584,184302,212268,1.1018948073,-9.6933243526,-0.538385085,680
84563,184349,212253,1.0671988796,-9.7603233854,-0.4414757697,681
84600,184312,212274,0.9798608547,-9.7052884656,-0.5670989562,682
84605,184299,212292,1.0995019847,-9.6598248362,-0.5910271822000001,683
84619,184272,212225,1.0061819033000001,-9.674181771799999,-0.5802594805,684
84611,184303,212201,1.1389835576,-9.6813602396,-0.6257231099,685
84568,184282,212256,1.0325029519,-9.702895643,-0.48693939909999995,686
84566,184283,212222,1.0265208954,-9.5282195932,-0.4845465765,687
84564,184283,212275,1.0660024683,-9.6000042712,-0.6161518195,688
84582,184306,212216,1.1425727915,-9.6957171752,-0.6556333924,689
84568,184315,212272,1.1437692028,-9.7040920543,-0.6508477471999999,690
84603,184178,212291,1.1270194446,-9.6418786667,-0.5491527867,691
84627,184332,212240,1.1318050897999998,-9.6813602396,-0.5611168997,692
84628,184296,212271,1.1688938401,-9.732805925500001,-0.6053841178,693
84607,184308,212257,1.1581261384000001,-9.69093153,-0.6412764568,694
84639,184278,212228,1.1270194446,-9.6957171752,-0.6723831506,695
84658,184374,212216,1.0193424276,-9.6705925379,-0.6197410534,696
84684,184305,212213,1.1557333158,-9.6933243526,-0.6568298037,697
84700,184361,212232,1.1461620254,-9.6179504407,-0.6077769404,698
84698,184322,212211,1.2406785181,-9.6502535458,-0.6053841178,699
84751,184343,212207,1.1760723079,-9.6598248362,-0.5874379483000001,700
84730,184324,212233,1.016949605,-9.6861458848,-0.44386859230000003,701
84528,184135,212197,1.1150553316,-9.6981099978,-0.5670989562,702
84367,184225,212139,0.9930213789999999,-9.6502535458,-0.6269195211999999,703
84271,184223,212166,1.0061819033000001,-9.6227360859,-0.5347958510999999,704
84258,184231,212176,1.0444670649,-9.726823869,-0.6053841178,705
84260,184252,212195,1.1090732750999999,-9.8141618939,-0.5180460929,706
84205,184231,212212,1.088734283,-9.646664311899999,-0.5347958510999999,707
84353,184214,212195,1.1234302107,-9.6861458848,-0.6652046827999999,708
84392,184311,212168,1.1210373881,-9.7758767323,-0.6436692794,709
84441,184291,212253,1.0731809361,-9.741180804599999,-0.5431707302,710
84416,184264,212193,1.088734283,-9.6538427797,-0.6628118601999999,711
84452,184316,212216,1.0217352502000001,-9.629914553699999,-0.5192425042,712
84497,184319,212241,1.0109675485,-9.726823869,-0.5012963347,713
84509,184342,212252,1.1138589203,-9.6981099978,-0.48933222169999996,714
84577,184262,212235,0.9714859755999999,-9.7244310464,-0.4845465765,715
84625,184311,212304,0.9990034355,-9.7663054419,-0.5599204884,716
84711,184357,212254,1.0695917021999999,-9.6801638283,-0.5551348432,717
84735,184377,212346,1.0995019847,-9.7938229018,-0.49770710079999997,718
84789,184301,212321,1.0145567824000001,-9.702895643,-0.44985064880000003,719
84846,184346,212323,0.9882357338,-9.69093153,-0.5312066172,720
84888,184395,212345,0.9152546444999999,-9.5844509243,-0.6604190376,721
84948,184375,212324,1.0193424276,-9.6849494735,-0.6173482308,722
84983,184447,212305,1.0348957745,-9.8045906035,-0.5659025448999999,723
85063,184387,212386,1.2095718243,-9.7818587888,-0.5647061336,724
85112,184411,212381,1.0217352502000001,-9.8404829425,-0.5240281494,725
85190,184448,212357,1.0480562988,-9.7076812882,-0.6340979889999999,726
85137,184440,212349,0.9523433948,-9.7208418125,-0.46540399569999996,727
85065,184309,212335,1.0097711372,-9.69093153,-0.5814558918,728
84874,184365,212295,0.8482556117000001,-9.620343263299999,-0.48693939909999995,729
84684,184375,212252,0.9643075078,-9.8045906035,-0.42831524540000004,730
84614,184352,212263,1.0157531937,-9.7519485063,-0.5096712138,731
84554,184366,212291,1.0013962581,-9.583254513,-0.4821537539,732
84543,184398,212319,0.9152546444999999,-9.6251289085,-0.5515456093,733
84557,184404,212339,0.8697910151,-9.710074110799999,-0.6125625856,734
84571,184343,212346,0.9499505722,-9.6119683842,-0.6436692794,735
84551,184407,212337,1.1377871463,-9.7770731436,-0.6161518195,736
84521,184419,212330,0.7932206919,-9.6143612068,-0.6532405698,737
84427,184391,212301,1.0863414604,-9.8153583052,-0.6053841178,738
84479,184337,212310,0.8757730716000001,-9.7244310464,-0.6245266986,739
84468,184368,212326,0.6125625856,-9.8069834261,-0.4570291166,740
84504,184393,212296,1.459621786,-9.5437729401,-0.36969109170000003,741
84527,184382,212298,1.2933206153,-9.1812603162,-0.6819544409999999,742
84577,184355,212298,1.2490533972,-8.997012975999999,-0.5371886737,743
84502,184399,212288,0.8781658942,-9.6418786667,-0.6113661743,744
84603,184354,212277,0.9260223462,-9.6323073763,-0.5694917788,745
84605,184435,212273,0.8135596839999999,-9.932606612599999,-0.44386859230000003,746
84647,184452,212302,1.1832507757,-9.629914553699999,-0.5132604477,747
84689,184421,212320,1.0384850084,-9.598807859899999,-0.6987041992,748
84725,184461,212283,0.9918249677,-9.7567341515,-0.753739119,749
84749,184445,212277,1.0731809361,-9.6370930215,-0.6352944003,750
84773,184443,212303,1.0145567824000001,-9.7651090306,-0.6340979889999999,751
84772,184426,212305,1.2000005339,-9.69093153,-0.6137589969,752
84711,184407,212279,1.0432706536,-9.7172525786,-0.5419743189,753
84521,184393,212213,1.3328021881999998,-9.7471628611,-0.370887503,754
84345,184352,212233,1.3124631961,-9.5772724565,-0.40319060809999996,755
84246,184332,212222,1.1748758966000001,-9.6502535458,-0.5539384319,756
84198,184355,212211,1.1700902514,-9.6717889492,-0.705882667,757
84164,184341,212263,1.1282158559,-9.7196454012,-0.6592226263,758
84148,184334,212223,0.9260223462,-9.710074110799999,-0.6867400861999999,759
84117,184313,212217,1.0624132344,-9.7686982645,-0.8709874264,760
84113,184334,212231,1.1617153723,-9.6131647955,-0.777667345,761
84004,184311,212208,1.1916256548,-9.5772724565,-0.741775006,762
84109,184276,212211,0.9846464999,-9.6502535458,-0.5012963347,763
84112,184214,212171,1.052841944,-9.7256274577,-0.3984049629,764
84115,184314,212214,1.2155538808,-9.846464999,-0.47736810869999996,765
84151,184302,212195,1.1449656141,-9.621539674600001,-0.71784678,766
84118,184320,212189,1.0671988796,-9.7363951594,-0.6161518195,767
84152,184287,212165,1.1138589203,-9.6442714893,-0.7082754896000001,768
84196,184328,212196,1.2191431147,-9.6406822554,-0.6664010940999999,769
84202,184299,212200,1.1796615418,-9.6119683842,-0.5252245607,770
84295,184363,212155,1.0277173067,-9.661021247499999,-0.7489534738,771
84311,184389,212218,1.0480562988,-9.7196454012,-0.7154539574000001,772
84330,184282,212215,1.1665010175000001,-9.661021247499999,-0.6927221427000001,773
84383,184366,212222,1.1102696864,-9.7615197967,-0.5324030285,774
84450,184427,212229,1.0121639598,-9.7567341515,-0.6556333924,775
84467,184392,212238,1.2023933565,-9.714859756,-0.538385085,776
84355,184316,212291,1.0037890807,-9.6681997153,-0.5359922624,777
84204,184304,212265,1.1700902514,-9.661021247499999,-0.490528633,778
84093,184334,212213,1.1688938401,-9.6406822554,-0.526420972,779
84011,184385,212194,1.0803594039,-9.7232346351,-0.6843472636,780
84011,184373,212261,1.1186445655,-9.7112705221,-0.5407779076,781
84028,184362,212224,1.0755737587,-9.595218626,-0.3661018578,782
84070,184354,212240,1.2179467034,-9.5665047548,-0.6269195211999999,783
84084,184359,212237,1.0600204118,-9.726823869,-0.6628118601999999,784
84148,184314,212290,1.0193424276,-9.7890372566,-0.6412764568,785
84176,184351,212267,1.2550354537,-9.6897351187,-0.4701896409,786
84166,184398,212223,1.0803594039,-9.6813602396,-0.514456859,787
84214,184362,212213,0.9978070242,-9.6251289085,-0.6412764568,788
84222,184451,212237,1.1389835576,-9.6035935051,-0.4725824635,789
84260,184363,212259,1.0432706536,-9.7890372566,-0.502492746,790
84293,184409,212254,1.0336993632,-9.6394858441,-0.6568298037,791
84315,184420,212277,1.07677017,-9.6490571345,-0.5455635528,792
84303,184414,212281,1.0731809361,-9.674181771799999,-0.610169763,793
84402,184491,212279,1.0863414604,-9.6275217311,-0.5132604477,794
84421,184487,212275,0.9858429111999999,-9.5856473356,-0.4821537539,795
84474,184451,212291,1.160518961,-9.69093153,-0.5048855686,796
84517,184446,212314,1.1988041226,-9.6861458848,-0.48095734259999995,797
84579,184381,212281,1.1078768638,-9.7770731436,-0.5407779076,798
84611,184490,212257,1.0624132344,-9.6861458848,-0.49770710079999997,799
84560,184447,212246,1.1377871463,-9.6263253198,-0.5431707302,800
84386,184461,212261,0.9954142015999999,-9.8033941922,-0.574277424,801
84245,184374,212223,1.1282158559,-9.812965482600001,-0.4881358104,802
84156,184301,212257,0.9463613382999999,-9.865607579799999,-0.5455635528,803
84204,184447,212252,0.9176474671,-9.6681997153,-0.5886343596,804
84150,184412,212261,1.1090732750999999,-9.7698946758,-0.5120640364,805
84224,184348,212271,0.8267202082999999,-10.030712339199999,-0.586241537,806
84302,184451,212286,0.9702895642999999,-9.6945207639,-0.4881358104,807
84349,184442,212299,1.0695917021999999,-9.8201439504,-0.5479563754,808
84409,184447,212254,1.0600204118,-9.8249295956,-0.5647061336,809
84443,184391,212284,0.9499505722,-9.7531449176,-0.6029912952,810
84480,184474,212321,1.0875378717,-9.579665279099999,-0.5168496816,811
84534,184522,212342,1.0372885971,-9.687342296099999,-0.4558327053,812
84607,184453,212366,1.1318050897999998,-9.811769071299999,-0.5276173833,813
84687,184554,212381,1.1629117836,-9.7076812882,-0.4103690759,814
84782,184452,212329,1.0432706536,-9.8261260069,-0.2847458894,815
84856,184527,212399,1.028913718,-9.6813602396,-0.3816552047,816
84913,184531,212366,1.1473584366999998,-9.8500542329,-0.5407779076,817
84935,184495,212355,1.0313065406,-9.757930562799999,-0.5766702466,818
84994,184585,212382,0.9906285563999999,-9.6538427797,-0.5850451257,819
84994,184590,212331,1.0516455327,-9.7974121357,-0.6293123438,820
85166,184591,212473,1.0396814197,-9.6490571345,-0.6329015777,821
85228,184624,212406,1.0743773474,-9.6981099978,-0.299102825,822
85207,184551,212355,1.07677017,-9.7830552001,-0.21894326790000002,823
85113,184521,212346,1.0384850084,-9.767501853199999,-0.3038884702,824
85039,184421,212317,1.1497512593,-9.5449693514,-0.4618147618,825
84997,184535,212338,1.1509476706000001,-9.7722874984,-0.4390829471,826
85056,184569,212277,1.0636096457,-9.7734839097,-0.3960121403,827
85022,184546,212367,1.1796615418,-9.6059863277,-0.4366901245,828
85050,184504,212339,1.1593225497000001,-9.7615197967,-0.5216353268,829
85109,184562,212322,1.1676974288,-9.702895643,-0.3266202849,830
85150,184595,212329,0.9463613382999999,-9.7483592724,-0.38763726119999997,831
85134,184598,212324,0.8650053699,-9.5976114486,-0.9116654106,832
85168,184574,212365,1.1976077113,-9.700502820399999,-0.8829515394,833
85213,184583,212330,1.1964113,-9.5126662463,-0.4701896409,834
85241,184579,212338,0.9906285563999999,-9.9254281448,-0.1782652837,835
85324,184609,212280,1.1246266219999999,-10.4985091575,-0.2297109696,836
85369,184595,212326,1.1557333158,-9.6945207639,-0.5647061336,837
85373,184615,212369,0.8554340795,-9.6538427797,-0.6795616184,838
85450,184621,212322,0.8937192411,-9.6693961266,-0.7405785947,839
85551,184645,212355,1.3052847283,-9.3475614869,-0.7369893608,840
85630,184709,212364,1.3794622289,-9.7770731436,-0.8303094421999999,841
85701,184680,212396,1.3435698899,-9.8847501606,-0.2309073809,842
85739,184664,212380,1.6534404165999999,-9.559326287,-0.4749752861,843
85796,184590,212380,1.3172488413,-9.5964150373,-0.5623133109999999,844
85773,184690,212387,1.0348957745,-9.738787982,-0.586241537,845
85701,184534,212317,1.0301101293000001,-9.7818587888,-0.4474578262,846
85636,184613,212298,0.8566304908000001,-9.3367937852,-0.6496513358999999,847
85653,184611,212307,1.3447663012,-9.8189475391,-0.6305087550999999,848
85673,184560,212307,1.2933206153,-9.5976114486,-0.9559326287,849
85758,184674,212315,1.4883356572,-9.5820581017,-0.5371886737,850
85824,184676,212320,1.0348957745,-9.7950193131,-0.5886343596,851
85907,184692,212377,1.2406785181,-9.757930562799999,-0.6747759731999999,852
85986,184739,212394,1.3890335193,-9.4444708022,-0.31345976059999997,853
85976,184627,212380,1.4428720278,-9.8931250397,-0.08853443620000001,854
85967,184744,212331,1.2729816232,-10.1862458082,-0.5288137946,855
86006,184812,212415,1.3459627125,-9.4660062056,-1.5589239239000001,856
86073,184819,212379,1.2658031554,-8.9790668065,-1.8687944506,857
86064,184819,212362,1.208375413,-9.2614198733,-1.4404792052000002,858
86102,184814,212441,1.2753744458,-9.6681997153,-1.1306086785,859
86174,184806,212471,1.4368899712999998,-9.620343263299999,-1.1066804525,860
86216,184908,212465,1.2933206153,-9.5976114486,-0.9284151688,861
86185,184845,212464,1.2622139215000001,-9.5150590689,-0.8506484343,862
86141,184813,212426,1.184447187,-9.589236569499999,-0.9906285563999999,863
86074,184749,212386,1.1688938401,-9.5605226983,-0.9978070242,864
86051,184723,212361,1.3890335193,-9.6454679006,-1.172483074,865
86031,184783,212347,1.3507483577,-9.5485585853,-1.2131610582,866
85961,184702,212259,1.4129617452999998,-9.6538427797,-1.2179467034,867
85894,184663,212251,1.2658031554,-9.5784688678,-1.148554848,868
85809,184650,212307,1.2765708571,-9.8452685877,-0.9822536772999999,869
85834,184725,212332,1.2945170266,-9.554540641800001,-1.0923235169,870
85935,184829,212418,0.40558343069999997,-7.5936225210999995,0.0011964113,871
86154,185027,212479,1.1509476706000001,-9.2638126959,-0.7668996433,872
86322,185233,212573,1.1114660977,-10.4590275846,-0.502492746,873
86549,185347,212661,1.2897313814,-10.604989763199999,-1.3579268255,874
86578,185248,212579,1.8616159827999998,-10.6301144005,-1.495514125,875
86323,184984,212357,1.3603196481,-9.2674019298,-0.41874395499999995,876
86046,184759,212188,1.2011969452,-9.3020978575,-0.2667997199,877
86051,184651,212107,1.4368899712999998,-9.4229353988,-0.4941178669,878
86098,184698,212148,1.5589239239000001,-9.523433948000001,-0.6795616184,879
86132,184687,212188,1.3435698899,-9.589236569499999,-0.7609175868,880
86222,184738,212153,1.2251251712,-9.455238503899999,-1.0336993632,881
86198,184704,212141,1.4033904549,-9.754341328899999,-0.9846464999,882
86126,184672,212090,1.2490533972,-9.4289174553,-0.7980063370999999,883
86115,184675,212136,1.0432706536,-9.5940222147,-0.6855436748999999,884
86239,184903,212210,0.8362914987,-9.6095755616,-0.7836494015,885
86504,185087,212354,0.9834500885999999,-9.839286531199999,-0.945164927,886
86723,185275,212517,0.9942177902999999,-9.741180804599999,-0.7274180704000001,887
86796,185306,212526,0.9547362173999999,-10.2161560907,-0.6065805291,888
86730,185226,212507,1.3328021881999998,-11.0141624278,-0.8530412569000001,889
86676,185120,212364,0.6616154488999999,-9.1154576947,-0.311066938,890
86437,184909,212203,1.0181460163,-9.3032942688,-0.8937192411,891
86366,185059,212353,1.4572289634,-9.702895643,-1.1832507757,892
86571,185508,212644,1.5326028753,-9.531808827099999,-1.0492527101,893
86739,185950,213002,2.237289131,-9.7567341515,-1.5768700934,894
86870,186295,213183,2.3437697367,-9.6586284249,-1.3722837611,895
86953,186334,213289,1.9824535241,-9.4025964067,-1.4045868662,896
87156,186079,213176,1.9238293703999998,-9.5688975774,-1.3459627125,897
87250,185868,212986,1.2394821068,-9.3236332609,-0.9200402897,898
87297,185628,212711,1.2849457361999999,-9.6287181424,-0.9822536772999999,899
87351,185469,212666,1.1964113,-9.678967417,-0.7764709337,900
87380,185413,212591,1.1138589203,-9.633503787599999,-0.7728816998,901
87436,185359,212561,1.1557333158,-9.8715896363,-0.8027919822999999,902
87456,185371,212604,1.4536397294999999,-9.8045906035,-0.933200814,903
87559,185377,212581,1.2753744458,-9.633503787599999,-0.7573283529,904
87656,185425,212631,1.1988041226,-9.5210411254,-0.8590233134,905
87736,185367,212586,1.07677017,-9.6478607232,-0.7477570625,906
87804,185360,212608,1.0444670649,-9.5461657627,-0.6759723845,907
87885,185382,212575,1.1940184774,-9.6849494735,-0.8303094421999999,908
87930,185374,212556,1.3172488413,-9.8452685877,-0.8410771438999999,909
87900,185355,212519,1.1353943237,-9.7830552001,-0.777667345,910
87859,185284,212494,1.0911271056,-9.6119683842,-0.7202396026000001,911
87813,185263,212488,1.3351950108,-9.767501853199999,-0.7645068207,912
87821,185310,212504,1.0588240005,-9.7363951594,-0.7022934331,913
87890,185340,212497,1.0480562988,-9.774680321,-0.7920242806,914
87910,185318,212545,1.148554848,-9.7830552001,-0.6376872229,915
87977,185359,212548,1.1030912186,-9.6921279413,-0.6867400861999999,916
88036,185397,212529,1.0791629926,-9.5868437469,-0.705882667,917
88108,185387,212550,1.1234302107,-9.7435736272,-0.6233302873,918
88135,185358,212518,1.1509476706000001,-9.6729853605,-0.6448656907,919
88159,185385,212543,1.0013962581,-9.595218626,-0.7082754896000001,920
88216,185393,212564,1.0995019847,-9.6490571345,-0.7393821834000001,921
88282,185454,212506,1.2311072277,-9.6646104814,-0.7609175868,922
88292,185407,212543,1.1629117836,-9.4731846734,-0.7585247642,923
88333,185398,212547,1.1760723079,-9.750752095,-0.6831508522999999,924
88396,185432,212578,1.1856435983,-9.5772724565,-0.6604190376,925
88426,185331,212570,1.0336993632,-9.7040920543,-0.753739119,926
88463,185431,212560,1.0660024683,-9.6370930215,-0.7716852885,927
88489,185437,212532,1.0576275892,-9.762716208,-0.7477570625,928
88514,185438,212531,1.2179467034,-9.7495556837,-0.6879364975,929
88518,185310,212526,1.1401799688999998,-9.655039191,-0.6664010940999999,930
88461,185346,212477,1.1078768638,-9.6598248362,-0.7585247642,931
88323,185333,212459,1.1676974288,-9.7292166916,-0.7322037156,932
88200,185367,212442,1.2119646469,-9.6981099978,-0.8243273857,933
88102,185301,212381,1.1581261384000001,-9.655039191,-0.6448656907,934
88046,185311,212412,1.2227323486,-9.7292166916,-0.8267202082999999,935
88030,185313,212354,1.3387842447,-9.6514499571,-0.7166503687,936
88043,185251,212393,1.1940184774,-9.6239324972,-0.8865407733,937
88065,185337,212371,1.2693923893,-9.6538427797,-0.7154539574000001,938
88069,185352,212399,1.2765708571,-9.620343263299999,-0.7142575461,939
88069,185351,212413,1.3399806559999998,-9.744770038499999,-0.6759723845,940
88008,185329,212402,1.1988041226,-9.6418786667,-0.6987041992,941
88001,185319,212365,1.2861421475,-9.523433948000001,-0.7310073043,942
88022,185281,212424,1.1916256548,-9.6801638283,-0.7609175868,943
87993,185295,212344,1.2311072277,-9.5916293921,-0.7716852885,944
87992,185305,212342,1.3387842447,-9.6777710057,-0.7094719009,945
87995,185254,212321,1.3208380752,-9.7208418125,-0.7633104094,946
87992,185270,212292,1.4512469069,-9.6969135865,-0.8099704500999999,947
88017,185312,212296,1.411765334,-9.678967417,-0.9296115801,948
88031,185314,212323,1.3112667848,-9.5904329808,-0.7728816998,949
88071,185243,212294,1.2538390423999999,-9.675378183100001,-0.9164510558,950
88073,185328,212342,1.3435698899,-9.5940222147,-0.8171489179,951
88063,185365,212328,1.2873385588,-9.6382894328,-0.8398807326,952
87949,185296,212308,1.375872995,-9.878768104099999,-0.6783652070999999,953
87778,185250,212223,1.2681959779999998,-9.7052884656,-0.7142575461,954
87626,185305,212248,1.3615160593999998,-9.732805925500001,-0.8051848049,955
87535,185253,212248,1.3842478741,-9.6765745944,-0.9068797654,956
87495,185257,212227,1.2239287599,-9.69093153,-0.8662017812,957
87490,185248,212258,1.3830514628000001,-9.6131647955,-0.9152546444999999,958
87517,185302,212300,1.3866406967,-9.510273423700001,-0.8937192411,959
87532,185280,212253,1.3435698899,-9.6574320136,-0.8626125473,960
87512,185369,212291,1.3639088819999998,-9.6179504407,-0.8279166196,961
87480,185306,212341,1.3112667848,-9.5928258034,-0.9978070242,962
87462,185307,212292,1.2945170266,-9.7591269741,-0.945164927,963
87414,185278,212237,1.411765334,-9.6239324972,-0.9990034355,964
87348,185311,212266,1.2933206153,-9.5665047548,-0.9068797654,965
87387,185249,212252,1.3316057769,-9.6861458848,-0.897308475,966
87419,185305,212285,1.519442351,-9.728020280299999,-0.8243273857,967
87373,185315,212252,1.3926227532000002,-9.6418786667,-0.9906285563999999,968
87348,185313,212233,1.4763715442,-9.5677011661,-0.95712904,969
87357,185341,212244,1.3423734786,-9.6454679006,-0.95712904,970
87385,185320,212264,1.4632110199,-9.745966449800001,-0.9379864592,971
87337,185335,212276,1.3339985995,-9.6047899164,-0.9427721043999999,972
87328,185321,212263,1.3184452526,-9.5844509243,-0.9846464999,973
87306,185299,212245,1.3567304141999998,-9.6035935051,-1.004985492,974
87237,185275,212210,1.3244273091,-9.6012006825,-0.8901300072,975
87021,185205,212182,1.3770694063,-9.7052884656,-0.8626125473,976
86708,185211,212162,1.4440684390999998,-9.495916488099999,-0.8805587168,977
86657,185089,212130,1.4368899712999998,-9.6287181424,-0.9762716208,978
86571,185171,212201,1.2346964616,-9.562915520899999,-0.9164510558,979
86483,185180,212192,1.2394821068,-9.714859756,-0.861416136,980
86507,185183,212166,1.3639088819999998,-9.7016992317,-0.9487541609,981
86566,185199,212180,1.256231865,-9.5868437469,-0.8877371846000001,982
86537,185209,212177,1.3232308977999998,-9.619146852,-0.7645068207,983
86532,185155,212168,1.2394821068,-9.6167540294,-0.9619146851999999,984
86503,185227,212194,1.2131610582,-9.675378183100001,-0.969093153,985
86470,185219,212273,1.1306086785,-9.646664311899999,-0.7968099258,986
86495,185236,212178,1.1928220661,-9.6059863277,-0.8362914987,987
86483,185212,212262,1.3052847283,-9.5294160045,-0.8626125473,988
86498,185169,212247,1.3328021881999998,-9.5940222147,-0.95712904,989
86500,185232,212221,1.2634103328,-9.5976114486,-0.9619146851999999,990
86520,185251,212221,1.3627124707,-9.7052884656,-0.8099704500999999,991
86564,185229,212253,1.1892328322,-9.667003304,-0.8303094421999999,992
86606,185234,212272,1.2825529136,-9.7710910871,-0.8925228298,993
86598,185266,212295,1.2813565023,-9.7435736272,-0.8410771438999999,994
86617,185246,212285,1.2789636797000001,-9.562915520899999,-0.873380249,995
86664,185180,212219,1.3411770673,-9.687342296099999,-0.8087740388,996
86678,185261,212285,1.1186445655,-9.678967417,-0.9427721043999999,997
86608,185312,212232,1.2287144051,-9.562915520899999,-0.8147560952999999,998
86359,185204,212161,1.2131610582,-9.621539674600001,-0.8087740388,999
86175,185156,212155,1.2370892842,-9.7172525786,-0.9200402897,1000
86024,185198,212110,1.1904292435000001,-9.738787982,-0.7920242806,1001
85961,185155,212194,1.3316057769,-9.6717889492,-0.8027919822999999,1002
85951,185181,212206,1.2897313814,-9.667003304,-0.8398807326,1003
85949,185183,212222,1.1916256548,-9.687342296099999,-0.8769694829,1004
85984,185100,212245,1.2849457361999999,-9.598807859899999,-0.8135596839999999,1005
86030,185138,212262,1.3004990831,-9.6598248362,-0.8721838377000001,1006
86022,185182,212233,1.1497512593,-9.655039191,-0.7202396026000001,1007
86020,185169,212268,1.2574282763000002,-9.6957171752,-0.7944171031999999,1008
86026,185171,212258,1.2143574695,-9.744770038499999,-0.8470592004,1009
86008,185229,212318,1.1712866627,-9.5425765288,-0.7262216591,1010
86029,185110,212318,1.2550354537,-9.6897351187,-0.7070790783,1011
86077,185196,212269,1.2358928729,-9.7196454012,-0.8255237969999999,1012
86126,185270,212288,1.1174481541999999,-9.726823869,-0.7860422241,1013
86142,185220,212299,1.2095718243,-9.7686982645,-0.6831508522999999,1014
86177,185137,212341,1.1114660977,-9.7196454012,-0.8159525066,1015
86200,185252,212312,1.1294122672,-9.726823869,-0.6963113766000001,1016
86216,185247,212326,1.1569297271,-9.6047899164,-0.777667345,1017
86282,185245,212343,1.0863414604,-9.6693961266,-0.8051848049,1018
86292,185144,212319,1.1820543644000001,-9.6478607232,-0.6472585133,1019
86337,185275,212334,1.1581261384000001,-9.6945207639,-0.7345965382,1020
86349,185283,212318,1.2873385588,-9.728020280299999,-0.7968099258,1021
86240,185205,212299,1.1437692028,-9.741180804599999,-0.7166503687,1022
86000,185163,212245,1.1629117836,-9.7651090306,-0.8111668613999999,1023
85801,185160,212236,1.1988041226,-9.7878408453,-0.6460621019999999,1024
85764,185140,212254,1.2011969452,-9.6813602396,-0.7322037156,1025
85726,185045,212241,1.2179467034,-9.7292166916,-0.7345965382,1026
85738,185134,212289,1.0971091621,-9.732805925500001,-0.6113661743,1027
85784,185195,212348,1.0552347666,-9.5282195932,-0.6077769404,1028
85861,185164,212301,1.2717852119000002,-9.6777710057,-0.7250252478,1029
85901,185217,212349,1.1748758966000001,-9.5413801175,-0.6257231099,1030
85902,185196,212320,1.160518961,-9.6239324972,-0.7142575461,1031
85871,185191,212262,1.1820543644000001,-9.726823869,-0.7441678286,1032
85887,185130,212344,1.1796615418,-9.6490571345,-0.7393821834000001,1033
85901,185180,212289,1.3076775509,-9.7196454012,-0.6592226263,1034
85940,185188,212338,1.1916256548,-9.6622176588,-0.6819544409999999,1035
85959,185141,212353,1.2538390423999999,-9.5342016497,-0.6185446421,1036
85977,185192,212364,1.0899306943,-9.7052884656,-0.7226324252,1037
85998,185161,212301,1.136590735,-9.621539674600001,-0.7250252478,1038
85991,185189,212376,1.1114660977,-9.6251289085,-0.6137589969,1039
86056,185197,212295,1.1772687192,-9.655039191,-0.7250252478,1040
86070,185177,212293,1.2000005339,-9.5509514079,-0.7465606512,1041
86085,185179,212300,1.2729816232,-9.6227360859,-0.6065805291,1042
86119,185262,212305,1.2610175101999999,-9.7639126193,-0.7405785947,1043
86155,185223,212351,1.2000005339,-9.700502820399999,-0.8039883936,1044
86139,185200,212306,1.2598210989,-9.643075077999999,-0.7274180704000001,1045
86004,185170,212281,1.2526426310999998,-9.661021247499999,-0.7274180704000001,1046
85776,185126,212242,1.1676974288,-9.7806623775,-0.6592226263,1047
85629,185083,212243,1.1976077113,-9.7136633447,-0.6472585133,1048
85471,185076,212239,1.3507483577,-9.646664311899999,-0.7513462964000001,1049
85547,185087,212254,1.4177473905,-9.5712904,-0.7944171031999999,1050
85564,185117,212300,1.1449656141,-9.714859756,-0.7226324252,1051
85620,185146,212264,1.3244273091,-9.6622176588,-0.801595571,1052
85662,185119,212287,1.2717852119000002,-9.7483592724,-0.8207381518,1053
85669,185120,212297,1.3148560187,-9.6239324972,-0.7944171031999999,1054
85654,185115,212281,1.4057832774999999,-9.6957171752,-0.8135596839999999,1055
85649,185135,212298,1.2047861791,-9.6622176588,-0.8889335959,1056
85547,185120,212312,1.2047861791,-9.6502535458,-0.8039883936,1057
85642,185084,212339,1.3842478741,-9.6251289085,-0.7968099258,1058
85655,185143,212321,1.2957134379000002,-9.7196454012,-0.861416136,1059
85673,185167,212304,1.3830514628000001,-9.5677011661,-0.8482556117000001,1060
85690,185165,212270,1.3567304141999998,-9.665806892700001,-0.8446663778000001,1061
85720,185137,212307,1.3722837611,-9.5916293921,-0.9224331123,1062
85621,185158,212298,1.2729816232,-9.7076812882,-0.8147560952999999,1063
85758,185075,212318,1.2909277927,-9.6382894328,-0.885344362,1064
85764,185135,212271,1.3208380752,-9.6155576181,-0.8123632727,1065
85781,185152,212294,1.1904292435000001,-9.6167540294,-0.8255237969999999,1066
85778,185242,212364,1.3938191645,-9.6705925379,-0.885344362,1067
85801,185155,212323,1.2275179938,-9.7423772159,-0.8554340795,1068
85791,185149,212271,1.2849457361999999,-9.5772724565,-0.8781658942,1069
85658,185106,212241,1.3830514628000001,-9.6861458848,-0.8805587168,1070
85461,185096,212233,1.1772687192,-9.6861458848,-0.7884350467,1071
85318,185005,212249,1.3363914221,-9.7196454012,-0.8685946038000001,1072
85239,185044,212302,1.3483555351,-9.6837530622,-0.8662017812,1073
85260,185078,212271,1.2729816232,-9.6323073763,-0.9140582332,1074
85250,185044,212309,1.1892328322,-9.7483592724,-0.8279166196,1075
85287,185097,212296,1.3495519463999999,-9.6502535458,-0.7692924659,1076
85358,185108,212273,1.4452648504,-9.6586284249,-0.7908278692999999,1077
85367,185095,212264,1.3710873497999998,-9.6598248362,-0.7920242806,1078
85359,185108,212306,1.4069796888000001,-9.7208418125,-0.9343972253,1079
85338,185058,212318,1.3292129543,-9.7758767323,-0.8051848049,1080
85379,185087,212319,1.4584253747,-9.7184489899,-0.8877371846000001,1081
85395,185086,212354,1.1545369045,-9.5940222147,-0.8195417405,1082
85423,185091,212340,1.2777672683999999,-9.6454679006,-0.8279166196,1083
85473,185078,212351,1.2299108163999999,-9.5413801175,-0.7645068207,1084
85508,185117,212356,1.1892328322,-9.629914553699999,-0.7621139981,1085
85549,185186,212348,1.2430713407,-9.7316095142,-0.7980063370999999,1086
85597,185151,212403,1.2705888006,-9.69093153,-0.7872386353999999,1087
85625,185097,212360,1.3316057769,-9.7184489899,-0.9224331123,1088
85660,185172,212431,1.2861421475,-9.6634140701,-0.8087740388,1089
85683,185174,212416,1.2466605746,-9.6957171752,-0.7046862557000001,1090
85747,185165,212440,1.3160524299999998,-9.700502820399999,-0.7645068207,1091
85768,185131,212430,1.2466605746,-9.6143612068,-0.7226324252,1092
85750,185146,212364,1.2047861791,-9.6119683842,-0.849452023,1093
85605,185147,212350,1.2765708571,-9.6765745944,-0.7800601676,1094
85400,185063,212341,1.1617153723,-9.6813602396,-0.7872386353999999,1095
85229,185071,212353,1.2729816232,-9.6227360859,-0.7680960546,1096
85190,185070,212355,1.2155538808,-9.741180804599999,-0.7633104094,1097
85176,184976,212360,1.172483074,-9.6765745944,-0.8374879099999999,1098
85218,185030,212361,1.0624132344,-9.6861458848,-0.7489534738,1099
85268,185095,212369,1.3387842447,-9.7076812882,-0.7633104094,1100
85311,185112,212372,1.1473584366999998,-9.6107719729,-0.7944171031999999,1101
85325,185109,212364,1.2646067441000002,-9.6861458848,-0.7561319416,1102
85336,185078,212398,1.2275179938,-9.7256274577,-0.777667345,1103
85330,185078,212423,1.1234302107,-9.5784688678,-0.8925228298,1104
85333,185108,212457,1.1892328322,-9.7794659662,-0.7106683122,1105
85357,185047,212399,0.9930213789999999,-9.589236569499999,-0.7310073043,1106
85397,185110,212434,1.1928220661,-9.7160561673,-0.765703232,1107
85438,185000,212443,1.1150553316,-9.6526463684,-0.7489534738,1108
85472,185104,212465,1.3028919057000001,-9.6957171752,-0.6867400861999999,1109
85517,185162,212412,1.2981062605,-9.8285188295,-0.7704888772,1110
85550,185107,212458,1.1150553316,-9.700502820399999,-0.6568298037,1111
85576,185062,212486,1.2071790017,-9.750752095,-0.7118647235000001,1112
85618,185121,212424,1.2191431147,-9.6646104814,-0.7034898444000001,1113
85648,185053,212500,1.1784651305,-9.5270231819,-0.6831508522999999,1114
85689,185098,212473,1.2059825904,-9.8285188295,-0.6017948839,1115
85726,185150,212471,1.1748758966000001,-9.678967417,-0.7968099258,1116
85699,185102,212405,1.2957134379000002,-9.762716208,-0.6903293201,1117
85509,185063,212398,1.2023933565,-9.646664311899999,-0.7848458128,1118
85290,185025,212438,1.1198409768,-9.6251289085,-0.7800601676,1119
85154,185023,212387,1.2335000503,-9.6382894328,-0.6640082715,1120
85095,185003,212413,1.1162517428999998,-9.6023970938,-0.7513462964000001,1121
85101,184993,212432,1.1988041226,-9.6514499571,-0.7633104094,1122
85132,185054,212479,1.2741780345,-9.745966449800001,-0.7704888772,1123
85172,185009,212468,1.1892328322,-9.6681997153,-0.7250252478,1124
85229,185024,212488,1.3615160593999998,-9.714859756,-0.7345965382,1125
85257,185017,212438,1.1150553316,-9.5868437469,-0.741775006,1126
85268,185044,212489,1.3148560187,-9.6981099978,-0.6771687957999999,1127
85267,185038,212490,1.1700902514,-9.6275217311,-0.6747759731999999,1128
85242,184995,212431,1.2502498085,-9.7220382238,-0.6879364975,1129
85213,185039,212450,1.2586246876,-9.629914553699999,-0.8075776275,1130
85270,185051,212442,1.2275179938,-9.7340023368,-0.8087740388,1131
85321,185025,212478,1.148554848,-9.6837530622,-0.7489534738,1132
85207,185030,212481,1.1294122672,-9.6478607232,-0.7728816998,1133
85201,185003,212450,1.1748758966000001,-9.6526463684,-0.7585247642,1134
85344,185026,212455,1.3746765837,-9.6957171752,-0.729810893,1135
85346,185018,212505,1.2538390423999999,-9.562915520899999,-0.7345965382,1136
85378,185030,212437,1.2287144051,-9.6646104814,-0.6771687957999999,1137
85384,185015,212457,1.3112667848,-9.7435736272,-0.71784678,1138
85392,185000,212451,1.208375413,-9.7292166916,-0.7322037156,1139
85390,185015,212460,1.3016954943999999,-9.6586284249,-0.8518448456000001,1140
85321,185014,212425,1.2346964616,-9.655039191,-0.7106683122,1141
85114,184940,212402,1.2885349701,-9.7806623775,-0.7154539574000001,1142
84910,184903,212361,1.2299108163999999,-9.6646104814,-0.7884350467,1143
84795,184872,212369,1.2311072277,-9.7064848769,-0.753739119,1144
84748,184893,212392,1.3363914221,-9.667003304,-0.7788637562999999,1145
84768,184864,212412,1.3136596074,-9.619146852,-0.765703232,1146
84787,184782,212395,1.1700902514,-9.7088776995,-0.8087740388,1147
84830,184822,212394,1.2179467034,-9.5940222147,-0.729810893,1148
84833,184866,212384,1.3004990831,-9.6442714893,-0.8063812161999999,1149
84838,184882,212396,1.1904292435000001,-9.7519485063,-0.765703232,1150
84795,184881,212366,1.3316057769,-9.700502820399999,-0.7680960546,1151
84792,184883,212391,1.2897313814,-9.6526463684,-0.8039883936,1152
84720,184843,212402,1.3615160593999998,-9.5940222147,-0.7932206919,1153
84781,184828,212438,1.3256237203999999,-9.738787982,-0.8602197247000001,1154
84813,184888,212414,1.3208380752,-9.714859756,-0.921236701,1155
84848,184866,212384,1.3627124707,-9.6538427797,-0.8805587168,1156
84858,184762,212388,1.2550354537,-9.710074110799999,-0.7848458128,1157
84883,184888,212398,1.328016543,-9.7232346351,-0.7226324252,1158
84887,184907,212393,1.351944769,-9.5437729401,-0.8183453291999999,1159
84901,184913,212437,1.3351950108,-9.710074110799999,-0.7621139981,1160
84920,184877,212457,1.3543375915999998,-9.5916293921,-0.8279166196,1161
84937,184894,212415,1.3124631961,-9.7531449176,-0.7788637562999999,1162
84879,184879,212448,1.387837108,-9.579665279099999,-0.8518448456000001,1163
84959,184897,212410,1.2047861791,-9.6957171752,-0.8626125473,1164
84929,184870,212372,1.1330015010999999,-9.621539674600001,-0.8350950873999999,1165
84684,184797,212354,1.220339526,-9.6000042712,-0.8171489179,1166
84408,184785,212307,1.3196416639,-9.6681997153,-0.8195417405,1167
84400,184703,212324,1.3447663012,-9.6514499571,-0.8757730716000001,1168
84377,184754,212333,1.3531411803,-9.5976114486,-0.897308475,1169
84422,184764,212347,1.2514462198,-9.6155576181,-0.8183453291999999,1170
84432,184752,212371,1.3328021881999998,-9.762716208,-0.8566304908000001,1171
84448,184813,212374,1.3651052933,-9.5928258034,-0.8386843212999999,1172
84481,184785,212385,1.3088739621999999,-9.7124669334,-0.7585247642,1173
84498,184794,212447,1.2813565023,-9.7040920543,-0.7740781111,1174
84499,184788,212387,1.2335000503,-9.5007021333,-0.9116654106,1175
84514,184782,212392,1.2311072277,-9.674181771799999,-0.7968099258,1176
84532,184828,212409,1.2598210989,-9.7483592724,-0.8123632727,1177
84567,184821,212450,1.2418749294,-9.6981099978,-0.7884350467,1178
84607,184832,212437,1.2658031554,-9.5605226983,-0.71784678,1179
84647,184783,212456,1.2406785181,-9.6538427797,-0.7597211755,1180
84680,184812,212393,1.2478569859,-9.6514499571,-0.7956135145,1181
84705,184822,212399,1.2299108163999999,-9.6646104814,-0.8027919822999999,1182
84746,184865,212503,1.1940184774,-9.6837530622,-0.7477570625,1183
84807,184839,212489,1.2681959779999998,-9.7663054419,-0.8374879099999999,1184
84859,184850,212439,1.3627124707,-9.620343263299999,-0.7908278692999999,1185
84890,184839,212463,1.2538390423999999,-9.6239324972,-0.7645068207,1186
84950,184873,212438,1.2275179938,-9.785448022699999,-0.7800601676,1187
85012,184924,212523,1.2897313814,-9.6454679006,-0.9320044027,1188
84972,184856,212489,1.2765708571,-9.6957171752,-0.7585247642,1189
84810,184808,212446,1.2634103328,-9.6406822554,-0.7645068207,1190
84608,184750,212435,1.1318050897999998,-9.7591269741,-0.8578269021,1191
84502,184796,212412,1.2059825904,-9.6143612068,-0.8051848049,1192
84479,184765,212398,1.2538390423999999,-9.7363951594,-0.801595571,1193
84464,184768,212468,1.1437692028,-9.674181771799999,-0.7609175868,1194
84512,184774,212466,1.3124631961,-9.678967417,-0.8626125473,1195
84581,184787,212450,1.2227323486,-9.7088776995,-0.7680960546,1196
84619,184683,212502,1.3028919057000001,-9.7483592724,-0.885344362,1197
84647,184743,212467,1.256231865,-9.726823869,-0.7633104094,1198
84660,184776,212461,1.2993026717999998,-9.7232346351,-0.7453642399,1199
84704,184848,212476,1.1090732750999999,-9.8368937086,-0.753739119,1200
84705,184811,212500,1.1413763801999999,-9.700502820399999,-0.753739119,1201
84726,184774,212503,1.1150553316,-9.6933243526,-0.6843472636,1202
84785,184823,212531,1.2777672683999999,-9.6837530622,-0.7130611348,1203
84849,184797,212488,1.160518961,-9.607182739,-0.7728816998,1204
84894,184779,212508,1.2873385588,-9.702895643,-0.6568298037,1205
84940,184831,212500,1.1748758966000001,-9.69093153,-0.7274180704000001,1206
84997,184844,212549,1.1916256548,-9.6705925379,-0.8590233134,1207
85053,184829,212513,1.1318050897999998,-9.7591269741,-0.7106683122,1208
85120,184868,212535,1.1772687192,-9.6981099978,-0.7585247642,1209
85152,184857,212533,1.0779665813,-9.710074110799999,-0.5946164161,1210
85210,184865,212549,1.3196416639,-9.547362174,-0.7704888772,1211
85294,184885,212582,1.280160091,-9.6729853605,-0.5898307709,1212
85313,184891,212516,1.1593225497000001,-9.6227360859,-0.8135596839999999,1213
85327,184905,212546,1.1413763801999999,-9.6801638283,-0.7166503687,1214
85223,184771,212532,1.0253244841,-9.7292166916,-0.7728816998,1215
85020,184800,212496,1.160518961,-9.6083791503,-0.6831508522999999,1216
84892,184805,212486,1.1700902514,-9.7603233854,-0.6807580296999999,1217
84820,184754,212496,1.2131610582,-9.750752095,-0.7226324252,1218
84803,184741,212469,1.256231865,-9.700502820399999,-0.6173482308,1219
84789,184741,212505,1.1916256548,-9.7256274577,-0.729810893,1220
84832,184790,212521,1.2191431147,-9.7531449176,-0.6520441585,1221
84909,184779,212525,1.1653046062,-9.7375915707,-0.7369893608,1222
84956,184831,212528,1.0947163395,-9.7603233854,-0.7142575461,1223
84982,184780,212535,1.1246266219999999,-9.6813602396,-0.6520441585,1224
84998,184796,212522,1.1748758966000001,-9.6933243526,-0.6556333924,1225
85000,184776,212547,1.2538390423999999,-9.6263253198,-0.7106683122,1226
85031,184786,212526,1.1078768638,-9.6693961266,-0.6472585133,1227
85071,184784,212573,1.2981062605,-9.6394858441,-0.6819544409999999,1228
85128,184805,212573,1.1318050897999998,-9.6131647955,-0.705882667,1229
85180,184805,212578,1.0600204118,-9.6131647955,-0.6831508522999999,1230
85199,184714,212535,1.1988041226,-9.6526463684,-0.7489534738,1231
85255,184780,212608,1.1784651305,-9.7016992317,-0.6269195211999999,1232
85294,184821,212534,1.2873385588,-9.5126662463,-0.7393821834000001,1233
85333,184818,212561,1.2466605746,-9.665806892700001,-0.6628118601999999,1234
85352,184837,212583,1.3052847283,-9.6765745944,-0.7752745223999999,1235
85372,184840,212565,1.0935199281999999,-9.7567341515,-0.7369893608,1236
85422,184834,212586,1.1557333158,-9.6454679006,-0.7250252478,1237
85467,184851,212546,1.208375413,-9.6083791503,-0.7226324252,1238
85539,184871,212573,1.3172488413,-9.6945207639,-0.7633104094,1239
85507,184831,212509,1.2131610582,-9.5868437469,-0.7489534738,1240
85380,184815,212504,1.1437692028,-9.559326287,-0.6963113766000001,1241
85208,184778,212495,1.1222337994,-9.6478607232,-0.5946164161,1242
85011,184722,212477,1.2191431147,-9.5581298757,-0.7920242806,1243
84906,184709,212462,1.244267752,-9.562915520899999,-0.6795616184,1244
84811,184694,212489,1.2346964616,-9.6574320136,-0.6520441585,1245
84865,184669,212489,1.2574282763000002,-9.710074110799999,-0.7453642399,1246
84892,184762,212530,1.2574282763000002,-9.7423772159,-0.7992027483999999,1247
84897,184711,212474,1.2526426310999998,-9.6418786667,-0.7274180704000001,1248
84953,184683,212481,1.2693923893,-9.714859756,-0.7310073043,1249
84902,184706,212490,1.3292129543,-9.631110965,-0.7609175868,1250
84898,184707,212437,1.1868400096,-9.6705925379,-0.7872386353999999,1251
84882,184715,212454,1.1341979124,-9.6442714893,-0.741775006,1252
84879,184623,212471,1.2406785181,-9.6155576181,-0.7609175868,1253
84891,184681,212511,1.1318050897999998,-9.678967417,-0.6640082715,1254
84913,184695,212469,1.2275179938,-9.7256274577,-0.7848458128,1255
84932,184676,212485,1.3435698899,-9.6000042712,-0.6915257314000001,1256
84958,184705,212447,1.2394821068,-9.6897351187,-0.7441678286,1257
85000,184759,212458,1.3136596074,-9.688538707400001,-0.7824529901999999,1258
85007,184755,212487,1.1593225497000001,-9.6765745944,-0.6963113766000001,1259
84998,184690,212461,1.3459627125,-9.744770038499999,-0.8350950873999999,1260
85024,184703,212517,1.0791629926,-9.6622176588,-0.7764709337,1261
85026,184741,212478,1.2514462198,-9.6502535458,-0.7968099258,1262
85025,184738,212494,1.4321043261,-9.6514499571,-0.765703232,1263
85049,184753,212465,1.3220344865,-9.5916293921,-0.7465606512,1264
85061,184746,212489,1.3698909385,-9.8153583052,-0.8003991597,1265
85083,184742,212474,1.3603196481,-9.531808827099999,-0.7800601676,1266
85030,184716,212464,1.3100703735,-9.6358966102,-0.7381857721,1267
84811,184544,212449,1.2251251712,-9.522237536699999,-0.7573283529,1268
84615,184542,212393,1.2239287599,-9.6239324972,-0.6783652070999999,1269
84482,184600,212357,1.3435698899,-9.6323073763,-0.8279166196,1270
84405,184570,212444,1.375872995,-9.5844509243,-0.8446663778000001,1271
84390,184587,212404,1.3339985995,-9.667003304,-0.8506484343,1272
84392,184628,212403,1.2346964616,-9.6921279413,-0.7872386353999999,1273
84391,184625,212417,1.2143574695,-9.5533442305,-0.7214360139,1274
84413,184625,212448,1.2514462198,-9.6502535458,-0.7561319416,1275
84416,184598,212458,1.2299108163999999,-9.728020280299999,-0.8327022648,1276
84371,184595,212474,1.3603196481,-9.6047899164,-0.8470592004,1277
84384,184585,212432,1.3842478741,-9.6957171752,-0.7477570625,1278
84397,184625,212441,1.2311072277,-9.6143612068,-0.7142575461,1279
84421,184596,212476,1.1569297271,-9.5856473356,-0.7561319416,1280
84448,184615,212454,1.280160091,-9.576076045199999,-0.7932206919,1281
84505,184596,212528,1.2741780345,-9.6394858441,-0.9056833541,1282
84521,184685,212467,1.2681959779999998,-9.6227360859,-0.777667345,1283
84578,184647,212486,1.1832507757,-9.7316095142,-0.777667345,1284
84600,184589,212500,1.1306086785,-9.6107719729,-0.8207381518,1285
84637,184685,212485,1.1868400096,-9.6933243526,-0.7800601676,1286
84731,184712,212512,1.2538390423999999,-9.5916293921,-0.7381857721,1287
84714,184670,212564,1.2502498085,-9.6263253198,-0.7908278692999999,1288
84756,184675,212531,1.208375413,-9.7076812882,-0.8518448456000001,1289
84796,184676,212531,1.1533404932,-9.6251289085,-0.801595571,1290
84896,184725,212548,1.2669995667,-9.688538707400001,-0.7357929495000001,1291
84917,184730,212563,1.2131610582,-9.6370930215,-0.8051848049,1292
84866,184731,212565,1.2789636797000001,-9.678967417,-0.7501498851,1293
84716,184651,212479,1.3974083984,-9.6981099978,-0.6807580296999999,1294
84525,184615,212502,1.3064811396,-9.6251289085,-0.7764709337,1295
84398,184597,212491,1.1318050897999998,-9.7734839097,-0.6771687957999999,1296
84328,184602,212501,1.2526426310999998,-9.7196454012,-0.7992027483999999,1297
84343,184564,212483,1.1401799688999998,-9.7710910871,-0.8303094421999999,1298
84312,184606,212488,1.2406785181,-9.6646104814,-0.765703232,1299
84364,184599,212524,1.1461620254,-9.6059863277,-0.6903293201,1300
84429,184551,212538,1.1282158559,-9.7196454012,-0.7094719009,1301
84458,184606,212530,1.0241280728,-9.6394858441,-0.6759723845,1302
84454,184636,212477,1.07677017,-9.5724868113,-0.8087740388,1303
84456,184663,212554,1.3603196481,-9.7040920543,-0.7022934331,1304
84485,184602,212475,1.1102696864,-9.6538427797,-0.7824529901999999,1305
84529,184644,212526,1.1473584366999998,-9.8165547165,-0.6927221427000001,1306
84567,184632,212582,1.1665010175000001,-9.7124669334,-0.6999006105000001,1307
84551,184621,212532,1.1748758966000001,-9.7495556837,-0.7238288365000001,1308
84667,184592,212525,1.1964113,-9.6957171752,-0.729810893,1309
84623,184685,212582,1.0600204118,-9.6981099978,-0.7166503687,1310
84663,184681,212556,1.2263215825,-9.7124669334,-0.6604190376,1311
84804,184594,212587,1.0372885971,-9.6681997153,-0.7609175868,1312
84864,184642,212584,1.2969098492,-9.6825566509,-0.7286144817,1313
84905,184684,212572,1.2035897678,-9.6251289085,-0.6675975054,1314
84951,184659,212564,1.3639088819999998,-9.6370930215,-0.7190431913,1315
84990,184757,212597,1.1581261384000001,-9.620343263299999,-0.6544369810999999,1316
85052,184736,212570,1.1748758966000001,-9.643075077999999,-0.6675975054,1317
85098,184721,212579,1.2681959779999998,-9.7124669334,-0.7118647235000001,1318
85131,184739,212583,1.2167502921,-9.7758767323,-0.6376872229,1319
85022,184727,212607,1.1952148887,-9.7172525786,-0.7106683122,1320
84842,184638,212550,1.0875378717,-9.5976114486,-0.7513462964000001,1321
84677,184564,212500,1.1676974288,-9.6837530622,-0.729810893,1322
84582,184570,212517,1.1796615418,-9.6933243526,-0.6628118601999999,1323
84578,184615,212563,1.1246266219999999,-9.7076812882,-0.7034898444000001,1324
84538,184625,212513,1.3172488413,-9.7256274577,-0.6855436748999999,1325
84552,184609,212549,1.0971091621,-9.6681997153,-0.6568298037,1326
84599,184524,212551,1.1772687192,-9.6143612068,-0.7645068207,1327
84646,184590,212503,1.1700902514,-9.5976114486,-0.6664010940999999,1328
84669,184606,212543,1.1736794853,-9.7220382238,-0.6544369810999999,1329
84654,184601,212531,1.2490533972,-9.6012006825,-0.6675975054,1330
84637,184641,212557,1.1988041226,-9.674181771799999,-0.7489534738,1331
84610,184618,212555,1.1892328322,-9.6239324972,-0.7082754896000001,1332
84677,184586,212601,1.2610175101999999,-9.678967417,-0.7369893608,1333
84703,184622,212543,1.280160091,-9.595218626,-0.6843472636,1334
84746,184650,212554,1.3363914221,-9.7052884656,-0.7130611348,1335
84778,184645,212507,1.0325029519,-9.6646104814,-0.6951149653,1336
84789,184632,212518,1.2358928729,-9.7603233854,-0.6735795618999999,1337
84825,184628,212598,1.1772687192,-9.7172525786,-0.6891329087999999,1338
84851,184652,212558,1.160518961,-9.6897351187,-0.7728816998,1339
84879,184515,212561,1.1676974288,-9.785448022699999,-0.7405785947,1340
84908,184616,212503,1.2813565023,-9.702895643,-0.7585247642,1341
84913,184654,212516,1.2693923893,-9.6454679006,-0.7310073043,1342
84940,184674,212566,1.3244273091,-9.6526463684,-0.6281159325,1343
84982,184644,212563,1.3052847283,-9.7304131029,-0.7286144817,1344
85025,184656,212499,1.3435698899,-9.6442714893,-0.7453642399,1345
85004,184681,212549,1.3698909385,-9.661021247499999,-0.7800601676,1346
84911,184599,212497,1.2873385588,-9.7316095142,-0.6867400861999999,1347
84722,184574,212442,1.2454641632999999,-9.6993064091,-0.7992027483999999,1348
84538,184450,212497,1.1976077113,-9.6981099978,-0.8003991597,1349
84431,184533,212499,1.208375413,-9.6023970938,-0.7345965382,1350
84395,184560,212476,1.244267752,-9.6981099978,-0.7944171031999999,1351
84412,184542,212440,1.2981062605,-9.6765745944,-0.7728816998,1352
84408,184535,212485,1.2717852119000002,-9.6622176588,-0.8303094421999999,1353
84315,184547,212490,1.3112667848,-9.69093153,-0.7561319416,1354
84432,184542,212505,1.2394821068,-9.6167540294,-0.7214360139,1355
84403,184547,212532,1.1820543644000001,-9.579665279099999,-0.7046862557000001,1356
84409,184579,212466,1.2622139215000001,-9.6849494735,-0.8769694829,1357
84395,184571,212489,1.2909277927,-9.5677011661,-0.8219345630999999,1358
84407,184540,212502,1.2897313814,-9.6634140701,-0.8279166196,1359
84411,184558,212498,1.3112667848,-9.6502535458,-0.9068797654,1360
84410,184539,212484,1.1976077113,-9.619146852,-0.8135596839999999,1361
84400,184528,212486,1.3555340029,-9.6167540294,-0.8374879099999999,1362
84464,184522,212505,1.5170495284,-9.583254513,-0.8398807326,1363
84495,184540,212495,1.2993026717999998,-9.6693961266,-0.8255237969999999,1364
84516,184581,212467,1.2047861791,-9.6059863277,-0.8566304908000001,1365
84576,184573,212581,1.3782658175999998,-9.710074110799999,-0.8135596839999999,1366
84583,184571,212513,1.5122638832,-9.629914553699999,-0.7680960546,1367
84627,184497,212529,1.2933206153,-9.6729853605,-0.8709874264,1368
84645,184633,212494,1.4500504956,-9.665806892700001,-0.8662017812,1369
84683,184608,212485,1.2107682356,-9.7124669334,-0.789631458,1370
84723,184587,212558,1.3363914221,-9.6825566509,-0.8123632727,1371
84765,184595,212525,1.3998012210000002,-9.621539674600001,-0.8207381518,1372
84787,184587,212570,1.2634103328,-9.7806623775,-0.7944171031999999,1373
84693,184582,212513,1.3304093655999998,-9.5940222147,-0.7848458128,1374
84472,184532,212462,1.2837493249,-9.619146852,-0.7788637562999999,1375
84344,184501,212440,1.2287144051,-9.7232346351,-0.8111668613999999,1376
84259,184469,212495,1.2143574695,-9.6239324972,-0.8398807326,1377
84239,184494,212486,1.1629117836,-9.726823869,-0.8542376682,1378
84237,184543,212494,1.3746765837,-9.6729853605,-0.8135596839999999,1379
84264,184559,212475,1.1473584366999998,-9.7531449176,-0.8566304908000001,1380
84313,184537,212487,1.2454641632999999,-9.667003304,-0.8482556117000001,1381
84365,184458,212528,1.1688938401,-9.7196454012,-0.8207381518,1382
84369,184546,212532,1.3232308977999998,-9.6406822554,-0.8757730716000001,1383
84396,184530,212480,1.148554848,-9.5437729401,-0.8135596839999999,1384
84416,184530,212550,1.1880364209,-9.6490571345,-0.9176474671,1385
84449,184534,212563,1.2610175101999999,-9.643075077999999,-0.8566304908000001,1386
84490,184573,212566,1.1700902514,-9.620343263299999,-0.8195417405,1387
84525,184582,212588,1.2777672683999999,-9.634700198900001,-0.7525427077,1388
84602,184498,212586,1.2909277927,-9.631110965,-0.7549355303,1389
84638,184589,212602,1.2490533972,-9.5665047548,-0.7992027483999999,1390
84722,184572,212560,1.2239287599,-9.745966449800001,-0.8422735552,1391
84758,184598,212588,1.1772687192,-9.726823869,-0.7932206919,1392
84815,184614,212568,1.3304093655999998,-9.6167540294,-0.8374879099999999,1393
84869,184632,212589,1.2155538808,-9.562915520899999,-0.765703232,1394
84909,184643,212641,1.1712866627,-9.6382894328,-0.7322037156,1395
84947,184527,212572,1.2095718243,-9.5700939887,-0.7752745223999999,1396
85026,184611,212599,1.4141581566,-9.7519485063,-0.7944171031999999,1397
85048,184662,212592,1.3148560187,-9.710074110799999,-0.7920242806,1398
85112,184692,212593,1.2873385588,-9.5916293921,-0.7393821834000001,1399
85172,184710,212593,1.2837493249,-9.674181771799999,-0.8183453291999999,1400
85031,184602,212570,1.2681959779999998,-9.6981099978,-0.7609175868,1401
84839,184618,212540,1.2741780345,-9.5916293921,-0.8422735552,1402
84697,184527,212526,1.2059825904,-9.811769071299999,-0.7202396026000001,1403
84602,184514,212545,1.1581261384000001,-9.786644434,-0.6891329087999999,1404
84557,184508,212538,1.0564311779,-9.7220382238,-0.7154539574000001,1405
84547,184534,212561,1.1341979124,-9.687342296099999,-0.777667345,1406
84591,184588,212499,1.232303639,-9.6418786667,-0.6819544409999999,1407
84660,184574,212581,1.1940184774,-9.7734839097,-0.7106683122,1408
84673,184539,212587,1.0923235169,-9.7064848769,-0.6963113766000001,1409
84720,184576,212556,1.0911271056,-9.69093153,-0.6544369810999999,1410
84714,184553,212564,1.1808579531,-9.688538707400001,-0.7836494015,1411
84725,184522,212607,1.2454641632999999,-9.7950193131,-0.7010970218,1412
84748,184558,212595,1.1437692028,-9.6705925379,-0.7561319416,1413
84783,184573,212565,1.2215359373,-9.7974121357,-0.7010970218,1414
84834,184594,212528,1.3052847283,-9.667003304,-0.7405785947,1415
84792,184591,212610,1.1868400096,-9.6574320136,-0.7226324252,1416
84908,184562,212576,1.1222337994,-9.7052884656,-0.6675975054,1417
84939,184594,212578,1.2179467034,-9.7304131029,-0.7393821834000001,1418
84998,184633,212618,1.2191431147,-9.6119683842,-0.7692924659,1419
85029,184610,212639,1.1808579531,-9.7124669334,-0.7010970218,1420
85060,184593,212601,1.1569297271,-9.547362174,-0.6185446421,1421
85020,184663,212604,0.8590233134,-8.1786676468,0.2572284295,1422
84981,184507,212545,1.0516455327,-9.1441715659,-0.6269195211999999,1423
84828,184543,212443,1.3507483577,-9.6083791503,-0.7262216591,1424
84732,184493,212454,1.3770694063,-9.6622176588,-0.6951149653,1425
84706,184505,212471,1.3268201317000001,-9.7184489899,-0.8207381518,1426
84689,184532,212461,1.387837108,-9.5437729401,-0.777667345,1427
84597,184474,212421,1.4943177136999999,-9.6634140701,-0.8578269021,1428
84459,184423,212466,1.3100703735,-9.4133641084,-0.6628118601999999,1429
84339,184432,212449,1.3674981159,-9.5138626576,-0.6891329087999999,1430
84372,184421,212480,1.2406785181,-9.6717889492,-0.7190431913,1431
84420,184488,212473,1.2873385588,-9.7902336679,-0.8470592004,1432
84457,184473,212497,1.375872995,-9.6586284249,-0.7513462964000001,1433
84542,184464,212547,1.328016543,-9.6155576181,-0.8542376682,1434
84615,184517,212553,1.2717852119000002,-9.7483592724,-0.7154539574000001,1435
84629,184500,212558,1.2873385588,-9.6502535458,-0.7465606512,1436
84639,184463,212524,1.1928220661,-9.6813602396,-0.6711867393,1437
84597,184486,212569,1.3830514628000001,-9.7304131029,-0.7932206919,1438
84496,184505,212544,1.3507483577,-9.6861458848,-0.7357929495000001,1439
84582,184431,212511,1.3316057769,-9.6514499571,-0.8362914987,1440
84602,184483,212529,1.3495519463999999,-9.7316095142,-0.8303094421999999,1441
84620,184492,212510,1.4668002538,-9.5605226983,-0.8937192411,1442
84619,184497,212513,1.3447663012,-9.559326287,-0.8231309743999999,1443
84596,184491,212511,1.4153545679,-9.6023970938,-0.8159525066,1444
84656,184502,212531,1.375872995,-9.6107719729,-0.8183453291999999,1445
84654,184498,212484,1.3363914221,-9.6813602396,-0.8542376682,1446
84684,184519,212521,1.3710873497999998,-9.700502820399999,-0.8267202082999999,1447
84670,184509,212497,1.328016543,-9.774680321,-0.7848458128,1448
84686,184425,212526,1.519442351,-9.799804958300001,-0.849452023,1449
84708,184469,212508,1.351944769,-9.7184489899,-0.8350950873999999,1450
84720,184514,212502,1.2658031554,-9.5940222147,-0.7046862557000001,1451
84756,184496,212488,1.3734801723999999,-9.6370930215,-0.9224331123,1452
84735,184499,212496,1.4021940436,-9.6095755616,-0.8757730716000001,1453
84753,184525,212481,1.3304093655999998,-9.6239324972,-0.7860422241,1454
84614,184453,212481,1.4273186809,-9.69093153,-0.8195417405,1455
84427,184421,212447,1.4691930764,-9.6825566509,-0.9140582332,1456
84285,184334,212432,1.3794622289,-9.589236569499999,-0.8769694829,1457
84210,184368,212403,1.4033904549,-9.7603233854,-0.8997012976000001,1458
84174,184355,212393,1.375872995,-9.665806892700001,-0.8997012976000001,1459
84055,184368,212441,1.2753744458,-9.7016992317,-0.7429714173,1460
84151,184385,212442,1.3615160593999998,-9.595218626,-0.8027919822999999,1461
84230,184350,212437,1.2490533972,-9.741180804599999,-0.9164510558,1462
84241,184425,212449,1.4368899712999998,-9.6861458848,-0.7692924659,1463
84272,184397,212473,1.3842478741,-9.510273423700001,-0.7621139981,1464
84285,184381,212403,1.3196416639,-9.688538707400001,-0.921236701,1465
84289,184400,212428,1.3986048097,-9.621539674600001,-0.8207381518,1466
84338,184393,212440,1.2550354537,-9.7172525786,-0.8422735552,1467
84367,184324,212467,1.2825529136,-9.6921279413,-0.9164510558,1468
84412,184400,212509,1.4177473905,-9.6957171752,-0.8279166196,1469
84459,184434,212493,1.2945170266,-9.6227360859,-0.8147560952999999,1470
84510,184423,212496,1.4105689227,-9.702895643,-0.8997012976000001,1471
84558,184435,212506,1.2861421475,-9.7304131029,-0.7728816998,1472
84616,184423,212505,1.2227323486,-9.6765745944,-0.7597211755,1473
84665,184457,212516,1.2957134379000002,-9.7316095142,-0.7848458128,1474
84713,184504,212543,1.2646067441000002,-9.674181771799999,-0.8662017812,1475
84774,184499,212547,1.256231865,-9.6287181424,-0.8518448456000001,1476
84725,184501,212553,1.2538390423999999,-9.6239324972,-0.7992027483999999,1477
84851,184521,212509,1.4225330357,-9.5377908836,-0.8685946038000001,1478
84943,184480,212565,1.3938191645,-9.6107719729,-0.8374879099999999,1479
84995,184527,212554,1.3292129543,-9.5389872949,-0.8398807326,1480
84963,184485,212516,1.280160091,-9.688538707400001,-0.801595571,1481
84814,184471,212470,1.2251251712,-9.6693961266,-0.6927221427000001,1482
84651,184420,212456,1.1138589203,-9.6514499571,-0.7788637562999999,1483
84571,184379,212487,1.2825529136,-9.6406822554,-0.7716852885,1484
84505,184392,212455,1.2825529136,-9.702895643,-0.8231309743999999,1485
84500,184394,212434,1.2251251712,-9.7292166916,-0.741775006,1486
84496,184368,212468,1.1700902514,-9.5270231819,-0.8075776275,1487
84535,184356,212449,1.2227323486,-9.643075077999999,-0.765703232,1488
84600,184404,212477,1.3220344865,-9.7435736272,-0.7310073043,1489
84626,184424,212513,1.232303639,-9.6646104814,-0.7716852885,1490
84639,184460,212495,1.0983055734,-9.6059863277,-0.7286144817,1491
84664,184330,212509,1.136590735,-9.5700939887,-0.7872386353999999,1492
84696,184427,212467,1.1461620254,-9.6646104814,-0.8602197247000001,1493
84736,184479,212486,1.2299108163999999,-9.7435736272,-0.6855436748999999,1494
84789,184438,212529,1.2131610582,-9.7722874984,-0.7585247642,1495
84887,184430,212530,1.2346964616,-9.643075077999999,-0.6903293201,1496
84805,184484,212479,1.1796615418,-9.6861458848,-0.729810893,1497
84950,184409,212505,1.3148560187,-9.6263253198,-0.7262216591,1498
85010,184505,212530,1.2717852119000002,-9.5916293921,-0.7441678286,1499
85067,184531,212547,1.2849457361999999,-9.6478607232,-0.7728816998,1500
85114,184514,212531,1.2382856955,-9.634700198900001,-0.6927221427000001,1501
85157,184520,212571,1.1222337994,-9.5820581017,-0.801595571,1502
85214,184533,212551,1.1964113,-9.7878408453,-0.7980063370999999,1503
85284,184530,212578,1.1090732750999999,-9.598807859899999,-0.7010970218,1504
85322,184544,212579,1.1533404932,-9.6574320136,-0.7429714173,1505
85379,184617,212597,1.2370892842,-9.667003304,-0.7310073043,1506
85406,184557,212516,1.0564311779,-9.702895643,-0.6975077879,1507
85302,184464,212509,1.2897313814,-9.6143612068,-0.6735795618999999,1508
85100,184452,212448,1.1700902514,-9.7256274577,-0.6747759731999999,1509
84937,184414,212437,1.1868400096,-9.6012006825,-0.6915257314000001,1510
84859,184439,212450,1.3100703735,-9.5724868113,-0.6496513358999999,1511
84789,184439,212471,1.0899306943,-9.6478607232,-0.7022934331,1512
84823,184413,212412,1.1581261384000001,-9.6179504407,-0.6879364975,1513
84767,184372,212442,1.1676974288,-9.6251289085,-0.6257231099,1514
84791,184412,212444,1.1916256548,-9.7256274577,-0.8159525066,1515
84844,184426,212491,1.1425727915,-9.7160561673,-0.5946164161,1516
84829,184395,212459,1.2131610582,-9.6358966102,-0.7142575461,1517
84794,184379,212401,1.2418749294,-9.738787982,-0.8159525066,1518
