green,red,IR,acc_x,acc_y,acc_z,sample_index
79238,191263,245880,4.9579284272,-4.917250443,6.831508523,1
79410,191273,245927,5.0835516137,-4.9639104837,6.8626152168,2
79655,191382,245948,4.9830530645,-4.8083770147,6.8961147332,3
79896,191451,245997,4.893322217,-4.857429878,6.932007072199999,4
80195,191500,246086,4.9471607255,-4.899304273499999,6.8997039671,5
80467,191595,246123,4.9818566531999995,-4.8251267729,6.8087767083,6
80718,191652,246106,5.0392843956,-4.8263231842,6.7764736032,7
80937,191722,246192,5.0895336702,-4.8514478215,6.855436749,8
81137,191754,246249,5.1338008883,-4.8394837085,6.8578295716,9
81378,191800,246275,5.0045884679,-4.8394837085,6.8291157004,10
81101,191706,246194,5.0117669357,-4.9124647978,6.8075802969999994,11
80102,191312,245948,5.0285166938999994,-4.9399822577,6.8542403377,12
79158,191084,245804,5.02492746,-4.850251410199999,6.783652071000001,13
78599,190915,245721,4.9794638306,-4.9328037898999995,6.8566331603,14
78605,190888,245692,5.060819799,-4.748556449700001,6.8602223942,15
78736,190908,245700,4.9674997176,-4.8598227006,6.7669023128,16
78869,190956,245671,5.0033920566,-4.8741796362,6.8566331603,17
79115,191036,245744,5.0931229041,-4.7964129017,6.8147587648000005,18
79365,191107,245846,4.9722853628,-4.9435714916,6.740581264199999,19
79527,191088,245860,4.9818566531999995,-4.9316073786,6.786044893600001,20
79629,191144,245860,5.085944436299999,-4.9112683865,6.8099731195999995,21
79709,191164,245840,4.8897329831,-4.8861437492,6.8542403377,22
79824,191184,245900,5.0835516137,-4.8550370553999995,6.8733829185,23
80012,191245,245886,4.965106895,-4.850251410199999,6.7932233614,24
80216,191307,245913,5.02492746,-4.869393991,6.8733829185,25
80464,191437,245978,5.0955157266999995,-4.90528633,6.9284178383,26
80686,191462,246065,4.9507499594,-4.9184468543,6.8925254993,27
80911,191465,246097,4.941178669,-4.9435714916,6.759723845,28
81041,191580,246165,5.0919264928,-4.9076791526,6.8949183219000005,29
81292,191666,246108,4.9698925402,-4.8849473379,6.782455659699999,30
81495,191643,246200,5.0500520973,-4.878965281399999,6.7465633207,31
81688,191774,246256,4.989035121000001,-4.8251267729,6.7381884416,32
81673,191690,246243,5.02492746,-4.8741796362,6.8159551761,33
80902,191506,246114,4.8957150396,-4.9256253221,6.8877398540999994,34
79647,191122,245845,5.0141597583,-4.8885365718,6.8135623535,35
78723,190885,245689,5.0069812905,-4.8430729424,6.8339013456,36
78388,190731,245648,5.0201418148,-4.8717868136,6.7429740868,37
78347,190799,245664,4.9962135888,-5.0213382261,6.770491546700001,38
78296,190821,245656,5.114658307499999,-4.9710889515,6.8291157004,39
78519,190877,245703,4.8801616927,-4.8777688701,6.8506511038,40
78725,190968,245740,5.0476592747,-4.7605205627,6.8219372326,41
78882,190897,245726,5.0656054442,-4.8717868136,6.757331022400001,42
78953,190993,245797,5.0524449199,-4.8143590712,6.836294168199999,43
78951,191011,245804,5.1218367753,-4.9244289108,6.7764736032,44
79008,191057,245850,4.9627140724,-4.8059841921,6.823133643899999,45
79163,191109,245805,4.989035121000001,-4.9555356046000005,6.7740807806,46
79279,191141,245903,5.085944436299999,-4.9351966125,6.838686990799999,47
79386,191202,245936,5.0883372589,-4.881358104,6.7932233614,48
79647,191270,245991,5.0285166938999994,-4.9938207662,6.735795619,49
79847,191342,246009,4.965106895,-4.8562334667,6.7920269500999995,50
79973,191402,246079,4.9698925402,-4.8370908858999995,6.783652071000001,51
80167,191463,246121,5.112265484900001,-4.8765724588,6.757331022400001,52
80344,191511,246143,4.9938207662,-4.9232324995,6.81954441,53
80501,191564,246194,5.0309095165,-4.917250443,6.8446690473,54
80670,191655,246238,5.0177489922000005,-4.9136612091,6.8171515874,55
80679,191601,246228,5.02492746,-4.8478585876,6.866204450700001,56
79996,191414,246092,4.9495535481,-4.9256253221,6.851847515099999,57
78688,191062,245930,5.044070040799999,-4.9435714916,6.8075802969999994,58
77685,190805,245680,4.965106895,-4.9328037898999995,6.8458654586,59
77328,190744,245620,5.0273202826,-4.7676990305,6.8829542089,60
77339,190738,245666,4.9507499594,-4.788038022599999,6.786044893600001,61
77377,190793,245663,4.9459643142,-4.850251410199999,6.798009006599999,62
77617,190818,245723,4.8729832249000005,-4.9028935074,6.6963140460999995,63
77924,190898,245823,5.0775695572,-4.7449672158,6.906882434900001,64
78091,190942,245820,5.036891573,-4.8299124181,6.8949183219000005,65
78212,191011,245860,5.0333023391000005,-4.844269353700001,6.7489561433,66
78240,191067,245878,5.0931229041,-4.9088755639,6.735795619,67
78315,191033,245911,5.0835516137,-4.7796631435,6.7501525546,68
78334,191109,245927,5.044070040799999,-5.0141597583,6.7908305388,69
78634,191173,245975,5.0309095165,-4.9555356046000005,6.798009006599999,70
78784,191237,245994,4.9986064114,-4.878965281399999,6.8877398540999994,71
78965,191305,246064,4.9603212498,-4.899304273499999,6.7453669094,72
79252,191388,246120,5.0919264928,-4.917250443,6.831508523,73
79463,191464,246191,4.977071008,-4.9363930238,6.7381884416,74
79655,191488,246199,5.0931229041,-4.8394837085,6.7226350947,75
79846,191632,246263,4.9854458871,-4.8023949582,6.8506511038,76
79927,191666,246269,5.0955157266999995,-4.8311088294,6.8374905795,77
80215,191792,246312,5.0189454035,-4.8239303616,6.8004018292,78
80315,191775,246363,5.0057848792,-4.9220360882000005,6.7453669094,79
79747,191623,246236,5.0428736295,-4.893322217,6.7274207398999994,80
78548,191271,246022,4.9674997176,-4.9974100001,6.839883402099999,81
77564,190992,245829,5.0380879843,-4.8861437492,6.8410798134,82
77217,190864,245802,4.917250443,-4.9005006848,6.8004018292,83
77302,190830,245790,4.9304109673,-4.797609313,6.8219372326,84
77506,190954,245867,4.977071008,-4.845465765,6.735795619,85
77793,191050,245851,4.9471607255,-4.8000021356,6.8614188055,86
78113,191105,245968,5.044070040799999,-4.917250443,6.836294168199999,87
78301,191267,246023,4.9112683865,-4.8801616927,6.880561386299999,88
78375,191221,246016,5.0045884679,-4.850251410199999,6.8027946518,89
78418,191251,246015,4.9986064114,-4.8550370553999995,6.8051874744,90
78490,191246,246000,4.9387858464,-4.8071806034,6.8350977569,91
78606,191290,246028,5.0943193154,-4.9674997176,6.8566331603,92
78767,191399,246084,4.9459643142,-4.7605205627,6.866204450700001,93
78984,191423,246147,4.9794638306,-4.816751893799999,6.8602223942,94
79288,191479,246204,5.0464628634,-4.8957150396,6.7214386834,95
79463,191593,246236,5.0691946781,-4.8550370553999995,6.9020967897,96
79672,191645,246260,5.0189454035,-4.8430729424,6.855436749,97
79833,191685,246321,4.941178669,-4.850251410199999,6.8877398540999994,98
80055,191753,246337,4.9866422984,-4.9220360882000005,6.8578295716,99
80262,191767,246356,5.057230565099999,-4.9005006848,6.8829542089,100
80337,191836,246397,4.9555356046000005,-4.7988057243,6.9786671129,101
79749,191643,246271,4.989035121000001,-4.7964129017,6.8075802969999994,102
78542,191284,246036,4.9627140724,-4.8466621763,6.836294168199999,103
77729,191054,245893,5.036891573,-4.869393991,6.7645094902,104
77512,190990,245864,4.9926243549,-4.8430729424,6.8171515874,105
77645,190978,245884,4.9483571368,-4.9220360882000005,6.7477597320000005,106
77873,191097,245950,5.0392843956,-4.8765724588,6.7992054179000005,107
78167,191161,245981,4.9746781854,-4.7928236678,6.8147587648000005,108
78471,191126,246005,4.9483571368,-4.8622155232,6.7657059015,109
78683,191281,246040,5.0751767346,-4.8011985469,6.81954441,110
78786,191295,246076,4.9555356046000005,-4.8957150396,6.7621166676,111
78872,191314,246040,4.9866422984,-4.893322217,6.8171515874,112
79018,191381,246121,4.809573426,-4.9184468543,6.8219372326,113
79219,191406,246125,4.953142782,-4.8538406441,6.8542403377,114
79462,191500,246223,4.9830530645,-4.990231532299999,6.8721865072,115
79720,191544,246213,4.9794638306,-4.9148576204,6.906882434900001,116
80009,191570,246281,4.9627140724,-4.926821733400001,6.8458654586,117
80242,191707,246354,5.0201418148,-4.9244289108,6.757331022400001,118
80522,191771,246364,5.0153561695999995,-4.8526442328,6.866204450700001,119
80764,191835,246391,4.899304273499999,-4.9005006848,6.8745793297999995,120
81003,191882,246468,4.8251267729,-4.8705904022999995,6.8470618699,121
81252,191971,246502,4.9112683865,-4.8155554825,6.7908305388,122
81334,191870,246516,5.0787659685,-4.7916272565,6.8733829185,123
80650,191757,246305,5.010570524399999,-4.899304273499999,6.735795619,124
79592,191440,246107,5.0081777018,-4.9483571368,6.771687958,125
78806,191144,245964,5.114658307499999,-4.9746781854,6.8267228778,126
78615,191122,245939,4.9986064114,-4.9387858464,6.7884377162,127
78619,191081,245912,5.1708896386,-4.7700918531,6.8291157004,128
78763,191122,245936,5.0093741131,-4.9148576204,6.8135623535,129
78990,191175,245973,4.9710889515,-4.8681975797,6.759723845,130
79285,191310,246022,5.0464628634,-4.9507499594,6.8410798134,131
79557,191329,246067,4.9543391933,-4.893322217,6.9092752575,132
79712,191326,246062,5.0392843956,-4.8430729424,6.7669023128,133
79826,191411,246079,5.112265484900001,-4.8981078622,6.6951176348,134
79978,191441,246133,5.0835516137,-4.9232324995,6.6604217071,135
80153,191460,246144,4.9722853628,-4.9220360882000005,6.7549381998,136
80378,191495,246184,4.9806602419,-4.9507499594,6.7262243286,137
80668,191628,246235,5.1314080657000005,-4.8131626599,6.795616184,138
80910,191721,246260,4.917250443,-4.8370908858999995,6.8566331603,139
81181,191760,246341,5.0931229041,-4.8203411277,6.783652071000001,140
81429,191781,246353,5.012963347,-4.857429878,6.8291157004,141
81682,191914,246385,5.1110690735999995,-4.9220360882000005,6.7262243286,142
81926,191974,246487,4.9938207662,-4.7724846757,6.8255264665,143
82140,192024,246464,4.9818566531999995,-4.7892344339,6.8446690473,144
82334,192132,246505,5.0476592747,-4.8311088294,6.7764736032,145
82029,191949,246422,4.965106895,-4.8981078622,6.8757757411,146
81030,191620,246241,4.9459643142,-4.8598227006,6.795616184,147
80073,191380,246050,4.8861437492,-4.8885365718,6.8685972733,148
79557,191216,245978,5.1230331866,-4.850251410199999,6.8410798134,149
79495,191187,245939,4.9148576204,-4.8203411277,6.8925254993,150
79639,191251,245941,4.9579284272,-4.8981078622,6.906882434900001,151
79741,191268,245998,4.9722853628,-4.9698925402,6.7932233614,152
79954,191333,246042,5.0069812905,-4.850251410199999,6.8291157004,153
80208,191419,246036,5.0464628634,-4.9962135888,6.7501525546,154
80363,191475,246062,5.0237310487,-4.8191447164,6.8171515874,155
80458,191473,246158,4.9782674193,-5.026123871299999,6.8171515874,156
80539,191485,246130,5.010570524399999,-4.8885365718,6.7728843693,157
80657,191528,246152,5.0668018555,-4.8705904022999995,6.8949183219000005,158
80803,191605,246208,5.041677218199999,-4.8861437492,6.759723845,159
80993,191636,246206,5.1481578239,-4.7868416113,6.8709900959,160
81208,191749,246262,4.9842494758,-4.9256253221,6.8853470315,161
81417,191782,246311,5.102694194500001,-5.0189454035,6.8458654586,162
81615,191796,246352,5.0392843956,-4.9220360882000005,6.8709900959,163
81799,191889,246387,4.965106895,-4.9591248385,6.8925254993,164
81982,191979,246459,5.0392843956,-4.8562334667,6.7070817478,165
82140,191973,246479,5.012963347,-4.9028935074,6.8303121117,166
82287,192084,246482,4.9663033062999995,-4.883750926599999,6.8291157004,167
82426,192139,246492,4.9627140724,-4.7748774982999995,6.7884377162,168
81949,191933,246422,4.9722853628,-4.9196432655999995,6.7896341275,169
80753,191612,246226,5.0883372589,-4.9316073786,6.8015982405,170
79596,191319,245975,5.0045884679,-4.9435714916,6.8004018292,171
79023,191169,245895,5.0524449199,-4.9447679029,6.7477597320000005,172
78814,191120,245910,4.9938207662,-4.845465765,6.8075802969999994,173
78885,191167,245896,4.9064827413000005,-4.8598227006,6.6927248122,174
79019,191222,245906,5.1505506465,-4.8717868136,6.8267228778,175
79245,191256,245984,5.1589255256,-4.8107698373000005,6.795616184,176
79477,191351,246000,5.071587500700001,-4.878965281399999,6.786044893600001,177
79574,191361,246079,5.0225346374,-4.7676990305,6.757331022400001,178
79587,191338,246051,5.0679982668,-4.8741796362,6.8279192891000005,179
79609,191404,246054,4.9818566531999995,-4.9830530645,6.7908305388,180
79704,191418,246099,4.9698925402,-4.833501652,6.8829542089,181
79825,191440,246111,5.0500520973,-4.9914279436,6.7046889252,182
79958,191534,246111,4.977071008,-4.7676990305,6.8374905795,183
80169,191592,246168,5.045266452099999,-4.9363930238,6.7992054179000005,184
80401,191659,246236,5.0069812905,-4.857429878,6.7118673929999995,185
80564,191710,246282,4.9794638306,-4.701896409,6.7453669094,186
80720,191744,246338,5.1086762509999994,-4.8311088294,6.798009006599999,187
80859,191814,246344,5.0285166938999994,-4.857429878,6.8171515874,188
81029,191880,246366,5.000999234,-4.8263231842,6.8075802969999994,189
81171,191878,246388,5.085944436299999,-4.8275195955,6.8829542089,190
81247,191935,246429,4.8538406441,-4.8741796362,6.8841506202,191
80787,191801,246277,4.8299124181,-4.9423750803,6.8997039671,192
79535,191418,246145,4.9962135888,-4.8622155232,6.8027946518,193
78395,191138,245873,4.9854458871,-4.8346980633,6.8350977569,194
77826,190980,245846,5.070391089399999,-4.953142782,6.7884377162,195
77698,190982,245813,5.0787659685,-4.8705904022999995,6.7501525546,196
77919,191017,245828,5.0668018555,-4.8323052407,6.906882434900001,197
78161,191015,245918,4.9998028226999995,-4.8299124181,6.9164537253,198
78441,191162,245978,4.9794638306,-4.9028935074,6.918846547899999,199
78621,191181,245968,5.0117669357,-4.748556449700001,6.7465633207,200
78701,191278,245993,4.9579284272,-4.9435714916,6.8171515874,201
78698,191232,246017,4.965106895,-4.8765724588,6.7621166676,202
78744,191233,246017,5.1338008883,-4.8047877808,6.7381884416,203
78825,191285,246036,4.9746781854,-4.929214556,6.8267228778,204
78950,191331,246049,5.0931229041,-4.8478585876,6.8147587648000005,205
79116,191401,246148,5.0895336702,-4.8849473379,6.7669023128,206
79329,191506,246173,4.9938207662,-4.9064827413000005,6.903293200999999,207
79555,191513,246186,5.0045884679,-4.8430729424,6.7740807806,208
79740,191566,246218,5.032105927799999,-4.754538506199999,6.7764736032,209
79903,191591,246253,5.0153561695999995,-4.8047877808,6.8099731195999995,210
80068,191667,246325,4.9340002012,-4.8957150396,6.9116680801,211
80181,191755,246355,4.9854458871,-4.90528633,6.769295135399999,212
80228,191735,246295,5.029713105200001,-4.7006999977,6.866204450700001,213
79630,191599,246214,4.9914279436,-4.748556449700001,6.759723845,214
78379,191199,245999,4.9782674193,-4.9459643142,6.8039910631,215
77389,190900,245780,4.9962135888,-4.961517661099999,6.843472636,216
77062,190814,245752,4.883750926599999,-4.8418765311,6.8769721524,217
77049,190775,245721,5.0057848792,-4.7198425785,6.7884377162,218
77219,190820,245734,4.9471607255,-4.8430729424,6.8446690473,219
77453,190892,245809,4.9698925402,-4.878965281399999,6.8279192891000005,220
77733,190941,245841,4.9447679029,-4.7892344339,6.8542403377,221
77953,191043,245911,5.0273202826,-4.8406801198,6.8159551761,222
77965,191026,245905,4.9674997176,-4.90528633,6.8291157004,223
77981,191025,245925,4.878965281399999,-4.850251410199999,6.7142602155999995,224
78046,191065,245969,5.0679982668,-4.9028935074,6.8506511038,225
78191,191105,245970,4.9447679029,-4.8490549989,6.880561386299999,226
78396,191181,245990,4.9076791526,-4.8490549989,6.9619173547,227
78537,191223,246027,4.9340002012,-4.90528633,6.8171515874,228
78781,191293,246114,5.045266452099999,-4.797609313,6.771687958,229
79037,191357,246150,5.0404808069,-4.8119662486,6.8470618699,230
79150,191358,246185,4.9579284272,-4.8717868136,6.7740807806,231
79404,191431,246243,4.9435714916,-4.782055966100001,6.7932233614,232
79593,191577,246318,5.1780681064,-4.893322217,6.8566331603,233
79774,191568,246325,4.961517661099999,-4.9998028226999995,6.769295135399999,234
79616,191539,246283,4.9016970961,-4.8981078622,6.8171515874,235
78610,191225,246074,4.9471607255,-4.8107698373000005,6.6951176348,236
77367,190841,245848,4.9483571368,-4.8765724588,6.851847515099999,237
76600,190575,245720,4.929214556,-4.9005006848,6.8949183219000005,238
76481,190553,245706,5.0344987504,-4.845465765,6.7322063851000005,239
76572,190547,245701,5.000999234,-4.9842494758,6.7740807806,240
76745,190602,245706,4.9351966125,-4.8861437492,6.8004018292,241
76951,190674,245752,4.9878387097,-4.850251410199999,6.8482582812,242
77316,190709,245768,4.9854458871,-4.8670011684,6.9044896123,243
77544,190796,245840,4.9579284272,-4.8382872972,6.7812592484,244
77663,190826,245919,5.0189454035,-4.8885365718,6.8482582812,245
77746,190900,245891,5.0153561695999995,-4.9483571368,6.786044893600001,246
77857,190917,245915,4.965106895,-4.965106895,6.851847515099999,247
78045,190928,245946,5.0285166938999994,-4.8741796362,6.8087767083,248
78274,191003,245986,5.058426976400001,-4.8000021356,6.8255264665,249
78543,191088,246082,4.9507499594,-4.8562334667,6.7621166676,250
78823,191164,246094,5.045266452099999,-4.9507499594,6.7884377162,251
79052,191235,246141,4.9076791526,-4.9016970961,6.81954441,252
79282,191261,246195,5.0057848792,-4.8753760475,6.783652071000001,253
79501,191359,246220,4.9794638306,-4.9722853628,6.7740807806,254
79724,191502,246259,4.9818566531999995,-4.881358104,6.8171515874,255
79957,191471,246373,4.9722853628,-4.8885365718,6.8027946518,256
80009,191520,246349,5.010570524399999,-4.9555356046000005,6.7848484823,257
79314,191279,246206,4.9280181447,-4.8478585876,6.8638116281,258
78122,190831,245962,5.0141597583,-4.9244289108,6.770491546700001,259
77329,190668,245818,5.0620162103,-4.8059841921,6.849454692499999,260
77177,190603,245743,5.1086762509999994,-4.7868416113,6.866204450700001,261
77352,190639,245815,5.0835516137,-4.8658047571,6.756134611099999,262
77570,190670,245812,5.0428736295,-4.8526442328,6.7334027964,263
77860,190780,245858,4.9986064114,-4.8729832249000005,6.81954441,264
78208,190780,245914,5.012963347,-4.8514478215,6.8829542089,265
78484,190914,245969,4.9842494758,-4.893322217,6.7884377162,266
78668,190960,246014,4.917250443,-4.8203411277,6.8004018292,267
78849,190975,245995,5.0081777018,-4.9435714916,6.798009006599999,268
78921,191025,246037,5.0907300815,-4.8478585876,6.8374905795,269
79163,191086,246096,5.084748025,-4.8155554825,6.8542403377,270
79462,191188,246098,4.9962135888,-4.929214556,6.7812592484,271
79782,191247,246222,5.0153561695999995,-4.8681975797,6.7453669094,272
80104,191359,246235,5.0763731459,-4.941178669,6.7106709817,273
80417,191363,246257,4.9519463707,-4.8023949582,6.786044893600001,274
80717,191500,246332,5.1014977832,-4.8406801198,6.757331022400001,275
81006,191626,246454,5.0620162103,-4.8957150396,6.7788664257999995,276
81295,191655,246425,4.9555356046000005,-4.8598227006,6.7788664257999995,277
81567,191754,246507,4.9639104837,-4.977071008,6.8865434428,278
81872,191804,246534,5.1768716951,-4.9663033062999995,6.759723845,279
82047,191873,246564,4.9722853628,-4.845465765,6.7106709817,280
81631,191711,246472,5.0201418148,-4.8263231842,6.853043926400001,281
80599,191373,246221,4.9316073786,-4.9674997176,6.7669023128,282
79784,191152,246101,5.0213382261,-4.90528633,6.843472636,283
79520,191056,246004,4.9399822577,-4.8670011684,6.7728843693,284
79616,191053,246031,5.0392843956,-4.8011985469,6.798009006599999,285
79838,191108,246073,5.0273202826,-4.9399822577,6.769295135399999,286
80100,191195,246100,5.0476592747,-4.8586262893,6.8219372326,287
80444,191277,246157,5.1074798397,-4.9124647978,6.6927248122,288
80634,191363,246205,5.0560341538,-4.8550370553999995,6.8446690473,289
80815,191403,246206,4.9124647978,-4.9244289108,6.880561386299999,290
80975,191427,246239,4.9962135888,-4.9387858464,6.795616184,291
81227,191451,246280,5.0524449199,-5.036891573,6.770491546700001,292
81425,191532,246331,4.9986064114,-4.8586262893,6.7381884416,293
81657,191599,246351,4.9962135888,-4.9722853628,6.878168563699999,294
81913,191671,246425,4.9818566531999995,-4.7724846757,6.786044893600001,295
82190,191675,246494,5.000999234,-4.7808595548,6.8255264665,296
82441,191810,246473,4.9986064114,-4.7988057243,6.7501525546,297
82753,191920,246528,5.1218367753,-4.8083770147,6.8506511038,298
83051,192004,246556,5.1218367753,-4.7509492723,6.8255264665,299
83259,192115,246635,4.989035121000001,-4.8370908858999995,6.771687958,300
83503,192105,246659,4.9471607255,-4.8945186283,6.7788664257999995,301
83712,192123,246702,5.0344987504,-4.8670011684,6.7740807806,302
83906,192206,246727,4.9674997176,-4.8323052407,6.8171515874,303
83703,192143,246661,5.000999234,-4.7928236678,6.8638116281,304
82710,191756,246555,4.989035121000001,-4.8586262893,6.8733829185,305
81587,191508,246305,5.0787659685,-4.8622155232,6.8147587648000005,306
80964,191385,246196,4.926821733400001,-4.8670011684,6.831508523,307
80832,191389,246168,5.0225346374,-5.010570524399999,6.7453669094,308
80896,191316,246179,4.8885365718,-4.8885365718,6.7310099738,309
81050,191480,246209,5.044070040799999,-4.9220360882000005,6.7752771919,310
81313,191566,246287,4.989035121000001,-4.8622155232,6.8099731195999995,311
81518,191582,246305,4.9627140724,-4.7665026192,6.783652071000001,312
81612,191608,246318,5.0093741131,-4.929214556,6.8638116281,313
81653,191630,246334,4.8777688701,-4.6827538282,6.8147587648000005,314
81644,191650,246292,5.0225346374,-4.9124647978,6.798009006599999,315
81706,191665,246362,5.0309095165,-4.995017177499999,6.7585274337,316
81801,191692,246393,4.9663033062999995,-4.8215375389999995,6.7884377162,317
81938,191783,246398,4.9698925402,-4.7748774982999995,6.8075802969999994,318
82119,191820,246462,5.029713105200001,-4.8550370553999995,6.8171515874,319
82307,191926,246532,5.1182475414,-4.7461636271,6.770491546700001,320
82490,191946,246547,4.9962135888,-4.8382872972,6.783652071000001,321
82652,191931,246564,5.085944436299999,-4.844269353700001,6.783652071000001,322
82775,192054,246576,5.1098726623,-4.9076791526,6.8458654586,323
82902,192137,246568,5.0428736295,-4.8885365718,6.867400862,324
83058,192124,246662,5.057230565099999,-4.8215375389999995,6.8410798134,325
82713,191965,246583,5.0979085493,-4.7569313288,6.8147587648000005,326
81455,191707,246387,4.965106895,-4.953142782,6.7621166676,327
80050,191360,246138,4.989035121000001,-4.881358104,6.8099731195999995,328
79223,191166,246062,4.9986064114,-4.8981078622,6.8123659422000005,329
79077,191135,246064,5.0691946781,-4.8406801198,6.8685972733,330
79147,191200,246073,5.0356951617,-4.8490549989,6.8159551761,331
79288,191205,246077,5.032105927799999,-4.8275195955,6.7764736032,332
79515,191281,246128,4.9459643142,-4.850251410199999,6.8542403377,333
79631,191324,246146,4.9962135888,-4.833501652,6.8602223942,334
79619,191341,246170,5.0021956453,-4.797609313,6.795616184,335
79518,191331,246164,4.9387858464,-4.8358944746,6.8542403377,336
79546,191308,246131,4.9794638306,-4.9160540317,6.786044893600001,337
79603,191338,246213,4.9148576204,-4.881358104,6.8841506202,338
79720,191445,246229,5.1637111708,-4.9722853628,6.7764736032,339
79922,191495,246261,5.0356951617,-4.8957150396,6.7645094902,340
80057,191506,246286,4.9028935074,-4.90528633,6.8123659422000005,341
80213,191563,246346,4.8969114509,-4.8011985469,6.838686990799999,342
80367,191631,246388,4.917250443,-4.926821733400001,6.9176501366,343
80505,191677,246391,5.0931229041,-4.7988057243,6.759723845,344
80651,191776,246420,4.9064827413000005,-4.850251410199999,6.853043926400001,345
80810,191778,246503,5.0213382261,-4.8741796362,6.8075802969999994,346
80724,191746,246451,4.9878387097,-4.850251410199999,6.865008039399999,347
79770,191465,246327,4.9938207662,-4.8323052407,6.8171515874,348
78321,191094,246084,5.0644090329,-4.9603212498,6.8039910631,349
77308,190783,245878,5.1469614126,-4.9005006848,6.8566331603,350
76986,190749,245797,5.0668018555,-4.9100719752,6.8853470315,351
77019,190741,245814,4.9842494758,-4.8382872972,6.838686990799999,352
77132,190712,245810,5.0285166938999994,-4.9076791526,6.7908305388,353
77289,190783,245874,5.0069812905,-4.7748774982999995,6.786044893600001,354
77527,190831,245949,4.9555356046000005,-4.8430729424,6.753741788499999,355
77763,190901,246005,5.0081777018,-4.7724846757,6.740581264199999,356
77803,190909,246008,4.9746781854,-4.8885365718,6.8087767083,357
77850,190942,246023,4.9722853628,-4.8681975797,6.8099731195999995,358
77917,190934,246092,4.9603212498,-4.9076791526,6.843472636,359
77939,190993,246084,5.0476592747,-4.9603212498,6.8171515874,360
78227,191069,246069,5.0285166938999994,-4.8526442328,6.8327049343,361
78446,191121,246166,5.1541398804,-4.8526442328,6.7669023128,362
78684,191177,246270,5.029713105200001,-4.9220360882000005,6.8566331603,363
78918,191305,246306,4.9686961289000005,-4.7078784655,6.8219372326,364
79113,191345,246300,4.9304109673,-4.9639104837,6.7740807806,365
79310,191432,246332,5.0201418148,-4.881358104,6.7728843693,366
79464,191429,246373,5.0548377425,-4.90528633,6.8004018292,367
79609,191519,246450,4.9124647978,-4.8179483051,6.8769721524,368
79837,191575,246474,5.041677218199999,-4.7509492723,6.843472636,369
79471,191449,246390,5.0524449199,-4.9028935074,6.963113765999999,370
78210,191091,246180,5.012963347,-4.8191447164,6.7740807806,371
77110,190747,245927,5.0632126216,-4.9363930238,6.7657059015,372
76616,190577,245822,5.0285166938999994,-4.8981078622,6.7872413049,373
76626,190565,245843,5.0919264928,-5.0081777018,6.8027946518,374
76819,190690,245919,5.0955157266999995,-4.953142782,6.8075802969999994,375
77030,190741,245924,4.8490549989,-4.9471607255,6.8075802969999994,376
77329,190760,245988,4.9866422984,-4.8119662486,6.8374905795,377
77621,190860,246013,4.9986064114,-4.850251410199999,6.8578295716,378
77798,190783,246040,5.1517470578,-4.8622155232,6.8877398540999994,379
77853,190889,246043,4.9698925402,-4.9232324995,6.7740807806,380
77952,190956,246084,4.953142782,-4.9734817741,6.8075802969999994,381
78200,191003,246131,4.9256253221,-4.8131626599,6.831508523,382
78415,191022,246168,4.9914279436,-4.8634119345,6.8482582812,383
78669,191101,246177,5.1110690735999995,-4.8861437492,6.8506511038,384
78948,191194,246273,5.070391089399999,-4.8263231842,6.7788664257999995,385
79232,191258,246282,5.0141597583,-4.857429878,6.8051874744,386
79548,191369,246339,5.0404808069,-4.9100719752,6.8626152168,387
79791,191433,246371,5.0141597583,-4.8370908858999995,6.8075802969999994,388
80058,191482,246459,5.0093741131,-4.8406801198,6.769295135399999,389
80340,191595,246464,4.9938207662,-4.9005006848,6.851847515099999,390
80573,191630,246493,4.989035121000001,-4.7605205627,6.8255264665,391
80392,191553,246485,5.1314080657000005,-4.8179483051,6.8614188055,392
79466,191253,246256,5.1038906058,-4.8622155232,6.7812592484,393
78557,190979,246092,5.0548377425,-4.9399822577,6.7884377162,394
78165,190808,246021,5.000999234,-4.8909293944,6.838686990799999,395
78249,190831,246010,5.0560341538,-4.8131626599,6.759723845,396
78515,190916,246024,5.0656054442,-4.7617169740000005,6.757331022400001,397
78821,191015,246074,5.044070040799999,-4.8203411277,6.9260250157000005,398
79198,191081,246175,5.0081777018,-4.878965281399999,6.8004018292,399
79526,191185,246233,5.0464628634,-4.9854458871,6.8255264665,400
79753,191209,246189,4.9710889515,-4.8909293944,6.8769721524,401
79940,191251,246284,4.929214556,-4.9160540317,6.8004018292,402
80103,191363,246283,5.060819799,-5.0165525809,6.811169530899999,403
80316,191393,246301,5.0524449199,-4.857429878,6.8027946518,404
80575,191442,246366,4.9818566531999995,-4.9088755639,6.7669023128,405
80876,191475,246370,5.0763731459,-4.9028935074,6.7453669094,406
81181,191598,246482,5.041677218199999,-4.7988057243,6.7501525546,407
81491,191680,246473,5.012963347,-4.8622155232,6.811169530899999,408
81805,191726,246592,4.8945186283,-4.9926243549,6.735795619,409
82109,191858,246606,5.0057848792,-4.7688954418,6.7621166676,410
82404,191923,246645,5.0404808069,-4.9088755639,6.7884377162,411
82740,191993,246688,5.0344987504,-4.9005006848,6.7680987241,412
82973,192066,246747,4.9435714916,-4.8658047571,6.7812592484,413
82926,191927,246737,4.9579284272,-4.883750926599999,6.7884377162,414
82182,191769,246569,4.926821733400001,-4.9830530645,6.7740807806,415
81235,191471,246421,4.995017177499999,-4.9232324995,6.8147587648000005,416
80718,191336,246325,4.989035121000001,-4.8550370553999995,6.8410798134,417
80688,191350,246294,5.0895336702,-4.773681087,6.8350977569,418
80847,191394,246299,5.0057848792,-4.90528633,6.8470618699,419
81113,191452,246320,4.977071008,-4.8394837085,6.7549381998,420
81428,191497,246381,4.9112683865,-4.8681975797,6.836294168199999,421
81749,191649,246449,4.9591248385,-4.869393991,6.7932233614,422
81901,191674,246441,5.0045884679,-4.869393991,6.7740807806,423
82030,191717,246494,4.9914279436,-4.8622155232,6.8374905795,424
82155,191744,246482,5.0153561695999995,-4.7844487887,6.7812592484,425
82301,191795,246548,5.0069812905,-4.8430729424,6.7633130788999996,426
82485,191837,246548,5.0285166938999994,-4.9375894351,6.7920269500999995,427
82688,191922,246621,5.140979356100001,-4.8263231842,6.7908305388,428
82920,192024,246634,5.102694194500001,-4.8753760475,6.8291157004,429
83161,192075,246707,4.9866422984,-4.7748774982999995,6.783652071000001,430
83378,192159,246747,5.14456859,-4.9316073786,6.795616184,431
83610,192206,246753,5.0524449199,-4.8550370553999995,6.771687958,432
83827,192250,246815,4.9794638306,-4.7641097966,6.8099731195999995,433
84008,192334,246869,5.1038906058,-4.850251410199999,6.811169530899999,434
84035,192268,246854,4.9340002012,-4.8203411277,6.7932233614,435
83385,192143,246734,4.977071008,-4.9124647978,6.8626152168,436
82189,191847,246544,5.0225346374,-4.7581277401,6.8015982405,437
81219,191619,246439,5.0213382261,-4.7964129017,6.8578295716,438
80827,191547,246361,5.02492746,-4.7569313288,6.8697936846,439
80747,191606,246375,4.9447679029,-4.7294138689,6.849454692499999,440
80867,191637,246349,4.989035121000001,-4.8598227006,6.7262243286,441
81070,191688,246478,5.1469614126,-4.8765724588,6.8004018292,442
81222,191765,246453,4.9639104837,-4.8299124181,6.8422762247,443
81272,191773,246497,4.8753760475,-4.9208396769,6.867400862,444
81221,191780,246497,5.0500520973,-4.929214556,6.8458654586,445
81155,191791,246524,5.010570524399999,-4.8275195955,6.824330055200001,446
81144,191809,246507,4.989035121000001,-4.8945186283,6.7657059015,447
81106,191822,246512,4.9758745967,-4.8598227006,6.7645094902,448
81296,191888,246514,4.9507499594,-4.7940200791,6.7740807806,449
81442,191972,246653,4.9208396769,-4.8885365718,6.795616184,450
81589,191893,246634,4.9328037898999995,-4.7964129017,6.849454692499999,451
81724,192090,246708,4.977071008,-4.8622155232,6.8171515874,452
81845,192117,246696,5.0117669357,-4.90528633,6.769295135399999,453
81974,192202,246756,5.0333023391000005,-4.9663033062999995,6.81954441,454
82063,192279,246775,4.9196432655999995,-4.9076791526,6.918846547899999,455
81821,192183,246688,5.1050870171,-4.816751893799999,6.7166530382000005,456
80655,191925,246556,5.0213382261,-4.7760739096,6.7549381998,457
79209,191528,246322,5.0213382261,-4.9459643142,6.7190458608,458
78379,191375,246278,5.057230565099999,-4.7844487887,6.8709900959,459
78175,191348,246241,4.9483571368,-4.7928236678,6.6987068686999995,460
78203,191363,246257,5.026123871299999,-4.878965281399999,6.8171515874,461
78187,191395,246250,4.9722853628,-4.8239303616,6.8853470315,462
78537,191434,246321,5.0679982668,-4.8047877808,6.7740807806,463
78758,191534,246407,5.1003013719000005,-4.7964129017,6.7992054179000005,464
78894,191598,246434,4.9627140724,-4.7916272565,6.855436749,465
78957,191602,246447,4.9579284272,-4.8299124181,6.8745793297999995,466
78999,191693,246514,4.9734817741,-4.9340002012,6.703492513900001,467
79091,191690,246550,5.0057848792,-4.8741796362,6.878168563699999,468
79265,191773,246534,5.057230565099999,-4.7700918531,6.8422762247,469
79519,191872,246578,4.9507499594,-4.8275195955,6.7190458608,470
79703,191961,246653,4.9136612091,-4.90528633,6.8075802969999994,471
79945,191993,246701,4.9734817741,-5.012963347,6.8374905795,472
80168,192134,246787,5.012963347,-4.917250443,6.8410798134,473
80403,192153,246780,4.929214556,-4.8107698373000005,6.757331022400001,474
80622,192239,246844,5.036891573,-4.8406801198,6.8410798134,475
80858,192339,246889,5.0907300815,-4.845465765,6.8458654586,476
81023,192384,246952,5.0955157266999995,-4.845465765,6.8638116281,477
80622,192338,246818,5.114658307499999,-4.878965281399999,6.7669023128,478
79454,192042,246674,4.7784667322,-4.8023949582,6.8590259828999995,479
78370,191758,246548,4.9351966125,-4.8370908858999995,6.8602223942,480
78018,191646,246535,4.8801616927,-4.8382872972,6.8458654586,481
78063,191675,246489,4.9363930238,-4.9064827413000005,6.8219372326,482
78216,191711,246529,4.989035121000001,-4.7641097966,6.786044893600001,483
78418,191770,246539,5.0285166938999994,-4.9351966125,6.795616184,484
78821,191832,246609,5.0620162103,-4.8311088294,6.770491546700001,485
79164,191951,246705,4.953142782,-4.8406801198,6.838686990799999,486
79397,192029,246691,4.8191447164,-4.9148576204,6.8339013456,487
79512,192070,246794,4.9806602419,-4.9459643142,6.8339013456,488
79648,192121,246806,4.8562334667,-4.9459643142,6.8985075558,489
79831,192189,246788,5.0548377425,-4.9100719752,6.8171515874,490
80100,192238,246886,5.0201418148,-4.9674997176,6.7118673929999995,491
80388,192331,246971,4.941178669,-4.9028935074,6.8159551761,492
80717,192402,246998,5.1625147595,-4.9459643142,6.7166530382000005,493
80974,192528,247031,4.9124647978,-4.9184468543,6.723831506,494
81367,192602,247031,5.0069812905,-4.941178669,6.8063838857,495
81657,192675,247126,5.0404808069,-4.8466621763,6.849454692499999,496
81944,192781,247184,5.085944436299999,-4.7676990305,6.7609202563,497
82236,192875,247235,4.9746781854,-4.845465765,6.867400862,498
82465,192948,247312,4.9674997176,-4.7665026192,6.769295135399999,499
82791,193045,247305,4.9866422984,-4.8514478215,6.7549381998,500
82836,193055,247295,4.8490549989,-4.844269353700001,6.7310099738,501
82076,192850,247209,4.9842494758,-4.7437708044999995,6.8602223942,502
81081,192622,247054,5.0189454035,-4.926821733400001,6.9212393704999995,503
80502,192503,246965,4.9603212498,-4.9698925402,6.7345992077,504
80439,192464,246949,5.0165525809,-4.8287160068,6.8303121117,505
80612,192482,246904,4.8550370553999995,-4.90528633,6.867400862,506
80835,192502,246994,5.044070040799999,-4.893322217,6.740581264199999,507
81143,192657,247063,5.085944436299999,-4.8897329831,6.879364975,508
81469,192716,247074,4.9160540317,-4.7557349175,6.8685972733,509
81708,192771,247133,5.1218367753,-4.926821733400001,6.7932233614,510
81910,192812,247141,5.0835516137,-4.844269353700001,6.851847515099999,511
81981,192807,247201,4.9710889515,-4.9148576204,6.8374905795,512
82155,192965,247205,5.0656054442,-4.8131626599,6.8027946518,513
82370,192945,247289,4.9507499594,-4.8945186283,6.8075802969999994,514
82610,192991,247286,5.085944436299999,-4.734199514099999,6.786044893600001,515
82888,193080,247297,5.0141597583,-4.8634119345,6.8183479987,516
83194,193170,247396,5.1421757674,-4.8418765311,6.759723845,517
83433,193222,247450,5.1182475414,-5.0117669357,6.7621166676,518
83732,193322,247426,5.0189454035,-4.857429878,6.769295135399999,519
83999,193419,247435,5.073980323300001,-4.8598227006,6.759723845,520
84246,193381,247543,5.0524449199,-4.881358104,6.7908305388,521
84466,193547,247555,5.0524449199,-4.9100719752,6.8542403377,522
84710,193585,247561,4.9998028226999995,-4.9256253221,6.8279192891000005,523
84954,193656,247621,5.000999234,-4.9136612091,6.7764736032,524
85088,193688,247621,4.8825545153,-4.9124647978,6.8757757411,525
84569,193584,247590,4.9244289108,-4.9399822577,6.8027946518,526
83467,193360,247375,4.8945186283,-4.990231532299999,6.8027946518,527
82441,193129,247275,5.0596233877,-4.833501652,6.7381884416,528
82074,193045,247203,4.9603212498,-4.7461636271,6.8327049343,529
82018,193047,247250,5.0907300815,-4.8191447164,6.7944197726999995,530
82015,193059,247213,5.0919264928,-4.8981078622,6.7884377162,531
82293,193108,247218,4.9196432655999995,-4.893322217,6.8422762247,532
82501,193190,247293,5.168496815999999,-4.7330031028,6.8027946518,533
82681,193159,247317,4.9674997176,-4.8478585876,6.7621166676,534
82746,193209,247329,5.0333023391000005,-4.8011985469,6.8279192891000005,535
82740,193287,247344,4.9603212498,-4.9028935074,6.8171515874,536
82764,193340,247372,4.8897329831,-4.8227339503,6.8542403377,537
82824,193330,247335,4.9016970961,-4.844269353700001,6.836294168199999,538
82861,193368,247371,5.0081777018,-4.9196432655999995,6.6987068686999995,539
83140,193416,247471,4.9423750803,-4.8358944746,6.8027946518,540
83360,193476,247435,5.0201418148,-4.7808595548,6.8482582812,541
83527,193481,247453,5.012963347,-4.8023949582,6.836294168199999,542
83720,193568,247507,5.0488556860000005,-4.9112683865,6.831508523,543
83824,193603,247492,5.087140847600001,-4.8011985469,6.783652071000001,544
83979,193673,247569,5.0524449199,-4.845465765,6.8027946518,545
84098,193724,247613,5.0356951617,-4.8981078622,6.8219372326,546
84248,193766,247575,4.9854458871,-4.8155554825,6.8099731195999995,547
84379,193766,247596,5.041677218199999,-4.7832523774,6.759723845,548
84106,193710,247575,4.9447679029,-4.8215375389999995,6.881757797600001,549
82924,193499,247434,5.0117669357,-4.8969114509,6.836294168199999,550
81514,193147,247230,4.9974100001,-4.9483571368,6.8339013456,551
80741,193017,247164,4.977071008,-4.8299124181,6.8123659422000005,552
80548,192979,247060,4.8873401605,-4.8275195955,6.906882434900001,553
80613,192991,247146,4.9459643142,-4.9878387097,6.8877398540999994,554
80759,192977,247149,5.0081777018,-4.869393991,6.798009006599999,555
80989,193056,247173,4.9627140724,-4.9818566531999995,6.879364975,556
81152,193070,247206,4.9698925402,-4.7605205627,6.7477597320000005,557
81207,193084,247193,5.0907300815,-4.713860522,6.838686990799999,558
81133,193092,247224,4.878965281399999,-4.8610191119,6.8171515874,559
81120,193101,247191,5.0380879843,-4.8023949582,6.7178494495,560
81171,193156,247213,5.0165525809,-4.8035913695,6.7884377162,561
81318,193152,247234,4.9938207662,-4.8538406441,6.8219372326,562
81479,193165,247269,5.0596233877,-4.9076791526,6.9116680801,563
81669,193265,247280,4.9914279436,-4.8382872972,6.8482582812,564
81864,193299,247341,4.9519463707,-4.833501652,6.8422762247,565
82049,193331,247376,4.9280181447,-4.878965281399999,6.8542403377,566
82207,193432,247387,4.9603212498,-4.8622155232,6.8685972733,567
82373,193460,247481,4.9160540317,-4.8957150396,6.8075802969999994,568
82547,193512,247508,5.0081777018,-4.8239303616,6.7525453772,569
82590,193568,247529,4.8969114509,-4.8969114509,6.8697936846,570
82575,193527,247465,4.9316073786,-4.8478585876,6.8901326766999995,571
81761,193326,247381,5.140979356100001,-4.8598227006,6.8219372326,572
80296,192952,247158,4.9746781854,-4.917250443,6.7944197726999995,573
79218,192756,246969,5.0799623797999995,-4.9184468543,6.9044896123,574
78927,192646,246953,4.9842494758,-4.8658047571,6.8339013456,575
79020,192537,246933,4.9244289108,-4.9244289108,6.8147587648000005,576
79130,192632,246995,4.9100719752,-4.9220360882000005,6.8147587648000005,577
79315,192660,247029,4.9674997176,-4.8526442328,6.8350977569,578
79581,192660,247025,5.1625147595,-4.8849473379,6.831508523,579
79811,192785,247054,5.000999234,-5.0141597583,6.7812592484,580
79916,192774,247124,5.096712138,-5.0285166938999994,6.7992054179000005,581
79952,192800,247066,4.9435714916,-4.9866422984,6.9116680801,582
80026,192859,247069,4.8681975797,-4.7916272565,6.7812592484,583
80154,192818,247156,5.0560341538,-4.9495535481,6.8219372326,584
80350,192938,247160,5.058426976400001,-4.9926243549,6.7788664257999995,585
80585,192989,247209,4.929214556,-4.869393991,6.8063838857,586
80854,192957,247268,5.0751767346,-4.8059841921,6.769295135399999,587
81111,193100,247287,4.9076791526,-4.9435714916,6.7872413049,588
81366,193173,247319,4.9639104837,-4.8670011684,6.7429740868,589
81574,193203,247394,5.1098726623,-4.9698925402,6.8027946518,590
81792,193262,247402,4.9938207662,-5.0620162103,6.8470618699,591
81990,193329,247450,4.9734817741,-4.9495535481,6.7908305388,592
82236,193397,247469,4.9459643142,-4.8957150396,6.795616184,593
82416,193461,247473,5.0763731459,-5.0117669357,6.7788664257999995,594
82246,193425,247496,4.9830530645,-4.7078784655,6.8171515874,595
81291,193152,247317,4.9316073786,-4.8777688701,6.8506511038,596
80042,192867,247150,4.9340002012,-4.8909293944,6.8075802969999994,597
79409,192603,246987,5.1218367753,-4.9507499594,6.8099731195999995,598
79261,192587,247012,5.0620162103,-4.8514478215,6.7764736032,599
79483,192624,247070,5.0380879843,-4.9794638306,6.8422762247,600
79723,192661,247032,5.073980323300001,-4.995017177499999,6.838686990799999,601
80036,192615,247033,5.140979356100001,-4.9387858464,6.7166530382000005,602
80329,192762,247128,5.0081777018,-4.9028935074,6.8171515874,603
80577,192847,247194,4.965106895,-4.8382872972,6.8709900959,604
80711,192785,247182,4.9986064114,-4.893322217,6.8087767083,605
80827,192907,247172,4.8610191119,-4.9316073786,6.7441704981,606
80953,192958,247244,5.0548377425,-4.7892344339,6.7788664257999995,607
81088,192955,247206,5.000999234,-4.850251410199999,6.9427747739,608
81294,193021,247277,4.8945186283,-4.9220360882000005,6.7621166676,609
81639,193091,247313,4.9830530645,-4.9160540317,6.7908305388,610
81922,193185,247374,5.057230565099999,-4.857429878,6.855436749,611
82214,193238,247464,4.9555356046000005,-4.8059841921,6.8446690473,612
82436,193266,247424,4.9746781854,-4.9100719752,6.8327049343,613
82749,193335,247459,5.0177489922000005,-4.9136612091,6.6939212235,614
82984,193402,247511,5.0189454035,-4.878965281399999,6.7465633207,615
83212,193437,247527,5.0069812905,-4.8418765311,6.7680987241,616
83464,193511,247587,4.941178669,-4.7892344339,6.8123659422000005,617
83701,193566,247628,5.0033920566,-4.8670011684,6.783652071000001,618
83735,193629,247587,4.8490549989,-4.869393991,6.831508523,619
83015,193385,247485,4.977071008,-4.8011985469,6.740581264199999,620
81907,193059,247270,4.9746781854,-4.941178669,6.8255264665,621
81193,192923,247169,5.0620162103,-4.8717868136,6.8925254993,622
81036,192864,247175,4.878965281399999,-4.797609313,6.8075802969999994,623
81176,192755,247160,5.1433721787,-4.9124647978,6.782455659699999,624
81419,192877,247152,5.0201418148,-4.9220360882000005,6.7310099738,625
81704,192970,247209,4.9435714916,-4.8047877808,6.8542403377,626
82032,193060,247249,5.0201418148,-4.7772703209000005,6.782455659699999,627
82271,192984,247273,4.9064827413000005,-4.8957150396,6.878168563699999,628
82408,193107,247331,5.0117669357,-4.8741796362,6.7908305388,629
82533,193078,247310,5.0153561695999995,-4.8861437492,6.798009006599999,630
82645,193213,247366,4.9842494758,-4.9220360882000005,6.786044893600001,631
82825,193179,247360,4.8957150396,-4.869393991,6.8219372326,632
83040,193228,247387,4.9435714916,-4.8143590712,6.8027946518,633
83293,193274,247447,5.0811587911,-4.9483571368,6.7501525546,634
83558,193342,247442,5.000999234,-4.9387858464,6.7908305388,635
83872,193455,247486,5.124229597899999,-4.8717868136,6.8015982405,636
84072,193480,247594,5.0117669357,-4.7868416113,6.795616184,637
84296,193559,247572,4.8957150396,-4.9435714916,6.8027946518,638
84517,193592,247600,5.070391089399999,-4.8466621763,6.735795619,639
84723,193662,247660,4.8622155232,-4.9627140724,6.8171515874,640
84958,193730,247652,5.0093741131,-4.8717868136,6.8004018292,641
85116,193756,247713,4.9986064114,-4.8622155232,6.8147587648000005,642
85127,193740,247686,5.0045884679,-4.8263231842,6.8063838857,643
84430,193552,247511,4.9040899186999996,-4.8358944746,6.8171515874,644
83184,193227,247391,4.9998028226999995,-4.869393991,6.769295135399999,645
82186,193053,247208,5.0273202826,-4.8861437492,6.8075802969999994,646
81817,192917,247176,4.977071008,-4.8717868136,6.81954441,647
81818,192934,247158,4.9387858464,-4.8155554825,6.9308106609,648
81944,192935,247195,4.9674997176,-4.9244289108,6.7884377162,649
82077,193039,247211,5.1182475414,-4.8646083458,6.838686990799999,650
82302,193097,247275,5.0644090329,-4.929214556,6.7932233614,651
82529,193088,247253,5.0285166938999994,-4.883750926599999,6.8147587648000005,652
82595,193105,247245,4.9483571368,-4.9100719752,6.8303121117,653
82563,193113,247314,4.9028935074,-4.8622155232,6.786044893600001,654
82623,193120,247291,4.9734817741,-4.748556449700001,6.8135623535,655
82698,193154,247285,4.8957150396,-4.850251410199999,6.8578295716,656
82816,193081,247364,4.9722853628,-4.8861437492,6.7549381998,657
83004,193219,247335,5.0285166938999994,-4.9028935074,6.891329088,658
83207,193276,247404,4.9591248385,-4.9387858464,6.831508523,659
83392,193331,247429,5.0057848792,-4.8011985469,6.8099731195999995,660
83575,193363,247448,4.9962135888,-4.8526442328,6.7549381998,661
83751,193410,247471,5.0069812905,-4.7437708044999995,6.735795619,662
83890,193513,247557,4.9363930238,-4.9028935074,6.795616184,663
84012,193512,247534,5.0691946781,-4.9483571368,6.891329088,664
84134,193564,247520,5.057230565099999,-4.8203411277,6.8267228778,665
84045,193570,247507,4.9926243549,-4.899304273499999,6.783652071000001,666
83149,193288,247346,5.1003013719000005,-4.8394837085,6.728617151199999,667
81727,192952,247103,4.9363930238,-4.989035121000001,6.8614188055,668
80712,192713,247006,4.9304109673,-4.8382872972,6.893721910599999,669
80379,192610,246973,4.9148576204,-4.850251410199999,6.7908305388,670
80456,192655,246962,5.0021956453,-4.8909293944,6.8542403377,671
80565,192667,247006,4.9483571368,-4.7461636271,6.811169530899999,672
80802,192760,247011,5.0285166938999994,-4.9363930238,6.7908305388,673
81026,192777,247121,4.9914279436,-4.926821733400001,6.8374905795,674
81063,192791,247086,5.0069812905,-4.893322217,6.7609202563,675
81087,192800,247099,4.989035121000001,-4.7868416113,6.8004018292,676
81093,192808,247083,5.044070040799999,-4.7629133853,6.824330055200001,677
81164,192803,247123,5.120640364,-4.926821733400001,6.740581264199999,678
81251,192867,247099,5.026123871299999,-4.6983071751,6.8159551761,679
81405,192870,247170,5.0165525809,-4.8598227006,6.8051874744,680
81599,192931,247170,5.0668018555,-4.9519463707,6.769295135399999,681
81790,193024,247234,4.9627140724,-4.797609313,6.8339013456,682
81884,193048,247240,5.0033920566,-4.816751893799999,6.838686990799999,683
82120,193095,247253,4.9555356046000005,-4.8634119345,6.8949183219000005,684
82371,193164,247284,4.8921258057,-4.8406801198,6.7920269500999995,685
82490,193174,247362,5.1349972996,-4.9387858464,6.8267228778,686
82655,193265,247367,5.0153561695999995,-4.9722853628,6.8099731195999995,687
82818,193275,247357,5.026123871299999,-4.9005006848,6.8889362654,688
82625,193219,247346,4.9998028226999995,-4.782055966100001,6.6963140460999995,689
81623,192930,247182,4.9555356046000005,-4.929214556,6.8015982405,690
80259,192611,246980,4.9878387097,-4.8514478215,6.7022961026,691
79381,192357,246858,5.0213382261,-4.8957150396,6.769295135399999,692
79182,192301,246799,5.0177489922000005,-4.8777688701,6.7884377162,693
79190,192297,246808,4.9794638306,-4.883750926599999,6.7310099738,694
79365,192307,246814,5.0356951617,-4.8406801198,6.7908305388,695
79547,192336,246845,4.8634119345,-4.9698925402,6.8291157004,696
79808,192405,246896,4.9962135888,-4.9160540317,6.8123659422000005,697
79981,192467,246976,4.9866422984,-4.881358104,6.7932233614,698
80086,192478,246940,5.0392843956,-4.953142782,6.7884377162,699
80139,192476,246918,5.0309095165,-4.8370908858999995,6.769295135399999,700
80237,192489,246956,5.0392843956,-4.833501652,6.7453669094,701
80396,192578,247002,5.0153561695999995,-4.8598227006,6.7788664257999995,702
80527,192600,247028,4.9794638306,-4.8179483051,6.8004018292,703
80718,192645,247045,4.9567320159,-4.9208396769,6.771687958,704
80949,192703,247104,5.1266224204999995,-4.8945186283,6.798009006599999,705
81201,192799,247154,5.0835516137,-4.8299124181,6.8015982405,706
81415,192742,247149,5.0979085493,-4.8861437492,6.7130638043,707
81583,192895,247252,4.869393991,-4.8358944746,6.7812592484,708
81762,192930,247249,4.9220360882000005,-4.9244289108,6.8219372326,709
81972,193013,247305,5.0428736295,-4.9100719752,6.7992054179000005,710
82173,193081,247312,5.0225346374,-4.899304273499999,6.8303121117,711
82219,193076,247300,5.0057848792,-4.8035913695,6.8853470315,712
81517,192852,247187,5.032105927799999,-4.9148576204,6.7262243286,713
80215,192503,246977,4.9148576204,-4.8370908858999995,6.8255264665,714
79340,192262,246785,4.90528633,-4.8801616927,6.7669023128,715
79073,192109,246754,5.1074798397,-4.8275195955,6.7669023128,716
79155,192151,246821,4.9316073786,-4.7844487887,6.7549381998,717
79316,192169,246768,5.045266452099999,-4.7676990305,6.8147587648000005,718
79534,192265,246815,5.0883372589,-4.8251267729,6.7872413049,719
79823,192327,246857,5.0356951617,-4.9447679029,6.866204450700001,720
80041,192344,246891,4.941178669,-4.833501652,6.8291157004,721
80211,192437,246948,5.029713105200001,-4.8945186283,6.9284178383,722
80256,192445,246969,4.989035121000001,-4.9483571368,6.8291157004,723
80351,192435,246961,4.9136612091,-4.7916272565,6.771687958,724
80439,192486,246960,4.989035121000001,-4.9471607255,6.8566331603,725
80634,192536,246984,4.869393991,-4.9148576204,6.7908305388,726
80935,192596,247001,5.0691946781,-4.9734817741,6.7142602155999995,727
81176,192557,247062,4.917250443,-4.857429878,6.783652071000001,728
81444,192722,247148,4.9100719752,-4.917250443,6.7585274337,729
81591,192777,247160,4.989035121000001,-4.8215375389999995,6.756134611099999,730
81857,192870,247239,5.0691946781,-4.9782674193,6.7214386834,731
82103,192902,247226,4.9830530645,-4.926821733400001,6.836294168199999,732
82343,192911,247248,4.965106895,-4.9244289108,6.8506511038,733
82558,192948,247266,4.926821733400001,-4.8981078622,6.8578295716,734
82731,193045,247320,5.0057848792,-4.8323052407,6.8147587648000005,735
82385,192949,247264,4.9794638306,-4.9399822577,6.7776700145,736
81339,192652,247150,5.085944436299999,-4.941178669,6.7740807806,737
80336,192382,246859,5.0117669357,-4.9184468543,6.7262243286,738
79939,192279,246844,4.9962135888,-4.857429878,6.783652071000001,739
79877,192190,246819,5.02492746,-4.9782674193,6.769295135399999,740
80063,192239,246787,4.9926243549,-4.7988057243,6.795616184,741
80369,192304,246849,5.0177489922000005,-4.8861437492,6.8422762247,742
80684,192346,246847,5.0811587911,-5.0356951617,6.8482582812,743
80930,192427,246967,5.1050870171,-4.929214556,6.824330055200001,744
81170,192455,246990,4.941178669,-4.8263231842,6.8303121117,745
81283,192488,246956,4.9005006848,-4.8514478215,6.759723845,746
81389,192498,246958,4.9938207662,-4.9016970961,6.7453669094,747
81454,192545,246984,4.9112683865,-4.8191447164,6.7549381998,748
81629,192568,247024,4.9866422984,-4.9447679029,6.7645094902,749
81948,192608,247042,5.0835516137,-4.8921258057,6.8422762247,750
82198,192670,247097,4.9986064114,-4.881358104,6.8291157004,751
82475,192710,247123,4.9340002012,-4.8323052407,6.8087767083,752
82724,192833,247189,5.0560341538,-4.8299124181,6.7501525546,753
82969,192859,247235,4.9244289108,-4.845465765,6.7908305388,754
83190,192968,247233,5.000999234,-4.878965281399999,6.8087767083,755
83407,193009,247321,5.0751767346,-4.8681975797,6.7764736032,756
83626,193051,247288,5.0189454035,-4.8311088294,6.8219372326,757
83787,193084,247373,5.1038906058,-4.8011985469,6.8171515874,758
83545,192980,247304,5.0404808069,-4.748556449700001,6.8171515874,759
82549,192678,247118,4.9579284272,-5.0045884679,6.7501525546,760
81556,192302,246959,5.0548377425,-4.8765724588,6.865008039399999,761
81006,192226,246859,4.8646083458,-4.8083770147,6.8147587648000005,762
80966,192325,246789,4.9974100001,-4.8849473379,6.7645094902,763
81116,192302,246849,4.953142782,-4.7916272565,6.7214386834,764
81260,192309,246865,4.9806602419,-4.8406801198,6.7501525546,765
81526,192417,246920,4.9794638306,-4.8897329831,6.843472636,766
81830,192459,246957,4.9627140724,-4.8227339503,6.8147587648000005,767
81968,192409,246978,5.0560341538,-4.9507499594,6.849454692499999,768
82033,192530,246971,4.878965281399999,-4.788038022599999,6.795616184,769
82076,192509,247031,4.9375894351,-4.7629133853,6.81954441,770
82155,192568,246991,5.0500520973,-4.9447679029,6.7884377162,771
82278,192558,246980,5.026123871299999,-4.9447679029,6.831508523,772
82460,192573,247058,4.9483571368,-4.878965281399999,6.7752771919,773
82673,192575,247076,4.9722853628,-4.8466621763,6.8578295716,774
82835,192731,247108,5.0225346374,-4.8263231842,6.7585274337,775
83021,192773,247155,5.1003013719000005,-4.9088755639,6.7800628371,776
83280,192833,247162,5.029713105200001,-4.8430729424,6.783652071000001,777
83454,192891,247189,4.9806602419,-4.9567320159,6.9020967897,778
83592,192921,247249,5.085944436299999,-4.7533420949,6.8147587648000005,779
83729,192898,247257,5.0177489922000005,-4.7940200791,6.8506511038,780
83511,192892,247186,4.9423750803,-4.990231532299999,6.786044893600001,781
82491,192599,247054,5.010570524399999,-4.8179483051,6.7968125953,782
81283,192326,246829,4.9627140724,-4.8634119345,6.8350977569,783
80559,192110,246722,4.9399822577,-4.9124647978,6.836294168199999,784
80389,192065,246699,4.989035121000001,-4.8646083458,6.769295135399999,785
80460,192069,246698,4.9639104837,-4.8239303616,6.7872413049,786
80576,192145,246718,4.977071008,-4.8370908858999995,6.851847515099999,787
80814,192142,246748,4.9519463707,-4.8981078622,6.8339013456,788
80991,192216,246811,4.9603212498,-4.9220360882000005,6.843472636,789
81072,192212,246779,5.0500520973,-4.926821733400001,6.783652071000001,790
81065,192209,246808,5.0225346374,-4.9579284272,6.798009006599999,791
81064,192204,246806,4.9686961289000005,-4.8550370553999995,6.9260250157000005,792
81125,192228,246822,5.000999234,-4.7844487887,6.7310099738,793
81242,192303,246873,4.9579284272,-4.8263231842,6.8542403377,794
81408,192312,246890,4.8861437492,-4.8729832249000005,6.8255264665,795
81601,192411,246960,4.90528633,-4.8885365718,6.759723845,796
81775,192419,246947,5.0404808069,-4.9100719752,6.8039910631,797
81960,192484,246994,5.0596233877,-4.748556449700001,6.7477597320000005,798
82121,192539,247017,4.9746781854,-4.8430729424,6.891329088,799
82292,192581,247015,5.0285166938999994,-4.929214556,6.8350977569,800
82428,192659,247080,4.9244289108,-4.8945186283,6.8027946518,801
82576,192656,247074,5.0093741131,-4.8227339503,6.7669023128,802
82430,192641,247112,5.0344987504,-4.9375894351,6.855436749,803
81428,192391,246899,5.058426976400001,-4.9304109673,6.8099731195999995,804
80033,191985,246700,4.9483571368,-4.9005006848,6.8350977569,805
79197,191752,246543,5.0835516137,-4.9603212498,6.836294168199999,806
78899,191670,246483,4.9686961289000005,-4.8155554825,6.7549381998,807
78921,191607,246503,5.0141597583,-4.8011985469,6.7932233614,808
78983,191629,246493,4.9962135888,-4.844269353700001,6.7932233614,809
79150,191698,246524,4.9028935074,-4.845465765,6.783652071000001,810
79396,191717,246596,4.9962135888,-4.8155554825,6.8446690473,811
79512,191770,246604,5.0380879843,-4.8251267729,6.7262243286,812
79653,191816,246604,5.1720860499,-4.9328037898999995,6.786044893600001,813
79690,191767,246617,4.965106895,-5.0069812905,6.7310099738,814
79734,191856,246653,5.010570524399999,-4.869393991,6.8291157004,815
79843,191790,246642,5.0309095165,-4.8717868136,6.7070817478,816
79963,191899,246685,5.0081777018,-4.9387858464,6.8542403377,817
80156,191964,246752,5.0679982668,-4.9028935074,6.771687958,818
80423,192021,246780,4.9914279436,-4.8681975797,6.7812592484,819
80636,192101,246807,5.026123871299999,-4.878965281399999,6.8183479987,820
80822,192141,246846,4.9316073786,-4.9208396769,6.8004018292,821
80983,192187,246871,5.0057848792,-4.8011985469,6.8087767083,822
81137,192232,246931,5.1230331866,-4.8861437492,6.6927248122,823
81299,192300,246941,4.9519463707,-4.8909293944,6.8267228778,824
81487,192380,246960,4.9639104837,-4.8083770147,6.7669023128,825
81543,192349,246984,5.0356951617,-4.8299124181,6.8685972733,826
80875,192051,246884,4.965106895,-4.9148576204,6.8279192891000005,827
79558,191799,246672,4.8394837085,-4.9782674193,6.8147587648000005,828
78648,191458,246466,4.9124647978,-4.9674997176,6.771687958,829
78326,191309,246441,4.9926243549,-4.9794638306,6.8027946518,830
78375,191394,246399,5.0237310487,-4.926821733400001,6.8123659422000005,831
78564,191408,246443,4.9674997176,-4.8311088294,6.8063838857,832
78750,191444,246484,4.893322217,-4.9328037898999995,6.8099731195999995,833
79031,191513,246555,5.0464628634,-4.8538406441,6.7788664257999995,834
79230,191595,246568,5.0548377425,-4.9363930238,6.820740821299999,835
79338,191577,246569,4.8885365718,-4.9471607255,6.8829542089,836
79385,191504,246555,5.0955157266999995,-4.8179483051,6.795616184,837
79460,191637,246614,4.929214556,-4.869393991,6.8171515874,838
79589,191655,246652,4.977071008,-4.8263231842,6.8004018292,839
79748,191691,246671,5.0117669357,-4.7772703209000005,6.8422762247,840
79860,191738,246652,4.989035121000001,-4.8969114509,6.7501525546,841
80091,191829,246668,4.977071008,-5.0213382261,6.903293200999999,842
80404,191902,246793,5.0883372589,-4.899304273499999,6.7381884416,843
80645,192014,246804,4.8490549989,-4.8897329831,6.8542403377,844
80834,192016,246816,4.965106895,-4.833501652,6.8159551761,845
81045,192060,246888,4.8490549989,-4.8394837085,6.8339013456,846
81241,192122,246905,4.965106895,-4.9160540317,6.8339013456,847
81437,192187,246963,4.965106895,-4.9076791526,6.8339013456,848
81650,192286,246923,5.0679982668,-4.8622155232,6.7884377162,849
81620,192216,246957,4.941178669,-4.9005006848,6.771687958,850
80783,191971,246828,5.1062834284,-4.9148576204,6.7884377162,851
79562,191612,246562,5.0524449199,-4.8765724588,6.769295135399999,852
78817,191375,246434,4.965106895,-4.8394837085,6.7310099738,853
78681,191274,246387,4.9423750803,-4.878965281399999,6.735795619,854
78822,191306,246452,4.8873401605,-4.9340002012,6.8303121117,855
78933,191328,246412,5.0679982668,-4.917250443,6.728617151199999,856
79276,191424,246492,5.1421757674,-4.8849473379,6.849454692499999,857
79562,191462,246553,5.0081777018,-4.8550370553999995,6.8578295716,858
79769,191543,246567,5.0165525809,-4.8670011684,6.8697936846,859
79886,191587,246575,4.961517661099999,-4.9758745967,6.8757757411,860
79983,191627,246609,4.9986064114,-4.8215375389999995,6.8506511038,861
80068,191628,246622,5.0309095165,-4.8981078622,6.9284178383,862
80230,191658,246652,4.953142782,-4.881358104,6.7429740868,863
80423,191663,246639,5.041677218199999,-4.8155554825,6.811169530899999,864
80657,191793,246649,5.072783911999999,-4.878965281399999,6.783652071000001,865
80908,191849,246712,5.073980323300001,-4.8035913695,6.7884377162,866
81178,191872,246765,4.9507499594,-4.8406801198,6.865008039399999,867
81458,191964,246802,4.9663033062999995,-4.8981078622,6.7310099738,868
81647,192023,246869,5.0500520973,-4.8741796362,6.8147587648000005,869
81859,192088,246924,4.9435714916,-4.8287160068,6.8063838857,870
82085,192102,246940,5.045266452099999,-4.7557349175,6.891329088,871
82309,192175,246976,4.989035121000001,-4.9028935074,6.8889362654,872
82299,192149,246925,5.1338008883,-4.8418765311,6.8099731195999995,873
81563,191861,246792,5.1505506465,-4.857429878,6.7812592484,874
80431,191578,246599,5.0201418148,-4.9100719752,6.7645094902,875
79735,191288,246451,5.0380879843,-4.7042892316,6.757331022400001,876
79592,191290,246431,4.9555356046000005,-4.8622155232,6.7932233614,877
79730,191194,246420,5.0141597583,-4.7940200791,6.811169530899999,878
79883,191360,246494,5.0931229041,-4.8765724588,6.8578295716,879
80247,191442,246518,5.1050870171,-5.045266452099999,6.8458654586,880
80541,191490,246602,4.9746781854,-4.9363930238,6.728617151199999,881
80719,191528,246622,5.0380879843,-4.8406801198,6.8147587648000005,882
80804,191569,246559,4.9722853628,-4.995017177499999,6.8901326766999995,883
80868,191590,246578,4.899304273499999,-4.8981078622,6.8602223942,884
80951,191573,246653,5.026123871299999,-4.917250443,6.8159551761,885
81147,191618,246622,4.953142782,-4.9076791526,6.867400862,886
81352,191683,246690,5.085944436299999,-4.857429878,6.8075802969999994,887
81602,191649,246685,4.9507499594,-4.8753760475,6.7884377162,888
81841,191763,246710,4.9483571368,-4.8981078622,6.8267228778,889
82068,191877,246811,4.9938207662,-4.7581277401,6.9786671129,890
82325,191915,246825,4.9555356046000005,-4.850251410199999,6.867400862,891
82504,192010,246909,5.124229597899999,-4.869393991,6.838686990799999,892
82706,192044,246906,4.8897329831,-4.8514478215,6.849454692499999,893
82827,192085,246951,5.0787659685,-4.9208396769,6.740581264199999,894
82916,192053,246894,5.0560341538,-4.8263231842,6.8075802969999994,895
82199,191849,246806,5.0309095165,-4.8287160068,6.7453669094,896
81008,191464,246515,5.0907300815,-4.9208396769,6.820740821299999,897
80174,191212,246395,4.9555356046000005,-4.8430729424,6.7740807806,898
79837,191138,246349,5.2079783889,-4.7581277401,6.7932233614,899
79836,191098,246344,4.9627140724,-4.9758745967,6.7621166676,900
79963,191152,246375,5.0668018555,-4.8227339503,6.855436749,901
80134,191219,246387,5.026123871299999,-4.788038022599999,6.8099731195999995,902
80384,191279,246389,5.0225346374,-4.857429878,6.8171515874,903
80587,191313,246478,4.883750926599999,-4.9722853628,6.7274207398999994,904
80706,191349,246485,4.9495535481,-4.8849473379,6.8853470315,905
80759,191361,246508,4.9304109673,-4.893322217,6.9044896123,906
80829,191382,246532,4.990231532299999,-4.9064827413000005,6.7453669094,907
80960,191426,246567,4.8957150396,-4.8370908858999995,6.7669023128,908
81111,191438,246565,5.0392843956,-5.0476592747,6.7740807806,909
81306,191560,246568,4.9878387097,-4.9495535481,6.759723845,910
81523,191595,246681,5.0033920566,-4.9974100001,6.7429740868,911
81743,191665,246686,4.9663033062999995,-4.9076791526,6.824330055200001,912
81927,191688,246728,4.9986064114,-4.8287160068,6.7334027964,913
82107,191788,246727,4.883750926599999,-4.9136612091,6.8410798134,914
82270,191837,246785,4.977071008,-4.9555356046000005,6.7429740868,915
82485,191952,246843,4.9627140724,-4.9244289108,6.7788664257999995,916
82606,191966,246861,4.9519463707,-4.8622155232,6.867400862,917
82539,191947,246878,4.9627140724,-4.7557349175,6.6987068686999995,918
81867,191696,246742,5.02492746,-4.8753760475,6.8350977569,919
80521,191330,246458,4.9220360882000005,-5.0177489922000005,6.8590259828999995,920
79500,191004,246391,4.8658047571,-5.0081777018,6.7549381998,921
79137,190973,246249,5.010570524399999,-4.8873401605,6.735795619,922
79144,190971,246308,4.9316073786,-4.881358104,6.7848484823,923
79236,190968,246244,5.0500520973,-4.8011985469,6.7776700145,924
79406,191024,246273,5.058426976400001,-4.8478585876,6.8757757411,925
79686,191158,246346,4.9842494758,-4.8598227006,6.8255264665,926
79871,191159,246364,5.0979085493,-4.953142782,6.7549381998,927
80001,191229,246413,5.0057848792,-4.9555356046000005,6.8087767083,928
79989,191180,246407,4.9244289108,-4.8526442328,6.8303121117,929
80051,191200,246407,5.0560341538,-4.8981078622,6.795616184,930
80164,191265,246400,5.0799623797999995,-4.90528633,6.7812592484,931
80231,191305,246468,5.1110690735999995,-4.845465765,6.7908305388,932
80506,191375,246509,4.953142782,-4.926821733400001,6.740581264199999,933
80727,191402,246581,4.9818566531999995,-4.9603212498,6.7334027964,934
80941,191567,246587,5.044070040799999,-4.8885365718,6.7788664257999995,935
81130,191558,246634,4.8705904022999995,-4.857429878,6.7728843693,936
81369,191656,246709,4.9579284272,-4.8658047571,6.757331022400001,937
81501,191690,246727,5.0404808069,-4.9256253221,6.7669023128,938
81665,191713,246752,4.8466621763,-4.8000021356,6.8542403377,939
81894,191839,246774,4.9387858464,-4.8083770147,6.7477597320000005,940
81984,191885,246804,4.9842494758,-4.9196432655999995,6.866204450700001,941
81746,191740,246759,5.0153561695999995,-4.7868416113,6.7621166676,942
80618,191370,246573,4.9782674193,-4.9698925402,6.7669023128,943
79387,191107,246385,5.000999234,-4.8801616927,6.771687958,944
78790,190945,246244,4.8634119345,-4.9100719752,6.735795619,945
78717,190840,246182,4.9507499594,-4.7868416113,6.839883402099999,946
78849,190965,246251,5.0620162103,-4.8873401605,6.8410798134,947
79045,190954,246260,4.9304109673,-4.8861437492,6.820740821299999,948
79305,191019,246372,5.032105927799999,-4.8275195955,6.741777675500001,949
79564,191128,246369,5.0081777018,-4.917250443,6.849454692499999,950
79703,191151,246412,4.9328037898999995,-4.7988057243,6.7621166676,951
79766,191196,246412,5.000999234,-4.929214556,6.8446690473,952
79818,191206,246439,5.045266452099999,-4.9124647978,6.7884377162,953
79928,191295,246487,4.8897329831,-4.9028935074,6.8350977569,954
80083,191256,246484,4.9686961289000005,-4.8646083458,6.8171515874,955
80251,191342,246462,4.9112683865,-4.8478585876,6.8327049343,956
80477,191379,246495,5.0488556860000005,-4.9005006848,6.6508504167,957
80753,191467,246605,5.041677218199999,-4.9220360882000005,6.8123659422000005,958
80946,191553,246649,4.9758745967,-4.8670011684,6.735795619,959
81176,191635,246644,4.9806602419,-4.869393991,6.7764736032,960
81380,191674,246669,4.995017177499999,-4.8861437492,6.8147587648000005,961
81577,191733,246760,5.0356951617,-4.878965281399999,6.709474570399999,962
81779,191856,246778,4.9674997176,-4.7210389898,6.798009006599999,963
81958,191874,246795,5.0931229041,-4.8622155232,6.8506511038,964
82118,191905,246847,4.9854458871,-4.7988057243,6.81954441,965
81670,191740,246751,4.9603212498,-4.8705904022999995,6.7728843693,966
80488,191433,246531,4.9998028226999995,-4.929214556,6.7884377162,967
79461,191113,246349,5.0069812905,-4.9316073786,6.8291157004,968
79088,190989,246268,5.0380879843,-4.893322217,6.7908305388,969
79146,191013,246307,4.961517661099999,-4.9351966125,6.8027946518,970
79340,191059,246313,5.1074798397,-4.8311088294,6.8590259828999995,971
79587,191139,246380,4.8861437492,-4.9028935074,6.8279192891000005,972
79885,191230,246401,5.036891573,-4.8323052407,6.8410798134,973
80127,191277,246460,5.012963347,-4.8610191119,6.8051874744,974
80228,191310,246490,4.8023949582,-4.857429878,6.8339013456,975
80330,191304,246506,4.917250443,-4.8729832249000005,6.8841506202,976
80432,191398,246499,5.000999234,-4.8586262893,6.7908305388,977
80552,191384,246516,5.060819799,-4.8430729424,6.674778642700001,978
80743,191424,246554,4.9698925402,-4.8275195955,6.8099731195999995,979
80969,191510,246600,4.8873401605,-4.833501652,6.7908305388,980
81224,191556,246637,4.9639104837,-4.8179483051,6.8339013456,981
81479,191641,246684,4.9842494758,-4.7653062079,6.7908305388,982
81660,191738,246696,4.9148576204,-4.9028935074,6.8147587648000005,983
81896,191765,246764,4.8981078622,-4.893322217,6.8099731195999995,984
82088,191808,246757,4.8717868136,-4.748556449700001,6.6939212235,985
82332,191928,246821,4.9316073786,-4.8263231842,6.8877398540999994,986
82559,191942,246833,4.8801616927,-4.9005006848,6.798009006599999,987
82562,191926,246845,4.9674997176,-4.8251267729,6.795616184,988
81859,191731,246688,4.9148576204,-4.8717868136,6.8446690473,989
80756,191398,246482,4.9136612091,-4.8514478215,6.741777675500001,990
80039,191192,246372,4.9064827413000005,-4.8550370553999995,6.8219372326,991
79904,191184,246369,4.9471607255,-4.8358944746,6.8147587648000005,992
80057,191175,246355,4.9591248385,-4.7617169740000005,6.7645094902,993
80184,191218,246386,5.057230565099999,-4.7676990305,6.7812592484,994
80572,191290,246444,4.9375894351,-4.9196432655999995,6.8410798134,995
80887,191378,246441,4.9854458871,-4.7772703209000005,6.795616184,996
81072,191431,246556,4.9938207662,-4.8957150396,6.8901326766999995,997
81224,191394,246544,4.90528633,-4.8945186283,6.8255264665,998
81233,191490,246557,4.9806602419,-4.9387858464,6.7932233614,999
81463,191521,246585,5.044070040799999,-4.7629133853,6.771687958,1000
81674,191543,246608,4.9603212498,-4.9076791526,6.759723845,1001
81893,191669,246611,4.965106895,-4.8909293944,6.8303121117,1002
82136,191732,246638,4.8921258057,-4.8311088294,6.7884377162,1003
82409,191797,246729,4.9986064114,-4.8466621763,6.8482582812,1004
82615,191881,246811,4.995017177499999,-4.90528633,6.786044893600001,1005
82931,191941,246824,5.1110690735999995,-4.8131626599,6.7740807806,1006
83186,192028,246852,4.9208396769,-4.9016970961,6.7932233614,1007
83392,192113,246898,4.9387858464,-4.9244289108,6.8566331603,1008
83637,192142,246936,5.0679982668,-4.8227339503,6.8075802969999994,1009
83862,192231,246993,4.9495535481,-4.7509492723,6.757331022400001,1010
83667,192145,246953,5.041677218199999,-4.8466621763,6.8147587648000005,1011
82695,191804,246767,4.9483571368,-4.8562334667,6.783652071000001,1012
81581,191552,246573,5.112265484900001,-4.9016970961,6.8255264665,1013
80970,191326,246448,5.026123871299999,-4.9818566531999995,6.769295135399999,1014
80838,191389,246389,5.0081777018,-4.9124647978,6.783652071000001,1015
80919,191396,246422,4.917250443,-4.9387858464,6.769295135399999,1016
81038,191410,246463,5.012963347,-4.881358104,6.7788664257999995,1017
81271,191395,246469,5.0273202826,-4.9100719752,6.8255264665,1018
81527,191544,246541,4.9782674193,-4.9495535481,6.824330055200001,1019
81719,191614,246566,5.000999234,-4.881358104,6.7214386834,1020
81825,191557,246527,5.0045884679,-4.9100719752,6.8339013456,1021
81884,191631,246596,4.8945186283,-4.8598227006,6.855436749,1022
81961,191662,246603,5.0237310487,-4.883750926599999,6.838686990799999,1023
82114,191713,246626,5.0057848792,-4.8741796362,6.897311144500001,1024
82304,191794,246656,4.953142782,-4.8023949582,6.8063838857,1025
82483,191831,246687,5.036891573,-4.8406801198,6.7549381998,1026
82685,191925,246682,5.0883372589,-4.881358104,6.8566331603,1027
82904,191949,246806,4.9866422984,-4.8394837085,6.81954441,1028
83110,192019,246794,4.8753760475,-4.9758745967,6.8733829185,1029
83261,192081,246847,5.0428736295,-4.845465765,6.81954441,1030
83437,192126,246857,4.9483571368,-4.8299124181,6.8027946518,1031
83618,192154,246943,5.029713105200001,-4.9555356046000005,6.9044896123,1032
83712,192211,246936,4.9591248385,-4.9555356046000005,6.7262243286,1033
83270,191994,246835,5.194817864599999,-4.8622155232,6.7477597320000005,1034
82064,191730,246623,4.9938207662,-5.0189454035,6.8470618699,1035
80912,191433,246410,5.0333023391000005,-4.9722853628,6.7932233614,1036
80393,191317,246422,5.000999234,-4.850251410199999,6.7453669094,1037
80227,191273,246373,4.9806602419,-4.953142782,6.7525453772,1038
80173,191302,246356,4.9627140724,-4.9076791526,6.8279192891000005,1039
80388,191288,246340,5.0931229041,-4.8897329831,6.7190458608,1040
80594,191398,246416,5.1505506465,-4.9483571368,6.7453669094,1041
80799,191429,246465,5.0021956453,-4.9028935074,6.7429740868,1042
80902,191457,246455,5.0428736295,-4.9005006848,6.7190458608,1043
80944,191480,246448,4.9914279436,-4.8466621763,6.8171515874,1044
81012,191538,246452,4.9507499594,-4.8909293944,6.7393848529,1045
81077,191607,246476,5.137390122199999,-4.917250443,6.7429740868,1046
81198,191608,246556,4.9674997176,-4.9926243549,6.7310099738,1047
81282,191643,246606,4.9986064114,-4.816751893799999,6.7920269500999995,1048
81461,191702,246595,5.029713105200001,-4.8646083458,6.6771714653,1049
81759,191794,246656,4.9316073786,-4.8346980633,6.783652071000001,1050
81824,191817,246723,5.0201418148,-4.8370908858999995,6.8075802969999994,1051
82090,191882,246752,4.9076791526,-4.8741796362,6.8219372326,1052
82245,191955,246811,4.9938207662,-4.8705904022999995,6.7262243286,1053
82396,191960,246815,5.0344987504,-4.8957150396,6.7884377162,1054
82568,192086,246887,4.9639104837,-4.8251267729,6.8219372326,1055
82673,192107,246856,4.965106895,-4.7868416113,6.7477597320000005,1056
82289,191959,246755,4.9794638306,-4.90528633,6.8446690473,1057
81065,191622,246545,5.0500520973,-4.7509492723,6.7310099738,1058
79852,191263,246375,5.057230565099999,-4.8753760475,6.7334027964,1059
79292,191209,246290,5.010570524399999,-4.8514478215,6.843472636,1060
79143,191118,246277,4.899304273499999,-4.8203411277,6.843472636,1061
79263,191137,246295,5.0632126216,-4.850251410199999,6.8099731195999995,1062
79423,191170,246301,5.0907300815,-4.9028935074,6.795616184,1063
79690,191258,246388,5.073980323300001,-4.8323052407,6.7477597320000005,1064
79907,191346,246433,5.010570524399999,-4.8251267729,6.8446690473,1065
79932,191348,246368,5.012963347,-4.7198425785,6.7310099738,1066
79936,191379,246429,4.9986064114,-4.7988057243,6.7812592484,1067
80062,191350,246401,4.9076791526,-4.917250443,6.838686990799999,1068
80131,191435,246417,4.9160540317,-4.8119662486,6.9020967897,1069
80258,191416,246426,4.8311088294,-4.8131626599,6.8709900959,1070
80424,191512,246504,4.9447679029,-4.8957150396,6.7178494495,1071
80612,191531,246560,5.0237310487,-4.8885365718,6.8171515874,1072
80823,191601,246546,4.9842494758,-4.7892344339,6.8422762247,1073
81067,191723,246616,4.9938207662,-4.995017177499999,6.897311144500001,1074
81227,191733,246662,4.9974100001,-4.8382872972,6.8925254993,1075
81406,191780,246691,4.8287160068,-4.8670011684,6.8733829185,1076
81600,191841,246741,5.0907300815,-4.90528633,6.8745793297999995,1077
81751,191876,246790,4.9639104837,-4.8957150396,6.8458654586,1078
81560,191838,246739,4.9698925402,-4.7868416113,6.878168563699999,1079
80563,191549,246593,4.9088755639,-4.9375894351,6.8027946518,1080
79371,191203,246306,5.1170511301,-4.8981078622,6.8506511038,1081
78750,191027,246212,5.0081777018,-4.8670011684,6.836294168199999,1082
78686,190958,246203,4.989035121000001,-4.9316073786,6.8027946518,1083
78738,191033,246206,5.0955157266999995,-4.8239303616,6.8374905795,1084
79008,191066,246251,5.0165525809,-4.917250443,6.7992054179000005,1085
79284,191163,246323,5.0201418148,-4.8957150396,6.8602223942,1086
79552,191205,246372,5.102694194500001,-4.9184468543,6.8614188055,1087
79748,191224,246409,5.02492746,-4.9387858464,6.7764736032,1088
79788,191251,246362,5.0141597583,-4.9304109673,6.8219372326,1089
79852,191261,246393,4.9519463707,-4.797609313,6.7884377162,1090
79955,191282,246449,5.0177489922000005,-4.7665026192,6.7621166676,1091
80128,191336,246469,4.9782674193,-4.9112683865,6.7740807806,1092
80212,191408,246489,4.9148576204,-4.881358104,6.8578295716,1093
80571,191442,246526,4.8945186283,-4.9028935074,6.906882434900001,1094
80794,191558,246548,4.8885365718,-4.7796631435,6.853043926400001,1095
81021,191630,246588,5.045266452099999,-4.8059841921,6.7872413049,1096
81250,191673,246625,4.9519463707,-4.8909293944,6.8626152168,1097
81439,191745,246659,4.989035121000001,-4.8765724588,6.7334027964,1098
81670,191793,246683,4.8753760475,-4.8131626599,6.8099731195999995,1099
81787,191807,246746,5.0201418148,-4.9387858464,6.853043926400001,1100
81220,191633,246648,5.0213382261,-4.8394837085,6.8446690473,1101
80049,191293,246373,5.0069812905,-4.8514478215,6.8590259828999995,1102
79067,190993,246196,4.9603212498,-4.8670011684,6.9092752575,1103
78756,190886,246184,5.0285166938999994,-4.9100719752,6.831508523,1104
78909,190889,246201,4.9363930238,-4.7964129017,6.7633130788999996,1105
79059,190936,246213,4.9316073786,-4.9220360882000005,6.757331022400001,1106
79279,190977,246230,4.9124647978,-4.7964129017,6.824330055200001,1107
79606,191016,246306,4.9028935074,-4.9232324995,6.7812592484,1108
79874,191122,246285,4.977071008,-5.0177489922000005,6.8327049343,1109
80046,191161,246362,4.9674997176,-4.8550370553999995,6.8745793297999995,1110
80165,191160,246361,5.0356951617,-4.9507499594,6.8051874744,1111
80281,191262,246399,4.9866422984,-4.9423750803,6.7908305388,1112
80444,191243,246437,5.0033920566,-4.8382872972,6.8123659422000005,1113
80636,191315,246414,4.9459643142,-4.8945186283,6.8004018292,1114
80905,191410,246537,4.883750926599999,-4.9435714916,6.811169530899999,1115
81186,191469,246542,4.9435714916,-4.845465765,6.798009006599999,1116
81476,191558,246636,5.0679982668,-4.7676990305,6.8841506202,1117
81660,191619,246657,5.096712138,-4.833501652,6.7046889252,1118
81946,191688,246635,5.0428736295,-4.8873401605,6.759723845,1119
82103,191769,246742,4.9435714916,-4.9854458871,6.7812592484,1120
82412,191839,246749,4.9423750803,-4.8299124181,6.8291157004,1121
82622,191830,246812,5.010570524399999,-5.0225346374,6.7334027964,1122
82387,191767,246770,4.9746781854,-4.8275195955,6.8039910631,1123
81362,191452,246519,4.9005006848,-4.9028935074,6.8147587648000005,1124
80356,191128,246382,5.0679982668,-4.8514478215,6.7932233614,1125
79907,191093,246293,4.926821733400001,-4.9698925402,6.783652071000001,1126
79959,191073,246266,4.883750926599999,-4.8323052407,6.7896341275,1127
80054,191042,246323,5.0225346374,-4.9507499594,6.759723845,1128
80264,191104,246359,4.989035121000001,-4.8610191119,6.8697936846,1129
80569,191159,246370,4.9627140724,-4.8741796362,6.9044896123,1130
80870,191285,246381,4.9543391933,-4.869393991,6.8171515874,1131
81063,191303,246471,4.9866422984,-4.8861437492,6.795616184,1132
81185,191316,246467,5.0476592747,-4.8825545153,6.7501525546,1133
81313,191354,246454,5.010570524399999,-4.734199514099999,6.7992054179000005,1134
81466,191443,246507,4.8957150396,-4.869393991,6.8123659422000005,1135
81556,191470,246537,4.8466621763,-4.9100719752,6.8123659422000005,1136
81781,191519,246580,5.073980323300001,-4.9016970961,6.7908305388,1137
82132,191600,246612,5.0679982668,-4.8346980633,6.786044893600001,1138
82397,191674,246743,4.9435714916,-4.8203411277,6.7381884416,1139
82665,191788,246728,4.9962135888,-4.8299124181,6.9092752575,1140
82884,191832,246797,4.9064827413000005,-4.8083770147,6.7501525546,1141
83139,191936,246860,5.0057848792,-5.026123871299999,6.8027946518,1142
83322,191930,246856,4.9842494758,-4.8981078622,6.7178494495,1143
83555,192057,246873,5.1230331866,-4.8370908858999995,6.7884377162,1144
83692,192063,246872,5.071587500700001,-4.9124647978,6.8291157004,1145
83238,191919,246825,4.9088755639,-4.8562334667,6.7884377162,1146
82038,191613,246625,4.965106895,-5.0392843956,6.8614188055,1147
81054,191316,246419,5.0189454035,-4.869393991,6.7764736032,1148
80684,191245,246427,4.9387858464,-4.7892344339,6.8291157004,1149
80698,191224,246376,5.0943193154,-4.7413779819,6.7513489659,1150
80844,191267,246426,4.989035121000001,-4.850251410199999,6.7501525546,1151
81067,191357,246432,4.8741796362,-4.881358104,6.7812592484,1152
81330,191389,246509,5.0512485086,-4.8873401605,6.7621166676,1153
81566,191499,246481,4.9998028226999995,-4.941178669,6.8135623535,1154
81697,191528,246529,4.9722853628,-4.8287160068,6.786044893600001,1155
81741,191547,246562,4.9076791526,-4.941178669,6.8219372326,1156
81873,191557,246602,4.941178669,-4.7964129017,6.81954441,1157
81972,191588,246610,4.90528633,-4.8083770147,6.7190458608,1158
82182,191661,246653,5.0560341538,-4.8083770147,6.824330055200001,1159
82385,191714,246680,4.857429878,-4.8598227006,6.8638116281,1160
82608,191802,246701,5.0907300815,-4.8957150396,6.7764736032,1161
82832,191800,246732,5.1780681064,-4.8741796362,6.8075802969999994,1162
83017,191959,246852,4.9196432655999995,-4.844269353700001,6.81954441,1163
83280,191995,246879,4.990231532299999,-4.9112683865,6.723831506,1164
83460,192108,246866,4.9842494758,-4.9627140724,6.8075802969999994,1165
83693,192170,246978,5.0560341538,-4.9878387097,6.8458654586,1166
83836,192107,246955,4.9794638306,-4.8909293944,6.783652071000001,1167
83845,192202,246920,4.9663033062999995,-4.8526442328,6.8279192891000005,1168
83143,191963,246854,4.9435714916,-4.8215375389999995,6.7657059015,1169
81870,191622,246625,4.9734817741,-5.0668018555,6.740581264199999,1170
80931,191309,246406,4.9938207662,-4.9100719752,6.8303121117,1171
80539,191318,246415,4.9746781854,-4.9244289108,6.7788664257999995,1172
80541,191342,246394,5.1577291143,-4.8538406441,6.757331022400001,1173
80638,191374,246436,5.0536413312,-4.929214556,6.8542403377,1174
80844,191457,246423,5.000999234,-4.917250443,6.8422762247,1175
81149,191496,246467,4.8562334667,-4.8957150396,6.7429740868,1176
81312,191623,246552,5.0237310487,-4.9758745967,6.7453669094,1177
81352,191598,246520,4.9040899186999996,-4.7234318124,6.8709900959,1178
81331,191594,246546,4.8873401605,-4.8227339503,6.866204450700001,1179
81375,191606,246572,5.085944436299999,-4.8251267729,6.7070817478,1180
81489,191615,246627,5.0117669357,-4.809573426,6.7274207398999994,1181
81636,191690,246568,4.929214556,-4.8179483051,6.8075802969999994,1182
81807,191665,246660,5.036891573,-4.8598227006,6.855436749,1183
82007,191821,246699,5.045266452099999,-4.7700918531,6.8877398540999994,1184
82220,191845,246723,5.0500520973,-4.850251410199999,6.757331022400001,1185
82410,191983,246759,4.9639104837,-4.9710889515,6.8506511038,1186
82562,192012,246807,4.9340002012,-4.878965281399999,6.8339013456,1187
82736,192029,246842,5.0285166938999994,-4.926821733400001,6.7884377162,1188
82875,192070,246877,5.0931229041,-4.857429878,6.897311144500001,1189
82790,192017,246845,5.0165525809,-4.7940200791,6.8458654586,1190
81883,191807,246677,4.9328037898999995,-4.8191447164,6.8590259828999995,1191
80556,191419,246520,4.8921258057,-4.8406801198,6.9260250157000005,1192
79758,191211,246330,4.9591248385,-4.7676990305,6.7525453772,1193
79543,191146,246311,4.9854458871,-4.8478585876,6.7908305388,1194
79602,191133,246328,5.0201418148,-4.9639104837,6.9212393704999995,1195
79759,191210,246288,4.845465765,-4.8382872972,6.8410798134,1196
80050,191286,246359,4.9316073786,-4.9076791526,6.8506511038,1197
80169,191369,246418,4.9663033062999995,-4.9387858464,6.881757797600001,1198
80290,191434,246448,4.9076791526,-4.9148576204,6.8327049343,1199
80412,191407,246447,5.032105927799999,-4.8598227006,6.865008039399999,1200
80443,191425,246428,5.0404808069,-4.9818566531999995,6.9140609027,1201
80501,191410,246450,4.893322217,-4.8418765311,6.7848484823,1202
80661,191473,246492,5.012963347,-4.8586262893,6.851847515099999,1203
80801,191502,246533,5.0464628634,-4.9591248385,6.811169530899999,1204
81027,191620,246626,4.9794638306,-4.9998028226999995,6.8051874744,1205
81238,191658,246626,5.0285166938999994,-4.8370908858999995,6.7788664257999995,1206
81446,191704,246704,5.0093741131,-4.9854458871,6.759723845,1207
81649,191800,246751,4.9459643142,-4.8741796362,6.8123659422000005,1208
81799,191847,246721,4.9698925402,-4.899304273499999,6.7669023128,1209
82002,191848,246754,5.0309095165,-4.7700918531,6.8470618699,1210
82077,191896,246797,5.0057848792,-4.7748774982999995,6.8267228778,1211
81473,191708,246694,4.8873401605,-4.8717868136,6.8877398540999994,1212
80202,191339,246445,5.057230565099999,-4.8957150396,6.7788664257999995,1213
79149,191031,246245,5.0548377425,-4.749752861,6.7190458608,1214
78764,190922,246177,5.0356951617,-4.7916272565,6.769295135399999,1215
78768,190933,246155,5.0153561695999995,-4.8311088294,6.8075802969999994,1216
78890,190967,246208,5.0057848792,-4.9603212498,6.8159551761,1217
78969,191022,246266,5.0835516137,-4.9746781854,6.7800628371,1218
79339,191081,246299,5.0476592747,-4.941178669,6.769295135399999,1219
79586,191152,246350,5.1589255256,-4.816751893799999,6.866204450700001,1220
79708,191114,246327,5.0177489922000005,-4.9100719752,6.8075802969999994,1221
79789,191177,246387,4.9866422984,-4.8729832249000005,6.7932233614,1222
79828,191198,246407,4.9016970961,-4.883750926599999,6.7944197726999995,1223
79944,191263,246395,4.9076791526,-4.833501652,6.7740807806,1224
80140,191308,246421,4.9926243549,-4.8299124181,6.8004018292,1225
80353,191354,246485,4.9483571368,-4.9698925402,6.7669023128,1226
80579,191409,246506,5.0057848792,-4.8466621763,6.839883402099999,1227
80828,191522,246558,4.9710889515,-4.8382872972,6.8602223942,1228
81063,191586,246645,5.0895336702,-4.883750926599999,6.725027917299999,1229
81262,191646,246608,5.0237310487,-4.8897329831,6.7740807806,1230
81435,191677,246664,5.0883372589,-4.9866422984,6.824330055200001,1231
81639,191735,246733,4.953142782,-4.7940200791,6.8350977569,1232
81678,191733,246776,4.926821733400001,-4.8646083458,6.740581264199999,1233
80962,191531,246598,5.0668018555,-4.8478585876,6.7501525546,1234
79714,191154,246375,4.9340002012,-4.893322217,6.7525453772,1235
78852,190938,246255,4.9974100001,-4.893322217,6.7334027964,1236
78657,190857,246132,4.9387858464,-4.7653062079,6.8458654586,1237
78723,190862,246213,5.0596233877,-4.7270210463,6.7908305388,1238
78873,190872,246186,4.8981078622,-4.893322217,6.811169530899999,1239
79105,190959,246253,4.9722853628,-4.8227339503,6.7884377162,1240
79314,191023,246294,5.0356951617,-4.8777688701,6.8219372326,1241
79645,191115,246352,4.9663033062999995,-4.9471607255,6.8027946518,1242
79775,191085,246372,5.045266452099999,-4.8729832249000005,6.831508523,1243
79881,191180,246415,5.1086762509999994,-4.9483571368,6.8470618699,1244
79984,191190,246360,5.070391089399999,-4.9328037898999995,6.753741788499999,1245
80155,191252,246444,5.02492746,-4.9028935074,6.757331022400001,1246
80321,191276,246435,4.899304273499999,-4.926821733400001,6.839883402099999,1247
80560,191378,246513,4.8227339503,-4.8981078622,6.81954441,1248
80847,191464,246545,4.9722853628,-4.9639104837,6.81954441,1249
81060,191545,246592,4.926821733400001,-4.9196432655999995,6.8446690473,1250
81300,191513,246630,4.9746781854,-4.9483571368,6.7549381998,1251
81504,191642,246712,4.941178669,-4.8957150396,6.849454692499999,1252
81722,191677,246729,5.1505506465,-4.9076791526,6.7884377162,1253
81942,191742,246738,5.045266452099999,-4.9698925402,6.7549381998,1254
82070,191787,246788,4.9220360882000005,-4.9028935074,6.7908305388,1255
81529,191617,246722,4.977071008,-4.8418765311,6.6975104574,1256
80351,191258,246426,4.8131626599,-4.9603212498,6.8327049343,1257
79452,191021,246281,5.1050870171,-4.9639104837,6.7896341275,1258
79173,190872,246234,5.0632126216,-4.8394837085,6.8147587648000005,1259
79217,190909,246247,5.0691946781,-4.8909293944,6.8339013456,1260
79440,190946,246210,5.0021956453,-4.8658047571,6.759723845,1261
79699,191025,246267,4.9627140724,-4.845465765,6.8422762247,1262
79920,191118,246378,5.0344987504,-4.7760739096,6.878168563699999,1263
80185,191175,246389,5.0237310487,-4.9639104837,6.7549381998,1264
80323,191202,246410,4.9591248385,-4.883750926599999,6.786044893600001,1265
80492,191221,246457,4.9483571368,-4.881358104,6.798009006599999,1266
80602,191307,246446,4.941178669,-4.7617169740000005,6.7800628371,1267
80763,191260,246497,5.0141597583,-4.9435714916,6.8051874744,1268
80928,191350,246526,5.0560341538,-4.9244289108,6.8087767083,1269
81158,191443,246558,5.1673004047,-4.9136612091,6.8147587648000005,1270
81444,191516,246624,4.8083770147,-4.7988057243,6.7884377162,1271
81707,191604,246669,5.0081777018,-4.8550370553999995,6.8303121117,1272
81972,191656,246679,4.9148576204,-4.9124647978,6.798009006599999,1273
82179,191733,246687,5.032105927799999,-4.9028935074,6.7022961026,1274
82392,191770,246785,5.0273202826,-4.8394837085,6.7908305388,1275
82627,191857,246837,5.1014977832,-4.917250443,6.8027946518,1276
82789,191912,246831,5.1074798397,-5.0165525809,6.838686990799999,1277
82336,191756,246776,5.0081777018,-4.8251267729,6.8267228778,1278
81206,191427,246569,4.8717868136,-4.8358944746,6.7334027964,1279
80281,191115,246406,4.9914279436,-4.8382872972,6.782455659699999,1280
79933,191086,246301,5.1074798397,-4.845465765,6.7764736032,1281
79978,191129,246315,5.071587500700001,-4.8059841921,6.7764736032,1282
80148,191114,246354,4.9818566531999995,-4.9686961289000005,6.8087767083,1283
80415,191186,246382,4.9794638306,-4.929214556,6.735795619,1284
80712,191259,246464,5.0907300815,-4.8969114509,6.8004018292,1285
80946,191312,246456,5.0895336702,-4.8562334667,6.8638116281,1286
81100,191337,246539,4.9962135888,-4.8227339503,6.6795642879,1287
81187,191363,246516,5.0787659685,-4.90528633,6.8350977569,1288
81268,191373,246524,5.0177489922000005,-4.9316073786,6.8327049343,1289
81369,191447,246502,4.9710889515,-4.9076791526,6.771687958,1290
81557,191496,246582,4.9878387097,-4.857429878,6.838686990799999,1291
81775,191550,246586,4.9986064114,-4.7461636271,6.8374905795,1292
82057,191674,246656,4.9722853628,-5.0165525809,6.9140609027,1293
82248,191709,246674,4.9866422984,-4.917250443,6.795616184,1294
82462,191774,246744,4.9459643142,-4.7988057243,6.831508523,1295
82656,191845,246787,4.9663033062999995,-4.7688954418,6.8171515874,1296
82860,191844,246815,4.883750926599999,-4.8717868136,6.795616184,1297
83041,191936,246919,5.0404808069,-4.9495535481,6.8291157004,1298
83022,191922,246817,4.9304109673,-4.9005006848,6.798009006599999,1299
82213,191611,246670,4.90528633,-4.9423750803,6.771687958,1300
80969,191373,246482,4.9627140724,-4.844269353700001,6.8099731195999995,1301
80217,191138,246353,5.139782944799999,-4.9124647978,6.7788664257999995,1302
80011,191037,246300,4.9710889515,-4.8646083458,6.7884377162,1303
80077,191127,246355,5.012963347,-4.8023949582,6.771687958,1304
80261,191151,246334,4.977071008,-4.8155554825,6.839883402099999,1305
80583,191275,246369,4.9710889515,-4.8598227006,6.855436749,1306
80779,191328,246450,4.8945186283,-4.833501652,6.795616184,1307
80906,191385,246493,5.1218367753,-4.8610191119,6.7453669094,1308
80965,191350,246535,5.0333023391000005,-4.977071008,6.7501525546,1309
80991,191393,246471,4.9746781854,-4.8323052407,6.8123659422000005,1310
81103,191389,246466,5.0344987504,-4.8418765311,6.7884377162,1311
81250,191363,246497,5.0536413312,-4.9998028226999995,6.81954441,1312
81402,191504,246538,5.102694194500001,-4.8969114509,6.8877398540999994,1313
81615,191601,246608,5.0656054442,-4.8622155232,6.7645094902,1314
81777,191628,246662,5.0273202826,-4.8382872972,6.8267228778,1315
81981,191697,246680,5.0069812905,-4.8083770147,6.8614188055,1316
82187,191793,246759,4.8885365718,-5.0285166938999994,6.8949183219000005,1317
82438,191840,246812,4.9710889515,-4.9340002012,6.8171515874,1318
82595,191906,246815,4.7641097966,-4.8717868136,6.728617151199999,1319
82612,191895,246834,5.0237310487,-4.917250443,6.8075802969999994,1320
81872,191693,246634,5.0919264928,-4.8299124181,6.8470618699,1321
80545,191281,246439,4.9459643142,-4.8981078622,6.7525453772,1322
79587,191046,246272,4.9746781854,-4.7940200791,6.880561386299999,1323
79293,190989,246276,5.041677218199999,-4.8945186283,6.897311144500001,1324
79194,190979,246223,5.0057848792,-4.8622155232,6.7932233614,1325
79279,190976,246324,5.0895336702,-4.8382872972,6.7501525546,1326
79467,191053,246287,4.9435714916,-4.9100719752,6.7812592484,1327
79844,191128,246369,5.1134618962,-4.9136612091,6.8099731195999995,1328
80047,191235,246363,4.9818566531999995,-4.878965281399999,6.8327049343,1329
80154,191225,246409,4.9974100001,-4.9208396769,6.7968125953,1330
80197,191196,246414,4.965106895,-4.7868416113,6.7932233614,1331
80232,191259,246447,5.085944436299999,-4.8909293944,6.7908305388,1332
80378,191300,246458,5.02492746,-4.8071806034,6.7740807806,1333
80493,191393,246557,4.9363930238,-4.7653062079,6.7932233614,1334
80712,191444,246553,5.1086762509999994,-4.7916272565,6.7788664257999995,1335
80943,191492,246592,4.9818566531999995,-4.9363930238,6.855436749,1336
81156,191512,246641,4.9746781854,-4.7940200791,6.8159551761,1337
81371,191628,246659,5.1218367753,-4.9567320159,6.8051874744,1338
81562,191676,246718,4.977071008,-4.9196432655999995,6.836294168199999,1339
81743,191769,246727,4.9387858464,-5.0021956453,6.843472636,1340
81941,191824,246792,4.9016970961,-4.9639104837,6.783652071000001,1341
81801,191767,246771,4.9435714916,-4.857429878,6.7764736032,1342
80814,191436,246561,5.000999234,-4.8478585876,6.6843499331,1343
79597,191178,246361,4.9962135888,-4.8394837085,6.795616184,1344
78944,190922,246264,5.0201418148,-4.8119662486,6.8374905795,1345
78842,190982,246247,5.041677218199999,-4.8586262893,6.7968125953,1346
78947,190959,246225,4.9914279436,-4.9519463707,6.8027946518,1347
79090,190956,246316,4.9028935074,-4.7868416113,6.811169530899999,1348
79395,191107,246332,5.0237310487,-4.8765724588,6.7453669094,1349
79607,191201,246372,4.953142782,-4.926821733400001,6.8267228778,1350
79818,191218,246401,5.010570524399999,-4.9076791526,6.759723845,1351
79974,191224,246461,4.917250443,-4.7988057243,6.7740807806,1352
80055,191276,246433,5.010570524399999,-4.9220360882000005,6.795616184,1353
80183,191320,246476,4.9555356046000005,-4.8179483051,6.8566331603,1354
80351,191369,246502,5.1134618962,-4.9196432655999995,6.7178494495,1355
80558,191457,246576,4.9722853628,-4.8287160068,6.7477597320000005,1356
80787,191514,246585,4.9591248385,-4.8681975797,6.8279192891000005,1357
81047,191593,246652,5.012963347,-4.9435714916,6.7788664257999995,1358
81288,191597,246710,4.9232324995,-4.9459643142,6.7884377162,1359
81504,191709,246786,5.0895336702,-4.844269353700001,6.7525453772,1360
81731,191808,246804,4.9256253221,-4.9088755639,6.798009006599999,1361
81937,191843,246784,4.9974100001,-4.881358104,6.8590259828999995,1362
82149,191925,246838,4.9746781854,-4.9304109673,6.7932233614,1363
82043,191893,246804,5.0057848792,-4.929214556,6.8458654586,1364
81100,191584,246700,5.0763731459,-4.8622155232,6.7680987241,1365
79957,191327,246491,4.9340002012,-4.9842494758,6.8159551761,1366
79369,191141,246345,4.9543391933,-4.8765724588,6.8135623535,1367
79320,191116,246365,5.0428736295,-4.878965281399999,6.7645094902,1368
79395,191129,246308,5.1469614126,-4.857429878,6.8087767083,1369
79662,191222,246410,4.9088755639,-5.0045884679,6.7812592484,1370
79973,191270,246470,4.941178669,-4.941178669,6.838686990799999,1371
80272,191361,246492,5.0380879843,-4.893322217,6.7944197726999995,1372
80458,191363,246500,5.0835516137,-4.977071008,6.7788664257999995,1373
80508,191398,246520,4.9555356046000005,-4.929214556,6.7501525546,1374
80684,191433,246597,5.0464628634,-4.7868416113,6.9547388869,1375
80830,191510,246585,5.0189454035,-4.8658047571,6.8123659422000005,1376
81012,191520,246614,5.0201418148,-4.8323052407,6.7645094902,1377
81189,191626,246629,5.0620162103,-4.9758745967,6.7022961026,1378
81491,191685,246690,5.0596233877,-4.926821733400001,6.8327049343,1379
81752,191774,246784,4.869393991,-4.8263231842,6.903293200999999,1380
82014,191854,246835,5.0093741131,-4.7928236678,6.820740821299999,1381
82283,191939,246823,4.9340002012,-4.926821733400001,6.866204450700001,1382
82521,192024,246867,4.965106895,-4.9591248385,6.8087767083,1383
82725,192052,246927,5.0177489922000005,-4.8346980633,6.824330055200001,1384
82930,192141,247001,4.9866422984,-4.8011985469,6.7262243286,1385
82708,192052,246878,5.0691946781,-4.8957150396,6.8135623535,1386
81687,191794,246799,5.0344987504,-5.0225346374,6.798009006599999,1387
80638,191487,246578,5.0464628634,-4.8622155232,6.771687958,1388
80153,191396,246489,4.8969114509,-4.8394837085,6.757331022400001,1389
80111,191393,246508,5.0548377425,-4.8466621763,6.798009006599999,1390
80254,191402,246473,4.9100719752,-4.9483571368,6.7477597320000005,1391
80467,191450,246532,5.0907300815,-4.8765724588,6.81954441,1392
80775,191505,246583,5.0153561695999995,-4.8753760475,6.7513489659,1393
81030,191604,246637,4.8765724588,-4.9100719752,6.838686990799999,1394
81194,191623,246648,5.0033920566,-4.9076791526,6.855436749,1395
81286,191555,246688,5.0679982668,-4.8729832249000005,6.8470618699,1396
81357,191700,246661,5.213960445400001,-4.9459643142,6.7381884416,1397
81502,191649,246702,4.9627140724,-4.9316073786,6.8015982405,1398
81641,191781,246766,5.010570524399999,-4.9758745967,6.740581264199999,1399
81869,191857,246787,4.9507499594,-4.893322217,6.867400862,1400
82088,191859,246817,5.029713105200001,-4.9435714916,6.7549381998,1401
82308,192000,246874,4.9674997176,-4.90528633,6.8255264665,1402
82490,192053,246890,5.0225346374,-4.8681975797,6.8901326766999995,1403
82706,192111,246935,5.0309095165,-4.9639104837,6.8219372326,1404
82901,192208,246979,4.8323052407,-4.883750926599999,6.7226350947,1405
83079,192255,247059,5.0512485086,-4.9387858464,6.839883402099999,1406
83328,192328,247079,4.9304109673,-4.8909293944,6.7872413049,1407
82919,192208,247019,5.032105927799999,-4.8430729424,6.8267228778,1408
81784,191916,246855,4.883750926599999,-4.9005006848,6.8135623535,1409
80564,191600,246642,4.917250443,-4.965106895,6.759723845,1410
80091,191476,246566,4.9375894351,-4.9076791526,6.8027946518,1411
80048,191465,246574,5.0356951617,-4.941178669,6.7645094902,1412
80167,191437,246595,5.0512485086,-4.857429878,6.7214386834,1413
80360,191542,246614,5.0464628634,-4.7581277401,6.7848484823,1414
80670,191620,246642,5.0273202826,-4.8598227006,6.7549381998,1415
80887,191658,246716,4.9471607255,-4.7437708044999995,6.795616184,1416
81004,191722,246694,5.058426976400001,-4.7940200791,6.8027946518,1417
81050,191712,246758,4.869393991,-5.0117669357,6.8063838857,1418
81089,191772,246718,5.0691946781,-4.8239303616,6.8709900959,1419
81172,191822,246758,5.0333023391000005,-4.8598227006,6.723831506,1420
81303,191817,246806,5.0141597583,-4.881358104,6.786044893600001,1421
81501,191840,246846,5.000999234,-4.9363930238,6.8099731195999995,1422
81703,191965,246850,4.9459643142,-4.9256253221,6.8506511038,1423
81939,192032,246928,5.0763731459,-4.7868416113,6.853043926400001,1424
82146,192123,246971,5.096712138,-4.7461636271,6.8027946518,1425
82240,192168,246975,4.9148576204,-4.869393991,6.8925254993,1426
82530,192208,247049,4.9567320159,-4.8406801198,6.8099731195999995,1427
82656,192278,247053,5.0668018555,-4.748556449700001,6.8147587648000005,1428
82166,192146,246940,4.9387858464,-4.8179483051,6.8123659422000005,1429
80995,191840,246773,5.0309095165,-4.8131626599,6.7453669094,1430
80001,191595,246617,5.0069812905,-4.7461636271,6.843472636,1431
79706,191499,246544,4.9447679029,-4.8717868136,6.8099731195999995,1432
79713,191480,246551,5.1732824612,-4.7868416113,6.7740807806,1433
79899,191549,246589,4.9220360882000005,-4.893322217,6.8099731195999995,1434
80149,191545,246659,4.9806602419,-4.8646083458,6.7381884416,1435
80420,191688,246688,4.941178669,-4.8622155232,6.7992054179000005,1436
80628,191756,246727,4.9304109673,-4.8765724588,6.7764736032,1437
80715,191768,246713,5.0500520973,-4.8717868136,6.831508523,1438
80653,191744,246737,4.9567320159,-4.8191447164,6.853043926400001,1439
80823,191766,246780,5.0428736295,-4.8370908858999995,6.8279192891000005,1440
80941,191816,246759,5.026123871299999,-4.8227339503,6.7429740868,1441
81114,191877,246818,4.9435714916,-4.917250443,6.8602223942,1442
81317,191959,246826,4.9782674193,-4.8717868136,6.9044896123,1443
81446,191987,246914,4.8981078622,-4.8287160068,6.8219372326,1444
81765,192095,246950,4.9483571368,-4.8777688701,6.7740807806,1445
81957,192152,246997,4.8610191119,-4.926821733400001,6.8267228778,1446
82202,192247,247070,4.9064827413000005,-4.8311088294,6.7884377162,1447
82354,192258,246993,4.9986064114,-5.0225346374,6.7944197726999995,1448
82000,192128,246986,5.0165525809,-4.8646083458,6.8147587648000005,1449
80867,191904,246777,4.953142782,-4.8981078622,6.8709900959,1450
79854,191638,246612,4.961517661099999,-4.7772703209000005,6.9104716688000005,1451
79457,191511,246615,4.989035121000001,-4.9435714916,6.7740807806,1452
79486,191480,246567,5.010570524399999,-4.9519463707,6.7645094902,1453
79596,191542,246640,5.1170511301,-4.8670011684,6.7669023128,1454
79797,191539,246593,5.1194439527,-4.8909293944,6.7489561433,1455
80085,191650,246658,4.7988057243,-4.8849473379,6.783652071000001,1456
80332,191706,246722,5.140979356100001,-4.7676990305,6.8075802969999994,1457
80484,191718,246772,5.012963347,-4.9459643142,6.7812592484,1458
80571,191809,246720,5.000999234,-4.9196432655999995,6.8291157004,1459
80656,191805,246794,4.8562334667,-4.8466621763,6.838686990799999,1460
80822,191864,246778,4.9866422984,-4.8741796362,6.9140609027,1461
81031,191960,246872,4.989035121000001,-4.8909293944,6.836294168199999,1462
81271,191909,246879,5.0524449199,-4.8478585876,6.7944197726999995,1463
81524,192096,246910,4.9794638306,-4.9639104837,6.8267228778,1464
81787,192211,247008,5.0177489922000005,-4.8646083458,6.759723845,1465
82005,192242,247059,4.9818566531999995,-4.8765724588,6.7501525546,1466
82254,192318,247026,5.0943193154,-4.9459643142,6.8123659422000005,1467
82469,192348,247115,5.026123871299999,-4.845465765,6.8171515874,1468
82748,192457,247163,4.9938207662,-4.869393991,6.836294168199999,1469
82579,192409,247136,5.0057848792,-4.9220360882000005,6.7453669094,1470
81634,192175,246991,5.0093741131,-4.8490549989,6.757331022400001,1471
80553,191925,246785,4.9220360882000005,-4.9196432655999995,6.8339013456,1472
80025,191781,246703,5.0404808069,-4.8155554825,6.836294168199999,1473
80004,191777,246749,5.032105927799999,-4.8430729424,6.8051874744,1474
80134,191800,246746,5.1302116544,-4.8299124181,6.769295135399999,1475
80275,191813,246761,4.9938207662,-4.8634119345,6.7621166676,1476
80538,191875,246869,4.9806602419,-4.8861437492,6.843472636,1477
80856,191993,246859,5.0979085493,-4.9196432655999995,6.8542403377,1478
81083,192032,246891,4.9986064114,-4.9100719752,6.9020967897,1479
81188,192065,246936,4.9866422984,-4.929214556,6.8027946518,1480
81290,192087,246935,4.9998028226999995,-4.8490549989,6.8219372326,1481
81414,192162,246971,4.7940200791,-4.8155554825,6.757331022400001,1482
81655,192241,247025,4.929214556,-4.857429878,6.7453669094,1483
81862,192255,247048,5.0668018555,-4.7928236678,6.7812592484,1484
82124,192350,247085,4.9567320159,-4.869393991,6.8733829185,1485
82373,192399,247128,5.0081777018,-4.7988057243,6.7908305388,1486
82645,192457,247178,5.0476592747,-4.8239303616,6.7621166676,1487
82886,192574,247212,4.9722853628,-4.8000021356,6.7645094902,1488
83106,192635,247275,4.926821733400001,-4.8705904022999995,6.7429740868,1489
83327,192633,247274,4.9076791526,-4.9686961289000005,6.7788664257999995,1490
83564,192790,247336,5.0165525809,-4.9507499594,6.851847515099999,1491
83762,192864,247362,5.0931229041,-4.7581277401,6.8135623535,1492
83909,192854,247425,4.9866422984,-4.8059841921,6.831508523,1493
83419,192753,247326,4.8382872972,-4.8861437492,6.6855463444,1494
82242,192497,247188,4.9459643142,-4.8777688701,6.7525453772,1495
81357,192277,247011,4.9698925402,-4.8179483051,6.7070817478,1496
81096,192248,247013,4.9483571368,-4.8670011684,6.8614188055,1497
81079,192167,246984,5.029713105200001,-4.7413779819,6.8123659422000005,1498
81231,192233,246968,4.9818566531999995,-4.7844487887,6.823133643899999,1499
81433,192276,246966,4.9674997176,-4.8753760475,6.8470618699,1500
81730,192363,247049,4.9818566531999995,-4.9076791526,6.8075802969999994,1501
81946,192407,247095,4.9974100001,-4.8155554825,6.7118673929999995,1502
82036,192417,247081,4.977071008,-4.8909293944,6.7728843693,1503
82028,192455,247098,4.9914279436,-4.8346980633,6.7549381998,1504
82168,192490,247167,4.9555356046000005,-4.989035121000001,6.7968125953,1505
82292,192562,247140,5.0117669357,-4.941178669,6.7740807806,1506
82477,192530,247215,4.9028935074,-4.8909293944,6.7621166676,1507
82678,192599,247227,5.0033920566,-4.883750926599999,6.8075802969999994,1508
82913,192737,247237,5.045266452099999,-4.7964129017,6.7525453772,1509
83145,192801,247293,4.977071008,-4.8251267729,6.81954441,1510
83369,192839,247273,4.9363930238,-4.8753760475,6.8482582812,1511
83574,192888,247382,5.0033920566,-4.7509492723,6.8339013456,1512
83735,192985,247380,4.9842494758,-4.9351966125,6.7908305388,1513
83936,193004,247449,4.9746781854,-4.9040899186999996,6.8590259828999995,1514
84090,193058,247485,5.1314080657000005,-4.9196432655999995,6.836294168199999,1515
84249,193118,247532,4.9507499594,-4.7772703209000005,6.8123659422000005,1516
84200,193124,247463,4.90528633,-4.9196432655999995,6.795616184,1517
83306,192925,247340,5.0488556860000005,-4.8538406441,6.878168563699999,1518
