green,red,IR,acc_x,acc_y,acc_z,sample_index
54714,171217,165586,-2.2336998971,5.395814963,7.9034930478000005,1
54936,171235,165569,-2.285145583,5.4484570602,7.9992059518000005,2
54720,171203,165545,-2.2169501389,5.359922623999999,7.844868894099999,3
54827,171230,165551,-2.2624137683,5.4065826647,7.908278693,4
54774,171267,165557,-2.3306092124,5.395814963,7.927421273799999,5
54815,171317,165586,-2.3760728418,5.3814580274,7.9345997416,6
54656,171351,165632,-2.2600209457,5.5501520207,8.026723411699999,7
54645,171294,165590,-2.1236300575,5.4544391167,8.0111700648,8
54586,171313,165581,-2.189432679,5.4257252455,7.8987074025999995,9
54500,171291,165602,-2.2995025186,5.4245288342,7.968099258,10
54536,171223,165589,-2.416750826,5.426921656799999,7.9968131291999995,11
54780,171279,165601,-2.1224336462,5.3587262127,7.944171031999999,12
54748,171343,165627,-2.2193429615,5.4927242783,8.0087772422,13
54538,171293,165613,-2.3282163898,5.4508498828,8.0793655089,14
54577,171329,165641,-2.1667008643,5.3300123415,7.9513494998,15
54504,171365,165627,-2.1954147355,5.280959478200001,8.0243305891,16
54723,171371,165638,-2.2947168733999996,5.371886737,7.9549387337,17
54716,171359,165641,-2.3988046565,5.430510890700001,8.0015987744,18
54838,171385,165636,-2.3497517932000003,5.362315446599999,7.9657064354,19
54671,171331,165611,-2.3330020350000003,5.499902746099999,7.908278693,20
54616,171385,165597,-2.3066809864,5.4233324229,7.9513494998,21
54729,171372,165638,-2.3521446158,5.321637462399999,7.9884382501,22
54868,171381,165625,-2.1882362677000002,5.3647082692,7.9752777258,23
54825,171383,165628,-2.368894374,5.4125647212,8.0243305891,24
54822,171398,165637,-2.3198415107,5.388636495199999,7.911867926899999,25
54812,171371,165627,-2.5052852621999997,5.3946185517,8.0147592987,26
54837,171405,165604,-2.3102702203,5.347958511000001,8.0327054682,27
54843,171397,165633,-2.3330020350000003,5.3946185517,8.0685978072,28
54927,171463,165636,-2.3030917525,5.455635527999999,7.9298140964,29
54887,171482,165671,-2.321037922,5.3084769381,7.9106715156,30
54678,171453,165631,-2.3258235672,5.4616175845,7.9908310727,31
54551,171422,165637,-2.2959132847,5.4006006081999995,8.0111700648,32
54421,171420,165656,-2.3138594542,5.3300123415,8.003991596999999,33
54564,171434,165648,-2.2695922361,5.417350366399999,7.9465638546,34
54484,171376,165667,-2.3784656644,5.5716874241,7.9752777258,35
54562,171428,165612,-2.3054845751,5.491527867,7.956135144999999,36
54605,171442,165656,-2.3282163898,5.407779076,7.986045427500001,37
54503,171446,165642,-2.3162522768000002,5.2546384296,8.003991596999999,38
54335,171459,165657,-2.3377876802,5.3647082692,7.9633136127999995,39
54532,171461,165668,-2.297109696,5.3659046805,7.9657064354,40
54531,171457,165666,-2.1810577999,5.4640104071,7.9932238953,41
54524,171484,165660,-2.3138594542,5.4604211732,7.992027484,42
54485,171468,165639,-2.3425733254,5.388636495199999,7.9776705484,43
54591,171460,165621,-2.3054845751,5.3455656884,7.9776705484,44
54603,171455,165628,-2.2193429615,5.4664032297,7.970492080600001,45
54615,171495,165643,-2.3330020350000003,5.4975099235,8.0434731699,46
54719,171474,165641,-2.3246271559,5.3371908093,7.992027484,47
54848,171473,165682,-2.3665015514,5.315655405899999,7.9932238953,48
54705,171498,165619,-2.2480568327,5.4388857698,7.9633136127999995,49
54676,171468,165623,-2.1499511061,5.430510890700001,8.0004023631,50
54684,171489,165635,-2.1667008643,5.3455656884,7.920242806,51
54773,171536,165650,-2.285145583,5.4233324229,7.8987074025999995,52
54636,171548,165655,-2.3078773977,5.3407800432,7.9549387337,53
54680,171525,165650,-2.2468604214,5.4388857698,7.956135144999999,54
54409,171466,165626,-2.1702900981999997,5.472385286200001,7.9872418388,55
54358,171492,165638,-2.3473589706,5.3982077855999995,7.9585279676,56
54362,171449,165627,-2.3497517932000003,5.3192446398,7.944171031999999,57
54392,171424,165559,-2.3497517932000003,5.3575298014,8.0374911134,58
54444,171341,165575,-2.3497517932000003,5.4017970195,8.0063844196,59
54298,171424,165616,-2.2947168733999996,5.430510890700001,7.9872418388,60
54332,171408,165569,-2.3186450994000003,5.3527441562,7.861618652300001,61
54344,171385,165554,-2.2755742926,5.4376893585,8.0303126456,62
54468,171345,165516,-2.2767707039,5.309673349400001,7.9872418388,63
54405,171311,165486,-2.2301106632,5.388636495199999,7.8771719992,64
54401,171308,165491,-2.1714865095,5.3694939144,7.8855468783,65
54617,171250,165486,-2.3126630429,5.362315446599999,8.0147592987,66
54354,171195,165431,-2.3294128011,5.4855458105,7.896314579999999,67
54503,171142,165425,-2.225325018,5.324030285,7.992027484,68
54437,171170,165370,-2.3102702203,5.4628139958,7.8496545393,69
54490,171156,165378,-2.2827527603999997,5.2821558895,7.956135144999999,70
54451,171106,165394,-2.2504496553,5.331208752799999,8.005188008300001,71
54368,171103,165362,-2.285145583,5.3611190353,8.0015987744,72
54606,171087,165327,-2.1583259852,5.5022955687,7.956135144999999,73
54507,171121,165342,-2.3353948576,5.4412785924,8.049455226400001,74
54495,171144,165391,-2.2408783649,5.3826544387,8.0063844196,75
54423,171106,165360,-2.2277178406,5.4329037133,7.9214392173,76
54262,171064,165366,-2.2229321954,5.4927242783,7.9178499834,77
54324,171047,165327,-2.2109680824,5.3694939144,8.0087772422,78
54303,171087,165340,-2.3365912689,5.405386253400001,7.9824561936,79
54332,171080,165342,-2.3234307446,5.4987063348,7.969295669299999,80
54372,171066,165348,-2.3318056236999998,5.3706903257,7.873582765299999,81
54285,171063,165356,-2.2121644937,5.455635527999999,8.0386875247,82
54204,171071,165355,-2.2755742926,5.362315446599999,7.9944203065999995,83
54167,171090,165368,-2.3784656644,5.3970113743,7.9465638546,84
54220,171096,165364,-2.2636101795999997,5.491527867,7.970492080600001,85
54107,171126,165335,-2.2767707039,5.359922623999999,7.927421273799999,86
54218,171105,165384,-2.3162522768000002,5.3575298014,8.005188008300001,87
54393,171141,165361,-2.2073788485,5.4484570602,8.027919823,88
54391,171131,165390,-2.3353948576,5.3982077855999995,7.968099258,89
54394,171137,165370,-2.2408783649,5.2558348409,7.9106715156,90
54294,171153,165386,-2.1427726383,5.4293144793999994,7.9465638546,91
54360,171196,165395,-2.1882362677000002,5.446064237599999,8.0530444603,92
54319,171192,165383,-2.1942183242,5.3934221404,7.9298140964,93
54492,171194,165383,-2.3306092124,5.3814580274,7.927421273799999,94
54494,171190,165382,-2.2097716711,5.3431728658,7.9896346614,95
54507,171197,165397,-2.3389840915,5.3503513336,8.017152121299999,96
54585,171268,165378,-2.2313070745,5.4759745201,8.0255270004,97
54558,171300,165443,-2.2911276395,5.4472606489,7.927421273799999,98
54378,171289,165385,-2.3473589706,5.4161539550999995,8.0422767586,99
54543,171231,165444,-2.2779671152,5.3694939144,7.970492080600001,100
54353,171243,165402,-2.2995025186,5.346762099699999,7.9585279676,101
54356,171237,165389,-2.3724836079,5.4221360116,7.9657064354,102
54236,171235,165388,-2.2803599377999997,5.3455656884,7.908278693,103
54143,171227,165432,-2.285145583,5.455635527999999,8.0147592987,104
54233,171252,165398,-2.1738793321000003,5.587240771,8.057830105499999,105
54110,171252,165418,-2.2193429615,5.4747781088,7.9393853868,106
54335,171249,165396,-2.2803599377999997,5.362315446599999,8.0231341778,107
54285,171272,165405,-2.1822542112,5.3647082692,7.9752777258,108
54320,171278,165434,-2.2097716711,5.3503513336,7.9597243789,109
54485,171299,165441,-2.3186450994000003,5.344369277099999,8.0147592987,110
54506,171306,165446,-2.3748764305,5.4029934308,7.9968131291999995,111
54443,171321,165425,-2.1511475174,5.405386253400001,7.9465638546,112
54483,171324,165433,-2.3114666316,5.3934221404,7.9824561936,113
54390,171350,165439,-2.165504453,5.3671010918,7.932206919,114
54422,171349,165460,-2.3545374384,5.419743189,7.9262248625,115
54479,171396,165440,-2.2947168733999996,5.444867826299999,7.9058858704,116
54586,171370,165461,-2.2899312282,5.4161539550999995,8.057830105499999,117
54806,171414,165456,-2.1607188078,5.491527867,7.902296636499999,118
54595,171410,165472,-2.2432711875,5.3994041969,7.9142607494999995,119
54689,171433,165482,-2.2995025186,5.443671415,7.956135144999999,120
54628,171452,165511,-2.4466611085,5.4532427054,7.915457160799999,121
54525,171436,165476,-2.3784656644,5.5142596817000005,7.944171031999999,122
54408,171388,165468,-2.1116659445,5.3180482284999995,7.9657064354,123
54483,171382,165487,-2.1906290903,5.264209719999999,7.8771719992,124
54364,171379,165480,-2.2169501389,5.4855458105,7.944171031999999,125
54432,171404,165490,-2.27318147,5.4831529879,7.925028451199999,126
54482,171391,165479,-2.3413769141,5.389832906500001,7.9465638546,127
54475,171431,165485,-2.2313070745,5.4747781088,8.0075808309,128
54479,171425,165499,-2.2648065909,5.4329037133,8.0195449439,129
54533,171437,165522,-2.2683958248,5.279763066899999,8.0327054682,130
54562,171444,165523,-2.4023938904,5.471188874899999,7.953742322399999,131
54671,171437,165501,-2.3114666316,5.3706903257,8.0458659925,132
54587,171471,165493,-2.3353948576,5.3742795596,7.953742322399999,133
54628,171453,165481,-2.2121644937,5.4257252455,7.9345997416,134
54545,171430,165523,-2.1786649773,5.395814963,7.9585279676,135
54671,171454,165508,-2.3485553819,5.3671010918,7.9633136127999995,136
54843,171461,165522,-2.297109696,5.4233324229,7.9968131291999995,137
54457,171468,165505,-2.3808584870000002,5.5058848026,7.9238320399,138
54681,171453,165495,-2.129612114,5.3706903257,7.9956167179,139
54775,171439,165480,-2.1451654609,5.4640104071,7.911867926899999,140
54854,171449,165472,-2.1882362677000002,5.4029934308,7.9417782094,141
54636,171471,165499,-2.3593230836,5.3455656884,8.01595571,142
54842,171495,165518,-2.4741785684,5.3611190353,8.070990629799999,143
54794,171504,165540,-2.3234307446,5.405386253400001,7.932206919,144
54676,171423,165477,-2.2707886474,5.194817864599999,8.0554372829,145
54718,171338,165428,-2.2325034857999997,5.4903314557,7.9992059518000005,146
54817,171362,165431,-2.1667008643,5.407779076,7.972884903200001,147
54756,171294,165423,-2.2480568327,5.4329037133,7.970492080600001,148
54491,171221,165400,-2.321037922,5.4341001246000005,8.051848049,149
54563,171224,165391,-2.3330020350000003,5.487938633100001,8.0602229281,150
54507,171196,165386,-2.2923240508,5.4376893585,7.8987074025999995,151
54558,171173,165367,-2.356930261,5.3575298014,7.9740813145,152
54350,171137,165369,-2.1427726383,5.331208752799999,7.932206919,153
54616,171142,165363,-2.3676979627,5.4101718986,7.9968131291999995,154
54673,171099,165359,-2.2013967919999997,5.430510890700001,7.9106715156,155
54657,171072,165311,-2.2061824372,5.376672382200001,7.953742322399999,156
54498,171067,165325,-2.3282163898,5.3108697607,7.9633136127999995,157
54631,171011,165286,-2.1942183242,5.389832906500001,7.972884903200001,158
54527,171041,165298,-2.3425733254,5.3982077855999995,7.972884903200001,159
54457,171042,165283,-2.4346969955,5.4364929472,8.0339018795,160
54629,171024,165298,-2.2839491717,5.3778687935,8.0231341778,161
54582,171034,165287,-2.3018953412000003,5.4352965359,7.927421273799999,162
54669,171041,165323,-2.368894374,5.3551369788,7.9417782094,163
54817,171051,165336,-2.4059831243,5.458028350599999,7.9752777258,164
54705,171067,165323,-2.3964118339,5.3168518172,7.970492080600001,165
54698,171057,165354,-2.2480568327,5.3934221404,7.9549387337,166
54491,170997,165311,-2.1990039694,5.4364929472,7.915457160799999,167
54508,170987,165294,-2.2815563491,5.4412785924,7.9178499834,168
54303,170984,165261,-2.3784656644,5.3862436726,7.8951181687,169
54460,171005,165299,-2.2600209457,5.3575298014,7.9178499834,170
54490,170986,165340,-2.3018953412000003,5.3982077855999995,7.9884382501,171
54436,170992,165310,-2.1738793321000003,5.4149575438,7.9513494998,172
54442,171021,165325,-2.3306092124,5.4903314557,8.0769726863,173
54488,171094,165380,-2.1930219129,5.3934221404,8.0207413552,174
54413,171042,165346,-2.2983061073,5.3862436726,7.9226356286,175
54167,171047,165356,-2.225325018,5.404189842099999,7.858029418399999,176
54460,171111,165344,-2.3856441322,5.3934221404,7.980063371,177
54480,171067,165363,-2.2791635265,5.4628139958,7.8951181687,178
54249,171067,165383,-2.2995025186,5.362315446599999,7.9011002251999995,179
54335,171098,165374,-2.3114666316,5.312066172,7.9585279676,180
54360,171116,165423,-2.2073788485,5.4101718986,8.0554372829,181
54308,171123,165392,-2.297109696,5.4687960523,7.956135144999999,182
54342,171122,165409,-2.3533410271,5.388636495199999,7.9298140964,183
54323,171120,165428,-2.2516460665999998,5.4089754873,7.9417782094,184
54545,171150,165410,-2.3054845751,5.4975099235,7.9716884919,185
54306,171158,165407,-2.3138594542,5.2905307686,7.920242806,186
54474,171197,165463,-2.2564317118,5.3790652048,7.9190463947000005,187
54558,171242,165433,-2.2755742926,5.388636495199999,7.9633136127999995,188
54410,171170,165454,-2.2875384056,5.3910293178,7.896314579999999,189
54220,171074,165442,-2.1738793321000003,5.252245607000001,8.0291162343,190
54207,171087,165413,-2.189432679,5.4520462941,7.8652078862,191
53824,171101,165441,-2.15354034,5.3970113743,7.9465638546,192
53978,171098,165434,-2.2516460665999998,5.4125647212,8.0004023631,193
53839,171106,165440,-2.2061824372,5.3790652048,7.992027484,194
54097,171124,165455,-2.3401805028,5.392225729100001,7.9585279676,195
53906,171141,165464,-2.3545374384,5.499902746099999,7.9345997416,196
53871,171170,165485,-2.2097716711,5.4652068183999996,7.9465638546,197
54116,171140,165449,-2.3138594542,5.405386253400001,7.874779176600001,198
54096,171137,165498,-2.3617159062,5.3694939144,7.9513494998,199
54065,171157,165466,-2.3413769141,5.331208752799999,7.9776705484,200
54053,171138,165501,-2.1631116304,5.3371908093,7.9657064354,201
54097,171191,165500,-2.1595223965,5.2426743166000005,7.8544401845,202
54143,171181,165516,-2.3377876802,5.3551369788,7.9812597822999996,203
54239,171196,165541,-2.356930261,5.467599641,7.9489566772,204
54334,171216,165515,-2.2145573163,5.455635527999999,7.8783684105,205
54178,171204,165505,-2.3042881638,5.4006006081999995,7.9417782094,206
54236,171209,165529,-2.321037922,5.5166525043000005,7.9178499834,207
54186,171220,165566,-2.3593230836,5.2917271799,7.9836526049,208
54444,171260,165560,-2.3174486881,5.4101718986,7.992027484,209
54393,171284,165585,-2.2671994135,5.335994398,7.9609207902,210
54390,171278,165569,-2.2516460665999998,5.3994041969,7.9130643382,211
53860,171230,165539,-2.4299113503,5.4376893585,8.0231341778,212
54049,171171,165539,-2.2839491717,5.3611190353,7.9812597822999996,213
54164,171161,165509,-2.2217357841,5.426921656799999,7.9178499834,214
53707,171179,165542,-2.2504496553,5.321637462399999,7.9513494998,215
54003,171162,165532,-2.27318147,5.3647082692,7.9657064354,216
54015,171155,165542,-2.3665015514,5.467599641,7.970492080600001,217
54153,171179,165536,-2.2755742926,5.2953164138,8.0004023631,218
54185,171221,165523,-2.3617159062,5.3539405675,7.9465638546,219
53795,171208,165585,-2.1678972756,5.4006006081999995,7.908278693,220
54192,171205,165570,-2.285145583,5.431707302,7.9513494998,221
54242,171237,165557,-2.3018953412000003,5.3587262127,7.953742322399999,222
54319,171194,165596,-2.1690936869,5.294120002500001,7.9058858704,223
54165,171177,165581,-2.3437697367,5.309673349400001,7.9130643382,224
54416,171192,165599,-2.3748764305,5.334797986699999,7.9393853868,225
54142,171232,165586,-2.2241286067,5.3647082692,7.9417782094,226
54289,171192,165589,-2.285145583,5.4687960523,7.9932238953,227
54350,171212,165588,-2.356930261,5.4520462941,7.9836526049,228
54408,171213,165577,-2.1571295739000003,5.248656373099999,7.9968131291999995,229
54524,171211,165569,-2.1403798157,5.3264231076,7.992027484,230
54564,171208,165596,-2.1116659445,5.344369277099999,8.0219377665,231
54296,171209,165586,-2.2660030021999997,5.3144589946,7.9824561936,232
54339,171122,165528,-2.1954147355,5.2749774217,7.9465638546,233
54354,171066,165513,-2.3222343333,5.4520462941,7.9585279676,234
54276,171014,165483,-2.3952154226,5.4759745201,8.0135628874,235
53904,170985,165474,-2.2121644937,5.4508498828,7.9465638546,236
54084,170982,165466,-2.3665015514,5.431707302,8.0482588151,237
54212,170932,165449,-2.3234307446,5.4484570602,7.9345997416,238
54015,170947,165480,-2.2719850587,5.3276195189,7.942974620699999,239
54136,170928,165477,-2.321037922,5.3407800432,8.027919823,240
54157,170909,165451,-2.1870398563999998,5.444867826299999,8.0793655089,241
54210,170906,165436,-2.4490539311,5.3647082692,7.944171031999999,242
54167,170903,165431,-2.3593230836,5.446064237599999,7.9884382501,243
54070,170881,165423,-2.2037896146,5.3539405675,7.9776705484,244
54253,170866,165416,-2.3006989299,5.5477591981,8.0243305891,245
54342,170889,165412,-2.356930261,5.405386253400001,7.9465638546,246
53999,170876,165429,-2.3916261887,5.277370244299999,8.0255270004,247
54370,170898,165416,-2.2755742926,5.4819565766,8.0315090569,248
54313,170882,165429,-2.1858434451,5.4484570602,8.0087772422,249
54368,170914,165467,-2.2600209457,5.3371908093,7.980063371,250
54622,170929,165470,-2.2815563491,5.335994398,7.848458128,251
54237,170952,165456,-2.2887348169,5.3192446398,7.920242806,252
54362,170908,165449,-2.1798613886,5.4544391167,7.932206919,253
54129,170873,165437,-2.3006989299,5.347958511000001,7.9944203065999995,254
54174,170854,165464,-2.3521446158,5.4951171009,7.9393853868,255
54173,170885,165437,-2.3485553819,5.38385085,8.003991596999999,256
54176,170860,165446,-2.2671994135,5.4329037133,7.8472617167,257
54047,170887,165458,-2.1379869930999997,5.4125647212,8.0243305891,258
54049,170893,165509,-2.261217357,5.3168518172,8.0291162343,259
54245,170909,165508,-2.3042881638,5.3694939144,7.9609207902,260
54260,170949,165514,-2.285145583,5.3862436726,7.9824561936,261
54279,170962,165501,-2.2169501389,5.4640104071,7.9597243789,262
54544,170955,165554,-2.2301106632,5.4089754873,7.9716884919,263
54309,170949,165555,-2.2755742926,5.331208752799999,8.0147592987,264
54203,170996,165557,-2.2169501389,5.3324051641,7.980063371,265
54283,171005,165565,-2.2097716711,5.371886737,7.9788669596999995,266
54341,171020,165584,-2.2779671152,5.3204410510999995,7.986045427500001,267
54634,171031,165589,-2.2719850587,5.3228338737000005,7.9609207902,268
54345,171051,165617,-2.1858434451,5.554937665900001,8.0697942185,269
54428,171064,165607,-2.3114666316,5.4903314557,7.9417782094,270
54593,171083,165604,-2.0506489682,5.4604211732,8.049455226400001,271
54781,171098,165628,-2.2013967919999997,5.50349198,8.0937224445,272
54442,171146,165635,-2.2205393728,5.3491549223,8.0985080897,273
54376,171098,165634,-2.3473589706,5.376672382200001,8.0015987744,274
54292,171038,165600,-2.3330020350000003,5.442475003699999,7.9369925642,275
54242,171028,165601,-2.2205393728,5.4951171009,7.9513494998,276
54215,171029,165617,-2.3844477209,5.3503513336,8.0458659925,277
54080,171022,165615,-2.1834506225,5.5058848026,8.017152121299999,278
54161,171044,165621,-2.27318147,5.4149575438,8.0650085733,279
54269,171045,165651,-2.2217357841,5.419743189,7.920242806,280
54256,171084,165649,-2.3306092124,5.4759745201,7.9752777258,281
54399,171083,165670,-2.2588245344,5.4388857698,7.9513494998,282
54286,171089,165703,-2.2660030021999997,5.4687960523,7.9226356286,283
54533,171114,165692,-2.2468604214,5.395814963,7.9609207902,284
54446,171140,165692,-2.2552353005,5.3982077855999995,7.9824561936,285
54443,171114,165729,-2.1403798157,5.4245288342,7.969295669299999,286
54347,171140,165699,-2.3760728418,5.3575298014,8.0219377665,287
54399,171164,165733,-2.2707886474,5.4699924636,7.9417782094,288
54488,171189,165736,-2.285145583,5.371886737,8.0111700648,289
54486,171232,165759,-2.2492532439999997,5.3563333901,8.0183485326,290
54498,171219,165739,-2.1738793321000003,5.331208752799999,7.980063371,291
54510,171228,165757,-2.2229321954,5.444867826299999,7.9824561936,292
54549,171241,165757,-2.3234307446,5.2989056477,8.0243305891,293
54702,171270,165774,-2.2516460665999998,5.5465627868,7.970492080600001,294
54477,171272,165754,-2.1643080417,5.459224761900001,7.9932238953,295
54132,171172,165752,-2.3270199785,5.362315446599999,7.9824561936,296
54211,171141,165722,-2.2396819536,5.4125647212,8.0219377665,297
54142,171141,165701,-2.2049860259000003,5.312066172,7.9417782094,298
54071,171141,165748,-2.1930219129,5.4568319393,7.874779176600001,299
54115,171168,165721,-2.2995025186,5.4125647212,7.9298140964,300
54085,171139,165718,-2.2492532439999997,5.3431728658,7.942974620699999,301
54217,171196,165739,-2.2480568327,5.487938633100001,7.9393853868,302
54238,171192,165744,-2.1810577999,5.3946185517,7.9477602659,303
54272,171208,165737,-2.2648065909,5.347958511000001,8.0350982908,304
54484,171222,165775,-2.4514467537,5.4221360116,7.9645100241,305
54396,171202,165729,-2.1667008643,5.3132625833,7.9932238953,306
54289,171184,165710,-2.2588245344,5.3168518172,8.0590265168,307
54280,171168,165741,-2.1786649773,5.324030285,8.026723411699999,308
54382,171191,165714,-2.2899312282,5.3814580274,8.0674013959,309
54387,171192,165721,-2.1714865095,5.459224761900001,7.9130643382,310
54203,171130,165724,-2.2947168733999996,5.362315446599999,7.9968131291999995,311
54440,171124,165687,-2.3425733254,5.455635527999999,8.0075808309,312
54463,171108,165697,-2.2803599377999997,5.3407800432,7.980063371,313
54417,171055,165677,-2.2384855423,5.5106704478,8.0099736535,314
54266,171113,165652,-2.27318147,5.3024948815999995,7.873582765299999,315
54336,171060,165617,-2.3054845751,5.5453663755000004,7.9345997416,316
54099,170977,165597,-2.2707886474,5.309673349400001,8.0374911134,317
54100,170940,165574,-2.4035903017,5.3742795596,8.0015987744,318
53974,170922,165555,-2.3258235672,5.3252266963,7.986045427500001,319
53952,170925,165557,-2.2899312282,5.3790652048,7.8556365958,320
53984,170909,165563,-2.1990039694,5.3946185517,7.9633136127999995,321
54089,170919,165549,-2.2743778813,5.4903314557,8.0482588151,322
54108,170944,165546,-2.2779671152,5.3611190353,7.992027484,323
54014,170934,165596,-2.297109696,5.38385085,7.9944203065999995,324
53974,170954,165578,-2.3282163898,5.5190453269,8.0099736535,325
53969,170964,165586,-2.2121644937,5.487938633100001,7.970492080600001,326
54199,170967,165582,-2.4059831243,5.5166525043000005,7.9992059518000005,327
54135,170981,165570,-2.3976082452,5.4125647212,7.9908310727,328
54135,170986,165613,-2.1786649773,5.4006006081999995,7.9752777258,329
54077,170985,165608,-2.3282163898,5.265406131300001,7.944171031999999,330
54284,170996,165611,-2.3497517932000003,5.4281180681,8.0889367993,331
54163,171019,165591,-2.2887348169,5.419743189,7.9752777258,332
54162,171014,165607,-2.1834506225,5.3970113743,7.9776705484,333
54315,171034,165624,-2.3856441322,5.3575298014,7.968099258,334
54173,171070,165602,-2.3533410271,5.3252266963,7.920242806,335
54399,171075,165633,-2.4023938904,5.417350366399999,7.980063371,336
54321,171103,165655,-2.27318147,5.3694939144,7.9764741371,337
54324,171100,165639,-2.2899312282,5.4687960523,7.9130643382,338
54183,171072,165622,-2.2181465501999997,5.4185467777000005,7.8951181687,339
53941,171056,165622,-2.2432711875,5.6027941179,8.0721870411,340
54090,171058,165650,-2.2648065909,5.3862436726,7.9884382501,341
54013,171061,165660,-2.3018953412000003,5.4125647212,7.8771719992,342
54148,171064,165667,-2.2396819536,5.300102059,7.9226356286,343
54215,171096,165661,-2.1355941704999997,5.4352965359,7.8939217574,344
54041,171111,165681,-2.3162522768000002,5.3730831483,7.9058858704,345
54227,171144,165651,-2.3186450994000003,5.487938633100001,7.9369925642,346
54114,171147,165676,-2.2193429615,5.4245288342,8.0434731699,347
54167,171188,165666,-2.2277178406,5.38385085,7.9238320399,348
53945,171167,165682,-2.3306092124,5.3862436726,8.0015987744,349
54322,171201,165735,-2.2875384056,5.4831529879,7.9645100241,350
54222,171202,165701,-2.368894374,5.4903314557,7.9657064354,351
54282,171254,165686,-2.4251257050999997,5.515456093,7.9968131291999995,352
54558,171278,165727,-2.2875384056,5.405386253400001,7.9657064354,353
54407,171278,165688,-2.2025932033,5.4029934308,7.9393853868,354
54479,171279,165710,-2.2181465501999997,5.4652068183999996,8.0004023631,355
54524,171267,165732,-2.3258235672,5.3300123415,8.0063844196,356
54419,171299,165756,-2.1846470338,5.4221360116,8.0195449439,357
54663,171339,165734,-2.3712871966,5.4628139958,7.9896346614,358
54438,171353,165769,-2.2289142519,5.459224761900001,7.9836526049,359
54439,171356,165768,-2.3234307446,5.38385085,7.8999038139,360
54288,171321,165721,-2.5100709074,5.3108697607,7.9609207902,361
54256,171313,165749,-2.3246271559,5.3647082692,7.9657064354,362
54306,171334,165717,-2.2707886474,5.3276195189,8.01595571,363
54314,171322,165734,-2.2289142519,5.4341001246000005,7.969295669299999,364
54401,171305,165751,-2.3114666316,5.4101718986,7.970492080600001,365
54385,171338,165759,-2.3593230836,5.431707302,8.0650085733,366
54555,171362,165762,-2.2193429615,5.50349198,7.9226356286,367
54600,171392,165783,-2.2648065909,5.4520462941,7.980063371,368
54492,171403,165760,-2.2456640101,5.4233324229,7.9776705484,369
54519,171408,165797,-2.2229321954,5.4735816975,7.9489566772,370
54419,171429,165765,-2.3066809864,5.331208752799999,8.0087772422,371
54493,171407,165787,-2.2229321954,5.3407800432,7.970492080600001,372
54240,171434,165769,-2.2815563491,5.4412785924,7.953742322399999,373
54636,171448,165763,-2.2839491717,5.5118668590999995,8.0697942185,374
54711,171466,165784,-2.285145583,5.3671010918,7.9369925642,375
54769,171463,165772,-2.4741785684,5.5345986738,8.062615750700001,376
54827,171460,165783,-2.3629123174999997,5.4006006081999995,7.9489566772,377
54715,171480,165785,-2.177468566,5.3024948815999995,7.8915289348,378
54748,171485,165795,-2.2875384056,5.4029934308,7.998009540499999,379
54881,171492,165801,-2.3413769141,5.3862436726,8.057830105499999,380
54827,171519,165802,-2.4000010678,5.324030285,7.9262248625,381
54960,171506,165775,-2.1690936869,5.3563333901,7.968099258,382
54932,171505,165766,-2.1870398563999998,5.4149575438,8.0303126456,383
54850,171463,165746,-2.3066809864,5.3982077855999995,7.9788669596999995,384
54754,171455,165765,-2.1930219129,5.4903314557,7.9896346614,385
54590,171381,165743,-2.27318147,5.4149575438,7.980063371,386
54678,171439,165762,-2.2528424779,5.3647082692,8.0554372829,387
54704,171454,165740,-2.2492532439999997,5.538187907699999,7.9657064354,388
54932,171479,165748,-2.2468604214,5.3527441562,7.9872418388,389
54919,171440,165721,-2.1930219129,5.4065826647,7.9489566772,390
54818,171391,165741,-2.27318147,5.3539405675,7.9896346614,391
54761,171403,165701,-2.3174486881,5.3946185517,8.0087772422,392
54942,171386,165682,-2.3186450994000003,5.4161539550999995,8.0147592987,393
54909,171309,165701,-2.2492532439999997,5.2677989539,7.998009540499999,394
54916,171288,165640,-2.1846470338,5.344369277099999,7.9872418388,395
54781,171301,165624,-2.2420747762,5.4029934308,7.9298140964,396
54829,171256,165630,-2.1978075581,5.4209396003000005,7.9513494998,397
55095,171266,165597,-2.2265214293,5.346762099699999,8.0458659925,398
55047,171225,165595,-2.3246271559,5.2893343573,7.9369925642,399
54822,171198,165583,-2.3700907853,5.3168518172,7.9669028467,400
54864,171194,165576,-2.309073809,5.4388857698,8.057830105499999,401
54865,171210,165556,-2.3629123174999997,5.540580730299999,8.0004023631,402
54951,171259,165591,-2.5160529638999996,5.2450671392,8.0937224445,403
54860,171191,165562,-2.225325018,5.3742795596,7.9393853868,404
54850,171139,165545,-2.3593230836,5.3276195189,8.003991596999999,405
54919,171136,165599,-2.2145573163,5.3910293178,7.984849016199999,406
54786,171179,165559,-2.2181465501999997,5.3539405675,7.9465638546,407
54707,171162,165552,-2.3042881638,5.4352965359,8.0315090569,408
54796,171148,165564,-2.2815563491,5.446064237599999,7.956135144999999,409
54696,171172,165541,-2.2636101795999997,5.486742221799999,7.980063371,410
54733,171197,165551,-2.3066809864,5.2953164138,7.9872418388,411
54606,171194,165552,-2.3952154226,5.2701917765,8.0087772422,412
54685,171196,165574,-2.3377876802,5.3575298014,7.932206919,413
54528,171199,165598,-2.2025932033,5.324030285,7.884350467,414
54708,171190,165555,-2.2289142519,5.4628139958,7.9896346614,415
54727,171215,165576,-2.1427726383,5.5334022625,8.0004023631,416
54770,171221,165571,-2.3497517932000003,5.4400821811,7.873582765299999,417
54996,171209,165548,-2.4179472373,5.3036912929,8.0362947021,418
54839,171285,165579,-2.2767707039,5.363511857900001,7.9932238953,419
54932,171234,165589,-2.3294128011,5.3814580274,7.9968131291999995,420
54733,171266,165597,-2.2743778813,5.4400821811,8.0470624038,421
55033,171292,165602,-2.2408783649,5.404189842099999,7.9872418388,422
55154,171280,165563,-2.2181465501999997,5.4664032297,7.9657064354,423
54905,171308,165567,-2.2121644937,5.4065826647,8.0506516377,424
55193,171342,165626,-2.2121644937,5.4975099235,7.9752777258,425
54931,171361,165614,-2.4059831243,5.4388857698,8.0087772422,426
54755,171309,165630,-2.2121644937,5.5070812139,8.003991596999999,427
54695,171327,165609,-2.2588245344,5.4496534715000005,8.0386875247,428
54454,171316,165612,-2.3126630429,5.3706903257,7.9226356286,429
54602,171328,165606,-2.3557338497,5.446064237599999,8.0147592987,430
54702,171370,165606,-2.2803599377999997,5.3144589946,8.0554372829,431
54585,171338,165624,-2.2504496553,5.2977092364,8.0410803473,432
54487,171328,165617,-2.2097716711,5.5142596817000005,8.0183485326,433
54474,171364,165612,-2.2025932033,5.4807601652999995,8.01595571,434
54628,171391,165618,-2.1487546948,5.540580730299999,7.9369925642,435
54466,171376,165632,-2.3258235672,5.4951171009,8.0243305891,436
54514,171360,165624,-2.2695922361,5.3204410510999995,8.0530444603,437
54422,171371,165599,-2.3377876802,5.3491549223,7.832904781100001,438
54612,171377,165626,-2.476571391,5.2905307686,7.998009540499999,439
54466,171384,165644,-2.2480568327,5.3862436726,7.9884382501,440
54596,171414,165637,-2.3234307446,5.4472606489,8.0697942185,441
54633,171411,165629,-2.2779671152,5.4939206895999995,8.0291162343,442
54657,171415,165635,-2.1858434451,5.362315446599999,7.992027484,443
54664,171425,165604,-2.2671994135,5.4604211732,7.9393853868,444
54782,171433,165624,-2.4323041729,5.443671415,7.9369925642,445
54596,171414,165612,-2.2827527603999997,5.5082776252,8.017152121299999,446
54767,171444,165610,-2.3593230836,5.515456093,7.8795648218,447
54767,171435,165602,-2.2301106632,5.2965128251,8.0339018795,448
54806,171507,165645,-2.309073809,5.3551369788,7.8891361122,449
54774,171517,165650,-2.1714865095,5.3288159302,7.9489566772,450
54766,171461,165644,-2.3258235672,5.443671415,7.9417782094,451
54552,171460,165608,-2.4215364712,5.2737810104,7.9884382501,452
54521,171449,165642,-2.2336998971,5.4652068183999996,8.003991596999999,453
54350,171464,165638,-2.2157537276,5.4149575438,8.0542408716,454
54389,171418,165616,-2.2420747762,5.362315446599999,7.9752777258,455
54461,171447,165637,-2.2073788485,5.3611190353,8.0422767586,456
54421,171482,165620,-2.3605194949,5.3527441562,8.074579863699999,457
54465,171464,165657,-2.2157537276,5.5118668590999995,7.9178499834,458
54523,171465,165627,-2.3114666316,5.3503513336,8.01595571,459
54571,171489,165622,-2.237289131,5.3802616161,8.0087772422,460
54509,171448,165605,-2.4035903017,5.335994398,7.874779176600001,461
54571,171466,165582,-2.2289142519,5.4628139958,7.9465638546,462
54469,171433,165599,-2.2169501389,5.362315446599999,7.9369925642,463
54724,171448,165598,-2.1990039694,5.292923591199999,7.9011002251999995,464
54708,171409,165574,-2.3353948576,5.363511857900001,7.9226356286,465
54742,171406,165527,-2.27318147,5.444867826299999,7.953742322399999,466
54779,171392,165527,-2.2827527603999997,5.4089754873,7.9633136127999995,467
54751,171305,165510,-2.2313070745,5.3910293178,7.9884382501,468
54760,171267,165469,-2.321037922,5.3503513336,8.0315090569,469
54850,171286,165449,-2.2528424779,5.2953164138,8.01595571,470
54754,171247,165452,-2.2671994135,5.4161539550999995,8.0183485326,471
54471,171250,165455,-2.1858434451,5.312066172,7.9417782094,472
54558,171219,165442,-2.2145573163,5.3970113743,7.953742322399999,473
54490,171169,165383,-2.2815563491,5.3575298014,7.925028451199999,474
54317,171146,165369,-2.321037922,5.4520462941,7.953742322399999,475
54209,171128,165399,-2.2983061073,5.3706903257,7.980063371,476
54221,171099,165381,-2.3078773977,5.459224761900001,7.984849016199999,477
54267,171075,165355,-2.3066809864,5.419743189,8.0004023631,478
54151,171068,165351,-2.2420747762,5.395814963,7.9393853868,479
54278,171106,165321,-2.3341984463,5.4161539550999995,7.980063371,480
54402,171087,165346,-2.3389840915,5.309673349400001,7.9752777258,481
54334,171081,165353,-2.2025932033,5.312066172,7.927421273799999,482
54199,171104,165336,-2.1954147355,5.4664032297,7.9011002251999995,483
54319,171068,165326,-2.2600209457,5.3790652048,7.9872418388,484
54283,171069,165342,-2.1738793321000003,5.3192446398,8.062615750700001,485
54219,171054,165315,-2.2516460665999998,5.4185467777000005,8.0015987744,486
54155,171074,165325,-2.2803599377999997,5.3276195189,8.0123664761,487
54399,171097,165330,-2.1918255016,5.371886737,7.944171031999999,488
54362,171064,165317,-2.2671994135,5.4759745201,7.8687971201,489
54383,171087,165321,-2.2325034857999997,5.3012984703,7.9393853868,490
54339,171066,165330,-2.2743778813,5.4221360116,7.9238320399,491
54489,171085,165323,-2.2157537276,5.3970113743,8.003991596999999,492
54573,171114,165315,-2.2504496553,5.4400821811,8.074579863699999,493
54520,171150,165355,-2.297109696,5.3647082692,7.915457160799999,494
54401,171163,165353,-2.2336998971,5.3108697607,7.932206919,495
54392,171157,165361,-2.2360927197000002,5.3276195189,7.915457160799999,496
54111,171150,165365,-2.2145573163,5.3527441562,7.9968131291999995,497
54126,171130,165354,-2.1403798157,5.3336015753999995,8.0135628874,498
54138,171122,165364,-2.1834506225,5.499902746099999,7.9489566772,499
53961,171159,165371,-2.4011974791,5.4472606489,7.972884903200001,500
54082,171164,165384,-2.3330020350000003,5.4006006081999995,7.984849016199999,501
54076,171142,165393,-2.4011974791,5.3288159302,7.9178499834,502
54186,171183,165409,-2.2289142519,5.5022955687,8.0063844196,503
54077,171190,165400,-2.2815563491,5.4329037133,7.9944203065999995,504
54216,171186,165411,-2.2468604214,5.4352965359,7.9944203065999995,505
54077,171205,165421,-2.3521446158,5.2833523008,7.9226356286,506
54285,171177,165437,-2.2995025186,5.4101718986,8.0075808309,507
54151,171191,165396,-2.3425733254,5.4412785924,8.0231341778,508
54254,171187,165423,-2.2767707039,5.3874400839,8.0195449439,509
54261,171240,165413,-2.4023938904,5.4747781088,8.0554372829,510
54370,171197,165405,-2.3186450994000003,5.3742795596,8.0243305891,511
54446,171249,165413,-2.3928226,5.3982077855999995,7.9896346614,512
54497,171232,165446,-2.3617159062,5.3778687935,7.944171031999999,513
54570,171245,165429,-2.3246271559,5.4233324229,7.9824561936,514
54643,171212,165423,-2.2875384056,5.3431728658,8.0674013959,515
54543,171233,165418,-2.1978075581,5.3802616161,7.968099258,516
54635,171308,165455,-2.2396819536,5.4699924636,8.0937224445,517
54340,171299,165471,-2.2588245344,5.4364929472,8.074579863699999,518
54272,171265,165468,-2.1930219129,5.5058848026,7.9657064354,519
54172,171279,165461,-2.1068802992999998,5.3671010918,7.9932238953,520
54107,171261,165458,-2.2480568327,5.3814580274,7.953742322399999,521
54190,171253,165470,-2.4155544147,5.419743189,7.9393853868,522
54344,171279,165483,-2.2241286067,5.5166525043000005,8.005188008300001,523
54225,171281,165498,-2.2839491717,5.458028350599999,8.0123664761,524
54042,171289,165491,-2.1643080417,5.5525448433,8.0219377665,525
54260,171309,165503,-2.321037922,5.392225729100001,7.972884903200001,526
54527,171311,165522,-2.3078773977,5.3611190353,7.9130643382,527
54467,171341,165507,-2.2743778813,5.362315446599999,7.925028451199999,528
54194,171306,165538,-2.4059831243,5.471188874899999,7.9178499834,529
54302,171314,165525,-2.1798613886,5.5070812139,7.8711899427,530
54286,171325,165507,-2.3162522768000002,5.443671415,7.9178499834,531
54388,171331,165513,-2.3497517932000003,5.4065826647,7.9968131291999995,532
54604,171339,165518,-2.3138594542,5.4233324229,8.0339018795,533
54678,171344,165521,-2.1391834043999998,5.3455656884,8.003991596999999,534
54734,171345,165522,-2.3365912689,5.4364929472,7.972884903200001,535
54587,171309,165522,-2.3186450994000003,5.197210687199999,8.0458659925,536
54782,171343,165531,-2.3222343333,5.3910293178,7.953742322399999,537
54621,171316,165517,-2.2803599377999997,5.375475970899999,7.9657064354,538
54733,171344,165524,-2.309073809,5.362315446599999,7.9812597822999996,539
54612,171319,165524,-2.2013967919999997,5.335994398,7.9992059518000005,540
54518,171332,165563,-2.3760728418,5.4281180681,7.9740813145,541
54547,171341,165536,-2.2085752598,5.3252266963,7.9393853868,542
54537,171251,165489,-2.3665015514,5.405386253400001,8.0482588151,543
54494,171222,165512,-2.2468604214,5.2977092364,7.8927253461,544
54430,171186,165482,-2.3258235672,5.3778687935,8.0087772422,545
54320,171198,165451,-2.2779671152,5.3336015753999995,8.0805619202,546
54378,171153,165451,-2.1966111468,5.459224761900001,7.9633136127999995,547
54336,171156,165421,-2.2456640101,5.4209396003000005,7.9298140964,548
54469,171113,165405,-2.2325034857999997,5.417350366399999,7.9465638546,549
54224,171075,165407,-2.2169501389,5.4185467777000005,8.0697942185,550
54591,171068,165394,-2.2396819536,5.3814580274,7.9178499834,551
54275,171039,165354,-2.297109696,5.324030285,7.927421273799999,552
54589,171015,165375,-2.2947168733999996,5.4376893585,7.953742322399999,553
54499,171032,165346,-2.368894374,5.3048877041999996,7.8676007087999995,554
54519,170996,165339,-2.2301106632,5.3587262127,7.9752777258,555
54590,170983,165310,-2.3030917525,5.331208752799999,8.027919823,556
54747,170976,165347,-2.2899312282,5.2785666556,7.944171031999999,557
54672,170966,165319,-2.2061824372,5.3431728658,8.0817583315,558
54593,170925,165307,-2.2432711875,5.3874400839,8.0231341778,559
54589,170944,165316,-2.2683958248,5.3671010918,8.0961152671,560
54698,170955,165309,-2.4083759468999997,5.388636495199999,8.0099736535,561
54668,170997,165355,-2.2636101795999997,5.4364929472,7.9657064354,562
54701,170950,165316,-2.2444675988,5.5334022625,7.9465638546,563
54473,170912,165319,-2.1762721547,5.4125647212,7.944171031999999,564
54380,170913,165322,-2.2085752598,5.4029934308,7.932206919,565
54354,170901,165336,-2.2348963083999998,5.2534420183,8.0219377665,566
54299,170889,165311,-2.261217357,5.4341001246000005,7.956135144999999,567
54277,170903,165349,-2.2707886474,5.4006006081999995,8.0183485326,568
54274,170936,165383,-2.3593230836,5.4400821811,7.953742322399999,569
54337,170977,165357,-2.2552353005,5.4233324229,7.928617685100001,570
54282,170979,165360,-2.3820548983,5.5178489156,8.0482588151,571
54420,171006,165359,-2.2277178406,5.3874400839,7.9657064354,572
54490,170975,165367,-2.3712871966,5.376672382200001,7.9669028467,573
54298,171018,165382,-2.2420747762,5.4508498828,7.9752777258,574
54368,171031,165400,-2.4083759468999997,5.375475970899999,7.9585279676,575
54408,171011,165399,-2.1978075581,5.3814580274,8.0123664761,576
54475,171056,165396,-2.2528424779,5.371886737,7.9489566772,577
54605,171049,165394,-2.3593230836,5.455635527999999,7.9633136127999995,578
54471,171072,165450,-2.1332013479,5.4221360116,8.0339018795,579
54539,171088,165401,-2.3042881638,5.4496534715000005,8.0410803473,580
54667,171066,165423,-2.3353948576,5.446064237599999,7.953742322399999,581
54660,171085,165432,-2.2013967919999997,5.471188874899999,7.9752777258,582
54569,171124,165429,-2.2408783649,5.4364929472,8.005188008300001,583
54681,171089,165447,-2.2480568327,5.5238309721,7.920242806,584
54552,171142,165446,-2.309073809,5.443671415,7.911867926899999,585
54570,171139,165429,-2.261217357,5.38385085,7.9393853868,586
54533,171048,165456,-2.2432711875,5.3551369788,7.9489566772,587
54255,171081,165412,-2.261217357,5.3742795596,8.0327054682,588
54334,171055,165461,-2.2229321954,5.458028350599999,8.0135628874,589
54231,171093,165433,-2.1343977592,5.3575298014,7.9345997416,590
54050,171060,165433,-2.2289142519,5.3180482284999995,7.9417782094,591
54242,171114,165465,-2.2528424779,5.446064237599999,8.01595571,592
54177,171113,165479,-2.2875384056,5.4687960523,8.0183485326,593
54137,171149,165493,-2.1667008643,5.5214381495,8.0147592987,594
54224,171150,165481,-2.2301106632,5.4771709314,7.9178499834,595
54205,171139,165479,-2.2396819536,5.4759745201,7.9956167179,596
54490,171159,165465,-2.1690936869,5.4759745201,8.0135628874,597
54361,171150,165480,-2.3138594542,5.5860443597,7.9609207902,598
54072,171184,165510,-2.3066809864,5.4975099235,8.074579863699999,599
54310,171168,165480,-2.1738793321000003,5.4496534715000005,7.9369925642,600
54132,171210,165495,-2.3461625592999997,5.4412785924,8.044669581199999,601
54332,171188,165497,-2.2325034857999997,5.3910293178,7.9465638546,602
54403,171196,165505,-2.2468604214,5.4209396003000005,8.0231341778,603
54458,171186,165498,-2.2959132847,5.5441699642,8.0255270004,604
54683,171198,165487,-2.2743778813,5.3970113743,8.0015987744,605
54434,171218,165491,-2.3042881638,5.3575298014,7.9621172015,606
54533,171220,165536,-2.2660030021999997,5.4017970195,7.9585279676,607
54432,171241,165497,-2.368894374,5.331208752799999,8.017152121299999,608
54269,171163,165460,-2.2289142519,5.471188874899999,7.968099258,609
54145,171105,165468,-2.3306092124,5.3742795596,8.0183485326,610
53905,171135,165444,-2.1990039694,5.4352965359,8.0015987744,611
54066,171133,165446,-2.344966148,5.4388857698,7.9633136127999995,612
53912,171128,165460,-2.1619152191,5.4496534715000005,7.953742322399999,613
54145,171132,165455,-2.1858434451,5.395814963,7.9824561936,614
54289,171119,165453,-2.3808584870000002,5.4855458105,8.0422767586,615
54266,171118,165472,-2.2289142519,5.426921656799999,7.9298140964,616
54246,171130,165436,-2.3258235672,5.371886737,8.0901332106,617
54314,171138,165431,-2.1523439287,5.4951171009,7.8592258297,618
53942,171111,165415,-2.2013967919999997,5.4209396003000005,8.017152121299999,619
54258,171094,165419,-2.4191436486,5.4987063348,7.9298140964,620
54385,171082,165423,-2.1714865095,5.3694939144,7.874779176600001,621
54299,171028,165387,-2.2073788485,5.3647082692,7.9968131291999995,622
54240,171051,165392,-2.2576281231,5.4376893585,7.9369925642,623
54085,170990,165362,-2.2301106632,5.3934221404,7.986045427500001,624
54266,171001,165333,-2.3712871966,5.335994398,7.970492080600001,625
54228,170963,165366,-2.1738793321000003,5.5070812139,7.9369925642,626
54340,170918,165335,-2.2827527603999997,5.528616617299999,8.003991596999999,627
54384,170899,165321,-2.27318147,5.3910293178,8.01595571,628
54271,170941,165304,-2.2025932033,5.3024948815999995,7.9968131291999995,629
54220,170894,165333,-2.3425733254,5.346762099699999,7.957331556300001,630
54202,170823,165293,-2.1008982428,5.4604211732,8.0339018795,631
53968,170791,165265,-2.177468566,5.4759745201,7.9836526049,632
54029,170762,165264,-2.1726829208,5.3336015753999995,7.8939217574,633
53914,170774,165258,-2.3593230836,5.3455656884,8.0434731699,634
54017,170753,165287,-2.1882362677000002,5.3934221404,7.9776705484,635
53972,170789,165301,-2.2217357841,5.3551369788,7.970492080600001,636
54052,170790,165294,-2.3641087288000002,5.458028350599999,7.9752777258,637
53937,170807,165306,-2.356930261,5.2666025426,7.9298140964,638
53989,170828,165326,-2.3593230836,5.4101718986,7.9776705484,639
53871,170815,165321,-2.3006989299,5.395814963,8.0327054682,640
53876,170831,165290,-2.2420747762,5.513063270399999,7.986045427500001,641
53923,170842,165332,-2.297109696,5.3288159302,7.9776705484,642
53713,170832,165331,-2.3258235672,5.4388857698,7.9740813145,643
54067,170877,165321,-2.2564317118,5.3934221404,8.074579863699999,644
54019,170870,165354,-2.237289131,5.455635527999999,8.003991596999999,645
54170,170910,165353,-2.344966148,5.3802616161,7.956135144999999,646
54448,170911,165324,-2.2241286067,5.388636495199999,7.972884903200001,647
54368,170944,165365,-2.2588245344,5.2845487121,7.8089765551,648
54292,170938,165391,-2.1068802992999998,5.3252266963,7.8640114749,649
54285,170955,165385,-2.3916261887,5.4352965359,8.0410803473,650
54403,171000,165375,-2.3222343333,5.3934221404,7.944171031999999,651
54316,171034,165417,-2.3114666316,5.3503513336,8.026723411699999,652
54280,170961,165428,-2.2121644937,5.4341001246000005,8.017152121299999,653
54104,170906,165394,-2.2516460665999998,5.417350366399999,7.953742322399999,654
53949,170907,165408,-2.1164515897,5.3970113743,8.003991596999999,655
53952,170920,165413,-2.3940190112999997,5.4412785924,7.9334033303,656
53794,170944,165411,-2.1308085253,5.3814580274,7.9812597822999996,657
53968,170948,165430,-2.1571295739000003,5.3192446398,7.9836526049,658
53959,170944,165443,-2.2959132847,5.4616175845,8.0243305891,659
54062,170994,165443,-2.3605194949,5.3814580274,7.927421273799999,660
54074,170975,165500,-2.4035903017,5.426921656799999,8.0004023631,661
54100,170982,165513,-2.2552353005,5.4065826647,7.968099258,662
54167,170986,165473,-2.2827527603999997,5.239085082699999,8.026723411699999,663
54143,171012,165492,-2.2073788485,5.276173833,7.956135144999999,664
54178,171030,165498,-2.2552353005,5.4089754873,8.0015987744,665
54155,171032,165512,-2.3665015514,5.3144589946,7.969295669299999,666
54207,171063,165509,-2.3353948576,5.375475970899999,7.953742322399999,667
54325,171088,165544,-2.2719850587,5.3527441562,7.8927253461,668
54356,171078,165544,-2.309073809,5.3934221404,7.9872418388,669
54377,171137,165574,-2.2348963083999998,5.3682975031,7.9513494998,670
54530,171112,165566,-2.3270199785,5.4628139958,8.0315090569,671
54395,171039,165534,-2.3988046565,5.371886737,7.932206919,672
54517,171162,165552,-2.2899312282,5.4927242783,8.0135628874,673
54558,171160,165579,-2.1870398563999998,5.3575298014,7.9549387337,674
54566,171159,165587,-2.3844477209,5.3383872206000005,7.8281191359,675
54515,171135,165562,-2.3521446158,5.4927242783,7.8496545393,676
54396,171071,165547,-2.3736800192,5.4329037133,7.9489566772,677
54461,171106,165513,-2.3377876802,5.3024948815999995,7.972884903200001,678
54267,171055,165547,-2.2743778813,5.430510890700001,7.9166535721,679
54285,171066,165524,-2.1978075581,5.4089754873,8.0482588151,680
54206,171066,165565,-2.3593230836,5.4400821811,7.932206919,681
54475,171125,165550,-2.297109696,5.4640104071,8.003991596999999,682
54378,171099,165609,-2.3306092124,5.4101718986,7.927421273799999,683
54366,171099,165565,-2.3748764305,5.4400821811,7.925028451199999,684
54586,171117,165555,-2.2181465501999997,5.3503513336,8.0015987744,685
54511,171121,165563,-2.2995025186,5.2989056477,7.8520473619,686
54562,171078,165586,-2.2755742926,5.359922623999999,8.0087772422,687
54600,171087,165550,-2.3497517932000003,5.3144589946,8.0004023631,688
54641,171098,165561,-2.2360927197000002,5.426921656799999,7.9657064354,689
54463,171063,165545,-2.1499511061,5.3982077855999995,8.0231341778,690
54599,171099,165599,-2.3844477209,5.5262237947,7.9645100241,691
54586,171107,165560,-2.3330020350000003,5.3910293178,7.9178499834,692
54768,171038,165524,-2.3234307446,5.4520462941,8.0243305891,693
54657,171041,165517,-2.2085752598,5.471188874899999,7.9094751043,694
54738,171037,165499,-2.3425733254,5.442475003699999,7.927421273799999,695
54672,171018,165519,-2.0865413072,5.2953164138,7.8185478454999995,696
54656,171024,165496,-2.2779671152,5.426921656799999,7.968099258,697
54655,170903,165437,-2.3665015514,5.2223353244999995,7.984849016199999,698
54422,170822,165443,-2.344966148,5.3742795596,7.9585279676,699
54510,170820,165400,-2.2229321954,5.3970113743,7.992027484,700
54395,170751,165424,-2.1690936869,5.4185467777000005,8.0434731699,701
54456,170746,165390,-2.3521446158,5.321637462399999,7.9944203065999995,702
54617,170778,165369,-2.2313070745,5.4412785924,7.8939217574,703
54547,170751,165381,-2.3282163898,5.347958511000001,7.980063371,704
54463,170669,165392,-2.3018953412000003,5.3587262127,7.9298140964,705
54453,170772,165389,-2.2492532439999997,5.3575298014,7.8891361122,706
54457,170760,165407,-2.2217357841,5.3407800432,7.940581798099999,707
54716,170775,165414,-2.2193429615,5.3527441562,7.9968131291999995,708
54730,170728,165406,-2.3545374384,5.346762099699999,7.9824561936,709
54592,170727,165397,-2.2037896146,5.3694939144,8.0099736535,710
54550,170764,165393,-2.3461625592999997,5.3790652048,8.0004023631,711
54584,170771,165415,-2.2336998971,5.4364929472,7.9752777258,712
54596,170756,165421,-2.2432711875,5.388636495199999,7.9657064354,713
54664,170784,165430,-2.344966148,5.4065826647,8.0458659925,714
54668,170830,165449,-2.2025932033,5.324030285,8.0291162343,715
54827,170819,165446,-2.189432679,5.5094740364999994,7.9609207902,716
54906,170908,165428,-2.3700907853,5.4807601652999995,8.0183485326,717
54916,170842,165459,-2.1966111468,5.3659046805,7.9609207902,718
54792,170879,165457,-2.2037896146,5.3982077855999995,7.932206919,719
54651,170872,165452,-2.2301106632,5.6434721021,7.9621172015,720
54528,170802,165411,-2.2121644937,5.3288159302,7.9178499834,721
54386,170778,165441,-2.2289142519,5.359922623999999,7.874779176600001,722
54329,170781,165441,-2.2552353005,5.4125647212,7.9393853868,723
54283,170801,165436,-2.3018953412000003,5.347958511000001,7.8783684105,724
54245,170792,165464,-2.1427726383,5.4029934308,7.9956167179,725
54194,170795,165458,-2.3234307446,5.331208752799999,7.9369925642,726
54485,170799,165456,-2.2839491717,5.417350366399999,7.9633136127999995,727
54372,170833,165481,-2.3282163898,5.4508498828,8.0135628874,728
54619,170874,165472,-2.2396819536,5.4185467777000005,8.003991596999999,729
54395,170850,165481,-2.2049860259000003,5.4544391167,7.9393853868,730
54398,170871,165499,-2.2923240508,5.5226345608,8.026723411699999,731
54370,170783,165521,-2.2456640101,5.3527441562,8.0027951857,732
54329,170876,165501,-2.3222343333,5.3994041969,7.956135144999999,733
54399,170925,165546,-2.3413769141,5.3790652048,7.9393853868,734
54477,170961,165523,-2.2564317118,5.4628139958,8.0434731699,735
54534,170946,165541,-2.3545374384,5.444867826299999,8.0195449439,736
54506,170941,165546,-2.2528424779,5.5070812139,7.9106715156,737
54670,170950,165552,-2.3401805028,5.417350366399999,8.0111700648,738
54449,170951,165560,-2.1954147355,5.4089754873,7.8532437732,739
54640,170981,165553,-2.1379869930999997,5.347958511000001,7.9944203065999995,740
54667,171025,165565,-2.213360905,5.388636495199999,8.0422767586,741
54549,171003,165594,-2.2396819536,5.472385286200001,7.9824561936,742
54332,170946,165539,-2.3174486881,5.4364929472,7.9369925642,743
54135,170906,165489,-2.3018953412000003,5.331208752799999,8.044669581199999,744
54298,170963,165515,-2.356930261,5.479563754,7.9992059518000005,745
54095,170917,165542,-2.3282163898,5.4472606489,7.9872418388,746
54008,170896,165546,-2.2408783649,5.407779076,7.969295669299999,747
54081,170925,165505,-2.4227328825,5.515456093,7.896314579999999,748
54250,170931,165556,-2.2779671152,5.3934221404,8.0243305891,749
54205,170951,165565,-2.3341984463,5.4221360116,8.0315090569,750
54063,170964,165584,-2.297109696,5.513063270399999,8.0434731699,751
53961,170974,165565,-2.2995025186,5.3144589946,7.9645100241,752
54127,170965,165581,-2.2145573163,5.4006006081999995,7.9130643382,753
54207,170931,165561,-2.1475582835,5.4484570602,8.0075808309,754
54133,170982,165590,-2.3617159062,5.3336015753999995,8.0207413552,755
54083,171020,165595,-2.2995025186,5.3300123415,8.0207413552,756
54161,171044,165600,-2.356930261,5.388636495199999,7.9944203065999995,757
54192,171043,165620,-2.2660030021999997,5.3946185517,7.9489566772,758
54313,171031,165616,-2.2037896146,5.4341001246000005,7.9968131291999995,759
54240,171060,165596,-2.3557338497,5.2965128251,7.9669028467,760
54258,171041,165614,-2.3258235672,5.4735816975,7.9106715156,761
54326,171046,165609,-2.3748764305,5.419743189,7.956135144999999,762
54310,171086,165645,-2.2408783649,5.3264231076,8.0195449439,763
54233,171106,165600,-2.2636101795999997,5.3503513336,7.980063371,764
54204,171044,165566,-2.3617159062,5.4006006081999995,8.0339018795,765
54111,170912,165547,-2.285145583,5.5118668590999995,7.986045427500001,766
53853,170931,165533,-2.2899312282,5.442475003699999,8.0123664761,767
53885,170929,165555,-2.2707886474,5.2917271799,7.9752777258,768
54067,170932,165510,-2.2839491717,5.4233324229,7.9465638546,769
54078,170967,165543,-2.3593230836,5.3551369788,8.0458659925,770
53972,170936,165556,-2.4370898181,5.417350366399999,7.9944203065999995,771
54044,170949,165559,-2.1427726383,5.3694939144,7.9393853868,772
53911,170956,165554,-2.1882362677000002,5.3850472612999996,7.9824561936,773
54185,170930,165556,-2.344966148,5.395814963,7.968099258,774
54201,170919,165558,-2.285145583,5.344369277099999,7.9489566772,775
54008,170806,165575,-2.3162522768000002,5.4029934308,7.9465638546,776
54091,170899,165560,-2.285145583,5.3324051641,7.9609207902,777
54162,170900,165506,-2.3066809864,5.484349399199999,8.0291162343,778
54280,170855,165531,-2.2767707039,5.417350366399999,8.0506516377,779
54174,170872,165526,-2.3138594542,5.346762099699999,8.0291162343,780
53956,170812,165478,-2.297109696,5.3503513336,8.0662049846,781
54228,170822,165495,-2.4215364712,5.376672382200001,7.8640114749,782
54376,170796,165483,-2.2803599377999997,5.3383872206000005,7.968099258,783
54381,170806,165499,-2.2803599377999997,5.4293144793999994,7.9752777258,784
54375,170781,165428,-2.3760728418,5.4604211732,7.972884903200001,785
54054,170683,165439,-2.2791635265,5.4472606489,8.084151154099999,786
53838,170597,165383,-2.3413769141,5.4089754873,7.986045427500001,787
53938,170579,165373,-2.297109696,5.344369277099999,7.9178499834,788
54022,170558,165367,-2.309073809,5.417350366399999,8.102097323599999,789
53999,170571,165379,-2.3114666316,5.4006006081999995,7.9764741371,790
53903,170587,165365,-2.1762721547,5.4699924636,7.9609207902,791
53776,170613,165385,-2.2492532439999997,5.38385085,7.980063371,792
53958,170619,165409,-2.2923240508,5.5298130286000005,7.886743289599999,793
53848,170626,165415,-2.2444675988,5.407779076,7.9585279676,794
53905,170642,165400,-2.3018953412000003,5.458028350599999,8.0087772422,795
53865,170640,165452,-2.2600209457,5.306084115499999,7.932206919,796
54060,170652,165449,-2.3114666316,5.5190453269,7.9788669596999995,797
53786,170642,165436,-2.0961125976,5.4388857698,8.0243305891,798
54031,170663,165472,-2.2301106632,5.312066172,7.944171031999999,799
54058,170695,165462,-2.3401805028,5.4616175845,8.0147592987,800
54056,170721,165473,-2.3880369548,5.442475003699999,7.915457160799999,801
54166,170728,165464,-2.3653051401,5.4508498828,7.970492080600001,802
53987,170721,165519,-2.2516460665999998,5.359922623999999,7.9932238953,803
54165,170729,165484,-2.1954147355,5.4329037133,8.044669581199999,804
54325,170769,165503,-2.2887348169,5.4652068183999996,7.9657064354,805
54314,170777,165510,-2.3593230836,5.4771709314,7.915457160799999,806
54043,170720,165485,-2.1224336462,5.405386253400001,7.9238320399,807
53853,170658,165486,-2.2875384056,5.4783673427,8.0004023631,808
53792,170679,165481,-2.2420747762,5.4604211732,7.9633136127999995,809
53760,170700,165475,-2.3246271559,5.443671415,7.953742322399999,810
53810,170643,165459,-2.2899312282,5.484349399199999,7.9896346614,811
53828,170672,165497,-2.2911276395,5.3934221404,8.0111700648,812
53859,170724,165516,-2.285145583,5.4544391167,7.927421273799999,813
53854,170732,165545,-2.2552353005,5.309673349400001,7.9621172015,814
54091,170742,165563,-2.4107687694999997,5.300102059,7.9393853868,815
54035,170766,165527,-2.3042881638,5.321637462399999,7.928617685100001,816
54080,170789,165565,-2.1667008643,5.3048877041999996,7.932206919,817
53969,170782,165589,-2.2265214293,5.312066172,7.972884903200001,818
53987,170783,165591,-2.2683958248,5.4412785924,7.9812597822999996,819
54214,170815,165594,-2.1978075581,5.3192446398,7.970492080600001,820
54109,170817,165607,-2.2325034857999997,5.376672382200001,7.9298140964,821
54138,170855,165614,-2.2229321954,5.4221360116,7.9872418388,822
54332,170864,165626,-2.2181465501999997,5.405386253400001,7.9393853868,823
54310,170900,165644,-2.2624137683,5.405386253400001,7.9968131291999995,824
54342,170875,165612,-2.3377876802,5.444867826299999,7.944171031999999,825
54262,170918,165637,-2.3437697367,5.5070812139,7.9944203065999995,826
54354,170956,165631,-2.2360927197000002,5.5094740364999994,7.944171031999999,827
54400,170975,165677,-2.3521446158,5.2989056477,8.0063844196,828
54405,170914,165604,-2.2516460665999998,5.4101718986,7.9824561936,829
54285,170848,165605,-2.4227328825,5.3503513336,7.927421273799999,830
54073,170825,165593,-2.1882362677000002,5.389832906500001,7.9645100241,831
54159,170840,165604,-2.3066809864,5.407779076,7.9298140964,832
54071,170817,165602,-2.3330020350000003,5.4400821811,7.9011002251999995,833
54017,170814,165621,-2.2983061073,5.444867826299999,8.0315090569,834
54150,170833,165659,-2.3437697367,5.4819565766,7.9657064354,835
54080,170866,165643,-2.3042881638,5.3276195189,7.8819576444,836
54165,170871,165622,-2.2576281231,5.223531735800001,7.920242806,837
54238,170883,165637,-2.3066809864,5.4400821811,7.9657064354,838
54241,170923,165660,-2.2480568327,5.3671010918,7.925028451199999,839
54325,170892,165671,-2.2588245344,5.4017970195,8.0027951857,840
54175,170898,165673,-2.3006989299,5.324030285,7.9669028467,841
54317,170944,165690,-2.3102702203,5.4544391167,7.9740813145,842
54416,170973,165663,-2.3353948576,5.376672382200001,7.9513494998,843
54448,170964,165666,-2.2959132847,5.3706903257,7.9489566772,844
54579,170952,165667,-2.3605194949,5.346762099699999,7.890332523500001,845
54623,170972,165663,-2.2995025186,5.4687960523,8.003991596999999,846
54630,170950,165671,-2.3724836079,5.499902746099999,8.0207413552,847
54456,170980,165678,-2.3030917525,5.3814580274,7.9417782094,848
54421,170977,165683,-2.3425733254,5.3144589946,7.8987074025999995,849
54468,170976,165669,-2.2911276395,5.371886737,7.9944203065999995,850
54414,170913,165654,-2.1726829208,5.3814580274,7.9106715156,851
54391,170823,165612,-2.2839491717,5.5214381495,7.932206919,852
54399,170872,165612,-2.3401805028,5.459224761900001,8.0697942185,853
54096,170788,165606,-2.3653051401,5.4364929472,7.9489566772,854
54211,170803,165590,-2.3234307446,5.3527441562,7.9968131291999995,855
54312,170828,165605,-2.2384855423,5.3790652048,7.9298140964,856
54317,170812,165582,-2.2815563491,5.3252266963,7.9345997416,857
54124,170811,165611,-2.2755742926,5.2857451234,7.986045427500001,858
54318,170836,165620,-2.2863419943,5.4975099235,7.9932238953,859
54326,170810,165602,-2.2049860259000003,5.279763066899999,7.969295669299999,860
54302,170762,165599,-2.1906290903,5.3288159302,8.0650085733,861
54386,170774,165581,-2.3653051401,5.2450671392,7.9369925642,862
54536,170757,165554,-2.3545374384,5.446064237599999,8.005188008300001,863
54634,170731,165550,-2.2217357841,5.4257252455,7.9609207902,864
54626,170701,165527,-2.2660030021999997,5.38385085,8.0650085733,865
54564,170712,165540,-2.3306092124,5.38385085,8.0327054682,866
54468,170680,165543,-2.2624137683,5.3587262127,7.9824561936,867
54472,170692,165504,-2.2037896146,5.459224761900001,7.9944203065999995,868
54572,170658,165523,-2.285145583,5.4520462941,8.0135628874,869
54565,170700,165492,-2.3497517932000003,5.4388857698,7.9633136127999995,870
54380,170650,165541,-2.3401805028,5.404189842099999,7.992027484,871
54533,170583,165438,-2.2648065909,5.3395836319,7.9752777258,872
54411,170515,165442,-2.2313070745,5.431707302,7.9585279676,873
54331,170504,165432,-2.3437697367,5.4006006081999995,7.9345997416,874
54165,170486,165409,-2.1918255016,5.4221360116,7.9142607494999995,875
54080,170478,165435,-2.2755742926,5.2570312522,7.9932238953,876
53988,170512,165441,-2.297109696,5.443671415,8.0195449439,877
54045,170523,165491,-2.2636101795999997,5.4687960523,7.9142607494999995,878
53918,170576,165443,-2.1379869930999997,5.3862436726,7.9645100241,879
54130,170558,165474,-2.368894374,5.4101718986,7.956135144999999,880
54239,170579,165480,-2.2648065909,5.2989056477,7.9011002251999995,881
54126,170543,165471,-2.2516460665999998,5.442475003699999,7.9226356286,882
54178,170569,165473,-2.2336998971,5.324030285,7.9956167179,883
54079,170584,165470,-2.1523439287,5.4341001246000005,7.9417782094,884
54062,170594,165491,-2.2779671152,5.3790652048,7.884350467,885
54397,170649,165493,-2.309073809,5.4125647212,7.927421273799999,886
54358,170657,165511,-2.2408783649,5.3371908093,7.9657064354,887
54194,170676,165539,-2.2683958248,5.38385085,8.0506516377,888
54220,170679,165545,-2.2301106632,5.4616175845,7.9956167179,889
54178,170683,165549,-2.2995025186,5.3982077855999995,7.956135144999999,890
54366,170720,165572,-2.1475582835,5.3934221404,7.9776705484,891
54365,170755,165574,-2.2660030021999997,5.4221360116,7.925028451199999,892
54252,170694,165572,-2.1738793321000003,5.417350366399999,8.0027951857,893
53915,170682,165549,-2.4107687694999997,5.404189842099999,8.0135628874,894
53712,170617,165501,-2.3437697367,5.458028350599999,8.0231341778,895
53856,170615,165505,-2.2109680824,5.4101718986,7.9513494998,896
53896,170600,165512,-2.2301106632,5.3694939144,7.9836526049,897
53699,170631,165512,-2.2564317118,5.4819565766,7.9130643382,898
53751,170652,165540,-2.1786649773,5.4113683099,7.9369925642,899
53560,170691,165545,-2.2480568327,5.4293144793999994,7.927421273799999,900
53795,170686,165540,-2.3389840915,5.487938633100001,7.9489566772,901
53843,170730,165571,-2.2899312282,5.3431728658,8.0063844196,902
54002,170726,165571,-2.2707886474,5.4532427054,7.9645100241,903
53797,170699,165561,-2.2181465501999997,5.3910293178,7.9932238953,904
54151,170744,165597,-2.2085752598,5.3790652048,8.0506516377,905
54022,170765,165582,-2.285145583,5.4400821811,7.968099258,906
53886,170776,165600,-2.285145583,5.4245288342,7.956135144999999,907
53948,170784,165588,-2.2002003807,5.3934221404,8.0386875247,908
53978,170842,165601,-2.1738793321000003,5.4293144793999994,7.9226356286,909
54018,170835,165625,-2.4023938904,5.2546384296,7.9824561936,910
54133,170868,165575,-2.2528424779,5.371886737,7.9166535721,911
54293,170863,165637,-2.4789642136,5.3647082692,7.9369925642,912
54329,170892,165651,-2.2683958248,5.2917271799,7.953742322399999,913
54320,170942,165662,-2.3964118339,5.4484570602,7.9226356286,914
54244,170958,165643,-2.2995025186,5.3072805268000005,7.9609207902,915
54199,170888,165634,-2.1930219129,5.4006006081999995,7.9716884919,916
53957,170797,165572,-2.3497517932000003,5.570491012800001,7.9716884919,917
53893,170776,165571,-2.3102702203,5.4412785924,7.953742322399999,918
53844,170805,165564,-2.3401805028,5.417350366399999,7.972884903200001,919
53919,170807,165590,-2.2660030021999997,5.4376893585,7.9465638546,920
53866,170787,165578,-2.2995025186,5.426921656799999,7.984849016199999,921
53977,170816,165617,-2.3102702203,5.392225729100001,7.8915289348,922
53986,170820,165614,-2.2671994135,5.446064237599999,7.9836526049,923
53995,170825,165621,-2.3114666316,5.335994398,7.969295669299999,924
53905,170840,165619,-2.3557338497,5.392225729100001,7.9884382501,925
54265,170897,165596,-2.2588245344,5.376672382200001,7.9106715156,926
54095,170850,165608,-2.285145583,5.2498527844,7.8819576444,927
54238,170879,165596,-2.2348963083999998,5.388636495199999,7.915457160799999,928
54261,170860,165580,-2.2037896146,5.3228338737000005,7.9465638546,929
54249,170871,165614,-2.3282163898,5.5118668590999995,7.953742322399999,930
54060,170895,165597,-2.3138594542,5.404189842099999,7.9369925642,931
54290,170895,165620,-2.309073809,5.359922623999999,7.9585279676,932
54071,170885,165619,-2.2289142519,5.4245288342,7.9465638546,933
54256,170876,165572,-2.237289131,5.3742795596,7.9657064354,934
54280,170910,165605,-2.2827527603999997,5.471188874899999,8.0458659925,935
54354,170979,165608,-2.3485553819,5.4855458105,7.956135144999999,936
54375,170829,165563,-2.225325018,5.4532427054,7.9393853868,937
54162,170776,165544,-2.2695922361,5.4616175845,7.9932238953,938
54146,170704,165491,-2.2995025186,5.3108697607,8.0458659925,939
54246,170702,165514,-2.4035903017,5.371886737,7.9992059518000005,940
54297,170689,165478,-2.1595223965,5.3814580274,8.0195449439,941
54159,170667,165467,-2.2360927197000002,5.4161539550999995,7.968099258,942
53695,170656,165451,-2.3880369548,5.335994398,7.980063371,943
54089,170668,165449,-2.3665015514,5.404189842099999,8.0362947021,944
54082,170662,165429,-2.2827527603999997,5.277370244299999,7.9597243789,945
54118,170647,165448,-2.4083759468999997,5.467599641,7.968099258,946
54130,170645,165456,-2.2073788485,5.405386253400001,7.9609207902,947
54222,170607,165466,-2.2755742926,5.4687960523,8.0147592987,948
54120,170636,165440,-2.2480568327,5.3503513336,8.0482588151,949
54284,170650,165483,-2.2636101795999997,5.405386253400001,7.953742322399999,950
54093,170655,165481,-2.3509482045,5.5178489156,7.9896346614,951
54325,170684,165483,-2.2995025186,5.444867826299999,8.0315090569,952
54316,170719,165504,-2.1511475174,5.3563333901,7.9585279676,953
54424,170709,165473,-2.3736800192,5.4221360116,7.9549387337,954
54599,170716,165488,-2.2995025186,5.3814580274,7.896314579999999,955
54385,170757,165513,-2.2408783649,5.4616175845,7.9824561936,956
54457,170797,165531,-2.3605194949,5.4472606489,7.9513494998,957
54538,170804,165512,-2.3509482045,5.4616175845,8.0255270004,958
54260,170747,165496,-2.2600209457,5.479563754,7.956135144999999,959
54244,170732,165520,-2.261217357,5.3647082692,7.9716884919,960
54188,170779,165513,-2.2683958248,5.300102059,7.9776705484,961
54304,170742,165525,-2.1954147355,5.4221360116,8.027919823,962
54259,170764,165519,-2.2671994135,5.4388857698,8.0327054682,963
54394,170773,165570,-2.2265214293,5.3276195189,7.9393853868,964
54341,170792,165551,-2.2995025186,5.405386253400001,7.9465638546,965
54337,170846,165551,-2.285145583,5.3671010918,7.8915289348,966
54375,170841,165562,-2.3006989299,5.3778687935,7.8819576444,967
54509,170824,165574,-2.344966148,5.4149575438,7.9657064354,968
54400,170872,165575,-2.4358934068,5.4520462941,7.8939217574,969
54390,170885,165570,-2.297109696,5.334797986699999,8.0087772422,970
54410,170881,165584,-2.1954147355,5.3994041969,8.0111700648,971
54545,170904,165586,-2.2588245344,5.371886737,8.0362947021,972
54655,170935,165648,-2.3138594542,5.3288159302,7.9968131291999995,973
54401,170942,165609,-2.3330020350000003,5.3862436726,7.9513494998,974
54538,170936,165660,-2.4311077616,5.359922623999999,7.915457160799999,975
54560,170989,165622,-2.3126630429,5.3850472612999996,8.0195449439,976
54745,170986,165630,-2.2779671152,5.4125647212,8.0075808309,977
54767,171016,165645,-2.2743778813,5.388636495199999,7.9633136127999995,978
54770,171042,165698,-2.1906290903,5.471188874899999,8.017152121299999,979
54500,170998,165657,-2.1870398563999998,5.3910293178,8.0063844196,980
54590,170997,165628,-2.2576281231,5.404189842099999,7.9298140964,981
54405,170944,165626,-2.344966148,5.4903314557,7.984849016199999,982
54422,170986,165636,-2.3306092124,5.5214381495,8.0339018795,983
54256,170954,165652,-2.3234307446,5.359922623999999,7.9944203065999995,984
54426,170995,165629,-2.1714865095,5.4209396003000005,7.8795648218,985
54535,170964,165656,-2.2013967919999997,5.4233324229,7.9992059518000005,986
54528,171014,165641,-2.2767707039,5.4341001246000005,7.980063371,987
54337,171016,165665,-2.3485553819,5.294120002500001,7.986045427500001,988
54307,171014,165693,-2.3246271559,5.467599641,8.017152121299999,989
54513,171037,165683,-2.2899312282,5.4245288342,7.8795648218,990
54556,171068,165677,-2.2241286067,5.4819565766,7.911867926899999,991
54456,171085,165691,-2.177468566,5.4664032297,7.9417782094,992
54519,171078,165711,-2.225325018,5.4388857698,8.0422767586,993
54601,171078,165692,-2.3665015514,5.3946185517,7.927421273799999,994
54515,171120,165727,-2.3521446158,5.3168518172,7.9633136127999995,995
54820,171121,165707,-2.2313070745,5.347958511000001,8.0530444603,996
54626,171126,165717,-2.2097716711,5.4496534715000005,7.927421273799999,997
54614,171172,165732,-2.3258235672,5.4616175845,8.0303126456,998
54726,171138,165713,-2.1678972756,5.4699924636,7.9836526049,999
54631,171155,165740,-2.2779671152,5.419743189,7.8891361122,1000
54772,171198,165726,-2.3629123174999997,5.324030285,8.005188008300001,1001
54764,171210,165764,-2.2468604214,5.487938633100001,7.9657064354,1002
54607,171163,165722,-2.1738793321000003,5.4364929472,7.970492080600001,1003
54671,171085,165679,-2.3174486881,5.583651537100001,7.9345997416,1004
54523,171094,165652,-2.3497517932000003,5.4819565766,8.0147592987,1005
54642,171107,165687,-2.2743778813,5.3970113743,8.0362947021,1006
54323,171064,165693,-2.297109696,5.3970113743,7.9513494998,1007
54415,171060,165657,-2.2301106632,5.3515477449,7.9872418388,1008
54666,171084,165640,-2.2516460665999998,5.395814963,7.8891361122,1009
54536,171077,165692,-2.2360927197000002,5.2127640341,7.925028451199999,1010
54446,171088,165679,-2.1978075581,5.248656373099999,7.956135144999999,1011
54646,171094,165700,-2.3485553819,5.321637462399999,7.998009540499999,1012
54591,171102,165677,-2.2313070745,5.426921656799999,8.0530444603,1013
54487,171068,165658,-2.285145583,5.4029934308,7.9968131291999995,1014
54741,171097,165643,-2.2911276395,5.4364929472,7.8676007087999995,1015
54382,171050,165614,-2.2456640101,5.3144589946,8.0015987744,1016
54620,171067,165601,-2.2444675988,5.4185467777000005,7.9298140964,1017
54508,171008,165637,-2.3964118339,5.3994041969,7.9345997416,1018
54668,171064,165625,-2.3294128011,5.3694939144,7.8831540556999995,1019
54726,170976,165557,-2.2025932033,5.4472606489,7.980063371,1020
54617,170978,165573,-2.3150558654999998,5.3814580274,7.927421273799999,1021
54449,170936,165540,-2.2540388892,5.4125647212,8.0470624038,1022
54626,170952,165544,-2.2157537276,5.4400821811,7.9226356286,1023
54590,170902,165523,-2.213360905,5.3934221404,7.9764741371,1024
54444,170811,165474,-2.1595223965,5.4640104071,7.9657064354,1025
54350,170766,165480,-2.2636101795999997,5.442475003699999,8.0207413552,1026
54245,170718,165431,-2.3964118339,5.471188874899999,7.944171031999999,1027
54140,170711,165454,-2.3665015514,5.3144589946,8.0458659925,1028
54218,170706,165427,-2.1678972756,5.407779076,7.9585279676,1029
54316,170698,165441,-2.2193429615,5.3192446398,7.9956167179,1030
54230,170749,165440,-2.356930261,5.5429735529,7.9369925642,1031
54166,170735,165426,-2.2959132847,5.417350366399999,7.9489566772,1032
53896,170741,165451,-2.2947168733999996,5.4364929472,7.920242806,1033
54248,170752,165436,-2.3006989299,5.3694939144,7.9226356286,1034
54373,170733,165447,-2.2695922361,5.407779076,7.980063371,1035
54369,170747,165447,-2.1906290903,5.3072805268000005,7.9764741371,1036
53956,170761,165434,-2.3521446158,5.5082776252,7.9609207902,1037
54168,170758,165481,-2.2073788485,5.324030285,8.0410803473,1038
54332,170808,165476,-2.3114666316,5.4735816975,7.9657064354,1039
54219,170827,165504,-2.3928226,5.3527441562,7.972884903200001,1040
54301,170840,165507,-2.1511475174,5.3934221404,8.005188008300001,1041
54375,170838,165503,-2.2815563491,5.4771709314,7.9992059518000005,1042
54348,170850,165516,-2.1822542112,5.499902746099999,7.9896346614,1043
54549,170909,165504,-2.3425733254,5.499902746099999,7.986045427500001,1044
54546,170898,165527,-2.368894374,5.4149575438,7.920242806,1045
54448,170876,165539,-2.3102702203,5.3982077855999995,7.9489566772,1046
54042,170848,165480,-2.1391834043999998,5.4329037133,7.9956167179,1047
53983,170798,165462,-2.3820548983,5.4951171009,7.9489566772,1048
53887,170802,165463,-2.1595223965,5.3790652048,7.9932238953,1049
54000,170847,165483,-2.3940190112999997,5.5094740364999994,7.9944203065999995,1050
54086,170800,165523,-2.1738793321000003,5.3587262127,7.8891361122,1051
53990,170847,165478,-2.1702900981999997,5.389832906500001,8.003991596999999,1052
54064,170836,165501,-2.2983061073,5.3084769381,7.9058858704,1053
54055,170837,165534,-2.1355941704999997,5.5369914964,8.0231341778,1054
54083,170872,165495,-2.2241286067,5.4520462941,7.9190463947000005,1055
54258,170843,165524,-2.3784656644,5.4807601652999995,7.9465638546,1056
54139,170855,165522,-2.344966148,5.4293144793999994,7.9788669596999995,1057
53955,170864,165520,-2.3521446158,5.4029934308,8.0386875247,1058
54076,170880,165541,-2.3437697367,5.5645089563,7.8388868376,1059
54026,170934,165555,-2.2995025186,5.3204410510999995,8.062615750700001,1060
54217,170940,165546,-2.2157537276,5.3084769381,7.9178499834,1061
54040,170935,165557,-2.3521446158,5.392225729100001,7.9417782094,1062
54068,170929,165568,-2.2097716711,5.3814580274,8.0195449439,1063
54233,170955,165582,-2.2803599377999997,5.419743189,7.9872418388,1064
54130,170985,165550,-2.2779671152,5.3575298014,7.953742322399999,1065
54323,171014,165584,-2.2013967919999997,5.388636495199999,7.832904781100001,1066
54495,171008,165601,-2.2827527603999997,5.4065826647,7.9166535721,1067
54383,171074,165607,-2.2707886474,5.4496534715000005,7.9513494998,1068
54396,170982,165597,-2.2899312282,5.4664032297,7.872386354,1069
54108,170941,165575,-2.3617159062,5.347958511000001,8.005188008300001,1070
54113,170989,165538,-2.3114666316,5.4245288342,7.9345997416,1071
54063,170929,165529,-2.309073809,5.4006006081999995,8.017152121299999,1072
53876,170941,165545,-2.2265214293,5.3527441562,8.051848049,1073
53962,170921,165541,-2.2719850587,5.2845487121,7.8939217574,1074
53974,170923,165580,-2.2947168733999996,5.4125647212,8.005188008300001,1075
53884,170980,165588,-2.225325018,5.3264231076,7.8927253461,1076
54038,170986,165597,-2.368894374,5.4951171009,8.0111700648,1077
54229,170976,165599,-2.1810577999,5.4664032297,7.9345997416,1078
54234,170985,165591,-2.2767707039,5.2821558895,8.0327054682,1079
53973,171008,165597,-2.2444675988,5.4484570602,8.0219377665,1080
54162,171008,165582,-2.2660030021999997,5.4903314557,7.9752777258,1081
54001,170988,165581,-2.2600209457,5.346762099699999,8.0135628874,1082
54193,170960,165604,-2.2504496553,5.4352965359,7.9226356286,1083
54247,171017,165617,-2.2576281231,5.2905307686,7.9776705484,1084
54332,171055,165604,-2.2396819536,5.4221360116,7.980063371,1085
54323,171028,165600,-2.3461625592999997,5.359922623999999,7.9609207902,1086
54293,171027,165618,-2.1451654609,5.455635527999999,7.9513494998,1087
54391,171056,165571,-2.2839491717,5.3371908093,8.0135628874,1088
54420,171049,165621,-2.2265214293,5.3336015753999995,7.8819576444,1089
54351,171073,165602,-2.2336998971,5.3575298014,8.0004023631,1090
54341,171088,165608,-2.2025932033,5.2366922601,7.9585279676,1091
54501,171042,165607,-2.2707886474,5.4341001246000005,7.9657064354,1092
54465,170956,165566,-2.404786713,5.3575298014,8.0721870411,1093
54449,170943,165540,-2.2193429615,5.376672382200001,7.956135144999999,1094
54107,170929,165551,-2.3401805028,5.276173833,7.9836526049,1095
54102,170927,165547,-2.2145573163,5.2749774217,8.0410803473,1096
54432,170922,165548,-2.177468566,5.4484570602,8.005188008300001,1097
54509,170970,165574,-2.2660030021999997,5.38385085,8.0470624038,1098
54192,170955,165551,-2.309073809,5.3336015753999995,7.9908310727,1099
54265,170958,165572,-2.3605194949,5.395814963,7.9585279676,1100
54539,170933,165566,-2.3832513096,5.3336015753999995,8.0195449439,1101
54582,170972,165570,-2.2360927197000002,5.4257252455,8.057830105499999,1102
54541,170913,165543,-2.3258235672,5.4520462941,7.992027484,1103
54512,170907,165528,-2.2671994135,5.2331030262,8.0650085733,1104
54460,170791,165519,-2.3868405435,5.3407800432,7.9465638546,1105
54506,170836,165520,-2.2037896146,5.4149575438,7.992027484,1106
54509,170836,165490,-2.2923240508,5.426921656799999,8.017152121299999,1107
54591,170810,165447,-2.261217357,5.4472606489,7.932206919,1108
54741,170788,165438,-2.2540388892,5.3431728658,8.017152121299999,1109
54435,170791,165461,-2.2002003807,5.3694939144,8.0255270004,1110
54643,170786,165441,-2.3258235672,5.4783673427,8.0697942185,1111
54637,170773,165436,-2.2887348169,5.467599641,8.0530444603,1112
54332,170743,165418,-2.2492532439999997,5.3048877041999996,7.927421273799999,1113
54411,170634,165359,-2.2803599377999997,5.3527441562,7.970492080600001,1114
54360,170581,165379,-2.2121644937,5.4006006081999995,8.026723411699999,1115
54503,170548,165358,-2.1978075581,5.2701917765,7.9776705484,1116
54535,170581,165357,-2.2935204621,5.4616175845,7.9369925642,1117
54204,170568,165356,-2.2923240508,5.5238309721,7.970492080600001,1118
54264,170589,165386,-2.285145583,5.2965128251,8.084151154099999,1119
54117,170615,165400,-2.3114666316,5.431707302,7.953742322399999,1120
54329,170624,165413,-2.2875384056,5.388636495199999,7.8915289348,1121
54283,170619,165391,-2.2408783649,5.4293144793999994,8.0362947021,1122
54354,170596,165385,-2.1978075581,5.407779076,7.932206919,1123
54330,170660,165421,-2.2707886474,5.4616175845,7.9345997416,1124
54503,170667,165405,-2.2241286067,5.4771709314,7.9824561936,1125
54344,170652,165422,-2.3054845751,5.3587262127,8.0135628874,1126
54391,170694,165472,-2.2301106632,5.3682975031,7.980063371,1127
54350,170738,165431,-2.2013967919999997,5.2905307686,8.0219377665,1128
54463,170770,165466,-2.3030917525,5.417350366399999,7.9896346614,1129
54423,170772,165495,-2.2456640101,5.375475970899999,7.908278693,1130
54616,170773,165496,-2.3653051401,5.3288159302,8.0099736535,1131
54451,170827,165493,-2.2085752598,5.419743189,7.8628150636,1132
54672,170830,165513,-2.2277178406,5.371886737,7.9369925642,1133
54609,170860,165521,-2.2564317118,5.4006006081999995,7.8185478454999995,1134
54521,170840,165539,-2.3641087288000002,5.446064237599999,7.9633136127999995,1135
54538,170808,165498,-2.1738793321000003,5.3336015753999995,7.970492080600001,1136
54385,170778,165502,-2.2480568327,5.4412785924,8.0195449439,1137
54236,170787,165510,-2.1906290903,5.4376893585,7.9489566772,1138
54405,170775,165486,-2.2887348169,5.3970113743,7.9178499834,1139
54292,170809,165514,-2.309073809,5.3407800432,7.980063371,1140
54120,170823,165498,-2.2265214293,5.331208752799999,7.9178499834,1141
54355,170815,165525,-2.225325018,5.376672382200001,7.9501530885,1142
54312,170850,165538,-2.2767707039,5.3862436726,8.0291162343,1143
54416,170830,165530,-2.3150558654999998,5.251049195699999,8.005188008300001,1144
54377,170852,165547,-2.3820548983,5.38385085,8.003991596999999,1145
54451,170885,165564,-2.213360905,5.4903314557,7.908278693,1146
54297,170891,165577,-2.368894374,5.3659046805,7.992027484,1147
54345,170915,165550,-2.3760728418,5.4412785924,7.9944203065999995,1148
54372,170921,165582,-2.3593230836,5.4006006081999995,8.0075808309,1149
54310,170947,165582,-2.4023938904,5.431707302,8.0183485326,1150
54484,170938,165613,-2.321037922,5.3862436726,7.9549387337,1151
54555,170976,165593,-2.344966148,5.4388857698,7.9369925642,1152
54804,171004,165600,-2.1643080417,5.417350366399999,7.9489566772,1153
54597,171020,165626,-2.2755742926,5.3336015753999995,7.9130643382,1154
54699,171028,165617,-2.261217357,5.4089754873,7.9489566772,1155
54597,171079,165632,-2.2755742926,5.3264231076,7.9669028467,1156
54602,171092,165638,-2.2911276395,5.404189842099999,8.0135628874,1157
54451,171095,165601,-2.27318147,5.471188874899999,7.992027484,1158
54546,171001,165620,-2.2420747762,5.4484570602,7.9345997416,1159
54305,170962,165548,-2.3174486881,5.484349399199999,7.9465638546,1160
54378,170966,165551,-2.2827527603999997,5.2749774217,8.0554372829,1161
54156,170966,165551,-2.2408783649,5.5334022625,8.027919823,1162
54203,170957,165585,-2.0685951377,5.4006006081999995,7.984849016199999,1163
54374,170970,165581,-2.2947168733999996,5.4520462941,7.9824561936,1164
54346,170994,165609,-2.2564317118,5.3503513336,7.9872418388,1165
54469,171012,165594,-2.3952154226,5.3575298014,7.9944203065999995,1166
54272,171016,165608,-2.3150558654999998,5.3455656884,7.972884903200001,1167
54193,171002,165593,-2.2229321954,5.455635527999999,7.9585279676,1168
54233,170997,165587,-2.2935204621,5.3264231076,7.9633136127999995,1169
54228,170996,165579,-2.3282163898,5.4891350444,7.932206919,1170
54439,170978,165565,-2.3808584870000002,5.2247281471,7.9633136127999995,1171
54506,171014,165581,-2.3964118339,5.4137611324999995,7.9908310727,1172
54446,170991,165571,-2.3377876802,5.4352965359,7.9836526049,1173
54407,171016,165587,-2.2959132847,5.3826544387,7.932206919,1174
54426,171011,165573,-2.2863419943,5.3168518172,7.8831540556999995,1175
54539,171016,165577,-2.4227328825,5.3778687935,7.9226356286,1176
54524,171007,165597,-2.2468604214,5.4125647212,8.0219377665,1177
54659,171017,165534,-2.3988046565,5.388636495199999,8.0183485326,1178
54760,171013,165532,-2.3389840915,5.3814580274,8.0135628874,1179
54529,170999,165497,-2.1846470338,5.3288159302,7.9513494998,1180
54417,170874,165507,-2.2336998971,5.3647082692,7.920242806,1181
54255,170832,165455,-2.2707886474,5.2845487121,8.0087772422,1182
54240,170770,165438,-2.27318147,5.3982077855999995,7.9633136127999995,1183
54279,170786,165422,-2.2289142519,5.389832906500001,7.9645100241,1184
54187,170727,165396,-2.3330020350000003,5.4472606489,7.9872418388,1185
54170,170719,165374,-2.2085752598,5.3694939144,7.9992059518000005,1186
54238,170729,165392,-2.285145583,5.4221360116,7.9896346614,1187
54219,170716,165398,-2.3593230836,5.4029934308,7.908278693,1188
54373,170717,165396,-2.2588245344,5.309673349400001,8.0219377665,1189
54276,170699,165352,-2.213360905,5.3288159302,7.9501530885,1190
54183,170703,165366,-2.2923240508,5.405386253400001,7.9465638546,1191
54389,170686,165389,-2.4131615921,5.334797986699999,7.944171031999999,1192
54305,170703,165358,-2.297109696,5.3946185517,7.932206919,1193
54462,170741,165339,-2.2277178406,5.3383872206000005,8.026723411699999,1194
54418,170707,165388,-2.1942183242,5.4520462941,7.957331556300001,1195
54352,170763,165399,-2.2911276395,5.3551369788,7.9932238953,1196
54174,170737,165373,-2.321037922,5.3862436726,7.8891361122,1197
54364,170800,165372,-2.261217357,5.371886737,8.0315090569,1198
54343,170806,165394,-2.4059831243,5.5142596817000005,7.9968131291999995,1199
54513,170832,165403,-2.4239292938,5.4125647212,7.9776705484,1200
54467,170853,165415,-2.2528424779,5.4508498828,7.992027484,1201
54492,170877,165409,-2.2827527603999997,5.539384319,7.920242806,1202
54360,170837,165383,-2.2923240508,5.4783673427,7.9752777258,1203
54243,170793,165423,-2.3162522768000002,5.5046883913,7.9513494998,1204
54150,170789,165378,-2.3306092124,5.3383872206000005,8.01595571,1205
54150,170777,165403,-2.2444675988,5.3814580274,7.9932238953,1206
54232,170784,165418,-2.368894374,5.4137611324999995,8.0386875247,1207
54177,170794,165405,-2.2002003807,5.4101718986,7.984849016199999,1208
54089,170851,165403,-2.1188444122999996,5.4065826647,8.005188008300001,1209
54258,170837,165440,-2.3174486881,5.4855458105,7.9465638546,1210
54208,170865,165446,-2.2564317118,5.442475003699999,8.0291162343,1211
54363,170862,165456,-2.2959132847,5.3802616161,8.0111700648,1212
54112,170891,165423,-2.2408783649,5.4221360116,7.980063371,1213
54150,170896,165434,-2.1954147355,5.3336015753999995,7.972884903200001,1214
54373,170940,165437,-2.3306092124,5.4388857698,8.005188008300001,1215
54374,170926,165466,-2.2707886474,5.2857451234,7.9226356286,1216
54317,170938,165471,-2.3389840915,5.4185467777000005,7.9417782094,1217
54348,170975,165502,-2.2767707039,5.405386253400001,7.9178499834,1218
54258,170963,165499,-2.3306092124,5.4699924636,7.980063371,1219
54303,170963,165495,-2.309073809,5.5561340772,7.9226356286,1220
54308,170988,165466,-2.2875384056,5.371886737,7.9381889755,1221
54460,171024,165505,-2.2947168733999996,5.3694939144,7.9393853868,1222
54574,171030,165495,-2.2552353005,5.4364929472,8.0434731699,1223
54419,171078,165510,-2.1511475174,5.426921656799999,7.998009540499999,1224
54374,171058,165508,-2.368894374,5.4472606489,8.0243305891,1225
54276,171016,165503,-2.3497517932000003,5.3551369788,7.9752777258,1226
54261,170981,165489,-2.321037922,5.479563754,7.8999038139,1227
54292,170955,165482,-2.297109696,5.4364929472,7.9788669596999995,1228
54342,170963,165471,-2.1990039694,5.446064237599999,7.8652078862,1229
54040,170955,165489,-2.2636101795999997,5.5238309721,8.0087772422,1230
53897,170988,165476,-2.2719850587,5.38385085,8.039883936,1231
54189,170993,165499,-2.3138594542,5.405386253400001,7.915457160799999,1232
54173,171023,165472,-2.3653051401,5.3814580274,7.9298140964,1233
54128,171047,165544,-2.3054845751,5.5310094399,7.9740813145,1234
54451,171040,165532,-2.261217357,5.38385085,7.927421273799999,1235
54389,171097,165529,-2.3078773977,5.407779076,7.925028451199999,1236
54461,171021,165540,-2.3401805028,5.3874400839,7.920242806,1237
54513,171079,165526,-2.3401805028,5.3982077855999995,8.057830105499999,1238
54335,171094,165545,-2.27318147,5.4017970195,7.9752777258,1239
54192,171083,165565,-2.081755662,5.3575298014,7.9609207902,1240
54499,171112,165516,-2.2755742926,5.405386253400001,7.9345997416,1241
54470,171137,165537,-2.2899312282,5.3527441562,8.0111700648,1242
54673,171146,165553,-2.2540388892,5.443671415,8.0063844196,1243
54500,171153,165543,-2.2456640101,5.3790652048,7.9525459111,1244
54477,171136,165557,-2.2779671152,5.371886737,8.0063844196,1245
54624,171138,165541,-2.3114666316,5.4137611324999995,7.9417782094,1246
54590,171205,165566,-2.3557338497,5.2414779053,7.9872418388,1247
54492,171164,165579,-2.4299113503,5.4640104071,8.0434731699,1248
54511,171131,165519,-2.1379869930999997,5.472385286200001,7.8939217574,1249
54446,171136,165504,-2.3593230836,5.371886737,8.0027951857,1250
54440,171086,165474,-2.4155544147,5.407779076,7.956135144999999,1251
54249,171082,165531,-2.3306092124,5.4006006081999995,7.9752777258,1252
54260,171062,165480,-2.2301106632,5.321637462399999,8.026723411699999,1253
54209,171028,165482,-2.3330020350000003,5.4065826647,7.858029418399999,1254
54191,171073,165509,-2.2002003807,5.5238309721,7.9944203065999995,1255
54300,171076,165487,-2.3186450994000003,5.346762099699999,7.9657064354,1256
54445,171088,165508,-2.1930219129,5.405386253400001,7.9489566772,1257
54570,171083,165512,-2.3258235672,5.4616175845,8.062615750700001,1258
54277,171053,165488,-2.3330020350000003,5.3946185517,7.9489566772,1259
54361,171096,165497,-2.2241286067,5.3491549223,7.8137622003,1260
54625,171073,165512,-2.2779671152,5.455635527999999,7.9178499834,1261
54490,171042,165471,-2.2564317118,5.335994398,7.9645100241,1262
54534,171043,165457,-2.2420747762,5.3264231076,8.0458659925,1263
54453,171009,165464,-2.2348963083999998,5.4520462941,7.992027484,1264
54581,170949,165432,-2.1379869930999997,5.3108697607,7.9609207902,1265
54435,170946,165424,-2.2899312282,5.417350366399999,7.9968131291999995,1266
54787,170938,165389,-2.321037922,5.4951171009,7.9645100241,1267
54439,170924,165393,-2.2504496553,5.431707302,7.9657064354,1268
54625,170910,165391,-2.3126630429,5.3934221404,7.944171031999999,1269
54445,170846,165351,-2.2911276395,5.3048877041999996,7.944171031999999,1270
54412,170809,165328,-2.177468566,5.388636495199999,7.9130643382,1271
54024,170744,165289,-2.2791635265,5.4221360116,7.9046894591,1272
54057,170730,165326,-2.2325034857999997,5.3910293178,7.9585279676,1273
54170,170688,165288,-2.1308085253,5.38385085,7.8939217574,1274
54202,170695,165291,-2.3617159062,5.38385085,7.9357961529,1275
54299,170693,165291,-2.261217357,5.4951171009,8.0650085733,1276
54098,170712,165294,-2.2109680824,5.3288159302,7.9776705484,1277
54285,170735,165313,-2.1320049366,5.3180482284999995,7.9992059518000005,1278
54279,170720,165321,-2.141576227,5.2713881878,8.0386875247,1279
54381,170728,165295,-2.225325018,5.4029934308,7.9657064354,1280
54165,170743,165292,-2.2755742926,5.4747781088,7.932206919,1281
54291,170737,165295,-2.2348963083999998,5.4388857698,7.9740813145,1282
54242,170769,165325,-2.2049860259000003,5.4687960523,7.9178499834,1283
54290,170785,165339,-2.3282163898,5.4281180681,7.969295669299999,1284
54318,170799,165368,-2.2348963083999998,5.3407800432,7.986045427500001,1285
54560,170809,165362,-2.3126630429,5.417350366399999,7.9944203065999995,1286
54306,170831,165329,-2.2540388892,5.417350366399999,7.968099258,1287
54440,170829,165381,-2.4131615921,5.4029934308,7.9944203065999995,1288
54314,170846,165384,-2.2875384056,5.431707302,7.998009540499999,1289
54720,170911,165398,-2.2636101795999997,5.280959478200001,7.9011002251999995,1290
54493,170897,165411,-2.2504496553,5.4352965359,7.927421273799999,1291
54193,170828,165380,-2.3222343333,5.4759745201,7.932206919,1292
54106,170822,165355,-2.321037922,5.4508498828,7.984849016199999,1293
53929,170807,165376,-2.2648065909,5.4233324229,8.0769726863,1294
53904,170779,165363,-2.2456640101,5.4185467777000005,7.908278693,1295
53982,170832,165396,-2.2660030021999997,5.4006006081999995,7.8699935314,1296
54194,170815,165382,-2.3617159062,5.4783673427,8.0015987744,1297
54110,170856,165390,-2.2217357841,5.5022955687,7.9788669596999995,1298
54177,170867,165422,-2.3461625592999997,5.4604211732,7.925028451199999,1299
54087,170910,165431,-2.1798613886,5.3515477449,7.9214392173,1300
54207,170866,165450,-2.3772692530999997,5.3455656884,7.953742322399999,1301
54082,170885,165441,-2.2277178406,5.315655405899999,7.8819576444,1302
54092,170889,165450,-2.2779671152,5.4149575438,7.9633136127999995,1303
54200,170895,165474,-2.2516460665999998,5.2677989539,7.9645100241,1304
54392,170923,165442,-2.3856441322,5.5716874241,8.0099736535,1305
54359,170942,165493,-2.2983061073,5.4807601652999995,8.0147592987,1306
54410,171008,165462,-2.2504496553,5.4628139958,7.8592258297,1307
54472,170951,165491,-2.1762721547,5.3982077855999995,8.0674013959,1308
54426,170956,165477,-2.2576281231,5.3324051641,8.0733834524,1309
54493,171023,165485,-2.3617159062,5.3563333901,7.972884903200001,1310
54406,171027,165505,-2.4311077616,5.4388857698,7.8939217574,1311
54274,171077,165513,-2.261217357,5.3694939144,8.0482588151,1312
54099,171018,165498,-2.2683958248,5.2701917765,7.9262248625,1313
54136,170972,165493,-2.27318147,5.4735816975,7.9716884919,1314
54039,170931,165448,-2.2707886474,5.4245288342,7.9908310727,1315
54020,170923,165432,-2.4035903017,5.4029934308,7.9633136127999995,1316
53844,170928,165458,-2.3138594542,5.3862436726,7.968099258,1317
54096,170951,165469,-2.2277178406,5.431707302,7.8532437732,1318
54038,170941,165444,-2.4227328825,5.4520462941,8.0183485326,1319
54167,170986,165489,-2.2516460665999998,5.3503513336,8.0015987744,1320
54045,170962,165496,-2.2624137683,5.4364929472,7.9716884919,1321
53960,171006,165463,-2.3868405435,5.4281180681,7.915457160799999,1322
54222,171019,165491,-2.2325034857999997,5.3790652048,8.0506516377,1323
54056,171008,165501,-2.2719850587,5.3934221404,7.9034930478000005,1324
53902,171018,165508,-2.2707886474,5.3300123415,7.9130643382,1325
54151,171020,165529,-2.2995025186,5.5070812139,7.9776705484,1326
54038,171052,165528,-2.3796620756999998,5.3730831483,7.9417782094,1327
54309,171045,165507,-2.3162522768000002,5.4927242783,8.0099736535,1328
54472,171080,165501,-2.2600209457,5.3874400839,7.968099258,1329
54490,171068,165544,-2.3258235672,5.3682975031,8.0195449439,1330
54537,171050,165513,-2.2277178406,5.4855458105,7.9812597822999996,1331
54391,171079,165529,-2.3282163898,5.3288159302,8.0231341778,1332
54523,171103,165523,-2.3581266723,5.444867826299999,8.0075808309,1333
54476,171105,165536,-2.2707886474,5.5465627868,7.9968131291999995,1334
54397,171089,165533,-2.2923240508,5.4137611324999995,8.062615750700001,1335
54413,171004,165504,-2.2289142519,5.389832906500001,7.9908310727,1336
54041,170935,165461,-2.3330020350000003,5.3682975031,7.9226356286,1337
54210,170963,165471,-2.1954147355,5.4245288342,7.9932238953,1338
54264,170936,165480,-2.3509482045,5.499902746099999,7.9872418388,1339
54113,170917,165447,-2.2707886474,5.3994041969,7.9106715156,1340
54062,170936,165442,-2.3641087288000002,5.3910293178,7.8987074025999995,1341
54137,170916,165444,-2.3174486881,5.3611190353,7.9262248625,1342
54017,170904,165444,-2.3605194949,5.3431728658,8.0291162343,1343
54376,170902,165436,-2.2420747762,5.4149575438,7.9298140964,1344
54309,170876,165427,-2.285145583,5.4065826647,7.9298140964,1345
54382,170892,165394,-2.3066809864,5.3970113743,7.9992059518000005,1346
54352,170845,165366,-2.3389840915,5.3671010918,7.970492080600001,1347
54325,170805,165364,-2.3006989299,5.4006006081999995,8.0015987744,1348
54219,170776,165369,-2.3617159062,5.4149575438,7.9896346614,1349
54182,170793,165367,-2.356930261,5.467599641,7.9298140964,1350
53963,170765,165389,-2.2719850587,5.3527441562,7.9992059518000005,1351
54380,170739,165332,-2.3078773977,5.3563333901,7.9836526049,1352
54432,170771,165346,-2.3880369548,5.4831529879,8.01595571,1353
54466,170721,165333,-2.3162522768000002,5.292923591199999,8.0650085733,1354
54344,170766,165373,-2.3748764305,5.3551369788,7.9764741371,1355
54381,170762,165314,-2.1714865095,5.3790652048,7.9633136127999995,1356
54064,170691,165307,-2.4083759468999997,5.405386253400001,7.9812597822999996,1357
54110,170675,165323,-2.2899312282,5.376672382200001,7.9489566772,1358
54236,170682,165297,-2.1403798157,5.3994041969,7.9585279676,1359
53934,170688,165302,-2.3772692530999997,5.4687960523,7.9776705484,1360
53805,170653,165320,-2.2444675988,5.3371908093,7.9908310727,1361
54124,170649,165335,-2.1619152191,5.5262237947,8.003991596999999,1362
54319,170708,165334,-2.2899312282,5.407779076,7.915457160799999,1363
53891,170726,165345,-2.2995025186,5.3012984703,7.9011002251999995,1364
54124,170729,165367,-2.2660030021999997,5.426921656799999,7.886743289599999,1365
54119,170749,165364,-2.1643080417,5.4855458105,7.972884903200001,1366
54137,170749,165366,-2.3126630429,5.4412785924,7.9417782094,1367
54203,170777,165360,-2.1284157027,5.4544391167,7.956135144999999,1368
54240,170800,165374,-2.3413769141,5.321637462399999,7.970492080600001,1369
54393,170855,165356,-2.3928226,5.486742221799999,7.9226356286,1370
54226,170831,165410,-2.2408783649,5.4687960523,7.956135144999999,1371
54276,170835,165433,-2.2217357841,5.405386253400001,7.984849016199999,1372
54330,170864,165428,-2.2073788485,5.4747781088,8.026723411699999,1373
54594,170850,165441,-2.2301106632,5.431707302,7.9872418388,1374
54341,170868,165460,-2.3282163898,5.3790652048,8.0339018795,1375
54625,170902,165441,-2.2707886474,5.3276195189,7.980063371,1376
54394,170891,165449,-2.2707886474,5.4484570602,7.9465638546,1377
54562,170957,165483,-2.3246271559,5.5094740364999994,8.0554372829,1378
54510,170937,165466,-2.3892333661,5.4783673427,7.874779176600001,1379
54309,170854,165417,-2.1643080417,5.5190453269,8.0374911134,1380
54132,170875,165422,-2.3736800192,5.4125647212,7.9298140964,1381
54266,170872,165399,-2.3605194949,5.3228338737000005,8.0004023631,1382
53990,170836,165430,-2.1762721547,5.4544391167,8.003991596999999,1383
54107,170860,165439,-2.2695922361,5.3647082692,7.9417782094,1384
54366,170877,165434,-2.261217357,5.4029934308,8.063812162,1385
54195,170897,165494,-2.2995025186,5.4329037133,8.017152121299999,1386
54240,170886,165471,-2.3784656644,5.3862436726,8.0291162343,1387
54245,170915,165469,-2.4873390927,5.2582276635,7.915457160799999,1388
54323,170878,165502,-2.2995025186,5.3742795596,7.970492080600001,1389
54184,170929,165495,-2.2025932033,5.4687960523,8.0219377665,1390
54427,170933,165509,-2.3353948576,5.5118668590999995,8.0422767586,1391
54198,170945,165499,-2.2911276395,5.3934221404,7.915457160799999,1392
54310,170942,165492,-2.2468604214,5.3276195189,7.9465638546,1393
54409,170981,165511,-2.2624137683,5.4341001246000005,8.0410803473,1394
54504,170998,165541,-2.3306092124,5.4125647212,8.0147592987,1395
54659,171017,165539,-2.3856441322,5.3910293178,7.920242806,1396
54402,171043,165535,-2.2396819536,5.3790652048,7.8819576444,1397
54693,171004,165542,-2.2336998971,5.3982077855999995,8.0362947021,1398
54494,171032,165550,-2.2468604214,5.407779076,7.886743289599999,1399
54638,171046,165520,-2.2528424779,5.4496534715000005,8.0004023631,1400
54723,171132,165558,-2.2683958248,5.3694939144,8.0219377665,1401
54535,171059,165558,-2.2540388892,5.3324051641,7.9992059518000005,1402
54405,170982,165483,-2.1942183242,5.2677989539,7.915457160799999,1403
54370,170964,165491,-2.3641087288000002,5.3563333901,8.0410803473,1404
54340,170973,165493,-2.3018953412000003,5.3407800432,7.9513494998,1405
54440,170955,165514,-2.3401805028,5.3790652048,7.9011002251999995,1406
54231,170929,165479,-2.2169501389,5.4783673427,8.0339018795,1407
54354,170970,165514,-2.2899312282,5.4125647212,8.0063844196,1408
54257,170963,165506,-2.1798613886,5.3826544387,7.953742322399999,1409
54384,171000,165536,-2.2911276395,5.5118668590999995,7.9465638546,1410
54535,171002,165548,-2.297109696,5.487938633100001,8.0458659925,1411
54214,170981,165511,-2.3054845751,5.446064237599999,7.972884903200001,1412
54491,170966,165530,-2.297109696,5.4520462941,8.0590265168,1413
54396,170979,165507,-2.2660030021999997,5.4831529879,8.0135628874,1414
54498,170975,165499,-2.4107687694999997,5.4687960523,7.9226356286,1415
54683,170998,165505,-2.3114666316,5.3659046805,8.0207413552,1416
54744,170965,165494,-2.1822542112,5.467599641,8.027919823,1417
54489,170935,165504,-2.4071795356,5.4209396003000005,7.9776705484,1418
54481,170944,165495,-2.3808584870000002,5.4006006081999995,7.8711899427,1419
54519,170922,165476,-2.2384855423,5.38385085,7.968099258,1420
54572,170908,165448,-2.2576281231,5.4101718986,8.01595571,1421
54676,170906,165456,-2.1930219129,5.3862436726,7.9011002251999995,1422
54734,170912,165453,-2.2516460665999998,5.3730831483,7.9226356286,1423
54696,170831,165405,-2.1643080417,5.359922623999999,8.0339018795,1424
54314,170753,165362,-2.3030917525,5.455635527999999,7.9609207902,1425
54262,170705,165346,-2.2229321954,5.347958511000001,7.986045427500001,1426
54248,170676,165319,-2.2660030021999997,5.5238309721,7.9489566772,1427
54389,170650,165318,-2.2277178406,5.315655405899999,8.0183485326,1428
54115,170633,165336,-2.27318147,5.3910293178,7.944171031999999,1429
54373,170624,165325,-2.3521446158,5.4149575438,7.9058858704,1430
54349,170680,165313,-2.2755742926,5.4388857698,7.9824561936,1431
54362,170650,165337,-2.3174486881,5.4544391167,7.9417782094,1432
54234,170634,165334,-2.3114666316,5.3694939144,7.944171031999999,1433
54332,170628,165291,-2.2767707039,5.458028350599999,7.9345997416,1434
54263,170639,165340,-2.2217357841,5.2953164138,7.9166535721,1435
54477,170639,165321,-2.2803599377999997,5.359922623999999,7.9633136127999995,1436
54287,170626,165321,-2.1966111468,5.430510890700001,8.0087772422,1437
54285,170678,165374,-2.2899312282,5.5094740364999994,7.9824561936,1438
54338,170653,165360,-2.4095723582,5.347958511000001,7.9585279676,1439
54601,170725,165392,-2.3114666316,5.4831529879,7.957331556300001,1440
54549,170687,165381,-2.2277178406,5.4496534715000005,8.026723411699999,1441
54500,170700,165373,-2.2480568327,5.4329037133,8.0015987744,1442
54532,170744,165390,-2.3545374384,5.4293144793999994,7.9609207902,1443
54554,170739,165398,-2.2839491717,5.3587262127,8.0291162343,1444
54421,170787,165388,-2.3844477209,5.3563333901,7.9489566772,1445
54272,170756,165391,-2.2516460665999998,5.2606204861,7.9298140964,1446
54216,170699,165381,-2.1858434451,5.472385286200001,8.0004023631,1447
54160,170667,165364,-2.2743778813,5.3192446398,7.9465638546,1448
54273,170663,165356,-2.1738793321000003,5.3300123415,7.9477602659,1449
54096,170671,165337,-2.2995025186,5.4687960523,7.9298140964,1450
54151,170690,165402,-2.1667008643,5.4364929472,7.9824561936,1451
54130,170691,165391,-2.2707886474,5.4101718986,7.984849016199999,1452
54073,170705,165392,-2.2504496553,5.3288159302,7.968099258,1453
53888,170732,165427,-2.3952154226,5.4329037133,7.9896346614,1454
54143,170758,165409,-2.321037922,5.346762099699999,8.0674013959,1455
54047,170750,165424,-2.2229321954,5.3264231076,7.8819576444,1456
54323,170779,165447,-2.2803599377999997,5.3706903257,7.9226356286,1457
54063,170775,165416,-2.1810577999,5.417350366399999,7.972884903200001,1458
54176,170784,165453,-2.297109696,5.3264231076,7.8831540556999995,1459
54232,170806,165492,-2.2468604214,5.4293144793999994,7.9369925642,1460
54215,170810,165477,-2.057827436,5.539384319,8.0147592987,1461
54162,170829,165471,-2.2660030021999997,5.4161539550999995,7.9465638546,1462
54108,170869,165497,-2.3413769141,5.443671415,7.925028451199999,1463
54282,170882,165483,-2.1690936869,5.444867826299999,7.925028451199999,1464
54479,170863,165502,-2.3653051401,5.371886737,7.9345997416,1465
54424,170899,165523,-2.2408783649,5.4149575438,7.9944203065999995,1466
54288,170934,165514,-2.2277178406,5.359922623999999,7.9369925642,1467
54349,170923,165551,-2.1044874766999997,5.404189842099999,8.0374911134,1468
54325,170937,165518,-2.129612114,5.443671415,8.0243305891,1469
54021,170853,165505,-2.3904297774,5.4293144793999994,8.0123664761,1470
53967,170805,165457,-2.2217357841,5.3994041969,8.026723411699999,1471
53794,170803,165481,-2.2444675988,5.407779076,7.9812597822999996,1472
54024,170818,165484,-2.3018953412000003,5.3694939144,7.953742322399999,1473
54073,170861,165493,-2.2779671152,5.4233324229,8.0530444603,1474
53976,170790,165530,-2.189432679,5.431707302,7.968099258,1475
53836,170851,165484,-2.2456640101,5.3742795596,8.0303126456,1476
54109,170869,165515,-2.045863323,5.2737810104,7.9836526049,1477
54199,170862,165524,-2.3617159062,5.4687960523,8.0458659925,1478
54017,170888,165538,-2.2779671152,5.3527441562,7.944171031999999,1479
54064,170899,165552,-2.2468604214,5.4089754873,8.0027951857,1480
54124,170913,165530,-2.4299113503,5.2725845991,7.860422240999999,1481
54104,170873,165555,-2.3533410271,5.419743189,7.9011002251999995,1482
54077,170925,165554,-2.3473589706,5.3647082692,7.8999038139,1483
54045,170927,165537,-2.3724836079,5.4831529879,7.980063371,1484
54246,170916,165573,-2.3892333661,5.4101718986,7.9752777258,1485
54359,170964,165566,-2.2827527603999997,5.4388857698,7.9872418388,1486
54262,170969,165571,-2.4251257050999997,5.2977092364,7.9884382501,1487
54331,170987,165542,-2.3258235672,5.3551369788,8.026723411699999,1488
54559,170979,165566,-2.3186450994000003,5.4855458105,8.0195449439,1489
54502,170968,165550,-2.2456640101,5.4376893585,7.953742322399999,1490
54458,170971,165627,-2.2624137683,5.3551369788,7.968099258,1491
54443,171014,165544,-2.3892333661,5.4747781088,7.8771719992,1492
54268,170934,165541,-2.3796620756999998,5.371886737,7.9453674433,1493
54124,170841,165489,-2.2636101795999997,5.347958511000001,8.0554372829,1494
54136,170855,165512,-2.3341984463,5.3826544387,7.9609207902,1495
54285,170853,165520,-2.2037896146,5.3012984703,7.9896346614,1496
54050,170856,165520,-2.3066809864,5.3874400839,7.9788669596999995,1497
54100,170849,165521,-2.3521446158,5.388636495199999,8.0243305891,1498
54208,170864,165544,-2.3760728418,5.359922623999999,7.9908310727,1499
54103,170866,165535,-2.3425733254,5.38385085,8.0602229281,1500
54100,170872,165520,-2.3401805028,5.300102059,7.9513494998,1501
54136,170862,165517,-2.3772692530999997,5.4652068183999996,7.9609207902,1502
54062,170839,165512,-2.2791635265,5.4125647212,7.9992059518000005,1503
54184,170806,165502,-2.1762721547,5.4783673427,7.9489566772,1504
54150,170789,165516,-2.2791635265,5.4161539550999995,7.9489566772,1505
54237,170797,165468,-2.1810577999,5.3407800432,7.9788669596999995,1506
54149,170751,165475,-2.2719850587,5.312066172,8.003991596999999,1507
54230,170779,165475,-2.2145573163,5.3503513336,8.0327054682,1508
54358,170741,165416,-2.4263221164,5.2582276635,8.0135628874,1509
54365,170715,165441,-2.3066809864,5.248656373099999,8.062615750700001,1510
54330,170704,165417,-2.2444675988,5.3336015753999995,7.896314579999999,1511
54241,170701,165423,-2.2899312282,5.4125647212,7.9788669596999995,1512
54460,170702,165445,-2.2899312282,5.5238309721,7.972884903200001,1513
54383,170683,165393,-2.3114666316,5.431707302,7.886743289599999,1514
54265,170604,165377,-2.1559331626,5.3742795596,7.9968131291999995,1515
54127,170542,165354,-2.2827527603999997,5.6255259326000004,8.0075808309,1516
54069,170485,165316,-2.2803599377999997,5.446064237599999,8.0482588151,1517
54088,170482,165304,-2.3102702203,5.467599641,7.9393853868,1518
