green,red,IR,acc_x,acc_y,acc_z,sample_index
90030,184610,229616,-1.782652837,-1.0061819033000001,-9.5880401582,1
90205,184646,229672,-1.5744772707999999,-1.148554848,-9.7304131029,2
90326,184645,229721,-1.5696916256,-1.0432706536,-9.6382894328,3
90507,184683,229660,-1.6797614652,-1.0731809361,-9.5533442305,4
90594,184701,229712,-1.531406464,-1.0253244841,-9.7052884656,5
90644,184668,229729,-1.6414763036,-1.1341979124,-9.6012006825,6
90709,184702,229719,-1.5122638832,-1.2526426310999998,-9.8093762487,7
90838,184724,229714,-1.5948162629,-0.9786644433999999,-9.767501853199999,8
90943,184703,229702,-1.6223337227999999,-1.0683952909,-9.7375915707,9
91080,184729,229726,-1.6175480776,-1.1521440819,-9.7196454012,10
91230,184749,229705,-1.5122638832,-1.0959127508,-9.69093153,11
91360,184787,229684,-1.5852449725,-1.0432706536,-9.667003304,12
91518,184739,229746,-1.5601203352,-1.0205388389,-9.6059863277,13
91647,184771,229742,-1.5696916256,-0.9296115801,-9.6813602396,14
91799,184791,229773,-1.7503497318999999,-1.1114660977,-9.6574320136,15
91927,184795,229729,-1.5996019081000001,-0.8530412569000001,-9.667003304,16
92047,184791,229767,-1.4895320685,-1.1341979124,-9.7902336679,17
92051,184802,229745,-1.7132609816000002,-1.0923235169,-9.6251289085,18
91664,184695,229650,-1.5385849318,-1.0851450490999999,-9.5437729401,19
90994,184563,229608,-1.5936198516,-1.0959127508,-9.7064848769,20
90427,184548,229533,-1.6307086019,-1.1246266219999999,-9.7519485063,21
90078,184488,229524,-1.5696916256,-1.1102696864,-9.5916293921,22
89947,184452,229546,-1.4703894876999999,-1.0013962581,-9.7722874984,23
89931,184471,229520,-1.7180466268,-1.1425727915,-9.595218626,24
90009,184482,229545,-1.5385849318,-1.1054840412,-9.5964150373,25
90159,184563,229525,-1.6187444889,-1.1808579531,-9.7375915707,26
90307,184559,229541,-1.5661023917,-1.07677017,-9.6526463684,27
90381,184580,229534,-1.5469598109,-1.1066804525,-9.6382894328,28
90406,184543,229550,-1.6223337227999999,-1.0636096457,-9.6287181424,29
90470,184520,229603,-1.579262916,-1.1114660977,-9.6538427797,30
90519,184543,229602,-1.5373885205000002,-1.0480562988,-9.6251289085,31
90622,184594,229562,-1.6881363443,-1.1198409768,-9.5533442305,32
90723,184569,229609,-1.5708880369,-1.0396814197,-9.7196454012,33
90855,184612,229576,-1.5840485612,-1.1054840412,-9.7292166916,34
91005,184597,229623,-1.6366906583999998,-1.1294122672,-9.643075077999999,35
91128,184628,229628,-1.5421741657,-1.052841944,-9.620343263299999,36
91272,184581,229618,-1.6175480776,-1.0492527101,-9.7483592724,37
91405,184633,229629,-1.5373885205000002,-1.028913718,-9.6622176588,38
91519,184666,229633,-1.4763715442,-1.0073783146,-9.6526463684,39
91679,184697,229606,-1.6618152957,-1.0205388389,-9.6813602396,40
91752,184686,229670,-1.5469598109,-1.1665010175000001,-9.69093153,41
91641,184647,229598,-1.4751751328999998,-1.1006983959999999,-9.634700198900001,42
91126,184572,229530,-1.603191142,-1.1042876299,-9.6765745944,43
90471,184437,229502,-1.8173487647,-1.0719845248,-9.6478607232,44
89940,184366,229449,-1.5182459396999999,-1.0085747259,-9.6143612068,45
89636,184351,229419,-1.6319050132,-1.1437692028,-9.633503787599999,46
89524,184377,229461,-1.7001004573,-1.1150553316,-9.6574320136,47
89551,184418,229460,-1.579262916,-1.1054840412,-9.5808616904,48
89669,184428,229505,-1.6223337227999999,-1.2622139215000001,-9.6765745944,49
89825,184456,229472,-1.5517454561000001,-0.9667003303999999,-9.6861458848,50
89949,184438,229507,-1.7611174336,-1.2394821068,-9.728020280299999,51
90072,184485,229544,-1.7611174336,-1.0540383553,-9.6574320136,52
90111,184484,229511,-1.6558332392,-0.9296115801,-9.767501853199999,53
90147,184489,229558,-1.5565311013,-1.1150553316,-9.6059863277,54
90245,184488,229535,-1.7024932798999999,-1.2251251712,-9.6777710057,55
90347,184501,229571,-1.4273186809,-0.9583254512999999,-9.710074110799999,56
90472,184565,229540,-1.6366906583999998,-0.9583254512999999,-9.643075077999999,57
90619,184553,229559,-1.6271193679999998,-1.0061819033000001,-9.6574320136,58
90786,184624,229581,-1.8412769907000002,-1.0001998468,-9.6957171752,59
90953,184600,229586,-1.5984054967999999,-0.9954142015999999,-9.6047899164,60
91117,184634,229579,-1.6079767872,-1.0731809361,-9.7663054419,61
91302,184646,229560,-1.6654045296,-1.0636096457,-9.562915520899999,62
91414,184684,229623,-1.6235301341000001,-1.0683952909,-9.6717889492,63
91546,184712,229644,-1.6366906583999998,-0.9595218625999999,-9.757930562799999,64
91619,184701,229586,-1.5505490447999999,-1.1114660977,-9.762716208,65
91332,184674,229596,-1.603191142,-1.1138589203,-9.6861458848,66
90631,184524,229497,-1.6701901747999999,-1.0157531937,-9.634700198900001,67
90004,184428,229447,-1.6510475939999998,-1.0911271056,-9.7052884656,68
89581,184417,229480,-1.5038890041,-1.0911271056,-9.6921279413,69
89419,184437,229465,-1.6666009409,-1.1198409768,-9.7196454012,70
89348,184392,229491,-1.4751751328999998,-1.1294122672,-9.6490571345,71
89417,184433,229454,-1.5888342063999998,-1.0492527101,-9.6143612068,72
89589,184391,229518,-1.6462619487999999,-1.1581261384000001,-9.69093153,73
89789,184502,229535,-1.6175480776,-1.028913718,-9.6107719729,74
89902,184509,229489,-1.5756736821000001,-1.2669995667,-9.620343263299999,75
89991,184504,229535,-1.5469598109,-0.9954142015999999,-9.700502820399999,76
90070,184516,229575,-1.5804593273,-1.1150553316,-9.6251289085,77
90125,184557,229562,-1.4703894876999999,-1.2155538808,-9.633503787599999,78
90231,184489,229589,-1.6091731985,-1.0911271056,-9.6813602396,79
90363,184556,229557,-1.55533469,-1.1054840412,-9.7244310464,80
90506,184589,229591,-1.7790636031,-1.0815558152,-9.6155576181,81
90681,184597,229630,-1.5900306177,-1.1425727915,-9.7052884656,82
90856,184666,229633,-1.698904046,-1.1054840412,-9.7292166916,83
91015,184694,229676,-1.6414763036,-1.0624132344,-9.6957171752,84
91189,184718,229674,-1.5230315848999998,-0.8913264185,-9.7531449176,85
91339,184721,229670,-1.5984054967999999,-1.2155538808,-9.7340023368,86
91440,184738,229680,-1.5900306177,-1.0336993632,-9.6813602396,87
91583,184729,229687,-1.4847464232999998,-1.0911271056,-9.687342296099999,88
91450,184728,229638,-1.6223337227999999,-0.9822536772999999,-9.5389872949,89
90843,184598,229574,-1.6307086019,-1.0001998468,-9.6287181424,90
90118,184506,229532,-1.6079767872,-1.0911271056,-9.6969135865,91
89613,184458,229508,-1.7419748528,-1.0959127508,-9.8057870148,92
89329,184426,229465,-1.603191142,-1.0384850084,-9.732805925500001,93
89256,184347,229464,-1.6127624323999998,-1.1006983959999999,-9.6813602396,94
89280,184433,229503,-1.5565311013,-1.0540383553,-9.69093153,95
89413,184477,229531,-1.698904046,-1.2047861791,-9.7758767323,96
89607,184536,229550,-1.5361921092,-1.0205388389,-9.643075077999999,97
89761,184538,229549,-1.5421741657,-1.0971091621,-9.6382894328,98
89878,184569,229586,-1.6713865861,-1.0157531937,-9.6622176588,99
89931,184595,229569,-1.7419748528,-0.9678967417,-9.5724868113,100
90003,184568,229600,-1.6510475939999998,-1.1820543644000001,-9.7902336679,101
90114,184597,229561,-1.6462619487999999,-1.0755737587,-9.7112705221,102
90244,184613,229605,-1.6426727149,-1.0336993632,-9.7196454012,103
90387,184637,229651,-1.6701901747999999,-1.1150553316,-9.5581298757,104
90556,184632,229635,-1.6235301341000001,-1.2107682356,-9.6538427797,105
90709,184685,229648,-1.567298803,-1.0971091621,-9.6945207639,106
90908,184715,229688,-1.6749758199999998,-1.0875378717,-9.7435736272,107
91048,184768,229705,-1.5840485612,-1.0241280728,-9.6622176588,108
91160,184731,229711,-1.5984054967999999,-1.1581261384000001,-9.5904329808,109
91336,184777,229683,-1.6558332392,-1.0241280728,-9.6813602396,110
91469,184769,229700,-1.5744772707999999,-1.0624132344,-9.8237331843,111
91427,184735,229664,-1.7180466268,-1.0444670649,-9.620343263299999,112
90945,184660,229609,-1.5661023917,-1.0803594039,-9.547362174,113
90146,184510,229498,-1.5649059803999998,-1.1808579531,-9.667003304,114
89520,184467,229483,-1.5565311013,-1.1964113,-9.667003304,115
89144,184373,229454,-1.5888342063999998,-1.1856435983,-9.667003304,116
89023,184344,229464,-1.6043875533,-1.1246266219999999,-9.6251289085,117
89029,184364,229452,-1.6881363443,-0.9858429111999999,-9.6000042712,118
89113,184357,229500,-1.5469598109,-1.1437692028,-9.6107719729,119
89288,184405,229468,-1.7551353771,-1.220339526,-9.7160561673,120
89420,184400,229523,-1.5134602944999997,-1.0013962581,-9.6478607232,121
89497,184436,229479,-1.6271193679999998,-1.0731809361,-9.6239324972,122
89551,184430,229491,-1.7551353771,-1.1581261384000001,-9.7531449176,123
89630,184395,229516,-1.5613167465000002,-1.172483074,-9.6490571345,124
89689,184470,229485,-1.5948162629,-1.0588240005,-9.6765745944,125
89781,184425,229493,-1.5696916256,-1.0731809361,-9.6717889492,126
89888,184444,229538,-1.5601203352,-1.1676974288,-9.7244310464,127
90067,184488,229552,-1.4895320685,-1.1533404932,-9.6155576181,128
90211,184476,229531,-1.6546368279,-1.1712866627,-9.8057870148,129
90375,184503,229519,-1.6366906583999998,-1.1820543644000001,-9.69093153,130
90514,184427,229630,-1.6749758199999998,-1.2287144051,-9.6777710057,131
90633,184569,229577,-1.4895320685,-1.0588240005,-9.6622176588,132
90781,184558,229509,-1.6510475939999998,-1.0109675485,-9.6382894328,133
90914,184552,229600,-1.6510475939999998,-1.1018948073,-9.7435736272,134
90899,184487,229569,-1.6319050132,-1.1569297271,-9.69093153,135
90378,184425,229503,-1.6307086019,-1.1748758966000001,-9.5581298757,136
89620,184288,229423,-1.519442351,-1.0671988796,-9.69093153,137
89018,184224,229343,-1.6127624323999998,-1.0480562988,-9.738787982,138
88698,184188,229312,-1.5840485612,-1.0205388389,-9.6478607232,139
88584,184135,229349,-1.6402798923,-1.0827522265,-9.69093153,140
88581,184207,229352,-1.698904046,-0.981057266,-9.7292166916,141
88735,184254,229344,-1.6845471104,-0.9870393224999999,-9.595218626,142
88939,184254,229415,-1.5984054967999999,-1.1808579531,-9.757930562799999,143
89082,184269,229388,-1.6235301341000001,-1.0097711372,-9.6526463684,144
89178,184249,229401,-1.5708880369,-1.1904292435000001,-9.6765745944,145
89233,184284,229376,-1.6905291669,-0.9439685157,-9.634700198900001,146
89304,184322,229436,-1.7599210223,-1.1246266219999999,-9.6717889492,147
89395,184289,229455,-1.6761722313,-1.148554848,-9.6813602396,148
89512,184264,229465,-1.579262916,-1.1952148887,-9.7052884656,149
89648,184327,229482,-1.5888342063999998,-1.0564311779,-9.667003304,150
89824,184371,229426,-1.6414763036,-0.9834500885999999,-9.6107719729,151
89982,184382,229430,-1.5326028753,-0.9726823869,-9.6586284249,152
90159,184446,229483,-1.6414763036,-1.004985492,-9.714859756,153
90320,184412,229511,-1.6749758199999998,-1.0624132344,-9.634700198900001,154
90482,184427,229479,-1.5601203352,-1.1820543644000001,-9.620343263299999,155
90641,184469,229509,-1.6606188843999998,-1.028913718,-9.6957171752,156
90754,184491,229509,-1.5230315848999998,-1.1198409768,-9.7052884656,157
90735,184449,229532,-1.5984054967999999,-1.1401799688999998,-9.633503787599999,158
90211,184333,229444,-1.5601203352,-1.0241280728,-9.5246303593,159
89491,184223,229357,-1.5984054967999999,-1.0109675485,-9.8010013696,160
88903,184191,229352,-1.6701901747999999,-1.0109675485,-9.6107719729,161
88636,184171,229333,-1.5613167465000002,-1.0863414604,-9.6526463684,162
88518,184118,229327,-1.4560325521,-0.9774680320999999,-9.767501853199999,163
88571,184167,229357,-1.6223337227999999,-1.0384850084,-9.687342296099999,164
88704,184198,229375,-1.5984054967999999,-1.1294122672,-9.7244310464,165
88878,184218,229333,-1.5948162629,-1.0109675485,-9.6622176588,166
89081,184228,229403,-1.6953148121,-0.9966106129000001,-9.762716208,167
89205,184249,229373,-1.5804593273,-1.1533404932,-9.6095755616,168
89303,184292,229429,-1.4799607781,-0.9403792818,-9.6574320136,169
89374,184282,229428,-1.7419748528,-1.0025926694,-9.6765745944,170
89482,184254,229378,-1.6462619487999999,-0.9343972253,-9.6861458848,171
89582,184320,229409,-1.6618152957,-0.9966106129000001,-9.762716208,172
89741,184340,229434,-1.5601203352,-1.028913718,-9.6861458848,173
89915,184368,229479,-1.5996019081000001,-1.1916256548,-9.6382894328,174
90097,184396,229466,-1.5708880369,-1.0157531937,-9.7531449176,175
90283,184405,229504,-1.4285150922,-1.1665010175000001,-9.7435736272,176
90452,184459,229488,-1.6271193679999998,-1.0911271056,-9.5916293921,177
90593,184478,229544,-1.4703894876999999,-1.0444670649,-9.7663054419,178
90763,184478,229503,-1.603191142,-0.9631110964999999,-9.6287181424,179
90870,184531,229567,-1.5984054967999999,-1.0432706536,-9.81057266,180
90904,184498,229509,-1.6378870697,-1.2251251712,-9.69093153,181
90467,184399,229435,-1.4895320685,-1.0013962581,-9.6239324972,182
89767,184285,229389,-1.6426727149,-1.0492527101,-9.6251289085,183
89183,184240,229404,-1.7216358607,-1.0157531937,-9.69093153,184
88886,184153,229377,-1.6689937635,-0.9439685157,-9.6861458848,185
88779,184205,229323,-1.7264215058999999,-1.1760723079,-9.757930562799999,186
88819,184211,229333,-1.6366906583999998,-0.9248259349,-9.6442714893,187
88934,184250,229415,-1.6833506991,-1.0109675485,-9.6622176588,188
89114,184283,229400,-1.6462619487999999,-1.0336993632,-9.6538427797,189
89308,184337,229443,-1.6043875533,-1.1006983959999999,-9.6622176588,190
89397,184332,229433,-1.7120645703,-1.0253244841,-9.5485585853,191
89514,184351,229453,-1.7036896912000001,-1.1629117836,-9.5437729401,192
89582,184372,229444,-1.5505490447999999,-1.0923235169,-9.643075077999999,193
89693,184365,229447,-1.5373885205000002,-1.052841944,-9.643075077999999,194
89791,184374,229482,-1.507478238,-1.0432706536,-9.786644434,195
89959,184420,229523,-1.5505490447999999,-1.0636096457,-9.6622176588,196
90107,184410,229521,-1.4991033588999998,-1.2622139215000001,-9.6717889492,197
90305,184426,229561,-1.5984054967999999,-1.1629117836,-9.6765745944,198
90436,184467,229529,-1.603191142,-1.1533404932,-9.6957171752,199
90621,184489,229530,-1.4703894876999999,-1.0301101293000001,-9.6634140701,200
90783,184480,229545,-1.579262916,-1.1054840412,-9.710074110799999,201
90922,184452,229533,-1.5242279962,-1.1581261384000001,-9.643075077999999,202
91051,184542,229534,-1.531406464,-1.0815558152,-9.700502820399999,203
91043,184534,229563,-1.5708880369,-1.1868400096,-9.714859756,204
90652,184409,229455,-1.5361921092,-1.1102696864,-9.5342016497,205
89961,184322,229399,-1.6797614652,-1.2526426310999998,-9.710074110799999,206
89384,184227,229388,-1.6498511827,-1.1006983959999999,-9.8057870148,207
89029,184197,229348,-1.6235301341000001,-1.1964113,-9.6765745944,208
88901,184187,229300,-1.6761722313,-1.2000005339,-9.633503787599999,209
88885,184188,229335,-1.507478238,-1.0013962581,-9.629914553699999,210
89001,184213,229380,-1.6043875533,-1.2143574695,-9.6813602396,211
89171,184262,229345,-1.6558332392,-1.1449656141,-9.667003304,212
89326,184259,229429,-1.6175480776,-1.0480562988,-9.732805925500001,213
89413,184235,229376,-1.4943177136999999,-1.0492527101,-9.667003304,214
89466,184265,229368,-1.5086746492999998,-1.0253244841,-9.7567341515,215
89520,184228,229423,-1.5038890041,-1.1246266219999999,-9.633503787599999,216
89603,184279,229378,-1.6845471104,-1.1138589203,-9.6478607232,217
89695,184224,229411,-1.6510475939999998,-0.9343972253,-9.7567341515,218
89842,184258,229429,-1.4620146086,-1.2753744458,-9.629914553699999,219
89974,184295,229415,-1.5888342063999998,-1.1581261384000001,-9.6765745944,220
90113,184362,229421,-1.5936198516,-1.0480562988,-9.5485585853,221
90298,184353,229455,-1.6462619487999999,-1.0731809361,-9.7435736272,222
90423,184384,229453,-1.5840485612,-1.0731809361,-9.7052884656,223
90556,184422,229445,-1.5242279962,-1.1246266219999999,-9.767501853199999,224
90684,184421,229457,-1.5517454561000001,-1.0301101293000001,-9.5007021333,225
90847,184466,229462,-1.6426727149,-1.028913718,-9.767501853199999,226
90860,184377,229462,-1.5373885205000002,-1.0301101293000001,-9.714859756,227
90554,184325,229427,-1.4895320685,-1.0899306943,-9.633503787599999,228
89870,184232,229339,-1.5565311013,-1.0253244841,-9.6861458848,229
89248,184123,229322,-1.6091731985,-1.1150553316,-9.762716208,230
88903,184158,229264,-1.698904046,-0.8829515394,-9.7435736272,231
88694,184110,229306,-1.5505490447999999,-1.1976077113,-9.7196454012,232
88647,184108,229274,-1.5984054967999999,-1.0013962581,-9.6251289085,233
88709,184108,229289,-1.6414763036,-1.052841944,-9.69093153,234
88887,184156,229307,-1.6366906583999998,-1.2669995667,-9.6526463684,235
89045,184195,229351,-1.6462619487999999,-1.0013962581,-9.667003304,236
89144,184168,229361,-1.6462619487999999,-1.1246266219999999,-9.7340023368,237
89222,184190,229365,-1.6797614652,-1.0875378717,-9.7052884656,238
89258,184251,229320,-1.722832272,-0.9056833541,-9.714859756,239
89345,184211,229345,-1.7694923127,-1.1018948073,-9.667003304,240
89455,184216,229359,-1.603191142,-1.1820543644000001,-9.7196454012,241
89592,184237,229362,-1.5038890041,-1.244267752,-9.7902336679,242
89743,184245,229383,-1.5361921092,-1.1629117836,-9.7531449176,243
89909,184283,229431,-1.6271193679999998,-1.0061819033000001,-9.6945207639,244
90057,184324,229427,-1.5996019081000001,-1.1294122672,-9.6526463684,245
90232,184372,229430,-1.6618152957,-1.0899306943,-9.710074110799999,246
90386,184370,229434,-1.6893327556000002,-1.0683952909,-9.6945207639,247
90567,184363,229471,-1.5804593273,-1.1772687192,-9.6239324972,248
90677,184420,229480,-1.5804593273,-1.052841944,-9.6586284249,249
90809,184402,229463,-1.6127624323999998,-1.0588240005,-9.6729853605,250
90736,184377,229437,-1.5421741657,-1.0923235169,-9.6012006825,251
90225,184297,229384,-1.5601203352,-1.0959127508,-9.6574320136,252
89518,184203,229303,-1.6366906583999998,-1.0959127508,-9.7435736272,253
89011,184146,229298,-1.6546368279,-1.0671988796,-9.6825566509,254
88719,184148,229276,-1.579262916,-1.0815558152,-9.6538427797,255
88585,184149,229288,-1.4297115034999999,-1.1533404932,-9.6382894328,256
88603,184159,229318,-1.6414763036,-1.0241280728,-9.710074110799999,257
88760,184197,229367,-1.579262916,-1.2526426310999998,-9.69093153,258
88932,184211,229353,-1.5948162629,-1.2000005339,-9.7340023368,259
89127,184239,229362,-1.7312071511,-1.1006983959999999,-9.6586284249,260
89224,184251,229328,-1.6319050132,-1.2346964616,-9.6239324972,261
89322,184267,229349,-1.5984054967999999,-1.172483074,-9.7292166916,262
89393,184286,229446,-1.7371892076000002,-1.1629117836,-9.6861458848,263
89499,184290,229378,-1.6187444889,-1.0157531937,-9.6012006825,264
89623,184312,229445,-1.8077774743,-1.07677017,-9.700502820399999,265
89806,184346,229460,-1.5170495284,-1.0444670649,-9.7196454012,266
89950,184366,229468,-1.6558332392,-1.1054840412,-9.7016992317,267
90142,184415,229464,-1.6223337227999999,-0.9343972253,-9.5916293921,268
90326,184465,229522,-1.5984054967999999,-1.1246266219999999,-9.767501853199999,269
90498,184455,229479,-1.7970097726,-1.0995019847,-9.629914553699999,270
90670,184511,229491,-1.6175480776,-1.0624132344,-9.7052884656,271
90823,184527,229498,-1.6510475939999998,-1.0959127508,-9.620343263299999,272
90987,184544,229571,-1.6414763036,-0.945164927,-9.6574320136,273
91148,184588,229566,-1.5469598109,-0.9248259349,-9.6717889492,274
91207,184601,229580,-1.5900306177,-1.1772687192,-9.6251289085,275
90889,184513,229544,-1.5613167465000002,-1.0576275892,-9.5724868113,276
90204,184453,229484,-1.6319050132,-0.9918249677,-9.643075077999999,277
89580,184377,229446,-1.6797614652,-1.1581261384000001,-9.7244310464,278
89208,184333,229402,-1.5361921092,-1.0959127508,-9.710074110799999,279
89036,184299,229421,-1.6127624323999998,-1.148554848,-9.6861458848,280
89024,184353,229396,-1.6414763036,-1.0205388389,-9.757930562799999,281
89120,184297,229411,-1.55533469,-1.0348957745,-9.714859756,282
89288,184374,229441,-1.5888342063999998,-1.1377871463,-9.7292166916,283
89473,184377,229463,-1.5326028753,-1.0899306943,-9.7770731436,284
89600,184396,229464,-1.6510475939999998,-0.9152546444999999,-9.6143612068,285
89703,184406,229489,-1.6414763036,-1.1772687192,-9.6586284249,286
89822,184434,229498,-1.6689937635,-1.1006983959999999,-9.6012006825,287
89875,184442,229481,-1.5361921092,-1.0444670649,-9.6574320136,288
89953,184471,229538,-1.6462619487999999,-1.1006983959999999,-9.7902336679,289
90071,184487,229502,-1.7599210223,-1.0384850084,-9.6382894328,290
90249,184509,229539,-1.5888342063999998,-1.0301101293000001,-9.6514499571,291
90408,184520,229571,-1.7850456596,-1.1437692028,-9.7052884656,292
90564,184500,229569,-1.6833506991,-1.2394821068,-9.643075077999999,293
90725,184536,229593,-1.6271193679999998,-1.1760723079,-9.7770731436,294
90882,184615,229630,-1.6426727149,-1.0492527101,-9.6813602396,295
91003,184577,229600,-1.6223337227999999,-1.0863414604,-9.634700198900001,296
91143,184606,229615,-1.6893327556000002,-0.9308079913999999,-9.629914553699999,297
91261,184602,229598,-1.567298803,-1.2107682356,-9.8045906035,298
91344,184619,229570,-1.722832272,-1.1246266219999999,-9.6717889492,299
91040,184488,229551,-1.5661023917,-1.0193424276,-9.69093153,300
90371,184434,229510,-1.6462619487999999,-1.1916256548,-9.7483592724,301
89768,184313,229396,-1.6797614652,-1.1341979124,-9.6969135865,302
89397,184325,229440,-1.5002997702,-1.1437692028,-9.69093153,303
89255,184325,229390,-1.579262916,-0.9738787981999999,-9.6861458848,304
89253,184299,229441,-1.6283157793,-1.0959127508,-9.6765745944,305
89362,184309,229430,-1.5505490447999999,-0.9822536772999999,-9.714859756,306
89556,184336,229465,-1.698904046,-0.9882357338,-9.6681997153,307
89726,184411,229402,-1.5661023917,-1.0001998468,-9.6957171752,308
89830,184384,229437,-1.6558332392,-1.0959127508,-9.767501853199999,309
89911,184404,229478,-1.6319050132,-1.0061819033000001,-9.619146852,310
89995,184402,229481,-1.6594224731,-1.1102696864,-9.710074110799999,311
90066,184421,229443,-1.7036896912000001,-1.0827522265,-9.714859756,312
90192,184398,229499,-1.5086746492999998,-1.0971091621,-9.6478607232,313
90367,184430,229490,-1.4572289634,-1.0576275892,-9.7435736272,314
90485,184454,229553,-1.6223337227999999,-1.07677017,-9.7519485063,315
90657,184474,229523,-1.7276179172000001,-1.0444670649,-9.667003304,316
90870,184512,229520,-1.6606188843999998,-1.2993026717999998,-9.6717889492,317
91016,184541,229505,-1.6043875533,-1.0540383553,-9.667003304,318
91174,184518,229580,-1.6689937635,-1.0301101293000001,-9.7160561673,319
91336,184552,229574,-1.5421741657,-1.0624132344,-9.6957171752,320
91510,184574,229583,-1.7324035624,-0.9631110964999999,-9.5389872949,321
91624,184619,229620,-1.6426727149,-1.1545369045,-9.6442714893,322
91671,184601,229623,-1.6139588437,-1.2622139215000001,-9.6813602396,323
91397,184511,229512,-1.6642081183,-1.1150553316,-9.6275217311,324
90751,184426,229473,-1.4895320685,-1.1437692028,-9.7340023368,325
90203,184356,229463,-1.5290136414,-1.1581261384000001,-9.7531449176,326
89910,184364,229433,-1.6462619487999999,-1.052841944,-9.6251289085,327
89824,184316,229416,-1.8029918290999998,-1.1102696864,-9.6622176588,328
89848,184374,229446,-1.6474583601,-1.1150553316,-9.7399843933,329
89977,184405,229477,-1.4751751328999998,-1.1246266219999999,-9.6478607232,330
90188,184481,229442,-1.5852449725,-1.07677017,-9.69093153,331
90378,184472,229493,-1.7168502155,-1.0576275892,-9.6813602396,332
90526,184502,229536,-1.6223337227999999,-1.1676974288,-9.6143612068,333
90640,184486,229493,-1.6366906583999998,-0.9499505722,-9.700502820399999,334
90722,184510,229543,-1.6223337227999999,-1.1676974288,-9.6969135865,335
90856,184517,229501,-1.5469598109,-1.0396814197,-9.667003304,336
90953,184520,229528,-1.6319050132,-0.9403792818,-9.714859756,337
91162,184547,229563,-1.4141581566,-1.1246266219999999,-9.6969135865,338
91345,184588,229580,-1.6175480776,-1.0384850084,-9.6813602396,339
91517,184606,229594,-1.6749758199999998,-1.0253244841,-9.7340023368,340
91710,184631,229554,-1.6187444889,-1.1198409768,-9.7435736272,341
91912,184672,229582,-1.5661023917,-1.0564311779,-9.629914553699999,342
92129,184686,229617,-1.7264215058999999,-1.0516455327,-9.7244310464,343
92290,184688,229624,-1.6462619487999999,-1.220339526,-9.762716208,344
92464,184758,229667,-1.6977076347,-1.0911271056,-9.6526463684,345
92657,184796,229677,-1.5218351736,-1.0971091621,-9.744770038499999,346
92768,184726,229694,-1.6654045296,-1.220339526,-9.6765745944,347
92569,184739,229615,-1.5720844482,-1.1102696864,-9.6622176588,348
92074,184675,229576,-1.603191142,-1.0588240005,-9.786644434,349
91547,184482,229581,-1.6366906583999998,-1.0863414604,-9.710074110799999,350
91256,184609,229521,-1.6558332392,-1.0863414604,-9.700502820399999,351
91168,184605,229541,-1.6271193679999998,-1.1054840412,-9.7292166916,352
91192,184599,229538,-1.6414763036,-0.9774680320999999,-9.6825566509,353
91331,184655,229606,-1.6749758199999998,-1.1521440819,-9.7040920543,354
91532,184668,229577,-1.5469598109,-1.0336993632,-9.7292166916,355
91733,184674,229625,-1.6319050132,-1.0719845248,-9.6969135865,356
91918,184703,229579,-1.5242279962,-0.9152546444999999,-9.6107719729,357
92016,184719,229590,-1.6331014245,-1.0875378717,-9.564111932200001,358
92123,184718,229651,-1.4273186809,-1.1425727915,-9.762716208,359
92219,184771,229636,-1.6462619487999999,-1.0911271056,-9.6622176588,360
92376,184809,229667,-1.5278172301,-1.0863414604,-9.667003304,361
92546,184789,229675,-1.6319050132,-1.0875378717,-9.6957171752,362
92714,184860,229669,-1.5708880369,-1.1294122672,-9.6526463684,363
92896,184858,229640,-1.5421741657,-1.1377871463,-9.6729853605,364
93096,184914,229730,-1.6941184008,-1.148554848,-9.700502820399999,365
93267,184911,229694,-1.6319050132,-1.0061819033000001,-9.6622176588,366
93465,184947,229708,-1.5457633996,-0.9774680320999999,-9.620343263299999,367
93616,184981,229710,-1.6139588437,-1.0863414604,-9.6969135865,368
93781,184986,229744,-1.6426727149,-1.1533404932,-9.6861458848,369
93981,184999,229733,-1.603191142,-1.0911271056,-9.7196454012,370
94146,184956,229790,-1.6235301341000001,-1.1521440819,-9.7052884656,371
94141,184987,229737,-1.5421741657,-1.016949605,-9.6012006825,372
93796,184926,229699,-1.5696916256,-0.9906285563999999,-9.6107719729,373
93274,184860,229688,-1.7982061838999999,-1.0863414604,-9.7064848769,374
92795,184848,229683,-1.5230315848999998,-1.0480562988,-9.6526463684,375
92548,184808,229687,-1.5708880369,-1.1569297271,-9.7052884656,376
92507,184843,229621,-1.7419748528,-1.2131610582,-9.629914553699999,377
92517,184864,229695,-1.698904046,-1.0157531937,-9.6681997153,378
92628,184872,229630,-1.5744772707999999,-1.0145567824000001,-9.6239324972,379
92792,184887,229677,-1.4811571894,-1.1114660977,-9.7244310464,380
92941,184908,229645,-1.4883356572,-1.1617153723,-9.710074110799999,381
93066,184943,229690,-1.5038890041,-1.0504491214,-9.710074110799999,382
93143,184949,229696,-1.6175480776,-1.0863414604,-9.634700198900001,383
93196,184943,229685,-1.6079767872,-1.0959127508,-9.629914553699999,384
93269,184997,229685,-1.5505490447999999,-1.0719845248,-9.7423772159,385
93362,184951,229692,-1.6331014245,-1.1150553316,-9.7052884656,386
93484,184963,229720,-1.4883356572,-1.0731809361,-9.738787982,387
93582,184975,229699,-1.6139588437,-0.9858429111999999,-9.762716208,388
93727,185012,229670,-1.6654045296,-1.1629117836,-9.6897351187,389
93889,184968,229745,-1.5134602944999997,-1.1856435983,-9.7962157244,390
94000,185004,229721,-1.6175480776,-1.0432706536,-9.7052884656,391
94141,185025,229671,-1.7264215058999999,-1.1246266219999999,-9.6717889492,392
94271,185024,229685,-1.603191142,-1.0995019847,-9.7292166916,393
94405,185030,229749,-1.7084753364,-1.0301101293000001,-9.5377908836,394
94540,185031,229720,-1.6594224731,-1.052841944,-9.6622176588,395
94608,185044,229705,-1.5326028753,-1.1676974288,-9.714859756,396
94322,184973,229695,-1.6271193679999998,-1.0911271056,-9.667003304,397
93765,184910,229562,-1.6510475939999998,-1.1437692028,-9.6634140701,398
93230,184863,229597,-1.6977076347,-1.1964113,-9.5784688678,399
92828,184830,229561,-1.6067803759000001,-1.1389835576,-9.6382894328,400
92677,184768,229588,-1.7312071511,-1.0588240005,-9.5772724565,401
92585,184814,229559,-1.5373885205000002,-0.9786644433999999,-9.738787982,402
92638,184817,229573,-1.5469598109,-1.1234302107,-9.7232346351,403
92723,184777,229533,-1.7407784414999998,-1.0336993632,-9.6825566509,404
92825,184864,229610,-1.6737794087,-1.0863414604,-9.6729853605,405
92862,184832,229571,-1.7276179172000001,-1.3004990831,-9.6000042712,406
92926,184803,229585,-1.5804593273,-1.0145567824000001,-9.7471628611,407
92922,184848,229597,-1.5601203352,-1.1665010175000001,-9.6538427797,408
92959,184826,229537,-1.5002997702,-1.0815558152,-9.6813602396,409
93010,184826,229549,-1.5996019081000001,-1.1808579531,-9.700502820399999,410
93106,184768,229593,-1.6941184008,-1.0480562988,-9.6861458848,411
93199,184878,229548,-1.4811571894,-1.2047861791,-9.7423772159,412
93262,184846,229571,-1.5517454561000001,-1.1294122672,-9.6059863277,413
93431,184896,229600,-1.531406464,-1.1760723079,-9.700502820399999,414
93520,184885,229556,-1.6235301341000001,-0.9631110964999999,-9.6107719729,415
93639,184878,229552,-1.5421741657,-1.0875378717,-9.7292166916,416
93753,184950,229567,-1.6079767872,-1.1964113,-9.6813602396,417
93835,184905,229617,-1.746760498,-0.9726823869,-9.6993064091,418
93963,184906,229530,-1.7407784414999998,-1.2059825904,-9.6825566509,419
93922,184887,229561,-1.4919248910999998,-1.1401799688999998,-9.5677011661,420
93508,184800,229527,-1.6438691261999998,-0.9714859755999999,-9.6239324972,421
92900,184753,229493,-1.6043875533,-0.9918249677,-9.69093153,422
92295,184711,229515,-1.7132609816000002,-1.0911271056,-9.620343263299999,423
91947,184665,229406,-1.5278172301,-1.0719845248,-9.6957171752,424
91769,184678,229453,-1.5278172301,-1.2143574695,-9.6813602396,425
91674,184677,229431,-1.531406464,-1.1246266219999999,-9.6729853605,426
91721,184677,229483,-1.5780665047,-1.1676974288,-9.6634140701,427
91797,184719,229472,-1.6366906583999998,-0.9942177902999999,-9.7160561673,428
91870,184709,229465,-1.6079767872,-1.0157531937,-9.6574320136,429
91895,184751,229438,-1.6127624323999998,-0.9966106129000001,-9.7196454012,430
91903,184718,229457,-1.5936198516,-1.1150553316,-9.667003304,431
91917,184733,229469,-1.6043875533,-0.9966106129000001,-9.5820581017,432
91941,184700,229470,-1.6175480776,-0.9966106129000001,-9.7483592724,433
92008,184675,229455,-1.6977076347,-1.052841944,-9.6239324972,434
92106,184767,229467,-1.6845471104,-1.1102696864,-9.5772724565,435
92205,184755,229460,-1.6319050132,-1.0803594039,-9.6813602396,436
92366,184787,229479,-1.6881363443,-1.1389835576,-9.710074110799999,437
92476,184831,229477,-1.5708880369,-1.0671988796,-9.738787982,438
92595,184816,229457,-1.5948162629,-0.9140582332,-9.620343263299999,439
92694,184834,229507,-1.6462619487999999,-1.0384850084,-9.667003304,440
92829,184846,229478,-1.5086746492999998,-1.1437692028,-9.6634140701,441
92935,184852,229473,-1.6271193679999998,-0.9954142015999999,-9.7244310464,442
93018,184862,229514,-1.7599210223,-1.1581261384000001,-9.6155576181,443
92888,184846,229471,-1.5278172301,-1.0624132344,-9.700502820399999,444
92292,184773,229402,-1.6522440053,-1.0444670649,-9.6107719729,445
91601,184670,229390,-1.6606188843999998,-1.1306086785,-9.8010013696,446
91082,184626,229378,-1.5409777544,-1.0121639598,-9.7016992317,447
90782,184612,229387,-1.5170495284,-1.0061819033000001,-9.7196454012,448
90650,184629,229349,-1.6845471104,-1.1545369045,-9.714859756,449
90601,184631,229385,-1.579262916,-0.9858429111999999,-9.5677011661,450
90682,184637,229357,-1.6510475939999998,-1.2430713407,-9.6107719729,451
90850,184667,229395,-1.7120645703,-1.0863414604,-9.6729853605,452
90940,184679,229408,-1.6319050132,-0.9822536772999999,-9.6382894328,453
90974,184682,229363,-1.5026925928000001,-1.2299108163999999,-9.6287181424,454
91014,184685,229391,-1.6462619487999999,-1.0444670649,-9.7722874984,455
91065,184717,229397,-1.5326028753,-1.1820543644000001,-9.6382894328,456
91098,184729,229398,-1.698904046,-1.0348957745,-9.6825566509,457
91234,184714,229399,-1.6606188843999998,-1.0719845248,-9.7208418125,458
91338,184739,229417,-1.5577275125999999,-1.1712866627,-9.7758767323,459
91433,184750,229414,-1.7419748528,-1.1198409768,-9.6765745944,460
91564,184765,229481,-1.7036896912000001,-1.2011969452,-9.667003304,461
91742,184794,229448,-1.6606188843999998,-1.1808579531,-9.7914300792,462
91861,184783,229416,-1.722832272,-1.1246266219999999,-9.6586284249,463
91989,184814,229429,-1.6737794087,-1.2191431147,-9.714859756,464
92129,184811,229493,-1.6977076347,-1.0911271056,-9.6957171752,465
92208,184834,229494,-1.6271193679999998,-1.1617153723,-9.7112705221,466
92294,184855,229452,-1.579262916,-1.0875378717,-9.6622176588,467
92008,184797,229392,-1.531406464,-0.9870393224999999,-9.643075077999999,468
91303,184708,229430,-1.7132609816000002,-1.0097711372,-9.643075077999999,469
90649,184640,229360,-1.7264215058999999,-1.2107682356,-9.7423772159,470
90243,184560,229359,-1.5984054967999999,-1.0719845248,-9.6287181424,471
90019,184588,229367,-1.4656038425,-1.0731809361,-9.643075077999999,472
89969,184616,229347,-1.5218351736,-1.0205388389,-9.6765745944,473
90064,184648,229366,-1.6510475939999998,-1.0588240005,-9.6490571345,474
90212,184649,229346,-1.5852449725,-1.2335000503,-9.6251289085,475
90365,184739,229416,-1.5888342063999998,-1.0336993632,-9.7435736272,476
90501,184645,229431,-1.6510475939999998,-1.0815558152,-9.6765745944,477
90543,184702,229441,-1.5984054967999999,-1.1964113,-9.7483592724,478
90612,184672,229424,-1.5996019081000001,-1.1449656141,-9.710074110799999,479
90677,184728,229445,-1.5996019081000001,-1.0121639598,-9.6813602396,480
90768,184701,229437,-1.6893327556000002,-1.1437692028,-9.562915520899999,481
90892,184726,229377,-1.6546368279,-1.0803594039,-9.7531449176,482
91053,184726,229419,-1.5948162629,-1.1042876299,-9.6765745944,483
91182,184762,229462,-1.6223337227999999,-1.0348957745,-9.700502820399999,484
91332,184740,229468,-1.7455640867,-1.0911271056,-9.7304131029,485
91493,184736,229443,-1.6749758199999998,-1.1916256548,-9.6478607232,486
91640,184795,229465,-1.6175480776,-1.2574282763000002,-9.6921279413,487
91758,184785,229483,-1.4368899712999998,-1.1964113,-9.5533442305,488
91918,184775,229415,-1.8113667082,-1.1306086785,-9.7244310464,489
92050,184857,229506,-1.5457633996,-1.0432706536,-9.6765745944,490
92060,184801,229451,-1.7563317884,-1.0336993632,-9.6107719729,491
91700,184740,229355,-1.6654045296,-1.1437692028,-9.6729853605,492
91013,184664,229356,-1.5708880369,-1.0624132344,-9.710074110799999,493
90472,184585,229351,-1.4895320685,-1.172483074,-9.6957171752,494
90179,184555,229308,-1.6319050132,-1.0492527101,-9.7531449176,495
90096,184547,229325,-1.6175480776,-1.1569297271,-9.6155576181,496
90100,184563,229322,-1.7132609816000002,-1.1341979124,-9.6622176588,497
90235,184616,229315,-1.746760498,-0.9008977089,-9.6382894328,498
90441,184595,229338,-1.5517454561000001,-1.1437692028,-9.6107719729,499
90626,184631,229352,-1.6271193679999998,-1.028913718,-9.7052884656,500
90753,184626,229357,-1.6462619487999999,-1.1808579531,-9.643075077999999,501
90811,184655,229331,-1.7084753364,-0.9774680320999999,-9.6813602396,502
90895,184632,229379,-1.6606188843999998,-0.9343972253,-9.576076045199999,503
90960,184663,229387,-1.7515461432000001,-1.1210373881,-9.6765745944,504
91116,184638,229382,-1.5517454561000001,-1.1341979124,-9.7112705221,505
91263,184682,229350,-1.6175480776,-1.1712866627,-9.7064848769,506
91402,184658,229410,-1.5517454561000001,-1.0480562988,-9.762716208,507
91594,184716,229433,-1.6055839645999999,-1.2622139215000001,-9.7196454012,508
91761,184695,229384,-1.7036896912000001,-1.0540383553,-9.6717889492,509
91938,184723,229392,-1.7694923127,-1.1389835576,-9.667003304,510
92092,184729,229430,-1.6749758199999998,-0.9343972253,-9.6095755616,511
92236,184745,229455,-1.6498511827,-1.064806057,-9.6574320136,512
92398,184765,229452,-1.6462619487999999,-0.9439685157,-9.786644434,513
92514,184785,229397,-1.6462619487999999,-1.0683952909,-9.757930562799999,514
92441,184753,229455,-1.5481562222,-1.2526426310999998,-9.7340023368,515
91951,184721,229382,-1.6319050132,-1.0683952909,-9.6239324972,516
91354,184615,229320,-1.7024932798999999,-0.9667003303999999,-9.786644434,517
90949,184566,229279,-1.6079767872,-1.0384850084,-9.620343263299999,518
90737,184562,229351,-1.6701901747999999,-1.1676974288,-9.5808616904,519
90731,184587,229360,-1.5661023917,-0.9391828704999999,-9.6442714893,520
90800,184561,229321,-1.6642081183,-1.1054840412,-9.5856473356,521
90983,184619,229315,-1.5888342063999998,-1.2011969452,-9.6813602396,522
91162,184650,229356,-1.7168502155,-1.0384850084,-9.7196454012,523
91308,184628,229370,-1.5924234403000002,-1.0995019847,-9.69093153,524
91424,184654,229353,-1.6175480776,-1.244267752,-9.714859756,525
91535,184656,229348,-1.6606188843999998,-1.0157531937,-9.629914553699999,526
91590,184669,229378,-1.6462619487999999,-1.1389835576,-9.69093153,527
91663,184736,229413,-1.7024932798999999,-1.0636096457,-9.633503787599999,528
91821,184713,229374,-1.4895320685,-1.0492527101,-9.714859756,529
91963,184755,229393,-1.7563317884,-1.052841944,-9.6538427797,530
92121,184762,229414,-1.5326028753,-1.1246266219999999,-9.6382894328,531
92324,184807,229407,-1.6271193679999998,-1.0253244841,-9.5401837062,532
92451,184798,229447,-1.5230315848999998,-1.1234302107,-9.6957171752,533
92608,184843,229436,-1.5744772707999999,-1.0971091621,-9.5868437469,534
92780,184842,229428,-1.6654045296,-1.0863414604,-9.6681997153,535
92944,184870,229480,-1.6079767872,-1.0600204118,-9.6993064091,536
93084,184868,229455,-1.5996019081000001,-1.0755737587,-9.7292166916,537
93207,184870,229468,-1.5708880369,-0.9834500885999999,-9.710074110799999,538
93126,184909,229413,-1.5230315848999998,-1.1629117836,-9.6813602396,539
92669,184792,229372,-1.5708880369,-0.9858429111999999,-9.6957171752,540
92086,184763,229358,-1.5661023917,-1.1162517428999998,-9.6634140701,541
91676,184687,229362,-1.4524433182,-0.9870393224999999,-9.6287181424,542
91489,184671,229366,-1.6163516663,-1.0109675485,-9.5916293921,543
91450,184714,229362,-1.5756736821000001,-1.2634103328,-9.634700198900001,544
91497,184764,229350,-1.6797614652,-0.9906285563999999,-9.6382894328,545
91617,184741,229393,-1.4620146086,-1.1437692028,-9.634700198900001,546
91788,184784,229409,-1.4895320685,-1.1102696864,-9.6765745944,547
91922,184804,229406,-1.6498511827,-0.9726823869,-9.620343263299999,548
92037,184828,229450,-1.7407784414999998,-1.1916256548,-9.7064848769,549
92135,184816,229466,-1.5984054967999999,-1.0253244841,-9.667003304,550
92225,184858,229427,-1.5326028753,-0.9619146851999999,-9.643075077999999,551
92320,184839,229406,-1.6510475939999998,-0.9822536772999999,-9.6622176588,552
92425,184842,229428,-1.6079767872,-1.0241280728,-9.6394858441,553
92575,184900,229487,-1.6366906583999998,-1.0576275892,-9.738787982,554
92739,184907,229432,-1.5804593273,-1.0624132344,-9.6287181424,555
92898,184907,229433,-1.722832272,-1.0719845248,-9.6681997153,556
93097,184953,229476,-1.5326028753,-1.0624132344,-9.7292166916,557
93249,185004,229478,-1.5421741657,-1.1569297271,-9.633503787599999,558
93392,185009,229500,-1.7180466268,-1.1018948073,-9.7483592724,559
93521,185001,229494,-1.6175480776,-1.3100703735,-9.7483592724,560
93673,185027,229532,-1.6929219895,-0.9403792818,-9.7196454012,561
93824,185010,229532,-1.5756736821000001,-1.1006983959999999,-9.7208418125,562
93834,185021,229483,-1.7934205387,-1.1964113,-9.6861458848,563
93538,184963,229510,-1.5756736821000001,-1.0241280728,-9.633503787599999,564
92959,184912,229426,-1.4656038425,-1.0492527101,-9.7016992317,565
92433,184893,229407,-1.5708880369,-1.0061819033000001,-9.714859756,566
92112,184837,229415,-1.5409777544,-1.0815558152,-9.7040920543,567
91964,184845,229436,-1.722832272,-1.052841944,-9.714859756,568
91935,184817,229420,-1.6797614652,-1.0145567824000001,-9.8057870148,569
91993,184893,229372,-1.5996019081000001,-1.1389835576,-9.6107719729,570
92146,184928,229376,-1.603191142,-1.0588240005,-9.6681997153,571
92283,184887,229389,-1.6354942471,-1.0480562988,-9.6957171752,572
92385,184924,229403,-1.6127624323999998,-1.1676974288,-9.6574320136,573
92418,184883,229430,-1.6127624323999998,-1.1676974288,-9.6574320136,574
92426,184856,229420,-1.6127624323999998,-1.1676974288,-9.6574320136,575
92498,184866,229444,-1.6127624323999998,-1.1676974288,-9.6574320136,576
92596,184853,229435,-1.6127624323999998,-1.1676974288,-9.6574320136,577
92662,184905,229440,-1.6127624323999998,-1.1676974288,-9.6574320136,578
92803,184898,229439,-1.6127624323999998,-1.1676974288,-9.6574320136,579
92921,184901,229429,-1.6127624323999998,-1.1676974288,-9.6574320136,580
93063,184887,229413,-1.6127624323999998,-1.1676974288,-9.6574320136,581
93206,184950,229415,-1.6127624323999998,-1.1676974288,-9.6574320136,582
93329,184944,229431,-1.6127624323999998,-1.1676974288,-9.6574320136,583
93461,184934,229414,-1.6127624323999998,-1.1676974288,-9.6574320136,584
93553,184936,229455,-1.6127624323999998,-1.1676974288,-9.6574320136,585
93659,184983,229439,-1.6127624323999998,-1.1676974288,-9.6574320136,586
93726,184948,229393,-1.6127624323999998,-1.1676974288,-9.6574320136,587
93488,184904,229376,-1.6127624323999998,-1.1676974288,-9.6574320136,588
92898,184805,229306,-1.6127624323999998,-1.1676974288,-9.6574320136,589
92314,184809,229259,-1.6127624323999998,-1.1676974288,-9.6574320136,590
91924,184758,229284,-1.6127624323999998,-1.1676974288,-9.6574320136,591
91722,184725,229294,-1.6127624323999998,-1.1676974288,-9.6574320136,592
91657,184722,229272,-1.6127624323999998,-1.1676974288,-9.6574320136,593
91656,184743,229250,-1.6127624323999998,-1.1676974288,-9.6574320136,594
91772,184735,229329,-1.6127624323999998,-1.1676974288,-9.6574320136,595
91882,184722,229257,-1.6127624323999998,-1.1676974288,-9.6574320136,596
91940,184731,229277,-1.6127624323999998,-1.1676974288,-9.6574320136,597
91969,184749,229273,-1.6127624323999998,-1.1676974288,-9.6574320136,598
91992,184713,229294,-1.6127624323999998,-1.1676974288,-9.6574320136,599
92040,184792,229269,-1.6127624323999998,-1.1676974288,-9.6574320136,600
92089,184744,229286,-1.6127624323999998,-1.1676974288,-9.6574320136,601
92185,184764,229280,-1.6127624323999998,-1.1676974288,-9.6574320136,602
92288,184774,229306,-1.6127624323999998,-1.1676974288,-9.6574320136,603
92415,184767,229301,-1.5278172301,-1.052841944,-9.6729853605,604
92546,184816,229294,-1.5278172301,-1.052841944,-9.6729853605,605
92667,184789,229309,-1.5278172301,-1.052841944,-9.6729853605,606
92767,184825,229303,-1.5278172301,-1.052841944,-9.6729853605,607
92890,184843,229323,-1.5278172301,-1.052841944,-9.6729853605,608
92984,184835,229308,-1.5278172301,-1.052841944,-9.6729853605,609
93112,184841,229281,-1.5278172301,-1.052841944,-9.6729853605,610
93096,184848,229244,-1.5278172301,-1.052841944,-9.6729853605,611
92700,184783,229295,-1.5278172301,-1.052841944,-9.6729853605,612
92031,184662,229206,-1.5278172301,-1.052841944,-9.6729853605,613
91454,184643,229270,-1.5278172301,-1.052841944,-9.6729853605,614
91117,184611,229215,-1.5278172301,-1.052841944,-9.6729853605,615
90949,184632,229190,-1.5278172301,-1.052841944,-9.6729853605,616
90868,184601,229190,-1.5278172301,-1.052841944,-9.6729853605,617
90924,184647,229205,-1.5278172301,-1.052841944,-9.6729853605,618
91071,184626,229230,-1.5278172301,-1.052841944,-9.6729853605,619
91205,184666,229185,-1.5278172301,-1.052841944,-9.6729853605,620
91288,184706,229223,-1.5278172301,-1.052841944,-9.6729853605,621
91312,184669,229213,-1.5278172301,-1.052841944,-9.6729853605,622
91361,184683,229233,-1.5278172301,-1.052841944,-9.6729853605,623
91408,184673,229201,-1.5278172301,-1.052841944,-9.6729853605,624
91507,184700,229220,-1.5278172301,-1.052841944,-9.6729853605,625
91615,184725,229249,-1.5278172301,-1.052841944,-9.6729853605,626
91753,184751,229268,-1.5278172301,-1.052841944,-9.6729853605,627
91896,184770,229273,-1.5278172301,-1.052841944,-9.6729853605,628
92033,184763,229292,-1.5278172301,-1.052841944,-9.6729853605,629
92199,184797,229282,-1.5278172301,-1.052841944,-9.6729853605,630
92317,184835,229310,-1.5278172301,-1.052841944,-9.6729853605,631
92445,184848,229289,-1.5278172301,-1.052841944,-9.6729853605,632
92585,184849,229345,-1.5278172301,-1.052841944,-9.6729853605,633
92711,184871,229318,-1.5278172301,-1.052841944,-9.6729853605,634
92692,184842,229288,-1.5278172301,-1.052841944,-9.6729853605,635
92222,184777,229288,-1.5278172301,-1.052841944,-9.6729853605,636
91535,184686,229200,-1.5278172301,-1.052841944,-9.6729853605,637
90960,184705,229189,-1.5278172301,-1.052841944,-9.6729853605,638
90664,184639,229202,-1.5278172301,-1.052841944,-9.6729853605,639
90542,184671,229206,-1.5278172301,-1.052841944,-9.6729853605,640
90516,184633,229239,-1.5278172301,-1.052841944,-9.6729853605,641
90636,184717,229270,-1.5278172301,-1.052841944,-9.6729853605,642
90785,184683,229194,-1.5278172301,-1.052841944,-9.6729853605,643
90950,184697,229196,-1.5601203352,-0.9822536772999999,-9.7435736272,644
91055,184714,229247,-1.5601203352,-0.9822536772999999,-9.7435736272,645
91116,184782,229303,-1.5601203352,-0.9822536772999999,-9.7435736272,646
91176,184774,229333,-1.5601203352,-0.9822536772999999,-9.7435736272,647
91264,184728,229314,-1.5601203352,-0.9822536772999999,-9.7435736272,648
91374,184766,229313,-1.5601203352,-0.9822536772999999,-9.7435736272,649
91521,184809,229320,-1.5601203352,-0.9822536772999999,-9.7435736272,650
91663,184829,229338,-1.5601203352,-0.9822536772999999,-9.7435736272,651
91821,184865,229368,-1.5601203352,-0.9822536772999999,-9.7435736272,652
91990,184849,229378,-1.5601203352,-0.9822536772999999,-9.7435736272,653
92129,184893,229393,-1.5601203352,-0.9822536772999999,-9.7435736272,654
92300,184920,229380,-1.5601203352,-0.9822536772999999,-9.7435736272,655
92418,184909,229375,-1.5601203352,-0.9822536772999999,-9.7435736272,656
92567,184933,229401,-1.5601203352,-0.9822536772999999,-9.7435736272,657
92712,184975,229438,-1.5601203352,-0.9822536772999999,-9.7435736272,658
92635,184909,229395,-1.5601203352,-0.9822536772999999,-9.7435736272,659
92138,184878,229297,-1.5601203352,-0.9822536772999999,-9.7435736272,660
91447,184765,229299,-1.5601203352,-0.9822536772999999,-9.7435736272,661
90904,184724,229304,-1.5601203352,-0.9822536772999999,-9.7435736272,662
90609,184707,229238,-1.5601203352,-0.9822536772999999,-9.7435736272,663
90544,184730,229235,-1.5601203352,-0.9822536772999999,-9.7435736272,664
90571,184706,229278,-1.5601203352,-0.9822536772999999,-9.7435736272,665
90694,184726,229300,-1.5601203352,-0.9822536772999999,-9.7435736272,666
90907,184752,229278,-1.5601203352,-0.9822536772999999,-9.7435736272,667
91039,184769,229340,-1.5601203352,-0.9822536772999999,-9.7435736272,668
91128,184773,229375,-1.5601203352,-0.9822536772999999,-9.7435736272,669
91157,184768,229294,-1.6271193679999998,-1.1389835576,-9.6251289085,670
91215,184782,229360,-1.6271193679999998,-1.1389835576,-9.6251289085,671
91278,184750,229376,-1.6271193679999998,-1.1389835576,-9.6251289085,672
91390,184786,229328,-1.6271193679999998,-1.1389835576,-9.6251289085,673
91498,184759,229357,-1.6271193679999998,-1.1389835576,-9.6251289085,674
91644,184795,229366,-1.6271193679999998,-1.1389835576,-9.6251289085,675
91740,184796,229311,-1.6271193679999998,-1.1389835576,-9.6251289085,676
91901,184805,229349,-1.6271193679999998,-1.1389835576,-9.6251289085,677
92051,184833,229394,-1.6271193679999998,-1.1389835576,-9.6251289085,678
92171,184860,229373,-1.6271193679999998,-1.1389835576,-9.6251289085,679
92308,184839,229367,-1.6271193679999998,-1.1389835576,-9.6251289085,680
92418,184853,229374,-1.6271193679999998,-1.1389835576,-9.6251289085,681
92516,184840,229345,-1.6271193679999998,-1.1389835576,-9.6251289085,682
92351,184820,229387,-1.6271193679999998,-1.1389835576,-9.6251289085,683
91790,184729,229268,-1.6271193679999998,-1.1389835576,-9.6251289085,684
91070,184671,229305,-1.6271193679999998,-1.1389835576,-9.6251289085,685
90606,184594,229222,-1.6271193679999998,-1.1389835576,-9.6251289085,686
90369,184582,229206,-1.6271193679999998,-1.1389835576,-9.6251289085,687
90286,184581,229221,-1.6271193679999998,-1.1389835576,-9.6251289085,688
90331,184568,229256,-1.6271193679999998,-1.1389835576,-9.6251289085,689
90461,184614,229241,-1.6271193679999998,-1.1389835576,-9.6251289085,690
90645,184611,229267,-1.6271193679999998,-1.1389835576,-9.6251289085,691
90776,184617,229250,-1.6271193679999998,-1.1389835576,-9.6251289085,692
90864,184619,229269,-1.6271193679999998,-1.1389835576,-9.6251289085,693
90888,184608,229298,-1.6271193679999998,-1.1389835576,-9.6251289085,694
90951,184641,229265,-1.6271193679999998,-1.1389835576,-9.6251289085,695
91005,184582,229330,-1.6271193679999998,-1.1389835576,-9.6251289085,696
91112,184633,229279,-1.6271193679999998,-1.1389835576,-9.6251289085,697
91240,184638,229308,-1.6271193679999998,-1.1389835576,-9.6251289085,698
91396,184679,229286,-1.6271193679999998,-1.1389835576,-9.6251289085,699
91523,184715,229320,-1.6271193679999998,-1.1389835576,-9.6251289085,700
91647,184717,229336,-1.6271193679999998,-1.1389835576,-9.6251289085,701
91802,184730,229302,-1.6271193679999998,-1.1389835576,-9.6251289085,702
91942,184729,229350,-1.5744772707999999,-0.9822536772999999,-9.6861458848,703
92066,184745,229342,-1.5744772707999999,-0.9822536772999999,-9.6861458848,704
92180,184772,229338,-1.5744772707999999,-0.9822536772999999,-9.6861458848,705
92174,184782,229346,-1.5744772707999999,-0.9822536772999999,-9.6861458848,706
91737,184651,229303,-1.5744772707999999,-0.9822536772999999,-9.6861458848,707
91001,184593,229256,-1.5744772707999999,-0.9822536772999999,-9.6861458848,708
90448,184521,229280,-1.5744772707999999,-0.9822536772999999,-9.6861458848,709
90098,184519,229194,-1.5744772707999999,-0.9822536772999999,-9.6861458848,710
89989,184521,229198,-1.5744772707999999,-0.9822536772999999,-9.6861458848,711
89981,184494,229189,-1.5744772707999999,-0.9822536772999999,-9.6861458848,712
90062,184560,229256,-1.5744772707999999,-0.9822536772999999,-9.6861458848,713
90267,184558,229262,-1.5744772707999999,-0.9822536772999999,-9.6861458848,714
90398,184582,229287,-1.5744772707999999,-0.9822536772999999,-9.6861458848,715
90522,184601,229270,-1.5744772707999999,-0.9822536772999999,-9.6861458848,716
90571,184612,229307,-1.5756736821000001,-1.0707881135,-9.633503787599999,717
90633,184610,229317,-1.5756736821000001,-1.0707881135,-9.633503787599999,718
90707,184649,229316,-1.7036896912000001,-1.0241280728,-9.576076045199999,719
90822,184626,229348,-1.5230315848999998,-1.0301101293000001,-9.69093153,720
90959,184668,229303,-1.5996019081000001,-1.0779665813,-9.6442714893,721
91104,184679,229303,-1.6127624323999998,-1.1150553316,-9.619146852,722
91280,184698,229391,-1.7276179172000001,-1.0384850084,-9.6849494735,723
91460,184730,229352,-1.5996019081000001,-1.1389835576,-9.6526463684,724
91637,184697,229387,-1.6271193679999998,-0.9918249677,-9.738787982,725
91795,184783,229376,-1.5302100526999998,-1.0671988796,-9.69093153,726
91933,184814,229383,-1.6893327556000002,-1.0683952909,-9.6921279413,727
92091,184808,229420,-1.6893327556000002,-1.0683952909,-9.6921279413,728
92210,184814,229475,-1.6893327556000002,-1.0683952909,-9.6921279413,729
92103,184774,229375,-1.579262916,-1.052841944,-9.6478607232,730
91498,184679,229316,-1.5517454561000001,-1.1341979124,-9.7232346351,731
90750,184632,229316,-1.746760498,-1.1868400096,-9.7292166916,732
90267,184601,229277,-1.6606188843999998,-1.1569297271,-9.7244310464,733
90040,184577,229268,-1.5684952143000002,-1.148554848,-9.6574320136,734
89997,184560,229287,-1.6941184008,-0.9870393224999999,-9.714859756,735
90057,184590,229352,-1.7168502155,-1.1198409768,-9.6478607232,736
90233,184614,229315,-1.6558332392,-1.1246266219999999,-9.5916293921,737
90437,184662,229365,-1.7778671918,-1.1533404932,-9.6418786667,738
90600,184705,229352,-1.7778671918,-1.1533404932,-9.6418786667,739
90701,184703,229350,-1.7778671918,-1.1533404932,-9.6418786667,740
90765,184679,229382,-1.7778671918,-1.1533404932,-9.6418786667,741
90826,184724,229392,-1.7778671918,-1.1533404932,-9.6418786667,742
90901,184726,229398,-1.7778671918,-1.1533404932,-9.6418786667,743
91039,184770,229416,-1.7778671918,-1.1533404932,-9.6418786667,744
91155,184755,229401,-1.7778671918,-1.1533404932,-9.6418786667,745
91351,184812,229476,-1.7778671918,-1.1533404932,-9.6418786667,746
91525,184830,229457,-1.7778671918,-1.1533404932,-9.6418786667,747
91685,184833,229490,-1.7778671918,-1.1533404932,-9.6418786667,748
91847,184856,229474,-1.7778671918,-1.1533404932,-9.6418786667,749
92024,184859,229519,-1.7778671918,-1.1533404932,-9.6418786667,750
92158,184900,229496,-1.7778671918,-1.1533404932,-9.6418786667,751
92315,184911,229538,-1.7778671918,-1.1533404932,-9.6418786667,752
92319,184899,229447,-1.7778671918,-1.1533404932,-9.6418786667,753
91906,184833,229419,-1.7778671918,-1.1533404932,-9.6418786667,754
91171,184728,229414,-1.7778671918,-1.1533404932,-9.6418786667,755
90551,184664,229379,-1.7778671918,-1.1533404932,-9.6418786667,756
90191,184614,229351,-1.7778671918,-1.1533404932,-9.6418786667,757
90042,184597,229332,-1.7778671918,-1.1533404932,-9.6418786667,758
90071,184610,229347,-1.7778671918,-1.1533404932,-9.6418786667,759
90194,184637,229390,-1.7778671918,-1.1533404932,-9.6418786667,760
90382,184672,229371,-1.7778671918,-1.1533404932,-9.6418786667,761
90563,184660,229396,-1.7778671918,-1.1533404932,-9.6418786667,762
90636,184649,229389,-1.7778671918,-1.1533404932,-9.6418786667,763
90704,184652,229344,-1.7778671918,-1.1533404932,-9.6418786667,764
90734,184659,229412,-1.7778671918,-1.1533404932,-9.6418786667,765
90822,184627,229357,-1.7778671918,-1.1533404932,-9.6418786667,766
90921,184673,229395,-1.7778671918,-1.1533404932,-9.6418786667,767
91062,184675,229414,-1.7778671918,-1.1533404932,-9.6418786667,768
91192,184690,229398,-1.5409777544,-1.1916256548,-9.6765745944,769
91349,184717,229435,-1.5409777544,-1.1916256548,-9.6765745944,770
91527,184725,229402,-1.5409777544,-1.1916256548,-9.6765745944,771
91629,184746,229456,-1.5409777544,-1.1916256548,-9.6765745944,772
91800,184732,229432,-1.5409777544,-1.1916256548,-9.6765745944,773
91912,184765,229430,-1.5409777544,-1.1916256548,-9.6765745944,774
92065,184754,229471,-1.5409777544,-1.1916256548,-9.6765745944,775
92127,184744,229455,-1.5409777544,-1.1916256548,-9.6765745944,776
91831,184680,229447,-1.5409777544,-1.1916256548,-9.6765745944,777
91126,184575,229373,-1.5409777544,-1.1916256548,-9.6765745944,778
90482,184498,229311,-1.5409777544,-1.1916256548,-9.6765745944,779
90076,184451,229300,-1.5409777544,-1.1916256548,-9.6765745944,780
89925,184469,229314,-1.5409777544,-1.1916256548,-9.6765745944,781
89897,184449,229305,-1.5409777544,-1.1916256548,-9.6765745944,782
89983,184462,229287,-1.5409777544,-1.1916256548,-9.6765745944,783
90141,184498,229300,-1.5409777544,-1.1916256548,-9.6765745944,784
90330,184523,229313,-1.5409777544,-1.1916256548,-9.6765745944,785
90434,184528,229377,-1.5409777544,-1.1916256548,-9.6765745944,786
90513,184535,229304,-1.5409777544,-1.1916256548,-9.6765745944,787
90543,184494,229363,-1.5409777544,-1.1916256548,-9.6765745944,788
90601,184530,229377,-1.5409777544,-1.1916256548,-9.6765745944,789
90689,184527,229389,-1.5409777544,-1.1916256548,-9.6765745944,790
90828,184530,229380,-1.5409777544,-1.1916256548,-9.6765745944,791
90968,184562,229350,-1.5409777544,-1.1916256548,-9.6765745944,792
91153,184580,229394,-1.5409777544,-1.1916256548,-9.6765745944,793
91304,184620,229396,-1.5409777544,-1.1916256548,-9.6765745944,794
91457,184624,229398,-1.5409777544,-1.1916256548,-9.6765745944,795
91628,184666,229453,-1.6546368279,-0.9774680320999999,-9.714859756,796
91767,184662,229424,-1.6546368279,-0.9774680320999999,-9.714859756,797
91927,184732,229434,-1.6546368279,-0.9774680320999999,-9.714859756,798
91970,184704,229430,-1.6546368279,-0.9774680320999999,-9.714859756,799
91663,184606,229441,-1.6546368279,-0.9774680320999999,-9.714859756,800
90944,184502,229348,-1.6546368279,-0.9774680320999999,-9.714859756,801
90290,184413,229307,-1.6546368279,-0.9774680320999999,-9.714859756,802
89886,184401,229279,-1.6546368279,-0.9774680320999999,-9.714859756,803
89708,184393,229277,-1.6546368279,-0.9774680320999999,-9.714859756,804
89701,184397,229283,-1.6546368279,-0.9774680320999999,-9.714859756,805
89800,184398,229293,-1.6546368279,-0.9774680320999999,-9.714859756,806
90009,184424,229280,-1.6546368279,-0.9774680320999999,-9.714859756,807
90193,184495,229386,-1.6546368279,-0.9774680320999999,-9.714859756,808
90323,184502,229378,-1.6546368279,-0.9774680320999999,-9.714859756,809
90428,184474,229356,-1.6546368279,-0.9774680320999999,-9.714859756,810
90474,184514,229374,-1.6546368279,-0.9774680320999999,-9.714859756,811
90539,184541,229362,-1.6546368279,-0.9774680320999999,-9.714859756,812
90678,184546,229429,-1.6546368279,-0.9774680320999999,-9.714859756,813
90785,184575,229344,-1.6546368279,-0.9774680320999999,-9.714859756,814
90965,184569,229401,-1.6546368279,-0.9774680320999999,-9.714859756,815
91143,184611,229437,-1.6546368279,-0.9774680320999999,-9.714859756,816
91281,184650,229467,-1.6546368279,-0.9774680320999999,-9.714859756,817
91470,184649,229462,-1.6546368279,-0.9774680320999999,-9.714859756,818
91649,184656,229475,-1.6546368279,-0.9774680320999999,-9.714859756,819
91786,184672,229500,-1.6546368279,-0.9774680320999999,-9.714859756,820
91952,184741,229489,-1.6546368279,-0.9774680320999999,-9.714859756,821
92035,184722,229467,-1.6546368279,-0.9774680320999999,-9.714859756,822
91695,184664,229404,-1.6546368279,-0.9774680320999999,-9.714859756,823
90943,184542,229383,-1.6546368279,-0.9774680320999999,-9.714859756,824
90306,184466,229375,-1.6546368279,-0.9774680320999999,-9.714859756,825
89900,184415,229307,-1.6546368279,-0.9774680320999999,-9.714859756,826
89740,184403,229352,-1.6546368279,-0.9774680320999999,-9.714859756,827
89740,184469,229343,-1.6546368279,-0.9774680320999999,-9.714859756,828
89830,184503,229336,-1.7216358607,-1.1760723079,-9.728020280299999,829
90059,184481,229381,-1.7216358607,-1.1760723079,-9.728020280299999,830
90247,184541,229412,-1.7216358607,-1.1760723079,-9.728020280299999,831
90394,184536,229399,-1.7216358607,-1.1760723079,-9.728020280299999,832
90458,184557,229438,-1.7216358607,-1.1760723079,-9.728020280299999,833
90551,184545,229432,-1.7216358607,-1.1760723079,-9.728020280299999,834
90607,184593,229456,-1.7216358607,-1.1760723079,-9.728020280299999,835
90719,184589,229445,-1.7216358607,-1.1760723079,-9.728020280299999,836
90855,184632,229454,-1.7216358607,-1.1760723079,-9.728020280299999,837
91009,184622,229493,-1.7216358607,-1.1760723079,-9.728020280299999,838
91184,184619,229479,-1.7216358607,-1.1760723079,-9.728020280299999,839
91329,184629,229496,-1.7216358607,-1.1760723079,-9.728020280299999,840
91505,184703,229473,-1.7216358607,-1.1760723079,-9.728020280299999,841
91647,184696,229472,-1.7216358607,-1.1760723079,-9.728020280299999,842
91784,184651,229535,-1.7216358607,-1.1760723079,-9.728020280299999,843
91923,184726,229558,-1.7216358607,-1.1760723079,-9.728020280299999,844
91933,184717,229493,-1.7216358607,-1.1760723079,-9.728020280299999,845
91522,184579,229461,-1.7216358607,-1.1760723079,-9.728020280299999,846
90769,184510,229361,-1.7216358607,-1.1760723079,-9.728020280299999,847
90103,184413,229341,-1.7216358607,-1.1760723079,-9.728020280299999,848
89755,184354,229363,-1.7216358607,-1.1760723079,-9.728020280299999,849
89597,184313,229317,-1.7216358607,-1.1760723079,-9.728020280299999,850
89572,184330,229310,-1.7216358607,-1.1760723079,-9.728020280299999,851
89710,184363,229326,-1.7216358607,-1.1760723079,-9.728020280299999,852
89873,184380,229351,-1.7216358607,-1.1760723079,-9.728020280299999,853
90055,184372,229354,-1.7216358607,-1.1760723079,-9.728020280299999,854
90193,184408,229357,-1.7216358607,-1.1760723079,-9.728020280299999,855
90223,184408,229325,-1.7216358607,-1.1760723079,-9.728020280299999,856
90292,184410,229327,-1.7216358607,-1.1760723079,-9.728020280299999,857
90362,184405,229342,-1.7216358607,-1.1760723079,-9.728020280299999,858
90450,184424,229404,-1.7216358607,-1.1760723079,-9.728020280299999,859
90578,184425,229357,-1.7216358607,-1.1760723079,-9.728020280299999,860
90726,184402,229397,-1.7216358607,-1.1760723079,-9.728020280299999,861
90881,184408,229414,-1.6127624323999998,-1.064806057,-9.576076045199999,862
91030,184487,229367,-1.6127624323999998,-1.064806057,-9.576076045199999,863
91198,184483,229421,-1.6127624323999998,-1.064806057,-9.576076045199999,864
91312,184513,229431,-1.6127624323999998,-1.064806057,-9.576076045199999,865
91477,184514,229423,-1.6127624323999998,-1.064806057,-9.576076045199999,866
91587,184518,229425,-1.6127624323999998,-1.064806057,-9.576076045199999,867
91437,184493,229413,-1.6127624323999998,-1.064806057,-9.576076045199999,868
90783,184390,229337,-1.6127624323999998,-1.064806057,-9.576076045199999,869
90069,184260,229291,-1.6127624323999998,-1.064806057,-9.576076045199999,870
89557,184213,229259,-1.6127624323999998,-1.064806057,-9.576076045199999,871
89347,184207,229216,-1.6127624323999998,-1.064806057,-9.576076045199999,872
89262,184182,229224,-1.6127624323999998,-1.064806057,-9.576076045199999,873
89329,184158,229245,-1.6127624323999998,-1.064806057,-9.576076045199999,874
89492,184201,229294,-1.6127624323999998,-1.064806057,-9.576076045199999,875
89677,184278,229293,-1.6127624323999998,-1.064806057,-9.576076045199999,876
89856,184274,229341,-1.6127624323999998,-1.064806057,-9.576076045199999,877
89960,184308,229278,-1.6127624323999998,-1.064806057,-9.576076045199999,878
90005,184283,229291,-1.6127624323999998,-1.064806057,-9.576076045199999,879
90055,184289,229335,-1.6127624323999998,-1.064806057,-9.576076045199999,880
90126,184306,229308,-1.6127624323999998,-1.064806057,-9.576076045199999,881
90267,184357,229323,-1.6127624323999998,-1.064806057,-9.576076045199999,882
90395,184342,229325,-1.6127624323999998,-1.064806057,-9.576076045199999,883
90589,184368,229372,-1.6127624323999998,-1.064806057,-9.576076045199999,884
90758,184396,229310,-1.6127624323999998,-1.064806057,-9.576076045199999,885
90935,184425,229391,-1.6127624323999998,-1.064806057,-9.576076045199999,886
91077,184446,229422,-1.6127624323999998,-1.064806057,-9.576076045199999,887
91223,184476,229414,-1.7850456596,-1.148554848,-9.714859756,888
91403,184468,229439,-1.7850456596,-1.148554848,-9.714859756,889
91473,184527,229438,-1.7850456596,-1.148554848,-9.714859756,890
91175,184418,229412,-1.7850456596,-1.148554848,-9.714859756,891
90451,184339,229321,-1.7850456596,-1.148554848,-9.714859756,892
89788,184252,229271,-1.5134602944999997,-1.1198409768,-9.710074110799999,893
89421,184173,229231,-1.6402798923,-0.9966106129000001,-9.6586284249,894
89229,184205,229257,-1.6654045296,-1.1760723079,-9.619146852,895
89207,184184,229267,-1.6558332392,-0.9726823869,-9.738787982,896
89318,184230,229265,-1.5230315848999998,-0.9966106129000001,-9.619146852,897
89525,184292,229270,-1.7850456596,-1.1198409768,-9.7088776995,898
89716,184255,229317,-1.6558332392,-1.1114660977,-9.7052884656,899
89878,184321,229330,-1.603191142,-1.2813565023,-9.5246303593,900
89995,184332,229357,-1.5457633996,-1.0959127508,-9.6442714893,901
90068,184358,229357,-1.7096717476999999,-1.1234302107,-9.667003304,902
90181,184350,229351,-1.6546368279,-1.0336993632,-9.619146852,903
90284,184368,229399,-1.698904046,-1.07677017,-9.6478607232,904
90405,184421,229376,-1.6378870697,-1.1533404932,-9.6969135865,905
90589,184407,229438,-1.5517454561000001,-0.9248259349,-9.6765745944,906
90759,184471,229434,-1.7264215058999999,-1.0671988796,-9.6861458848,907
90876,184498,229476,-1.5661023917,-1.1964113,-9.7052884656,908
91133,184486,229474,-1.6271193679999998,-1.0384850084,-9.7483592724,909
91305,184514,229440,-1.4656038425,-1.172483074,-9.6861458848,910
91476,184520,229494,-1.6498511827,-0.8829515394,-9.675378183100001,911
91638,184585,229443,-1.5601203352,-1.1054840412,-9.710074110799999,912
91629,184573,229485,-1.5337992866,-1.0217352502000001,-9.6251289085,913
91148,184428,229418,-1.5326028753,-0.9535398061,-9.6526463684,914
90376,184354,229361,-1.7551353771,-1.1569297271,-9.7292166916,915
89845,184260,229323,-1.6402798923,-1.0731809361,-9.6777710057,916
89547,184250,229321,-1.7180466268,-1.0959127508,-9.6574320136,917
89460,184248,229358,-1.722832272,-1.2299108163999999,-9.667003304,918
89489,184250,229331,-1.6091731985,-1.0719845248,-9.6490571345,919
89663,184282,229380,-1.5936198516,-1.0205388389,-9.6047899164,920
89877,184330,229396,-1.6881363443,-1.0013962581,-9.6813602396,921
90064,184359,229398,-1.4799607781,-1.0576275892,-9.714859756,922
90226,184371,229414,-1.6510475939999998,-0.9714859755999999,-9.6251289085,923
90283,184425,229372,-1.7982061838999999,-0.9954142015999999,-9.6526463684,924
90353,184368,229461,-1.4333007374,-1.0109675485,-9.6681997153,925
90476,184420,229417,-1.5649059803999998,-0.9678967417,-9.6251289085,926
90589,184407,229434,-1.5098710606,-1.0157531937,-9.6538427797,927
90747,184457,229456,-1.4991033588999998,-1.052841944,-9.5964150373,928
90920,184472,229458,-1.7838492483,-1.2011969452,-9.6957171752,929
91101,184512,229514,-1.6235301341000001,-1.004985492,-9.643075077999999,930
91279,184515,229524,-1.603191142,-1.0336993632,-9.667003304,931
91492,184508,229572,-1.6235301341000001,-1.0193424276,-9.6957171752,932
91611,184542,229501,-1.5936198516,-1.1820543644000001,-9.643075077999999,933
91766,184641,229567,-1.6187444889,-0.9858429111999999,-9.6574320136,934
91913,184609,229537,-1.6893327556000002,-1.0875378717,-9.7340023368,935
91825,184568,229528,-1.6474583601,-0.9595218625999999,-9.5916293921,936
91234,184510,229469,-1.6654045296,-1.0241280728,-9.6574320136,937
90548,184347,229418,-1.7611174336,-1.1904292435000001,-9.6586284249,938
90058,184335,229410,-1.5780665047,-0.9535398061,-9.700502820399999,939
89816,184237,229367,-1.5696916256,-1.1437692028,-9.69093153,940
89738,184293,229379,-1.5182459396999999,-1.148554848,-9.7052884656,941
89812,184333,229392,-1.5266208188,-1.0253244841,-9.6813602396,942
89996,184347,229401,-1.6271193679999998,-1.1066804525,-9.6586284249,943
90221,184332,229430,-1.6462619487999999,-0.9822536772999999,-9.7292166916,944
90365,184376,229427,-1.6474583601,-1.1341979124,-9.5437729401,945
90493,184411,229473,-1.6235301341000001,-1.0253244841,-9.69093153,946
90561,184387,229457,-1.6797614652,-1.0671988796,-9.6526463684,947
90639,184397,229435,-1.5696916256,-1.148554848,-9.738787982,948
90672,184389,229429,-1.5852449725,-1.0384850084,-9.7340023368,949
90852,184434,229408,-1.5134602944999997,-1.2095718243,-9.629914553699999,950
90956,184361,229480,-1.5996019081000001,-1.1629117836,-9.6239324972,951
91100,184429,229509,-1.5230315848999998,-1.0061819033000001,-9.6861458848,952
91279,184463,229489,-1.531406464,-0.9104689993,-9.5916293921,953
91421,184454,229498,-1.7515461432000001,-1.1617153723,-9.69093153,954
91563,184489,229526,-1.5230315848999998,-1.0815558152,-9.7244310464,955
91714,184512,229501,-1.6546368279,-1.0959127508,-9.6538427797,956
91859,184531,229533,-1.5756736821000001,-1.0336993632,-9.7196454012,957
91982,184516,229477,-1.770688724,-1.220339526,-9.6765745944,958
91800,184460,229463,-1.6223337227999999,-1.2000005339,-9.6047899164,959
91231,184390,229398,-1.3854442854000002,-1.0013962581,-9.5916293921,960
90520,184253,229334,-1.5278172301,-0.9487541609,-9.7710910871,961
90062,184234,229296,-1.6845471104,-0.9678967417,-9.5916293921,962
89827,184203,229311,-1.6689937635,-1.256231865,-9.5964150373,963
89789,184183,229306,-1.698904046,-1.0863414604,-9.629914553699999,964
89840,184217,229317,-1.6127624323999998,-1.1282158559,-9.5581298757,965
90031,184234,229351,-1.6331014245,-1.0971091621,-9.6574320136,966
90210,184196,229375,-1.5038890041,-1.07677017,-9.714859756,967
90359,184270,229381,-1.5936198516,-1.004985492,-9.6729853605,968
90460,184278,229404,-1.6127624323999998,-1.1665010175000001,-9.6239324972,969
90498,184254,229350,-1.5326028753,-0.8865407733,-9.629914553699999,970
90567,184172,229315,-1.6701901747999999,-1.2000005339,-9.6813602396,971
90659,184279,229349,-1.5373885205000002,-1.0779665813,-9.6813602396,972
90791,184348,229332,-1.7515461432000001,-1.1473584366999998,-9.6729853605,973
90932,184307,229414,-1.6785650538999999,-1.0480562988,-9.5772724565,974
91093,184336,229388,-1.5708880369,-1.1772687192,-9.69093153,975
91250,184357,229400,-1.7216358607,-0.9296115801,-9.7052884656,976
91411,184375,229390,-1.7240286833,-1.0301101293000001,-9.6717889492,977
91565,184391,229420,-1.7120645703,-1.0492527101,-9.7292166916,978
91702,184393,229438,-1.6378870697,-1.2538390423999999,-9.7435736272,979
91813,184458,229406,-1.5888342063999998,-0.9343972253,-9.7435736272,980
91926,184432,229466,-1.7312071511,-1.1581261384000001,-9.7531449176,981
91699,184348,229355,-1.4811571894,-1.0779665813,-9.5820581017,982
91069,184259,229339,-1.5122638832,-0.9870393224999999,-9.6382894328,983
90405,184188,229286,-1.7371892076000002,-1.2095718243,-9.7016992317,984
89982,184131,229206,-1.6223337227999999,-1.172483074,-9.667003304,985
89771,184119,229252,-1.6366906583999998,-1.1042876299,-9.7244310464,986
89744,184118,229216,-1.6522440053,-1.0815558152,-9.6765745944,987
89835,184149,229261,-1.722832272,-1.1102696864,-9.700502820399999,988
89982,184182,229253,-1.6749758199999998,-1.052841944,-9.6957171752,989
90226,184227,229328,-1.5242279962,-1.028913718,-9.710074110799999,990
90324,184200,229331,-1.6749758199999998,-1.0205388389,-9.6394858441,991
90423,184176,229340,-1.7180466268,-1.1246266219999999,-9.69093153,992
90480,184265,229270,-1.6558332392,-0.9726823869,-9.7256274577,993
90576,184248,229362,-1.6462619487999999,-1.1102696864,-9.6813602396,994
90722,184296,229341,-1.6426727149,-1.0731809361,-9.69093153,995
90828,184355,229368,-1.5900306177,-1.0193424276,-9.710074110799999,996
90965,184357,229402,-1.7742779578999999,-1.1138589203,-9.629914553699999,997
91119,184340,229367,-1.5326028753,-1.0301101293000001,-9.7292166916,998
91296,184342,229432,-1.5888342063999998,-1.2526426310999998,-9.7196454012,999
91504,184396,229436,-1.6737794087,-1.0576275892,-9.6526463684,1000
91639,184387,229467,-1.6594224731,-1.0576275892,-9.667003304,1001
91800,184436,229446,-1.5996019081000001,-1.0636096457,-9.6095755616,1002
91971,184487,229461,-1.6701901747999999,-1.2095718243,-9.738787982,1003
92048,184481,229457,-1.7850456596,-1.1676974288,-9.6681997153,1004
91830,184439,229440,-1.6283157793,-1.0396814197,-9.6107719729,1005
91186,184332,229368,-1.7120645703,-1.0516455327,-9.6681997153,1006
90498,184274,229322,-1.7694923127,-1.0492527101,-9.7196454012,1007
90077,184202,229292,-1.7264215058999999,-1.1006983959999999,-9.6095755616,1008
89889,184195,229299,-1.4177473905,-1.1856435983,-9.6957171752,1009
89829,184172,229326,-1.7168502155,-1.1521440819,-9.700502820399999,1010
89892,184221,229337,-1.7455640867,-1.0193424276,-9.5485585853,1011
90082,184269,229341,-1.6271193679999998,-1.0959127508,-9.6382894328,1012
90273,184270,229397,-1.5373885205000002,-1.1676974288,-9.714859756,1013
90448,184348,229383,-1.4859428346,-1.0253244841,-9.700502820399999,1014
90535,184347,229427,-1.698904046,-1.0947163395,-9.6861458848,1015
90575,184347,229381,-1.6079767872,-1.0001998468,-9.762716208,1016
90679,184361,229439,-1.603191142,-1.0576275892,-9.7962157244,1017
90769,184327,229445,-1.6319050132,-1.07677017,-9.6143612068,1018
90906,184372,229433,-1.7132609816000002,-1.0253244841,-9.69093153,1019
91032,184421,229463,-1.4991033588999998,-1.0480562988,-9.6478607232,1020
91216,184432,229423,-1.6558332392,-1.0588240005,-9.6586284249,1021
91409,184485,229493,-1.5421741657,-1.1006983959999999,-9.799804958300001,1022
91585,184485,229492,-1.5744772707999999,-1.0444670649,-9.7052884656,1023
91714,184539,229496,-1.7264215058999999,-0.95712904,-9.5820581017,1024
91894,184472,229529,-1.6606188843999998,-1.0181460163,-9.634700198900001,1025
92023,184582,229502,-1.6977076347,-1.004985492,-9.7974121357,1026
92105,184552,229546,-1.7036896912000001,-1.0492527101,-9.7016992317,1027
91821,184511,229500,-1.770688724,-1.0241280728,-9.629914553699999,1028
91108,184369,229429,-1.6749758199999998,-0.9726823869,-9.6861458848,1029
90490,184308,229361,-1.5517454561000001,-0.8865407733,-9.7208418125,1030
90081,184299,229370,-1.55533469,-1.0671988796,-9.633503787599999,1031
89890,184244,229368,-1.6953148121,-1.0719845248,-9.8285188295,1032
89870,184299,229328,-1.6606188843999998,-1.0671988796,-9.6012006825,1033
89963,184300,229387,-1.6223337227999999,-1.0815558152,-9.710074110799999,1034
90170,184327,229370,-1.6175480776,-1.2574282763000002,-9.667003304,1035
90341,184384,229413,-1.5840485612,-1.0432706536,-9.7483592724,1036
90467,184401,229442,-1.6450655375,-1.1772687192,-9.6813602396,1037
90596,184406,229463,-1.5888342063999998,-1.0624132344,-9.6825566509,1038
90663,184400,229439,-1.4512469069,-1.0959127508,-9.687342296099999,1039
90715,184445,229491,-1.7312071511,-0.9966106129000001,-9.69093153,1040
90807,184409,229503,-1.6869399330000001,-1.0911271056,-9.643075077999999,1041
90952,184439,229521,-1.6606188843999998,-1.1629117836,-9.6729853605,1042
91108,184456,229515,-1.5230315848999998,-1.0432706536,-9.6729853605,1043
91247,184534,229500,-1.5086746492999998,-1.07677017,-9.620343263299999,1044
91442,184465,229538,-1.6654045296,-1.1198409768,-9.7435736272,1045
91578,184545,229490,-1.7754743692000001,-1.2011969452,-9.6251289085,1046
91712,184566,229483,-1.6259229567,-1.1377871463,-9.69093153,1047
91863,184564,229513,-1.7419748528,-1.0157531937,-9.6622176588,1048
92012,184586,229509,-1.6606188843999998,-1.1341979124,-9.7710910871,1049
92051,184547,229555,-1.5948162629,-1.220339526,-9.6861458848,1050
91647,184486,229444,-1.6175480776,-1.1437692028,-9.6143612068,1051
91002,184368,229394,-1.5768700934,-1.2095718243,-9.7052884656,1052
90349,184280,229385,-1.6223337227999999,-1.0779665813,-9.6777710057,1053
90021,184220,229327,-1.7216358607,-1.0396814197,-9.69093153,1054
89876,184226,229413,-1.6797614652,-1.2394821068,-9.7531449176,1055
89862,184231,229330,-1.6127624323999998,-1.0241280728,-9.6538427797,1056
89973,184238,229380,-1.6175480776,-1.0636096457,-9.700502820399999,1057
90159,184291,229401,-1.6510475939999998,-1.1114660977,-9.7722874984,1058
90348,184305,229388,-1.6414763036,-1.0193424276,-9.710074110799999,1059
90422,184365,229427,-1.5720844482,-0.9678967417,-9.732805925500001,1060
90513,184310,229418,-1.6701901747999999,-1.0480562988,-9.6155576181,1061
90550,184354,229406,-1.4751751328999998,-1.1353943237,-9.7160561673,1062
90605,184322,229378,-1.7312071511,-1.1665010175000001,-9.6861458848,1063
90703,184327,229410,-1.4751751328999998,-1.1006983959999999,-9.6478607232,1064
90829,184318,229455,-1.5649059803999998,-1.0671988796,-9.7340023368,1065
91003,184375,229468,-1.6785650538999999,-0.9487541609,-9.6861458848,1066
91120,184362,229484,-1.519442351,-1.0109675485,-9.6813602396,1067
91290,184416,229464,-1.6462619487999999,-1.1533404932,-9.7292166916,1068
91437,184444,229452,-1.6785650538999999,-1.1006983959999999,-9.6861458848,1069
91589,184438,229486,-1.7742779578999999,-1.1868400096,-9.5868437469,1070
91735,184446,229490,-1.6271193679999998,-1.0671988796,-9.710074110799999,1071
91824,184465,229479,-1.603191142,-1.2394821068,-9.710074110799999,1072
91672,184409,229427,-1.6797614652,-1.0959127508,-9.6095755616,1073
91082,184334,229389,-1.579262916,-1.0193424276,-9.595218626,1074
90392,184202,229317,-1.5744772707999999,-1.2047861791,-9.7052884656,1075
89954,184152,229279,-1.5696916256,-0.9762716208,-9.5677011661,1076
89747,184140,229264,-1.4847464232999998,-1.0815558152,-9.7292166916,1077
89679,184135,229313,-1.5134602944999997,-1.0636096457,-9.7483592724,1078
89686,184170,229275,-1.6402798923,-1.1473584366999998,-9.6861458848,1079
89881,184210,229281,-1.5888342063999998,-1.0671988796,-9.6526463684,1080
90078,184211,229315,-1.5373885205000002,-1.0959127508,-9.6681997153,1081
90232,184234,229324,-1.483550012,-1.1341979124,-9.5916293921,1082
90319,184244,229373,-1.5409777544,-1.1341979124,-9.714859756,1083
90372,184232,229328,-1.4895320685,-1.0396814197,-9.7196454012,1084
90470,184297,229351,-1.6977076347,-1.0827522265,-9.6717889492,1085
90570,184290,229377,-1.7084753364,-1.1820543644000001,-9.5581298757,1086
90685,184318,229333,-1.6749758199999998,-1.0636096457,-9.6825566509,1087
90818,184309,229391,-1.5182459396999999,-0.9678967417,-9.5868437469,1088
90975,184350,229404,-1.722832272,-1.0157531937,-9.7196454012,1089
91149,184355,229409,-1.6091731985,-0.9774680320999999,-9.6394858441,1090
91327,184392,229428,-1.5613167465000002,-0.9487541609,-9.6861458848,1091
91465,184408,229427,-1.4991033588999998,-1.0444670649,-9.7244310464,1092
91609,184363,229446,-1.5373885205000002,-1.0384850084,-9.710074110799999,1093
91765,184464,229466,-1.5218351736,-1.1772687192,-9.7016992317,1094
91724,184443,229442,-1.6713865861,-1.0301101293000001,-9.633503787599999,1095
91245,184350,229365,-1.6283157793,-1.0863414604,-9.6526463684,1096
90551,184222,229350,-1.6689937635,-1.1138589203,-9.629914553699999,1097
90031,184211,229281,-1.5696916256,-1.0540383553,-9.7196454012,1098
89756,184135,229318,-1.6701901747999999,-1.0671988796,-9.7615197967,1099
89646,184138,229292,-1.6175480776,-1.1533404932,-9.738787982,1100
89693,184169,229312,-1.6462619487999999,-0.9966106129000001,-9.6634140701,1101
89861,184213,229289,-1.6079767872,-1.0145567824000001,-9.6490571345,1102
90040,184215,229376,-1.5936198516,-1.2011969452,-9.6490571345,1103
90219,184257,229375,-1.5170495284,-1.0432706536,-9.7435736272,1104
90333,184232,229371,-1.5361921092,-1.1102696864,-9.7196454012,1105
90429,184309,229418,-1.6175480776,-0.9954142015999999,-9.700502820399999,1106
90501,184293,229408,-1.7072789251,-1.0432706536,-9.6634140701,1107
90603,184324,229402,-1.6498511827,-1.0097711372,-9.6586284249,1108
90727,184306,229444,-1.6366906583999998,-1.0683952909,-9.7244310464,1109
90883,184300,229419,-1.8161523534,-0.9678967417,-9.700502820399999,1110
91050,184411,229469,-1.6498511827,-1.0875378717,-9.6777710057,1111
91217,184425,229462,-1.5661023917,-0.9822536772999999,-9.714859756,1112
91392,184454,229468,-1.5661023917,-0.9822536772999999,-9.714859756,1113
91551,184477,229503,-1.5661023917,-0.9822536772999999,-9.714859756,1114
91716,184534,229531,-1.5661023917,-0.9822536772999999,-9.714859756,1115
91874,184516,229522,-1.5661023917,-0.9822536772999999,-9.714859756,1116
91959,184520,229547,-1.5661023917,-0.9822536772999999,-9.714859756,1117
91703,184495,229497,-1.5661023917,-0.9822536772999999,-9.714859756,1118
91037,184354,229402,-1.5230315848999998,-1.2155538808,-9.7495556837,1119
90437,184311,229330,-1.5230315848999998,-1.2155538808,-9.7495556837,1120
90059,184244,229360,-1.5613167465000002,-1.0660024683,-9.6717889492,1121
89896,184248,229384,-1.6079767872,-1.1353943237,-9.714859756,1122
89881,184274,229406,-1.579262916,-0.9774680320999999,-9.6717889492,1123
89992,184310,229364,-1.579262916,-0.9774680320999999,-9.6717889492,1124
90196,184326,229417,-1.579262916,-0.9774680320999999,-9.6717889492,1125
90394,184372,229432,-1.579262916,-0.9774680320999999,-9.6717889492,1126
90528,184360,229423,-1.579262916,-0.9774680320999999,-9.6717889492,1127
90628,184412,229510,-1.579262916,-0.9774680320999999,-9.6717889492,1128
90698,184410,229486,-1.579262916,-0.9774680320999999,-9.6717889492,1129
90811,184434,229503,-1.579262916,-0.9774680320999999,-9.6717889492,1130
90896,184453,229527,-1.579262916,-0.9774680320999999,-9.6717889492,1131
91049,184486,229496,-1.579262916,-0.9774680320999999,-9.6717889492,1132
91236,184499,229531,-1.5948162629,-1.1102696864,-9.576076045199999,1133
91389,184499,229583,-1.5948162629,-1.1102696864,-9.576076045199999,1134
91553,184597,229631,-1.6785650538999999,-1.1341979124,-9.714859756,1135
91729,184583,229576,-1.6785650538999999,-1.1341979124,-9.714859756,1136
91853,184612,229593,-1.6785650538999999,-1.1341979124,-9.714859756,1137
92028,184626,229633,-1.6785650538999999,-1.1341979124,-9.714859756,1138
92181,184677,229612,-1.5948162629,-1.1533404932,-9.6287181424,1139
92092,184616,229586,-1.7084753364,-1.1054840412,-9.6681997153,1140
91633,184532,229562,-1.5613167465000002,-1.1377871463,-9.6813602396,1141
90909,184410,229492,-1.6331014245,-1.1904292435000001,-9.7483592724,1142
90388,184351,229479,-1.5720844482,-1.0336993632,-9.7292166916,1143
90124,184306,229438,-1.6522440053,-1.1246266219999999,-9.7232346351,1144
90068,184299,229425,-1.5182459396999999,-1.0815558152,-9.6155576181,1145
90095,184302,229397,-1.5182459396999999,-1.0815558152,-9.6155576181,1146
90228,184379,229444,-1.5182459396999999,-1.0815558152,-9.6155576181,1147
90431,184385,229505,-1.5182459396999999,-1.0815558152,-9.6155576181,1148
90594,184390,229466,-1.5182459396999999,-1.0815558152,-9.6155576181,1149
90670,184384,229477,-1.5182459396999999,-1.0815558152,-9.6155576181,1150
90769,184383,229523,-1.5182459396999999,-1.0815558152,-9.6155576181,1151
90831,184359,229501,-1.5134602944999997,-1.1102696864,-9.7818587888,1152
90901,184389,229496,-1.5134602944999997,-1.1102696864,-9.7818587888,1153
91026,184452,229478,-1.5996019081000001,-1.0815558152,-9.710074110799999,1154
91131,184422,229470,-1.7180466268,-1.1030912186,-9.6729853605,1155
91278,184494,229535,-1.7180466268,-1.1198409768,-9.710074110799999,1156
91431,184456,229534,-1.5373885205000002,-1.2047861791,-9.6969135865,1157
91603,184399,229533,-1.6941184008,-1.0205388389,-9.7962157244,1158
91757,184456,229532,-1.6462619487999999,-1.0671988796,-9.6155576181,1159
91874,184499,229524,-1.7886348934999998,-1.1964113,-9.700502820399999,1160
92025,184513,229551,-1.5086746492999998,-1.0683952909,-9.6634140701,1161
92071,184513,229541,-1.5290136414,-1.1772687192,-9.559326287,1162
91781,184429,229468,-1.579262916,-1.0624132344,-9.6107719729,1163
91164,184328,229392,-1.6295121905999999,-1.028913718,-9.7531449176,1164
90561,184236,229385,-1.6558332392,-0.9966106129000001,-9.6825566509,1165
90220,184224,229377,-1.6749758199999998,-0.9774680320999999,-9.69093153,1166
90051,184189,229321,-1.5852449725,-0.9774680320999999,-9.69093153,1167
90054,184197,229379,-1.6414763036,-1.0205388389,-9.7052884656,1168
90173,184204,229377,-1.5122638832,-1.1820543644000001,-9.667003304,1169
90345,184278,229392,-1.6749758199999998,-1.0959127508,-9.6251289085,1170
90529,184294,229353,-1.7359927963,-0.9954142015999999,-9.6586284249,1171
90615,184310,229378,-1.5696916256,-1.1246266219999999,-9.738787982,1172
90679,184270,229427,-1.55533469,-1.0336993632,-9.714859756,1173
90797,184360,229373,-1.6175480776,-1.07677017,-9.6012006825,1174
90875,184299,229431,-1.6175480776,-1.0875378717,-9.6765745944,1175
90965,184346,229412,-1.5924234403000002,-1.1952148887,-9.7196454012,1176
91113,184352,229409,-1.5409777544,-1.148554848,-9.6861458848,1177
91264,184332,229447,-1.6606188843999998,-1.028913718,-9.7435736272,1178
91413,184367,229469,-1.6606188843999998,-1.0959127508,-9.785448022699999,1179
91578,184389,229471,-1.5852449725,-1.1676974288,-9.7340023368,1180
91783,184448,229437,-1.5505490447999999,-1.0815558152,-9.6442714893,1181
91897,184459,229475,-1.5936198516,-1.0348957745,-9.7016992317,1182
92057,184470,229479,-1.6797614652,-1.004985492,-9.7052884656,1183
92184,184486,229495,-1.6558332392,-1.1006983959999999,-9.6921279413,1184
92136,184439,229451,-1.6749758199999998,-1.0815558152,-9.6287181424,1185
91656,184316,229398,-1.5744772707999999,-0.8446663778000001,-9.6622176588,1186
91002,184269,229357,-1.6845471104,-1.0564311779,-9.7292166916,1187
90530,184224,229354,-1.5421741657,-1.0624132344,-9.6586284249,1188
90311,184187,229304,-1.7551353771,-1.2430713407,-9.5868437469,1189
90248,184216,229303,-1.8269200550999998,-1.2011969452,-9.7435736272,1190
90282,184242,229289,-1.5936198516,-1.0851450490999999,-9.6251289085,1191
90453,184228,229394,-1.5661023917,-1.1006983959999999,-9.5964150373,1192
90660,184293,229370,-1.5696916256,-0.9918249677,-9.7435736272,1193
90852,184359,229402,-1.6271193679999998,-1.1569297271,-9.6251289085,1194
90955,184341,229410,-1.4333007374,-1.1581261384000001,-9.700502820399999,1195
91060,184350,229431,-1.579262916,-1.0911271056,-9.762716208,1196
91202,184363,229415,-1.5601203352,-1.0911271056,-9.714859756,1197
91272,184393,229444,-1.4991033588999998,-1.1150553316,-9.6107719729,1198
91432,184435,229431,-1.5708880369,-1.004985492,-9.6574320136,1199
91580,184479,229462,-1.6606188843999998,-1.1306086785,-9.799804958300001,1200
91769,184459,229498,-1.6941184008,-1.0947163395,-9.786644434,1201
91972,184486,229536,-1.5888342063999998,-1.2251251712,-9.6861458848,1202
92124,184583,229544,-1.6845471104,-1.0277173067,-9.6287181424,1203
92306,184561,229544,-1.6450655375,-0.9631110964999999,-9.687342296099999,1204
92482,184514,229548,-1.531406464,-1.1306086785,-9.6765745944,1205
92608,184603,229549,-1.6785650538999999,-0.9822536772999999,-9.710074110799999,1206
92796,184641,229613,-1.6749758199999998,-1.1401799688999998,-9.6765745944,1207
92771,184584,229533,-1.6079767872,-1.1688938401,-9.6574320136,1208
92352,184514,229496,-1.698904046,-1.0516455327,-9.7710910871,1209
91731,184430,229437,-1.6079767872,-1.1676974288,-9.7567341515,1210
91173,184357,229420,-1.5565311013,-1.1102696864,-9.6717889492,1211
90905,184356,229390,-1.6127624323999998,-1.1150553316,-9.6717889492,1212
90831,184355,229399,-1.6606188843999998,-0.9631110964999999,-9.7531449176,1213
90856,184379,229441,-1.4943177136999999,-1.0384850084,-9.6777710057,1214
90983,184403,229409,-1.5038890041,-1.1856435983,-9.6107719729,1215
91184,184508,229494,-1.579262916,-1.1198409768,-9.767501853199999,1216
91374,184466,229496,-1.6366906583999998,-0.9008977089,-9.5389872949,1217
91467,184495,229505,-1.5996019081000001,-1.0923235169,-9.6622176588,1218
91586,184513,229493,-1.6354942471,-1.0181460163,-9.629914553699999,1219
91627,184489,229535,-1.6510475939999998,-1.1473584366999998,-9.6813602396,1220
91724,184549,229497,-1.6283157793,-1.0013962581,-9.7292166916,1221
91856,184554,229521,-1.6091731985,-1.0959127508,-9.559326287,1222
91980,184569,229567,-1.6187444889,-1.0731809361,-9.6251289085,1223
92126,184606,229567,-1.5936198516,-1.0157531937,-9.619146852,1224
92291,184624,229556,-1.6845471104,-1.004985492,-9.7531449176,1225
92479,184647,229566,-1.7084753364,-1.0875378717,-9.7292166916,1226
92652,184655,229576,-1.5517454561000001,-1.1246266219999999,-9.7818587888,1227
92819,184670,229588,-1.5840485612,-1.1629117836,-9.5677011661,1228
92934,184717,229583,-1.7036896912000001,-1.052841944,-9.6012006825,1229
93078,184733,229588,-1.6223337227999999,-1.0959127508,-9.7292166916,1230
93077,184752,229563,-1.7312071511,-1.0301101293000001,-9.7292166916,1231
92649,184623,229491,-1.5373885205000002,-1.0576275892,-9.6622176588,1232
91971,184522,229467,-1.7180466268,-1.0157531937,-9.7914300792,1233
91437,184488,229435,-1.5170495284,-1.0432706536,-9.7399843933,1234
91147,184449,229440,-1.4943177136999999,-0.9535398061,-9.661021247499999,1235
91070,184446,229451,-1.5505490447999999,-1.0863414604,-9.6382894328,1236
91067,184489,229419,-1.6079767872,-1.0241280728,-9.5724868113,1237
91210,184536,229494,-1.6091731985,-1.148554848,-9.6574320136,1238
91378,184511,229482,-1.6127624323999998,-0.9020941202,-9.7340023368,1239
91560,184613,229444,-1.5038890041,-1.1533404932,-9.6059863277,1240
91646,184588,229483,-1.770688724,-1.1772687192,-9.7531449176,1241
91725,184561,229535,-1.5278172301,-1.0815558152,-9.757930562799999,1242
91793,184587,229511,-1.579262916,-1.1294122672,-9.6490571345,1243
91858,184629,229518,-1.7264215058999999,-1.2478569859,-9.5916293921,1244
91953,184602,229547,-1.5661023917,-1.0396814197,-9.6622176588,1245
92085,184600,229543,-1.6654045296,-1.07677017,-9.6239324972,1246
92206,184646,229536,-1.5505490447999999,-1.1006983959999999,-9.6765745944,1247
92364,184625,229507,-1.6319050132,-1.0145567824000001,-9.700502820399999,1248
92529,184617,229555,-1.5230315848999998,-1.0205388389,-9.6957171752,1249
92623,184654,229561,-1.6175480776,-1.0540383553,-9.629914553699999,1250
92740,184665,229540,-1.6749758199999998,-1.0205388389,-9.700502820399999,1251
92880,184667,229552,-1.6797614652,-0.9702895642999999,-9.6717889492,1252
92976,184701,229555,-1.5182459396999999,-1.07677017,-9.7112705221,1253
92832,184639,229512,-1.5505490447999999,-1.0671988796,-9.6957171752,1254
92269,184515,229468,-1.7168502155,-1.1389835576,-9.6717889492,1255
91618,184442,229398,-1.8412769907000002,-1.1473584366999998,-9.7208418125,1256
91154,184378,229356,-1.6510475939999998,-1.0384850084,-9.6526463684,1257
90910,184345,229353,-1.5900306177,-1.0875378717,-9.7663054419,1258
90821,184388,229360,-1.6366906583999998,-0.9738787981999999,-9.7016992317,1259
90895,184381,229377,-1.6079767872,-1.004985492,-9.6574320136,1260
91036,184364,229391,-1.6235301341000001,-1.0671988796,-9.8045906035,1261
91183,184434,229416,-1.5134602944999997,-1.0719845248,-9.6634140701,1262
91303,184482,229396,-1.579262916,-1.0815558152,-9.5389872949,1263
91369,184468,229356,-1.7132609816000002,-1.0348957745,-9.8189475391,1264
91423,184460,229366,-1.5326028753,-1.1018948073,-9.714859756,1265
91442,184473,229399,-1.5517454561000001,-1.1629117836,-9.7112705221,1266
91534,184442,229368,-1.6235301341000001,-1.0576275892,-9.6526463684,1267
91579,184437,229394,-1.6175480776,-1.0348957745,-9.6717889492,1268
91727,184409,229450,-1.6079767872,-1.0396814197,-9.6239324972,1269
91851,184490,229422,-1.5469598109,-1.0540383553,-9.7196454012,1270
92010,184483,229440,-1.6319050132,-1.1497512593,-9.619146852,1271
92158,184506,229422,-1.6450655375,-1.0384850084,-9.738787982,1272
92264,184547,229449,-1.6881363443,-1.2047861791,-9.6526463684,1273
92416,184517,229434,-1.6283157793,-1.0193424276,-9.7244310464,1274
92508,184538,229456,-1.5290136414,-1.1198409768,-9.633503787599999,1275
92479,184521,229466,-1.5804593273,-1.1294122672,-9.5677011661,1276
92007,184456,229342,-1.5170495284,-0.9475577495999999,-9.6634140701,1277
91316,184365,229302,-1.6091731985,-1.0157531937,-9.710074110799999,1278
90789,184268,229309,-1.5888342063999998,-1.052841944,-9.6574320136,1279
90500,184266,229277,-1.7312071511,-1.0923235169,-9.7052884656,1280
90397,184243,229269,-1.5900306177,-1.1521440819,-9.710074110799999,1281
90407,184288,229325,-1.4668002538,-1.1042876299,-9.6861458848,1282
90443,184308,229311,-1.6701901747999999,-1.0827522265,-9.7040920543,1283
90700,184352,229366,-1.603191142,-0.9296115801,-9.6478607232,1284
90869,184383,229342,-1.5361921092,-1.0097711372,-9.6526463684,1285
90993,184342,229341,-1.6223337227999999,-1.1916256548,-9.700502820399999,1286
90984,184372,229319,-1.5026925928000001,-1.0157531937,-9.710074110799999,1287
91054,184392,229327,-1.5984054967999999,-1.2239287599,-9.5868437469,1288
91134,184394,229339,-1.7324035624,-1.1294122672,-9.634700198900001,1289
91237,184353,229314,-1.5696916256,-1.1294122672,-9.7292166916,1290
91395,184453,229414,-1.5361921092,-1.1138589203,-9.6143612068,1291
91556,184481,229430,-1.5840485612,-1.1054840412,-9.7519485063,1292
91692,184461,229406,-1.746760498,-0.9858429111999999,-9.667003304,1293
91874,184500,229419,-1.6223337227999999,-1.2299108163999999,-9.6765745944,1294
92033,184494,229416,-1.5649059803999998,-1.0683952909,-9.7483592724,1295
92194,184575,229470,-1.7455640867,-1.1210373881,-9.7052884656,1296
92374,184594,229454,-1.6797614652,-0.933200814,-9.6729853605,1297
92493,184593,229467,-1.6462619487999999,-1.0205388389,-9.6059863277,1298
92278,184567,229404,-1.5804593273,-0.9391828704999999,-9.595218626,1299
91672,184358,229386,-1.6725829974,-1.004985492,-9.6478607232,1300
91058,184381,229312,-1.6845471104,-1.0396814197,-9.6765745944,1301
90666,184345,229292,-1.5984054967999999,-1.0336993632,-9.6526463684,1302
90475,184314,229337,-1.698904046,-1.0671988796,-9.6382894328,1303
90445,184354,229294,-1.7312071511,-1.0671988796,-9.7292166916,1304
90547,184363,229343,-1.579262916,-0.9152546444999999,-9.6777710057,1305
90682,184432,229352,-1.7611174336,-1.1150553316,-9.607182739,1306
90871,184440,229355,-1.6654045296,-0.9068797654,-9.7112705221,1307
91005,184467,229376,-1.6510475939999998,-1.1377871463,-9.6993064091,1308
91131,184476,229391,-1.6881363443,-0.9918249677,-9.5294160045,1309
91206,184461,229351,-1.4380863826,-1.1856435983,-9.732805925500001,1310
91305,184460,229388,-1.6283157793,-0.9870393224999999,-9.633503787599999,1311
91382,184533,229456,-1.7407784414999998,-1.1198409768,-9.7292166916,1312
91499,184516,229393,-1.5696916256,-1.0384850084,-9.6622176588,1313
91651,184568,229455,-1.5984054967999999,-1.1246266219999999,-9.7483592724,1314
91826,184569,229478,-1.5565311013,-1.0827522265,-9.6478607232,1315
92008,184609,229454,-1.5134602944999997,-0.9343972253,-9.69093153,1316
92153,184644,229472,-1.5888342063999998,-0.9547362173999999,-9.700502820399999,1317
92338,184681,229504,-1.5421741657,-1.0384850084,-9.6957171752,1318
92488,184650,229516,-1.7192430381,-1.0636096457,-9.6095755616,1319
92624,184680,229515,-1.5888342063999998,-1.1102696864,-9.7914300792,1320
92678,184657,229513,-1.5948162629,-1.1641081949,-9.5724868113,1321
92342,184627,229431,-1.5888342063999998,-1.0899306943,-9.6012006825,1322
91694,184532,229409,-1.6654045296,-1.0444670649,-9.6155576181,1323
91120,184451,229353,-1.5756736821000001,-1.0145567824000001,-9.7052884656,1324
90822,184406,229360,-1.5696916256,-1.0241280728,-9.5772724565,1325
90700,184405,229353,-1.7551353771,-1.1437692028,-9.6574320136,1326
90704,184408,229335,-1.6606188843999998,-0.9954142015999999,-9.6478607232,1327
90809,184466,229397,-1.7084753364,-1.2765708571,-9.7244310464,1328
91004,184479,229461,-1.5888342063999998,-1.1629117836,-9.6825566509,1329
91165,184528,229354,-1.5421741657,-1.0241280728,-9.6526463684,1330
91299,184516,229408,-1.5278172301,-1.0624132344,-9.7052884656,1331
91359,184550,229448,-1.5840485612,-1.0671988796,-9.6107719729,1332
91424,184538,229398,-1.5290136414,-1.07677017,-9.6729853605,1333
91515,184540,229424,-1.6462619487999999,-1.0863414604,-9.762716208,1334
91607,184479,229433,-1.5936198516,-1.1665010175000001,-9.714859756,1335
91728,184576,229451,-1.5708880369,-1.1006983959999999,-9.7435736272,1336
91878,184568,229470,-1.7802600144,-1.0671988796,-9.7052884656,1337
92040,184636,229483,-1.6462619487999999,-0.9583254512999999,-9.620343263299999,1338
92203,184612,229461,-1.5517454561000001,-1.1341979124,-9.6251289085,1339
92364,184634,229540,-1.5840485612,-1.0875378717,-9.738787982,1340
92495,184602,229500,-1.5493526335,-1.1497512593,-9.69093153,1341
92620,184644,229510,-1.5852449725,-1.0444670649,-9.7052884656,1342
92732,184663,229544,-1.758724611,-1.0815558152,-9.6442714893,1343
92667,184621,229453,-1.7216358607,-1.0241280728,-9.5964150373,1344
92153,184525,229378,-1.4787643668000001,-1.1042876299,-9.6717889492,1345
91484,184412,229331,-1.698904046,-1.148554848,-9.634700198900001,1346
90986,184367,229339,-1.5457633996,-1.0157531937,-9.714859756,1347
90712,184357,229312,-1.5038890041,-1.1294122672,-9.667003304,1348
90615,184344,229308,-1.5409777544,-1.0061819033000001,-9.710074110799999,1349
90622,184394,229252,-1.6366906583999998,-0.9774680320999999,-9.5856473356,1350
90746,184360,229281,-1.6546368279,-1.1437692028,-9.6538427797,1351
90903,184362,229316,-1.6319050132,-1.0253244841,-9.7304131029,1352
91012,184298,229313,-1.4644074312,-1.028913718,-9.7435736272,1353
91106,184397,229324,-1.5290136414,-1.0109675485,-9.6586284249,1354
91141,184379,229284,-1.5936198516,-1.0492527101,-9.7435736272,1355
91160,184368,229369,-1.7563317884,-1.0348957745,-9.634700198900001,1356
91240,184454,229390,-1.6654045296,-1.0588240005,-9.6574320136,1357
91331,184411,229370,-1.5290136414,-1.0540383553,-9.6586284249,1358
91453,184414,229357,-1.5421741657,-1.1629117836,-9.6825566509,1359
91597,184430,229332,-1.5804593273,-1.0947163395,-9.6059863277,1360
91731,184441,229412,-1.8376877568,-1.0827522265,-9.7531449176,1361
91875,184486,229340,-1.5936198516,-1.1629117836,-9.6382894328,1362
92017,184458,229364,-1.6366906583999998,-0.9822536772999999,-9.6394858441,1363
92129,184461,229392,-1.7216358607,-1.1162517428999998,-9.6239324972,1364
92229,184545,229375,-1.603191142,-0.9906285563999999,-9.6729853605,1365
92327,184506,229428,-1.6331014245,-1.1341979124,-9.6394858441,1366
92169,184471,229343,-1.6283157793,-1.0971091621,-9.5904329808,1367
91574,184359,229287,-1.6043875533,-1.028913718,-9.7292166916,1368
90928,184234,229222,-1.5565311013,-0.9966106129000001,-9.8201439504,1369
90503,184252,229246,-1.5421741657,-1.0660024683,-9.5976114486,1370
90256,184227,229236,-1.6941184008,-1.1018948073,-9.7770731436,1371
90205,184203,229192,-1.5948162629,-0.9774680320999999,-9.6622176588,1372
90269,184242,229234,-1.6701901747999999,-1.1042876299,-9.6143612068,1373
90395,184289,229267,-1.5840485612,-1.0671988796,-9.6777710057,1374
90558,184209,229255,-1.5086746492999998,-1.2394821068,-9.8153583052,1375
90689,184290,229271,-1.5134602944999997,-1.1808579531,-9.6729853605,1376
90788,184316,229234,-1.6941184008,-1.0253244841,-9.633503787599999,1377
90831,184316,229269,-1.5326028753,-1.028913718,-9.7399843933,1378
90907,184365,229249,-1.5948162629,-1.1676974288,-9.6155576181,1379
91035,184318,229293,-1.6797614652,-1.1246266219999999,-9.667003304,1380
91175,184378,229299,-1.5996019081000001,-1.052841944,-9.6478607232,1381
91287,184383,229331,-1.579262916,-1.004985492,-9.620343263299999,1382
91472,184373,229348,-1.6713865861,-1.0803594039,-9.6861458848,1383
91644,184482,229348,-1.6941184008,-1.1820543644000001,-9.6681997153,1384
91794,184461,229352,-1.7276179172000001,-1.1246266219999999,-9.5964150373,1385
91951,184480,229404,-1.5948162629,-1.0815558152,-9.710074110799999,1386
92095,184511,229394,-1.6570296505,-1.1437692028,-9.667003304,1387
92269,184528,229392,-1.6127624323999998,-1.0420742423,-9.595218626,1388
92389,184521,229400,-1.4991033588999998,-1.0348957745,-9.714859756,1389
92336,184493,229379,-1.5026925928000001,-1.0911271056,-9.6478607232,1390
91837,184439,229344,-1.5218351736,-1.1341979124,-9.6000042712,1391
91155,184319,229295,-1.7084753364,-1.0492527101,-9.714859756,1392
90718,184308,229313,-1.5756736821000001,-1.0875378717,-9.7052884656,1393
90476,184300,229217,-1.4883356572,-1.0815558152,-9.700502820399999,1394
90355,184291,229247,-1.6510475939999998,-1.0396814197,-9.5964150373,1395
90417,184279,229254,-1.7359927963,-1.0827522265,-9.619146852,1396
90560,184303,229310,-1.603191142,-1.0959127508,-9.6634140701,1397
90727,184403,229299,-1.5696916256,-1.0683952909,-9.6921279413,1398
90904,184416,229322,-1.6797614652,-1.1533404932,-9.6957171752,1399
91018,184391,229356,-1.5900306177,-1.0995019847,-9.6012006825,1400
91084,184422,229326,-1.4895320685,-1.1294122672,-9.7483592724,1401
91168,184421,229344,-1.6414763036,-1.1533404932,-9.7531449176,1402
91242,184483,229330,-1.5888342063999998,-1.0348957745,-9.7962157244,1403
91376,184436,229379,-1.5744772707999999,-1.0241280728,-9.714859756,1404
91514,184501,229386,-1.6654045296,-1.1198409768,-9.595218626,1405
91705,184507,229394,-1.4213366244,-1.0097711372,-9.700502820399999,1406
91880,184551,229404,-1.5804593273,-0.9248259349,-9.6765745944,1407
92044,184540,229439,-1.6366906583999998,-0.9200402897,-9.629914553699999,1408
92143,184579,229437,-1.5756736821000001,-1.0671988796,-9.6861458848,1409
92370,184618,229423,-1.6522440053,-1.2335000503,-9.6825566509,1410
92520,184626,229479,-1.7096717476999999,-0.9296115801,-9.7292166916,1411
92676,184637,229425,-1.5984054967999999,-1.2047861791,-9.7064848769,1412
92675,184530,229425,-1.7982061838999999,-1.0683952909,-9.6382894328,1413
92260,184490,229390,-1.6271193679999998,-0.9248259349,-9.5772724565,1414
91635,184451,229358,-1.7694923127,-1.052841944,-9.6681997153,1415
91063,184356,229279,-1.6091731985,-1.07677017,-9.6526463684,1416
90788,184344,229248,-1.5421741657,-0.9535398061,-9.6861458848,1417
90682,184325,229299,-1.6941184008,-1.1294122672,-9.6538427797,1418
90674,184327,229331,-1.531406464,-1.0624132344,-9.6107719729,1419
90782,184383,229316,-1.5744772707999999,-1.1820543644000001,-9.6382894328,1420
90946,184375,229289,-1.6426727149,-1.0157531937,-9.714859756,1421
91098,184382,229313,-1.4931213024,-1.0660024683,-9.6765745944,1422
91216,184399,229322,-1.7132609816000002,-1.0193424276,-9.6729853605,1423
91248,184434,229327,-1.5421741657,-1.1437692028,-9.767501853199999,1424
91307,184409,229291,-1.7096717476999999,-1.028913718,-9.5772724565,1425
91385,184432,229339,-1.7419748528,-1.0719845248,-9.5198447141,1426
91482,184428,229284,-1.519442351,-0.9643075078,-9.7340023368,1427
91605,184428,229331,-1.5505490447999999,-1.0947163395,-9.667003304,1428
91734,184424,229359,-1.6522440053,-1.0348957745,-9.7663054419,1429
91882,184472,229362,-1.6701901747999999,-1.0492527101,-9.6825566509,1430
92044,184450,229367,-1.6462619487999999,-1.1102696864,-9.6394858441,1431
92167,184503,229373,-1.5481562222,-0.9343972253,-9.69093153,1432
92297,184476,229358,-1.6307086019,-1.1150553316,-9.5964150373,1433
92449,184551,229390,-1.5864413838,-1.1150553316,-9.700502820399999,1434
92565,184509,229371,-1.579262916,-1.2107682356,-9.8237331843,1435
92374,184470,229339,-1.5278172301,-0.9296115801,-9.6562356023,1436
91812,184326,229270,-1.5026925928000001,-1.0336993632,-9.619146852,1437
91213,184289,229200,-1.6845471104,-1.1676974288,-9.7016992317,1438
90816,184257,229203,-1.6689937635,-1.1294122672,-9.6490571345,1439
90614,184202,229178,-1.7264215058999999,-1.052841944,-9.710074110799999,1440
90547,184203,229234,-1.5744772707999999,-1.1102696864,-9.6538427797,1441
90593,184304,229207,-1.5948162629,-1.0911271056,-9.643075077999999,1442
90760,184266,229185,-1.7324035624,-1.1437692028,-9.69093153,1443
90919,184212,229236,-1.6079767872,-1.1150553316,-9.7531449176,1444
91079,184286,229275,-1.6235301341000001,-1.0265208954,-9.700502820399999,1445
91141,184320,229267,-1.6319050132,-1.0109675485,-9.7471628611,1446
91170,184296,229253,-1.5601203352,-1.1006983959999999,-9.633503787599999,1447
91255,184337,229264,-1.5756736821000001,-1.1150553316,-9.7244310464,1448
91342,184313,229268,-1.6941184008,-1.1665010175000001,-9.6622176588,1449
91468,184374,229246,-1.7694923127,-1.1856435983,-9.6717889492,1450
91566,184356,229289,-1.5278172301,-1.1102696864,-9.6969135865,1451
91714,184356,229292,-1.5373885205000002,-0.8877371846000001,-9.5964150373,1452
91882,184419,229243,-1.4991033588999998,-1.1198409768,-9.629914553699999,1453
92029,184409,229326,-1.6857435217,-0.9343972253,-9.6957171752,1454
92166,184451,229320,-1.4380863826,-1.0863414604,-9.6861458848,1455
92286,184472,229326,-1.770688724,-0.8865407733,-9.6825566509,1456
92455,184479,229341,-1.6797614652,-1.1246266219999999,-9.6777710057,1457
92392,184463,229327,-1.7168502155,-1.1581261384000001,-9.6717889492,1458
92002,184369,229288,-1.7072789251,-1.1006983959999999,-9.6813602396,1459
91355,184291,229205,-1.6366906583999998,-0.9535398061,-9.5677011661,1460
90868,184246,229177,-1.5804593273,-1.1676974288,-9.7232346351,1461
90598,184186,229117,-1.7982061838999999,-0.9583254512999999,-9.5808616904,1462
90516,184255,229180,-1.5182459396999999,-1.2861421475,-9.6012006825,1463
90516,184254,229182,-1.5565311013,-1.0779665813,-9.7292166916,1464
90668,184258,229244,-1.6127624323999998,-0.9631110964999999,-9.5964150373,1465
90853,184298,229239,-1.6749758199999998,-0.9116654106,-9.6765745944,1466
91009,184368,229283,-1.5086746492999998,-0.9822536772999999,-9.5772724565,1467
91109,184344,229250,-1.5134602944999997,-1.07677017,-9.5772724565,1468
91219,184401,229271,-1.6079767872,-1.0576275892,-9.6574320136,1469
91264,184380,229286,-1.7407784414999998,-1.0588240005,-9.7902336679,1470
91395,184364,229282,-1.7694923127,-1.2251251712,-9.7423772159,1471
91531,184426,229283,-1.6654045296,-1.0480562988,-9.6813602396,1472
91667,184418,229293,-1.7503497318999999,-1.0061819033000001,-9.6394858441,1473
91835,184481,229328,-1.7503497318999999,-1.0241280728,-9.7423772159,1474
92040,184510,229401,-1.5661023917,-1.0396814197,-9.6490571345,1475
92202,184536,229386,-1.4847464232999998,-0.9296115801,-9.6969135865,1476
92359,184550,229408,-1.6821542877999998,-1.0480562988,-9.7340023368,1477
92566,184574,229366,-1.4321043261,-1.1198409768,-9.619146852,1478
92695,184573,229453,-1.6953148121,-0.8925228298,-9.5677011661,1479
92830,184641,229440,-1.722832272,-1.1150553316,-9.7914300792,1480
92790,184597,229402,-1.5373885205000002,-1.0576275892,-9.667003304,1481
92306,184509,229343,-1.6462619487999999,-1.0109675485,-9.5677011661,1482
91708,184443,229361,-1.6618152957,-1.0815558152,-9.7567341515,1483
91262,184416,229283,-1.6366906583999998,-1.0301101293000001,-9.6574320136,1484
91066,184365,229252,-1.6797614652,-0.9918249677,-9.6765745944,1485
90969,184375,229279,-1.6223337227999999,-1.2717852119000002,-9.762716208,1486
91024,184436,229320,-1.6654045296,-0.9188438784,-9.7052884656,1487
91187,184425,229296,-1.6654045296,-1.1150553316,-9.6382894328,1488
91387,184433,229335,-1.55533469,-1.0995019847,-9.785448022699999,1489
91559,184456,229336,-1.4560325521,-1.1377871463,-9.6717889492,1490
91662,184526,229413,-1.7180466268,-1.0241280728,-9.6143612068,1491
91734,184533,229381,-1.7024932798999999,-1.1042876299,-9.634700198900001,1492
91821,184557,229455,-1.6498511827,-0.9726823869,-9.6107719729,1493
91959,184601,229395,-1.6558332392,-1.0336993632,-9.629914553699999,1494
92076,184575,229407,-1.6175480776,-1.1114660977,-9.732805925500001,1495
92229,184624,229427,-1.5373885205000002,-1.0396814197,-9.7112705221,1496
92402,184641,229472,-1.7359927963,-1.0348957745,-9.6107719729,1497
92601,184756,229480,-1.5146567058,-1.1437692028,-9.7950193131,1498
92785,184691,229481,-1.5517454561000001,-1.1018948073,-9.762716208,1499
92951,184708,229493,-1.6187444889,-1.0384850084,-9.6143612068,1500
93124,184748,229507,-1.7036896912000001,-1.1246266219999999,-9.7052884656,1501
93254,184728,229526,-1.698904046,-0.909272588,-9.8093762487,1502
93383,184669,229525,-1.6414763036,-1.1330015010999999,-9.6574320136,1503
93271,184732,229454,-1.5744772707999999,-1.0636096457,-9.643075077999999,1504
92765,184658,229412,-1.5373885205000002,-1.1246266219999999,-9.7567341515,1505
92183,184548,229386,-1.6893327556000002,-1.1234302107,-9.7962157244,1506
91756,184532,229362,-1.5888342063999998,-1.1294122672,-9.6729853605,1507
91596,184527,229429,-1.5696916256,-1.1581261384000001,-9.6526463684,1508
91535,184531,229373,-1.6079767872,-1.0492527101,-9.6681997153,1509
91552,184553,229366,-1.5804593273,-1.172483074,-9.7244310464,1510
91733,184535,229391,-1.6223337227999999,-1.2059825904,-9.7435736272,1511
91899,184571,229425,-1.5948162629,-1.1150553316,-9.7902336679,1512
92029,184612,229433,-1.5469598109,-1.1102696864,-9.6813602396,1513
92091,184563,229445,-1.5050854154,-1.1102696864,-9.6107719729,1514
92135,184609,229470,-1.7982061838999999,-0.9296115801,-9.6526463684,1515
92211,184601,229417,-1.6462619487999999,-1.1617153723,-9.5868437469,1516
92297,184563,229415,-1.603191142,-0.9774680320999999,-9.5820581017,1517
92368,184600,229398,-1.5900306177,-1.0911271056,-9.634700198900001,1518
