green,red,IR,acc_x,acc_y,acc_z,sample_index
77396,185781,222858,2.2528424779,9.399007172800001,-0.047856452,1
77446,185776,222912,2.5375883673,9.420542576199999,-0.1160518961,2
77486,185794,222908,2.3282163898,9.5270231819,-0.0646062102,3
77529,185784,222922,2.4538395763,9.5066841898,0.0,4
77592,185790,222903,2.4753749797,9.4217389875,-0.040677984199999996,5
77631,185804,222919,2.2552353005,9.4360959231,-0.1256231865,6
77693,185803,222912,2.4777678023000003,9.5030949559,-0.08374879099999999,7
77733,185809,222942,2.3497517932000003,9.5018985446,0.0143569356,8
77718,185806,222947,2.2803599377999997,9.5724868113,-0.0143569356,9
77501,185712,222894,2.3641087288000002,9.475577496,-0.0263210486,10
77206,185695,222863,2.5028924396,9.4313102779,0.0729810893,11
77032,185667,222819,2.3461625592999997,9.5018985446,-0.04307080679999999,12
76944,185659,222868,2.4071795356,9.4325066892,-0.0167497582,13
76873,185641,222863,2.404786713,9.589236569499999,-0.071784678,14
76885,185662,222856,2.3377876802,9.4169533423,0.0299102825,15
76931,185683,222860,2.2815563491,9.509077012399999,-0.08135596839999999,16
76914,185721,222894,2.404786713,9.3750789468,-0.059820565,17
76977,185726,222864,2.3234307446,9.420542576199999,0.023928226,18
76927,185751,222872,2.3760728418,9.510273423700001,-0.0143569356,19
77003,185730,222927,2.4071795356,9.5054877785,-0.0263210486,20
76947,185702,222915,2.344966148,9.5078806011,-0.0610169763,21
77071,185740,222930,2.3641087288000002,9.463613383,-0.0083748791,22
77130,185746,222943,2.3521446158,9.5246303593,-0.107677017,23
77150,185788,222983,2.27318147,9.399007172800001,0.0287138712,24
77220,185790,222962,2.3545374384,9.3140619705,-0.04307080679999999,25
77266,185808,222912,2.3736800192,9.4815595525,0.0299102825,26
77319,185795,222978,2.3856441322,9.475577496,-0.08135596839999999,27
77376,185811,222940,2.4299113503,9.3643112451,0.010767701699999998,28
77454,185822,222982,2.2815563491,9.4504528587,-0.0143569356,29
77509,185819,222955,2.368894374,9.6394858441,-0.040677984199999996,30
77485,185805,222950,2.3102702203,9.4803631412,-0.0765703232,31
77186,185733,222924,2.3700907853,9.4025964067,-0.0143569356,32
77038,185683,222915,2.2671994135,9.4588277378,-0.0191425808,33
76846,185664,222906,2.3485553819,9.4923272542,-0.08853443620000001,34
76765,185667,222914,2.3605194949,9.3750789468,-0.143569356,35
76677,185671,222856,2.3545374384,9.4743810847,-0.12442677519999999,36
76794,185676,222908,2.321037922,9.399007172800001,-0.023928226,37
76749,185751,222959,2.4227328825,9.4420779796,0.0035892339,38
76899,185718,222943,2.3724836079,9.427721044,0.0191425808,39
76942,185702,222949,2.2265214293,9.4372923344,-0.0574277424,40
76908,185727,222984,2.3306092124,9.4923272542,-0.0394815729,41
76923,185764,223013,2.3665015514,9.598807859899999,-0.04307080679999999,42
76984,185717,222951,2.4107687694999997,9.4612205604,0.04307080679999999,43
77009,185716,222982,2.4514467537,9.4947200768,0.10648060570000001,44
77008,185774,222982,2.3401805028,9.4061856406,-0.0011964113,45
77125,185773,222998,2.3736800192,9.511469835,0.040677984199999996,46
77216,185803,223017,2.3976082452,9.6155576181,0.011964113,47
77304,185809,223012,2.2923240508,9.4767739073,-0.0167497582,48
77261,185797,222995,2.4490539311,9.4540420926,-0.047856452,49
77390,185813,223041,2.3665015514,9.3966143502,0.0191425808,50
77412,185802,222993,2.3760728418,9.3260260835,0.0275174599,51
77505,185836,223040,2.2899312282,9.5342016497,-0.08135596839999999,52
77541,185810,223037,2.5160529638999996,9.6167540294,0.0047856452,53
77418,185790,222952,2.4335005842,9.4947200768,0.0071784678,54
77147,185704,222926,2.321037922,9.4049892293,-0.0765703232,55
76971,185703,222921,2.297109696,9.5820581017,0.0394815729,56
76891,185699,222961,2.404786713,9.4827559638,0.0490528633,57
76846,185681,222917,2.3425733254,9.4707918508,-0.0071784678,58
76850,185696,222938,2.3485553819,9.4253282214,0.051445685899999996,59
76940,185722,223004,2.4873390927,9.4013999954,-0.0143569356,60
77005,185744,223004,2.4083759468999997,9.523433948000001,0.0,61
77029,185739,222993,2.4275185276999998,9.5294160045,-0.143569356,62
77038,185719,223018,2.3832513096,9.4253282214,0.062213387599999996,63
77055,185764,222989,2.4203400599,9.4851487864,-0.0299102825,64
77078,185777,223001,2.3497517932000003,9.5078806011,0.0370887503,65
77132,185783,223012,2.3832513096,9.5306124158,-0.10169496049999999,66
77180,185769,223004,2.4131615921,9.4624169717,-0.045463629400000004,67
77239,185776,223047,2.3784656644,9.497112899400001,-0.1304088317,68
77311,185790,223051,2.27318147,9.5066841898,-0.0502492746,69
77378,185807,223031,2.3724836079,9.5485585853,-0.0143569356,70
77435,185792,223016,2.3282163898,9.5677011661,-0.031106693799999998,71
77498,185809,223052,2.3760728418,9.4731846734,-0.071784678,72
77555,185836,223048,2.3820548983,9.4707918508,0.0167497582,73
77632,185835,223057,2.3665015514,9.4002035841,0.0095712904,74
77664,185828,223031,2.4143580034,9.523433948000001,0.0143569356,75
77604,185779,222996,2.3641087288000002,9.4085784632,-0.035892339,76
77330,185729,222987,2.2947168733999996,9.427721044,-0.0167497582,77
77136,185721,222958,2.4418754632999997,9.5174518915,-0.010767701699999998,78
77044,185672,222964,2.3318056236999998,9.5162554802,-0.0334995164,79
76998,185672,222957,2.2935204621,9.5258267706,-0.021535403399999997,80
77010,185687,222964,2.4011974791,9.579665279099999,0.021535403399999997,81
77081,185716,223029,2.3880369548,9.5461657627,-0.0382851616,82
77196,185708,223044,2.4299113503,9.3774717694,-0.0646062102,83
77197,185733,222992,2.3760728418,9.5198447141,0.0059820565,84
77247,185765,222972,2.4251257050999997,9.4229353988,0.0035892339,85
77264,185746,223035,2.4311077616,9.5653083435,0.0047856452,86
77308,185757,223002,2.3856441322,9.5282195932,0.0191425808,87
77361,185772,223011,2.2803599377999997,9.5162554802,0.0179461695,88
77450,185778,222994,2.3653051401,9.4899344316,0.0047856452,89
77566,185830,223042,2.4023938904,9.4097748745,-0.041874395499999995,90
77594,185801,223077,2.3485553819,9.4253282214,0.0191425808,91
77673,185820,223085,2.4382862294,9.5521478192,0.0023928226,92
77747,185856,223052,2.3593230836,9.5677011661,0.0299102825,93
77823,185868,223081,2.2995025186,9.3894358824,-0.04307080679999999,94
77909,185899,223054,2.3126630429,9.4540420926,-0.0741775006,95
78017,185861,223068,2.2947168733999996,9.4061856406,0.047856452,96
78040,185872,223081,2.4681965119,9.5365944723,-0.0646062102,97
77996,185849,223048,2.3844477209,9.4719882621,-0.035892339,98
77830,185780,223013,2.4251257050999997,9.3583291886,0.0275174599,99
77583,185773,223013,2.4203400599,9.4528456813,0.041874395499999995,100
77480,185724,222962,2.3425733254,9.3894358824,0.0346959277,101
77455,185727,223000,2.2648065909,9.5294160045,-0.08374879099999999,102
77444,185749,222981,2.3258235672,9.4695954395,-0.011964113,103
77548,185764,222996,2.4095723582,9.3475614869,0.011964113,104
77499,185785,222994,2.4263221164,9.4420779796,0.0323031051,105
77640,185790,223079,2.3162522768000002,9.477970318599999,0.0179461695,106
77679,185808,223073,2.3700907853,9.5018985446,-0.0191425808,107
77678,185796,223012,2.2636101795999997,9.4827559638,0.010767701699999998,108
77643,185832,223025,2.3868405435,9.4325066892,-0.051445685899999996,109
77766,185830,223054,2.2707886474,9.5270231819,-0.1543370577,110
77800,185836,223043,2.4263221164,9.5581298757,0.0,111
77862,185848,223090,2.428714939,9.595218626,0.0921236701,112
77928,185862,223086,2.4921247379,9.4947200768,-0.09690931529999999,113
78011,185865,223059,2.3796620756999998,9.3774717694,-0.0167497582,114
78075,185873,223109,2.4346969955,9.4265246327,-0.023928226,115
78137,185890,223090,2.3401805028,9.4444708022,-0.0263210486,116
78204,185902,223106,2.4335005842,9.5820581017,0.04307080679999999,117
78264,185901,223086,2.4203400599,9.477970318599999,-0.031106693799999998,118
78322,185909,223087,2.3952154226,9.4133641084,-0.0669990328,119
78227,185875,223074,2.4203400599,9.4181497536,-0.0741775006,120
78011,185788,223006,2.3306092124,9.4301138666,-0.08853443620000001,121
77777,185769,223029,2.4000010678,9.4492564474,-0.0095712904,122
77637,185781,222986,2.4538395763,9.5342016497,0.0179461695,123
77634,185781,223019,2.3377876802,9.4624169717,-0.062213387599999996,124
77649,185765,222996,2.3760728418,9.4923272542,0.0287138712,125
77725,185818,223032,2.3700907853,9.5449693514,-0.0143569356,126
77789,185848,223022,2.4143580034,9.4624169717,-0.0897308475,127
77803,185839,223055,2.2755742926,9.4863451977,-0.0646062102,128
77809,185829,223045,2.4370898181,9.495916488099999,-0.062213387599999996,129
77816,185801,223035,2.4071795356,9.4887380203,-0.035892339,130
77832,185835,223045,2.5160529638999996,9.5330052384,-0.047856452,131
77877,185857,223093,2.3174486881,9.4217389875,0.0394815729,132
77921,185832,223053,2.2408783649,9.3726861242,0.0334995164,133
77951,185864,223036,2.3473589706,9.4528456813,-0.1339980656,134
78039,185894,223076,2.3784656644,9.3906322937,-0.0646062102,135
78012,185872,223061,2.3976082452,9.439685157,-0.095712904,136
78063,185877,223048,2.3736800192,9.4600241491,-0.0550349198,137
78085,185875,223081,2.3665015514,9.497112899400001,-0.0191425808,138
78136,185866,223048,2.4921247379,9.410971285799999,0.0610169763,139
78083,185848,223039,2.3150558654999998,9.5724868113,0.0945164927,140
77975,185825,223025,2.4442682859,9.4229353988,-0.062213387599999996,141
77655,185743,222952,2.5220350203999997,9.4253282214,-0.0191425808,142
77399,185691,222949,2.2767707039,9.4719882621,-0.0191425808,143
77267,185700,222902,2.3880369548,9.5018985446,-0.0646062102,144
77200,185692,222936,2.3521446158,9.4145605197,-0.0394815729,145
77162,185676,222878,2.3521446158,9.5533442305,-0.0095712904,146
77175,185732,222935,2.2995025186,9.5342016497,-0.047856452,147
77212,185743,222956,2.4586252215,9.4301138666,-0.0011964113,148
77212,185707,222926,2.4035903017,9.5210411254,0.020338992099999998,149
77187,185728,222923,2.476571391,9.4061856406,-0.1639083481,150
77179,185725,222939,2.344966148,9.535398061,-0.023928226,151
77184,185738,222941,2.4299113503,9.5449693514,-0.0669990328,152
77202,185731,222961,2.3437697367,9.579665279099999,0.0610169763,153
77231,185746,222930,2.3186450994000003,9.4815595525,-0.045463629400000004,154
77264,185789,222929,2.3282163898,9.4672026169,-0.045463629400000004,155
77312,185759,222963,2.3377876802,9.415756931,0.0538385085,156
77369,185762,222979,2.321037922,9.4827559638,-0.0502492746,157
77411,185803,222978,2.3700907853,9.4145605197,-0.0550349198,158
77457,185765,222978,2.4083759468999997,9.598807859899999,0.0370887503,159
77502,185795,222966,2.3114666316,9.4887380203,-0.0574277424,160
77536,185810,222969,2.440679052,9.468399028199999,-0.1004985492,161
77463,185729,222946,2.4155544147,9.510273423700001,-0.0789631458,162
77161,185675,222877,2.416750826,9.3607220112,0.0610169763,163
76912,185640,222839,2.3772692530999997,9.5700939887,0.0610169763,164
76782,185625,222811,2.3820548983,9.477970318599999,0.035892339,165
76740,185604,222855,2.4466611085,9.439685157,0.0071784678,166
76600,185621,222832,2.368894374,9.5928258034,-0.0035892339,167
76671,185633,222853,2.4059831243,9.3427758417,0.0323031051,168
76729,185643,222889,2.404786713,9.6227360859,-0.0059820565,169
76765,185658,222884,2.4430718746,9.4851487864,-0.031106693799999998,170
76759,185658,222846,2.3832513096,9.4803631412,0.0251246373,171
76783,185657,222877,2.3437697367,9.477970318599999,-0.0646062102,172
76815,185656,222884,2.27318147,9.5461657627,-0.0466600407,173
76799,185680,222895,2.3545374384,9.4660062056,-0.031106693799999998,174
76880,185680,222906,2.3892333661,9.4013999954,-0.0143569356,175
76906,185687,222892,2.3964118339,9.4923272542,0.041874395499999995,176
76984,185707,222907,2.4227328825,9.439685157,-0.04307080679999999,177
77045,185711,222903,2.3377876802,9.3595255999,-0.0059820565,178
77079,185707,222936,2.404786713,9.391828705,-0.040677984199999996,179
77129,185754,222932,2.3401805028,9.4923272542,0.0538385085,180
77182,185731,222939,2.4000010678,9.4444708022,-0.031106693799999998,181
77252,185734,222933,2.3760728418,9.5246303593,-0.04307080679999999,182
77299,185728,222903,2.404786713,9.4899344316,-0.0095712904,183
77150,185634,222838,2.3401805028,9.5018985446,-0.015553346899999999,184
76862,185619,222822,2.3988046565,9.510273423700001,-0.0023928226,185
76663,185593,222803,2.4023938904,9.5521478192,-0.0071784678,186
76571,185557,222797,2.3976082452,9.4444708022,-0.11246266220000001,187
76515,185595,222808,2.3832513096,9.475577496,0.0143569356,188
76468,185607,222816,2.3545374384,9.3631148338,0.0526420972,189
76606,185615,222838,2.3401805028,9.6155576181,-0.04307080679999999,190
76679,185601,222849,2.4011974791,9.511469835,-0.0502492746,191
76707,185595,222866,2.4179472373,9.4468636248,-0.0646062102,192
76736,185639,222883,2.2791635265,9.3894358824,-0.08853443620000001,193
76718,185620,222857,2.4155544147,9.5365944723,-0.0741775006,194
76754,185610,222883,2.4227328825,9.4803631412,-0.1351944769,195
76832,185668,222879,2.4370898181,9.4899344316,-0.11964113,196
76853,185651,222891,2.3138594542,9.5030949559,0.0251246373,197
76913,185656,222907,2.3425733254,9.420542576199999,-0.0167497582,198
76997,185704,222920,2.4059831243,9.4719882621,0.0251246373,199
77063,185708,222921,2.3306092124,9.509077012399999,-0.04307080679999999,200
77127,185707,222933,2.3545374384,9.5210411254,-0.0143569356,201
77184,185701,222893,2.3365912689,9.5569334644,-0.0287138712,202
77271,185757,222908,2.2360927197000002,9.4085784632,0.035892339,203
77327,185734,222892,2.2552353005,9.4815595525,-0.0287138712,204
77334,185712,222893,2.3617159062,9.487541608999999,0.0047856452,205
77085,185649,222887,2.3018953412000003,9.4301138666,-0.0610169763,206
76884,185614,222809,2.2923240508,9.4348995118,0.0466600407,207
76726,185586,222789,2.3772692530999997,9.477970318599999,-0.0873380249,208
76674,185577,222800,2.3892333661,9.5772724565,0.031106693799999998,209
76631,185584,222846,2.4107687694999997,9.3966143502,-0.0825523797,210
76706,185564,222815,2.4227328825,9.531808827099999,-0.0047856452,211
76777,185613,222842,2.3880369548,9.5724868113,0.0334995164,212
76819,185611,222870,2.3126630429,9.439685157,-0.0299102825,213
76848,185597,222893,2.356930261,9.3726861242,-0.0263210486,214
76871,185625,222851,2.5136601413,9.3954179389,-0.08614161359999999,215
76835,185626,222850,2.2181465501999997,9.5282195932,0.0023928226,216
76932,185650,222855,2.3018953412000003,9.4444708022,-0.08374879099999999,217
76976,185631,222899,2.2576281231,9.562915520899999,0.0681954441,218
77039,185663,222845,2.3234307446,9.3942215276,-0.0334995164,219
77111,185698,222899,2.4011974791,9.4217389875,-0.0047856452,220
77158,185709,222916,2.3976082452,9.5007021333,-0.035892339,221
77241,185717,222924,2.2707886474,9.4492564474,0.0251246373,222
77311,185702,222894,2.297109696,9.456434915200001,-0.041874395499999995,223
77373,185731,222897,2.3605194949,9.4839523751,-0.0765703232,224
77413,185731,222934,2.2085752598,9.6921279413,-0.10289137179999999,225
77454,185712,222904,2.3521446158,9.4815595525,-0.0765703232,226
77353,185666,222903,2.3318056236999998,9.4408815683,-0.0753739119,227
77098,185595,222839,2.297109696,9.4887380203,-0.021535403399999997,228
76921,185562,222816,2.368894374,9.4899344316,-0.045463629400000004,229
76867,185554,222815,2.4562323989,9.4372923344,0.010767701699999998,230
76841,185587,222816,2.2947168733999996,9.4923272542,0.0,231
76886,185592,222834,2.4610180441000002,9.4133641084,-0.040677984199999996,232
76968,185644,222869,2.4562323989,9.4145605197,0.015553346899999999,233
77051,185638,222865,2.3425733254,9.5461657627,0.0059820565,234
77109,185664,222886,2.4119651808,9.5976114486,-0.0346959277,235
77155,185659,222878,2.4622144554,9.4947200768,-0.04307080679999999,236
77198,185658,222921,2.4574288102,9.4253282214,0.0370887503,237
77255,185679,222860,2.4442682859,9.4253282214,0.0143569356,238
77349,185668,222883,2.4490539311,9.5389872949,-0.04307080679999999,239
77358,185706,222905,2.3880369548,9.5916293921,0.0143569356,240
77467,185716,222906,2.368894374,9.5425765288,-0.059820565,241
77517,185734,222958,2.3964118339,9.4731846734,-0.0849452023,242
77629,185719,222948,2.3258235672,9.3786681807,-0.020338992099999998,243
77767,185726,222927,2.4466611085,9.5425765288,-0.11246266220000001,244
77814,185764,222940,2.3042881638,9.403792818,0.0490528633,245
77907,185788,222945,2.356930261,9.6012006825,-0.071784678,246
77810,185782,222954,2.2911276395,9.4360959231,-0.011964113,247
77735,185681,222901,2.4346969955,9.391828705,-0.1579262916,248
77502,185631,222868,2.3904297774,9.456434915200001,-0.045463629400000004,249
77401,185643,222857,2.3928226,9.5389872949,-0.0287138712,250
77316,185612,222862,2.3844477209,9.4085784632,0.0490528633,251
77337,185656,222875,2.3078773977,9.5688975774,-0.095712904,252
77319,185671,222877,2.3258235672,9.5557370531,0.0334995164,253
77488,185709,222893,2.321037922,9.353543543399999,-0.0143569356,254
77545,185673,222928,2.3557338497,9.4803631412,-0.0382851616,255
77609,185720,222914,2.3904297774,9.5677011661,0.015553346899999999,256
77656,185724,222928,2.4299113503,9.4588277378,-0.035892339,257
77689,185741,222942,2.3880369548,9.3750789468,0.035892339,258
77746,185734,222970,2.3760728418,9.5246303593,0.056231331100000004,259
77814,185773,222984,2.3138594542,9.4588277378,0.0047856452,260
77875,185782,222994,2.4729821571,9.4504528587,-0.045463629400000004,261
77944,185763,222999,2.3557338497,9.4695954395,0.011964113,262
78091,185800,223017,2.5088744961000002,9.4444708022,-0.0741775006,263
78130,185808,222988,2.4323041729,9.4803631412,-0.0059820565,264
78196,185807,223031,2.3928226,9.3810610033,0.0287138712,265
78269,185807,222996,2.3401805028,9.523433948000001,0.011964113,266
78267,185784,223036,2.2827527603999997,9.518648302799999,0.0167497582,267
78123,185745,222926,2.4789642136,9.4372923344,0.0023928226,268
77850,185704,222903,2.4610180441000002,9.475577496,-0.0526420972,269
77772,185677,222929,2.344966148,9.589236569499999,-0.0143569356,270
77679,185667,222932,2.297109696,9.4588277378,-0.021535403399999997,271
77669,185724,222942,2.4191436486,9.4241318101,-0.0502492746,272
77710,185757,222964,2.2636101795999997,9.3595255999,-0.0023928226,273
77814,185785,222992,2.344966148,9.463613383,-0.0275174599,274
77846,185755,222999,2.3665015514,9.522237536699999,0.015553346899999999,275
77813,185747,223021,2.2755742926,9.4265246327,-0.0646062102,276
77852,185771,223019,2.3270199785,9.4707918508,-0.08614161359999999,277
77873,185773,223015,2.3665015514,9.5724868113,-0.0502492746,278
77867,185753,223052,2.4753749797,9.5246303593,-0.0131605243,279
77888,185773,222984,2.404786713,9.5042913672,-0.0179461695,280
77916,185769,222995,2.4681965119,9.4049892293,-0.045463629400000004,281
77929,185802,223032,2.3856441322,9.353543543399999,0.0538385085,282
78011,185784,223026,2.344966148,9.4025964067,-0.08135596839999999,283
78003,185805,223017,2.4681965119,9.5126662463,-0.0981057266,284
78024,185803,223051,2.3605194949,9.4061856406,0.0370887503,285
78050,185801,222992,2.368894374,9.4372923344,0.035892339,286
77922,185776,223006,2.309073809,9.4348995118,-0.0263210486,287
77609,185690,222931,2.3222343333,9.4337031005,-0.1220339526,288
77422,185657,222912,2.4131615921,9.4672026169,0.0275174599,289
77247,185628,222928,2.3641087288000002,9.340383019099999,-0.0646062102,290
77191,185629,222912,2.4119651808,9.410971285799999,-0.031106693799999998,291
77122,185650,222926,2.3282163898,9.4576313265,0.010767701699999998,292
77179,185686,222966,2.3042881638,9.518648302799999,0.022731814700000002,293
77219,185731,222958,2.3856441322,9.5485585853,-0.0143569356,294
77232,185705,223013,2.2923240508,9.463613383,0.062213387599999996,295
77274,185685,223016,2.3880369548,9.4911308429,-0.0191425808,296
77234,185726,222988,2.3617159062,9.3822574146,-0.0346959277,297
77243,185702,222986,2.3330020350000003,9.4839523751,-0.0323031051,298
77248,185777,223008,2.2875384056,9.4588277378,-0.045463629400000004,299
77281,185767,223016,2.2528424779,9.4085784632,0.020338992099999998,300
77336,185750,222985,2.3808584870000002,9.3571327773,0.0023928226,301
77382,185778,223074,2.3700907853,9.5018985446,-0.059820565,302
77436,185770,223023,2.4107687694999997,9.410971285799999,-0.047856452,303
77487,185779,223046,2.5794627628,9.5665047548,-0.0167497582,304
77551,185836,223068,2.309073809,9.589236569499999,-0.0167497582,305
77578,185799,223053,2.3066809864,9.6442714893,-0.0669990328,306
77420,185763,223037,2.2313070745,9.4887380203,-0.04307080679999999,307
77121,185669,222929,2.4909283265999997,9.5078806011,-0.0143569356,308
76873,185641,222963,2.3389840915,9.5258267706,-0.09092725880000001,309
76732,185617,222940,2.4023938904,9.5007021333,-0.08135596839999999,310
76646,185659,222946,2.2803599377999997,9.4672026169,-0.0167497582,311
76614,185651,222991,2.4251257050999997,9.439685157,-0.0394815729,312
76662,185660,223009,2.3952154226,9.4253282214,-0.1040877831,313
76751,185656,223052,2.4083759468999997,9.510273423700001,-0.09930213789999999,314
76778,185676,223055,2.4562323989,9.5282195932,0.0,315
76792,185679,223043,2.3246271559,9.4791667299,0.0047856452,316
76836,185671,223047,2.3377876802,9.5342016497,0.06340979890000001,317
76754,185668,223024,2.5579273594000003,9.3427758417,-0.0550349198,318
76883,185683,223026,2.2947168733999996,9.4540420926,-0.0167497582,319
76892,185697,223062,2.3330020350000003,9.4947200768,0.06340979890000001,320
76955,185678,223070,2.3952154226,9.4492564474,-0.0646062102,321
77017,185732,223105,2.3497517932000003,9.4767739073,0.0,322
77066,185752,223065,2.2013967919999997,9.477970318599999,0.0538385085,323
77146,185747,223107,2.3665015514,9.518648302799999,0.022731814700000002,324
77212,185766,223071,2.4107687694999997,9.559326287,-0.0646062102,325
77269,185754,223102,2.4538395763,9.5712904,-0.0586241537,326
77267,185728,223098,2.3676979627,9.5066841898,-0.021535403399999997,327
77015,185662,223033,2.3880369548,9.4408815683,-0.011964113,328
76719,185581,223026,2.3330020350000003,9.4408815683,0.044267218100000005,329
76587,185574,223013,2.2432711875,9.4887380203,-0.0275174599,330
76505,185582,223025,2.2767707039,9.5581298757,0.041874395499999995,331
76511,185617,222996,2.3066809864,9.4672026169,-0.011964113,332
76543,185615,223036,2.3341984463,9.4229353988,0.0191425808,333
76657,185617,223055,2.3772692530999997,9.4887380203,-0.107677017,334
76716,185654,223093,2.3796620756999998,9.3511507208,-0.0334995164,335
76756,185671,223091,2.428714939,9.5066841898,-0.0263210486,336
76756,185651,223083,2.4299113503,9.456434915200001,-0.0179461695,337
76805,185658,223054,2.4741785684,9.4911308429,0.015553346899999999,338
76902,185668,223077,2.3665015514,9.5294160045,-0.0143569356,339
76913,185654,223096,2.4071795356,9.475577496,-0.1220339526,340
76976,185646,223080,2.3114666316,9.5282195932,-0.1172483074,341
77059,185678,223084,2.309073809,9.4492564474,0.0071784678,342
77129,185673,223113,2.1906290903,9.5605226983,-0.0143569356,343
77192,185677,223108,2.3617159062,9.5198447141,0.0071784678,344
77262,185719,223090,2.4490539311,9.4947200768,0.0167497582,345
77328,185714,223105,2.4753749797,9.4253282214,-0.095712904,346
77380,185698,223115,2.3844477209,9.6107719729,-0.0921236701,347
77395,185708,223057,2.3162522768000002,9.5389872949,0.021535403399999997,348
77186,185617,223050,2.3198415107,9.497112899400001,0.0,349
76938,185580,222980,2.356930261,9.463613383,-0.1112662509,350
76824,185509,222944,2.2923240508,9.497112899400001,0.10648060570000001,351
76777,185555,223011,2.3988046565,9.5581298757,-0.0765703232,352
76762,185559,223041,2.3772692530999997,9.6251289085,-0.0526420972,353
76838,185575,223040,2.3665015514,9.5258267706,0.0646062102,354
76943,185619,223045,2.3126630429,9.4899344316,-0.0765703232,355
77008,185576,223065,2.3521446158,9.579665279099999,0.022731814700000002,356
77040,185605,223027,2.297109696,9.4731846734,-0.08614161359999999,357
77055,185614,223029,2.3736800192,9.3547399547,-0.0047856452,358
77101,185606,223045,2.51246373,9.4863451977,-0.11964113,359
77163,185613,223028,2.3784656644,9.4253282214,-0.0741775006,360
77218,185650,223016,2.4011974791,9.4492564474,-0.0287138712,361
77282,185615,223027,2.4382862294,9.4743810847,-0.04307080679999999,362
77367,185632,223011,2.3377876802,9.3834538259,-0.0334995164,363
77443,185662,223032,2.356930261,9.3523471321,-0.08614161359999999,364
77503,185673,223028,2.3042881638,9.3738825355,-0.0334995164,365
77593,185664,223010,2.3641087288000002,9.4049892293,-0.0382851616,366
77672,185696,223016,2.3880369548,9.535398061,-0.023928226,367
77756,185696,223048,2.4023938904,9.4540420926,0.0299102825,368
77804,185710,223057,2.3581266723,9.547362174,0.011964113,369
77728,185654,222976,2.3533410271,9.4588277378,-0.0394815729,370
77466,185572,222951,2.3581266723,9.4325066892,-0.0526420972,371
77340,185574,222964,2.4023938904,9.5030949559,-0.011964113,372
77225,185546,222950,2.3162522768000002,9.4612205604,-0.040677984199999996,373
77277,185579,222981,2.3916261887,9.3547399547,-0.011964113,374
77313,185603,222983,2.3617159062,9.4360959231,-0.10289137179999999,375
77421,185623,222958,2.2827527603999997,9.5665047548,0.0059820565,376
77522,185643,222991,2.3066809864,9.5413801175,-0.0574277424,377
77568,185624,223010,2.3712871966,9.5198447141,-0.1004985492,378
77611,185650,222992,2.4574288102,9.4911308429,-0.031106693799999998,379
77653,185630,222968,2.4873390927,9.4181497536,-0.010767701699999998,380
77703,185661,222959,2.4011974791,9.4193461649,0.021535403399999997,381
77757,185657,222986,2.2839491717,9.5150590689,0.051445685899999996,382
77833,185703,223033,2.2779671152,9.5078806011,0.0275174599,383
77922,185677,222991,2.3868405435,9.4456672135,0.0466600407,384
77999,185657,222983,2.4299113503,9.4899344316,-0.0765703232,385
78066,185681,223021,2.4370898181,9.5030949559,-0.071784678,386
78146,185675,223001,2.2420747762,9.5282195932,-0.047856452,387
78212,185744,222992,2.3665015514,9.5617191096,-0.0382851616,388
78271,185734,223002,2.3545374384,9.5042913672,-0.047856452,389
78332,185705,222995,2.2887348169,9.4253282214,-0.059820565,390
78301,185669,222960,2.4000010678,9.4887380203,-0.1052841944,391
78080,185622,222904,2.3030917525,9.4492564474,0.0849452023,392
77880,185595,222903,2.3042881638,9.523433948000001,0.0035892339,393
77806,185579,222933,2.3856441322,9.4253282214,-0.0071784678,394
77769,185582,222942,2.3593230836,9.4612205604,-0.0502492746,395
77795,185602,222926,2.5256242543,9.4468636248,0.0346959277,396
77877,185601,222945,2.4502503424,9.4085784632,-0.0538385085,397
77953,185646,222958,2.27318147,9.5724868113,0.0526420972,398
78001,185644,222936,2.297109696,9.403792818,-0.0334995164,399
78038,185659,222896,2.4466611085,9.4420779796,-0.023928226,400
78041,185641,222929,2.3461625592999997,9.4660062056,-0.035892339,401
78097,185637,222922,2.4729821571,9.5066841898,-0.010767701699999998,402
78121,185641,222899,2.4323041729,9.475577496,-0.0490528633,403
78189,185664,222933,2.3473589706,9.468399028199999,-0.0945164927,404
78272,185662,222974,2.3306092124,9.4408815683,-0.0083748791,405
78324,185668,222976,2.3521446158,9.4612205604,-0.0179461695,406
78373,185690,222933,2.3473589706,9.4612205604,-0.062213387599999996,407
78360,185708,222936,2.4179472373,9.415756931,0.0729810893,408
78505,185706,222953,2.4849462701,9.4325066892,-0.0526420972,409
78534,185700,222926,2.3665015514,9.5772724565,-0.0897308475,410
78557,185697,222921,2.4203400599,9.547362174,0.0275174599,411
78385,185628,222884,2.3832513096,9.4408815683,0.0095712904,412
78198,185562,222812,2.3461625592999997,9.4013999954,-0.09092725880000001,413
78023,185533,222814,2.3665015514,9.5174518915,0.0466600407,414
77888,185519,222809,2.3653051401,9.427721044,-0.0143569356,415
77806,185532,222791,2.3976082452,9.4444708022,0.0777667345,416
77781,185525,222837,2.3234307446,9.3966143502,-0.0251246373,417
77821,185526,222812,2.3066809864,9.511469835,-0.040677984199999996,418
77866,185548,222823,2.4502503424,9.439685157,-0.0263210486,419
77803,185525,222802,2.3126630429,9.6083791503,-0.021535403399999997,420
77843,185529,222786,2.4095723582,9.4360959231,0.0167497582,421
77835,185526,222770,2.3988046565,9.4863451977,-0.0574277424,422
77854,185515,222747,2.4023938904,9.4791667299,-0.04307080679999999,423
77895,185505,222777,2.3904297774,9.5533442305,0.0370887503,424
77902,185523,222762,2.4071795356,9.4217389875,0.0167497582,425
77977,185547,222774,2.3162522768000002,9.5174518915,-0.015553346899999999,426
77934,185519,222740,2.321037922,9.4133641084,0.0095712904,427
78029,185558,222762,2.4179472373,9.4743810847,0.0753739119,428
78068,185540,222755,2.4622144554,9.4301138666,0.0167497582,429
78126,185541,222748,2.4346969955,9.415756931,-0.071784678,430
78056,185530,222709,2.3724836079,9.4289174553,-0.051445685899999996,431
78147,185507,222670,2.2456640101,9.3750789468,-0.0550349198,432
77944,185424,222643,2.4753749797,9.4420779796,-0.04307080679999999,433
77687,185387,222622,2.3497517932000003,9.4803631412,0.035892339,434
77519,185391,222606,2.416750826,9.464809794299999,-0.0011964113,435
77431,185356,222599,2.3306092124,9.4456672135,-0.0382851616,436
77428,185389,222617,2.3796620756999998,9.5306124158,-0.0167497582,437
77367,185412,222590,2.3892333661,9.535398061,0.0346959277,438
77503,185407,222631,2.4358934068,9.468399028199999,-0.0023928226,439
77516,185439,222613,2.4873390927,9.3655076564,-0.045463629400000004,440
77531,185431,222596,2.4634108667000003,9.4707918508,-0.045463629400000004,441
77520,185430,222551,2.356930261,9.4707918508,0.0299102825,442
77528,185433,222600,2.3736800192,9.4588277378,0.0346959277,443
77559,185438,222579,2.3892333661,9.438488745699999,-0.0071784678,444
77600,185463,222601,2.2600209457,9.4803631412,0.0490528633,445
77649,185470,222647,2.4442682859,9.5605226983,0.0,446
77694,185448,222611,2.4394826406999996,9.4660062056,-0.0382851616,447
77756,185469,222597,2.4562323989,9.475577496,0.0825523797,448
77794,185465,222565,2.3377876802,9.4767739073,0.0095712904,449
77848,185483,222562,2.4777678023000003,9.4827559638,0.0299102825,450
77895,185511,222569,2.3653051401,9.4851487864,0.041874395499999995,451
77946,185462,222580,2.4789642136,9.495916488099999,-0.0011964113,452
77998,185501,222560,2.2995025186,9.3786681807,-0.0023928226,453
77977,185484,222547,2.2947168733999996,9.562915520899999,-0.1136590735,454
77745,185434,222478,2.4514467537,9.4181497536,0.0,455
77508,185358,222469,2.3282163898,9.4301138666,0.0059820565,456
77317,185349,222423,2.4035903017,9.5150590689,-0.047856452,457
77277,185374,222440,2.3437697367,9.4468636248,0.0538385085,458
77162,185378,222451,2.3162522768000002,9.4767739073,-0.0382851616,459
77264,185381,222471,2.4394826406999996,9.5210411254,0.0382851616,460
77324,185412,222423,2.309073809,9.646664311899999,0.041874395499999995,461
77348,185407,222419,2.4346969955,9.4121676971,-0.0550349198,462
77341,185427,222455,2.3832513096,9.4492564474,0.1088734283,463
77404,185440,222445,2.3018953412000003,9.559326287,-0.0789631458,464
77378,185399,222436,2.4119651808,9.5461657627,0.0681954441,465
77384,185446,222485,2.3126630429,9.4181497536,-0.0574277424,466
77425,185430,222437,2.2719850587,9.5054877785,-0.0382851616,467
77498,185437,222432,2.2217357841,9.495916488099999,-0.0059820565,468
77531,185452,222439,2.3186450994000003,9.5342016497,-0.0047856452,469
77572,185464,222426,2.3988046565,9.559326287,-0.0334995164,470
77662,185449,222429,2.4550359876,9.499505722,0.0346959277,471
77621,185479,222449,2.4059831243,9.4325066892,0.0765703232,472
77719,185505,222483,2.2863419943,9.5330052384,-0.021535403399999997,473
77756,185462,222430,2.356930261,9.4492564474,-0.0669990328,474
77833,185492,222392,2.5040888509,9.4827559638,-0.0981057266,475
77817,185466,222406,2.4155544147,9.463613383,0.0334995164,476
77637,185392,222380,2.2863419943,9.510273423700001,0.0023928226,477
77396,185366,222315,2.3138594542,9.4767739073,0.04307080679999999,478
77239,185356,222346,2.3880369548,9.5018985446,-0.1148554848,479
77142,185329,222294,2.3760728418,9.4253282214,-0.04307080679999999,480
77114,185363,222328,2.3246271559,9.4217389875,-0.0945164927,481
77087,185374,222311,2.4370898181,9.5162554802,0.0287138712,482
77091,185403,222335,2.4095723582,9.5162554802,0.021535403399999997,483
77199,185388,222306,2.2636101795999997,9.5688975774,-0.10289137179999999,484
77207,185387,222314,2.3844477209,9.5509514079,-0.0646062102,485
77199,185386,222310,2.368894374,9.4827559638,-0.035892339,486
77203,185404,222332,2.2911276395,9.4301138666,0.0370887503,487
77218,185432,222344,2.3246271559,9.5724868113,0.010767701699999998,488
77237,185412,222311,2.3617159062,9.4887380203,0.0263210486,489
77287,185418,222295,2.4789642136,9.4540420926,-0.0669990328,490
77336,185410,222324,2.3593230836,9.4887380203,-0.08853443620000001,491
77392,185425,222299,2.5280170769,9.3738825355,0.0191425808,492
77435,185438,222327,2.3234307446,9.4229353988,0.0346959277,493
77474,185475,222320,2.3545374384,9.5126662463,-0.0550349198,494
77556,185417,222288,2.4538395763,9.5054877785,-0.0574277424,495
77579,185450,222344,2.3868405435,9.4947200768,0.0323031051,496
77617,185469,222321,2.3401805028,9.5342016497,-0.0059820565,497
77659,185447,222302,2.2289142519,9.535398061,0.0167497582,498
77587,185428,222258,2.2336998971,9.4265246327,-0.051445685899999996,499
77347,185317,222217,2.3126630429,9.3942215276,-0.045463629400000004,500
77170,185365,222200,2.4335005842,9.5306124158,-0.04307080679999999,501
77075,185322,222171,2.3736800192,9.510273423700001,-0.0263210486,502
77033,185328,222205,2.3844477209,9.5820581017,-0.031106693799999998,503
77028,185316,222219,2.4490539311,9.5940222147,-0.04307080679999999,504
77105,185376,222239,2.2875384056,9.4253282214,0.0394815729,505
77176,185372,222258,2.3796620756999998,9.4803631412,0.0574277424,506
77209,185387,222239,2.4586252215,9.4540420926,0.06340979890000001,507
77148,185364,222220,2.4382862294,9.4923272542,-0.035892339,508
77243,185361,222247,2.3892333661,9.5174518915,-0.021535403399999997,509
77264,185381,222248,2.4658036893,9.6107719729,0.035892339,510
77312,185394,222246,2.4538395763,9.343972252999999,0.0167497582,511
77371,185385,222247,2.3545374384,9.4301138666,-0.0526420972,512
77464,185398,222232,2.3665015514,9.4337031005,0.056231331100000004,513
77455,185432,222265,2.3521446158,9.3822574146,-0.0550349198,514
77555,185447,222262,2.4586252215,9.343972252999999,-0.08374879099999999,515
77609,185463,222277,2.3066809864,9.5461657627,-0.0143569356,516
77620,185425,222326,2.4299113503,9.5413801175,-0.0047856452,517
77732,185454,222279,2.4000010678,9.5018985446,0.0047856452,518
77804,185464,222274,2.4945175605000003,9.475577496,0.015553346899999999,519
77853,185484,222303,2.27318147,9.5820581017,0.010767701699999998,520
77813,185452,222256,2.4825534475,9.4325066892,0.0287138712,521
77619,185344,222199,2.4227328825,9.4325066892,0.020338992099999998,522
77367,185355,222150,2.3353948576,9.589236569499999,0.0394815729,523
77289,185348,222194,2.3282163898,9.3966143502,-0.0765703232,524
77223,185342,222143,2.3629123174999997,9.564111932200001,-0.035892339,525
77285,185375,222191,2.3641087288000002,9.463613383,0.1160518961,526
77292,185392,222226,2.4945175605000003,9.427721044,0.020338992099999998,527
77385,185400,222203,2.2636101795999997,9.5413801175,0.0191425808,528
77375,185391,222222,2.3593230836,9.487541608999999,-0.0693918554,529
77396,185387,222223,2.3545374384,9.497112899400001,-0.0334995164,530
77415,185414,222220,2.4035903017,9.4540420926,0.022731814700000002,531
77442,185436,222203,2.404786713,9.4707918508,-0.09092725880000001,532
77448,185432,222240,2.4203400599,9.5389872949,0.011964113,533
77496,185428,222253,2.4538395763,9.5521478192,0.0143569356,534
77551,185426,222256,2.4789642136,9.5736832226,0.1112662509,535
77616,185472,222260,2.4275185276999998,9.4360959231,-0.0263210486,536
77663,185495,222277,2.2911276395,9.4600241491,-0.047856452,537
77704,185473,222238,2.3844477209,9.309276325299999,-0.0251246373,538
77744,185479,222302,2.3282163898,9.4492564474,-0.0095712904,539
77797,185471,222288,2.3557338497,9.487541608999999,-0.1639083481,540
77834,185485,222270,2.4251257050999997,9.5377908836,0.011964113,541
77803,185461,222266,2.4753749797,9.415756931,-0.0023928226,542
77619,185392,222175,2.4023938904,9.4061856406,-0.0251246373,543
77358,185345,222168,2.4466611085,9.4923272542,0.011964113,544
77194,185341,222107,2.4705893345,9.4600241491,-0.0047856452,545
77111,185325,222144,2.4562323989,9.4803631412,-0.04307080679999999,546
77099,185317,222178,2.368894374,9.4576313265,0.0382851616,547
76997,185367,222174,2.3748764305,9.4456672135,-0.021535403399999997,548
77072,185343,222120,2.3521446158,9.4253282214,-0.0179461695,549
77022,185348,222195,2.4179472373,9.4301138666,-0.04307080679999999,550
77029,185324,222161,2.3497517932000003,9.535398061,-0.0789631458,551
77011,185340,222148,2.4119651808,9.4695954395,-0.0550349198,552
77007,185337,222136,2.3377876802,9.420542576199999,-0.1256231865,553
77001,185328,222135,2.3401805028,9.5557370531,0.0071784678,554
77013,185332,222155,2.297109696,9.523433948000001,0.0586241537,555
77070,185324,222171,2.3521446158,9.5677011661,-0.023928226,556
77088,185343,222135,2.2336998971,9.4372923344,-0.08614161359999999,557
77113,185347,222126,2.4227328825,9.499505722,0.0071784678,558
77080,185389,222152,2.3545374384,9.463613383,-0.0382851616,559
77209,185370,222217,2.2779671152,9.487541608999999,-0.08374879099999999,560
77229,185429,222213,2.2588245344,9.5724868113,-0.0167497582,561
77220,185379,222185,2.3868405435,9.4935236655,-0.035892339,562
77132,185347,222114,2.309073809,9.4217389875,0.0251246373,563
76915,185281,222099,2.2624137683,9.4600241491,0.0071784678,564
76654,185238,222043,2.4215364712,9.3690968903,-0.08853443620000001,565
76535,185239,222054,2.3306092124,9.497112899400001,0.0059820565,566
76444,185244,222087,2.4346969955,9.5270231819,-0.035892339,567
76416,185246,222113,2.3557338497,9.3822574146,-0.0263210486,568
76444,185249,222090,2.2995025186,9.4660062056,0.0047856452,569
76501,185180,222111,2.356930261,9.4348995118,0.010767701699999998,570
76558,185310,222113,2.3330020350000003,9.427721044,-0.040677984199999996,571
76505,185279,222091,2.4418754632999997,9.4468636248,-0.08135596839999999,572
76516,185285,222125,2.3700907853,9.4600241491,-0.047856452,573
76527,185310,222140,2.3282163898,9.511469835,0.1256231865,574
76571,185319,222137,2.3282163898,9.5294160045,-0.0251246373,575
76600,185342,222115,2.4382862294,9.463613383,-0.0095712904,576
76649,185358,222151,2.3856441322,9.4420779796,-0.0023928226,577
76730,185348,222144,2.285145583,9.5653083435,-0.08374879099999999,578
76747,185362,222159,2.3461625592999997,9.3511507208,-0.035892339,579
76822,185383,222137,2.2899312282,9.3523471321,-0.0334995164,580
76763,185367,222161,2.3497517932000003,9.6131647955,0.0251246373,581
76934,185380,222178,2.5399811898999998,9.5485585853,0.051445685899999996,582
76887,185388,222141,2.3976082452,9.4911308429,-0.022731814700000002,583
76954,185360,222170,2.3892333661,9.4743810847,-0.062213387599999996,584
76703,185305,222071,2.344966148,9.5533442305,-0.047856452,585
76453,185250,222067,2.2588245344,9.4576313265,-0.0047856452,586
76316,185238,222109,2.3365912689,9.5940222147,0.0741775006,587
76237,185246,222087,2.3617159062,9.5365944723,-0.023928226,588
76232,185262,222095,2.3808584870000002,9.415756931,-0.0669990328,589
76260,185264,222116,2.3042881638,9.5306124158,0.035892339,590
76328,185277,222151,2.3665015514,9.4348995118,-0.08614161359999999,591
76370,185281,222143,2.3760728418,9.497112899400001,-0.040677984199999996,592
76330,185289,222134,2.3593230836,9.4803631412,0.0334995164,593
76414,185324,222157,2.3784656644,9.598807859899999,-0.0143569356,594
76413,185312,222141,2.4227328825,9.4492564474,-0.0263210486,595
76450,185328,222158,2.3437697367,9.4229353988,-0.071784678,596
76491,185331,222140,2.4753749797,9.4911308429,0.022731814700000002,597
76541,185364,222163,2.3150558654999998,9.3954179389,-0.08614161359999999,598
76605,185364,222190,2.3521446158,9.5270231819,0.0873380249,599
76680,185355,222214,2.4083759468999997,9.4576313265,-0.044267218100000005,600
76744,185374,222244,2.3066809864,9.5772724565,0.011964113,601
76787,185423,222273,2.4011974791,9.5401837062,-0.0047856452,602
76874,185415,222221,2.3808584870000002,9.3774717694,0.0538385085,603
76833,185424,222235,2.4502503424,9.355936366,0.04307080679999999,604
76994,185435,222227,2.3916261887,9.4731846734,-0.040677984199999996,605
76902,185362,222207,2.3676979627,9.4672026169,-0.0502492746,606
76663,185295,222143,2.4000010678,9.4707918508,-0.0287138712,607
76463,185266,222147,2.3868405435,9.415756931,-0.08135596839999999,608
76368,185302,222111,2.2815563491,9.4624169717,-0.0669990328,609
76327,185272,222159,2.3784656644,9.5485585853,-0.0251246373,610
76329,185256,222129,2.3928226,9.5018985446,-0.035892339,611
76374,185310,222194,2.344966148,9.5509514079,0.0143569356,612
76444,185337,222169,2.3868405435,9.4492564474,-0.0071784678,613
76504,185324,222185,2.3712871966,9.443274390900001,-0.0095712904,614
76503,185308,222178,2.3222343333,9.6155576181,-0.0526420972,615
76529,185327,222228,2.3928226,9.5294160045,-0.0693918554,616
76562,185327,222176,2.3258235672,9.5294160045,-0.11964113,617
76593,185358,222210,2.3497517932000003,9.5342016497,0.0059820565,618
76655,185354,222226,2.4454646972,9.535398061,-0.040677984199999996,619
76721,185421,222245,2.3665015514,9.523433948000001,-0.0095712904,620
76691,185412,222232,2.4502503424,9.5461657627,-0.1004985492,621
76855,185399,222215,2.4083759468999997,9.4719882621,-0.062213387599999996,622
76899,185405,222303,2.3808584870000002,9.4911308429,-0.0574277424,623
76968,185421,222268,2.3258235672,9.589236569499999,-0.045463629400000004,624
77044,185442,222262,2.3174486881,9.4731846734,-0.0765703232,625
77094,185443,222212,2.4586252215,9.4612205604,-0.0263210486,626
77142,185435,222268,2.2803599377999997,9.3667040677,0.020338992099999998,627
77064,185378,222233,2.3665015514,9.3332045513,-0.0287138712,628
76826,185325,222229,2.344966148,9.4301138666,-0.0095712904,629
76676,185292,222215,2.2863419943,9.4504528587,-0.0466600407,630
76617,185314,222197,2.4777678023000003,9.4492564474,-0.0394815729,631
76612,185297,222222,2.3330020350000003,9.4815595525,-0.0334995164,632
76649,185329,222209,2.2492532439999997,9.4827559638,-0.0071784678,633
76762,185368,222297,2.3018953412000003,9.427721044,-0.08614161359999999,634
76860,185399,222267,2.321037922,9.5377908836,-0.0035892339,635
76889,185398,222295,2.4370898181,9.475577496,0.0574277424,636
76922,185390,222269,2.2540388892,9.443274390900001,-0.0334995164,637
76956,185398,222295,2.3820548983,9.410971285799999,-0.0023928226,638
77004,185422,222299,2.3605194949,9.5688975774,0.0095712904,639
77066,185445,222281,2.4299113503,9.631110965,0.0275174599,640
77127,185453,222287,2.344966148,9.5030949559,-0.021535403399999997,641
77208,185485,222352,2.3916261887,9.5282195932,0.0873380249,642
77315,185465,222357,2.3964118339,9.5916293921,-0.10648060570000001,643
77357,185477,222313,2.3473589706,9.509077012399999,0.040677984199999996,644
77433,185495,222337,2.3186450994000003,9.5330052384,0.0275174599,645
77561,185523,222333,2.3042881638,9.499505722,0.0669990328,646
77585,185522,222359,2.3521446158,9.5246303593,-0.031106693799999998,647
77647,185539,222349,2.3784656644,9.5054877785,-0.031106693799999998,648
77628,185520,222338,2.4323041729,9.4468636248,-0.0753739119,649
77434,185429,222276,2.3760728418,9.4444708022,-0.0741775006,650
77218,185335,222261,2.3724836079,9.4899344316,0.0334995164,651
77149,185413,222254,2.321037922,9.5018985446,-0.021535403399999997,652
77100,185412,222236,2.3186450994000003,9.4444708022,0.0658026215,653
77116,185436,222289,2.4658036893,9.5162554802,-0.1399801221,654
77197,185429,222288,2.356930261,9.415756931,-0.0933200814,655
77269,185455,222334,2.4000010678,9.403792818,-0.0334995164,656
77315,185488,222368,2.548356069,9.4719882621,0.0179461695,657
77335,185482,222363,2.4586252215,9.5246303593,-0.09092725880000001,658
77394,185477,222352,2.4454646972,9.438488745699999,-0.059820565,659
77413,185519,222321,2.297109696,9.562915520899999,0.0370887503,660
77447,185504,222363,2.4155544147,9.4253282214,-0.0502492746,661
77491,185521,222401,2.3760728418,9.4229353988,-0.0191425808,662
77555,185542,222367,2.2636101795999997,9.509077012399999,0.0275174599,663
77631,185531,222398,2.4323041729,9.451649269999999,-0.0334995164,664
77683,185591,222417,2.3904297774,9.4851487864,-0.12442677519999999,665
77743,185567,222394,2.3976082452,9.5581298757,0.021535403399999997,666
77818,185585,222406,2.356930261,9.5330052384,-0.10289137179999999,667
77805,185582,222423,2.3940190112999997,9.511469835,0.0382851616,668
77933,185569,222383,2.4011974791,9.5748796339,0.0299102825,669
77794,185556,222353,2.237289131,9.487541608999999,-0.0693918554,670
77511,185468,222305,2.309073809,9.353543543399999,-0.047856452,671
77340,185446,222279,2.4490539311,9.6514499571,-0.1088734283,672
77252,185391,222312,2.3617159062,9.475577496,0.0753739119,673
77186,185428,222308,2.2839491717,9.391828705,-0.035892339,674
77187,185449,222350,2.4311077616,9.497112899400001,-0.0693918554,675
77223,185458,222340,2.3258235672,9.495916488099999,-0.0167497582,676
77253,185464,222328,2.3425733254,9.427721044,0.0251246373,677
77240,185460,222353,2.4598216327999998,9.631110965,-0.021535403399999997,678
77224,185468,222366,2.2648065909,9.487541608999999,0.0011964113,679
77221,185464,222361,2.4933211492,9.384650237199999,-0.0502492746,680
77214,185469,222376,2.4777678023000003,9.4660062056,0.0059820565,681
77223,185489,222373,2.3425733254,9.4420779796,0.0,682
77255,185509,222376,2.3066809864,9.5557370531,-0.011964113,683
77327,185499,222351,2.3629123174999997,9.5162554802,0.0849452023,684
77278,185506,222323,2.4538395763,9.5365944723,0.0323031051,685
77348,185490,222365,2.3736800192,9.4935236655,-0.0143569356,686
77386,185478,222342,2.321037922,9.4911308429,-0.0047856452,687
77457,185511,222361,2.3425733254,9.4815595525,-0.0921236701,688
77441,185496,222335,2.4143580034,9.4013999954,-0.0011964113,689
77374,185435,222306,2.3330020350000003,9.4420779796,0.011964113,690
77052,185378,222299,2.2899312282,9.464809794299999,0.0370887503,691
76827,185330,222251,2.2779671152,9.439685157,0.0095712904,692
76708,185312,222255,2.4466611085,9.4588277378,-0.0167497582,693
76621,185328,222286,2.3042881638,9.5688975774,0.045463629400000004,694
76591,185342,222225,2.368894374,9.451649269999999,0.044267218100000005,695
76617,185325,222250,2.3904297774,9.3882394711,-0.0083748791,696
76656,185393,222297,2.4658036893,9.456434915200001,-0.0083748791,697
76672,185360,222313,2.3389840915,9.5485585853,-0.0334995164,698
76679,185365,222343,2.3641087288000002,9.4863451977,-0.0550349198,699
76671,185410,222308,2.3401805028,9.518648302799999,-0.040677984199999996,700
76670,185368,222341,2.2624137683,9.5030949559,-0.1483550012,701
76709,185391,222337,2.3545374384,9.4923272542,0.04307080679999999,702
76711,185378,222333,2.404786713,9.4935236655,0.0299102825,703
76772,185446,222307,2.3318056236999998,9.4348995118,-0.0382851616,704
76816,185410,222307,2.4909283265999997,9.6059863277,-0.08614161359999999,705
76861,185415,222315,2.3653051401,9.5557370531,-0.040677984199999996,706
76938,185434,222353,2.404786713,9.456434915200001,-0.0669990328,707
76975,185466,222353,2.4083759468999997,9.468399028199999,0.0071784678,708
77020,185452,222367,2.4514467537,9.5389872949,0.0059820565,709
77029,185438,222323,2.3988046565,9.456434915200001,0.04307080679999999,710
76875,185400,222289,2.3928226,9.4624169717,-0.045463629400000004,711
76569,185327,222262,2.3485553819,9.4480600361,0.0191425808,712
76395,185272,222231,2.3545374384,9.4504528587,0.022731814700000002,713
76275,185272,222234,2.3557338497,9.4253282214,0.047856452,714
76215,185295,222251,2.3461625592999997,9.4133641084,0.0287138712,715
76218,185280,222271,2.3832513096,9.5557370531,-0.08374879099999999,716
76268,185299,222303,2.356930261,9.463613383,0.040677984199999996,717
76328,185332,222335,2.4311077616,9.510273423700001,-0.0574277424,718
76346,185340,222292,2.3760728418,9.4325066892,-0.0693918554,719
76334,185346,222296,2.3186450994000003,9.4420779796,-0.1363908882,720
76351,185325,222303,2.3605194949,9.4947200768,-0.0035892339,721
76390,185344,222344,2.3545374384,9.5533442305,-0.0789631458,722
76441,185306,222350,2.4825534475,9.531808827099999,-0.0933200814,723
76451,185358,222356,2.4634108667000003,9.468399028199999,0.0011964113,724
76465,185381,222373,2.3904297774,9.4408815683,-0.0083748791,725
76558,185365,222325,2.2624137683,9.523433948000001,0.023928226,726
76606,185424,222381,2.4346969955,9.4887380203,-0.0550349198,727
76673,185421,222364,2.3330020350000003,9.407382051899999,0.0382851616,728
76726,185403,222395,2.3808584870000002,9.4444708022,-0.0945164927,729
76802,185434,222393,2.3940190112999997,9.4851487864,0.041874395499999995,730
76879,185440,222371,2.3820548983,9.5018985446,-0.0693918554,731
76782,185411,222364,2.3234307446,9.4253282214,-0.0047856452,732
76510,185337,222289,2.3521446158,9.5389872949,-0.0023928226,733
76291,185268,222341,2.4083759468999997,9.5162554802,-0.0023928226,734
76175,185271,222277,2.309073809,9.4695954395,-0.035892339,735
76034,185274,222334,2.4370898181,9.4301138666,-0.0346959277,736
76110,185307,222308,2.3724836079,9.4480600361,0.020338992099999998,737
76168,185310,222335,2.3377876802,9.487541608999999,-0.021535403399999997,738
76247,185329,222396,2.4203400599,9.3655076564,-0.1040877831,739
76282,185359,222387,2.4311077616,9.4492564474,0.0071784678,740
76299,185330,222349,2.4346969955,9.3631148338,-0.0095712904,741
76316,185343,222397,2.3641087288000002,9.487541608999999,-0.0382851616,742
76321,185352,222404,2.3976082452,9.415756931,-0.0299102825,743
76367,185411,222407,2.4119651808,9.6275217311,-0.011964113,744
76464,185362,222390,2.4335005842,9.5246303593,-0.0323031051,745
76462,185375,222444,2.3617159062,9.4588277378,-0.0131605243,746
76548,185388,222400,2.4227328825,9.547362174,0.0610169763,747
76654,185399,222402,2.3653051401,9.4145605197,0.011964113,748
76694,185404,222426,2.2791635265,9.4695954395,-0.08374879099999999,749
76745,185442,222412,2.3641087288000002,9.4695954395,-0.0574277424,750
76803,185456,222454,2.3760728418,9.4301138666,-0.045463629400000004,751
76891,185473,222465,2.2983061073,9.391828705,0.0263210486,752
76891,185457,222482,2.4059831243,9.4863451977,0.0945164927,753
76709,185363,222381,2.4693929232,9.4528456813,0.12323036389999999,754
76460,185294,222352,2.3401805028,9.464809794299999,0.0035892339,755
76370,185309,222384,2.3988046565,9.4061856406,-0.0287138712,756
76284,185317,222388,2.4071795356,9.564111932200001,-0.095712904,757
76292,185292,222459,2.4239292938,9.5282195932,-0.0095712904,758
76360,185341,222433,2.3461625592999997,9.415756931,-0.0095712904,759
76486,185370,222453,2.3030917525,9.4301138666,-0.08614161359999999,760
76560,185368,222443,2.3665015514,9.5605226983,-0.0143569356,761
76592,185386,222489,2.3114666316,9.4923272542,-0.023928226,762
76623,185363,222469,2.2983061073,9.5306124158,-0.0035892339,763
76690,185381,222488,2.5184457865,9.5018985446,-0.0849452023,764
76739,185399,222519,2.3904297774,9.3427758417,-0.0693918554,765
76813,185457,222512,2.3676979627,9.4588277378,0.0083748791,766
76900,185442,222499,2.2540388892,9.4672026169,0.010767701699999998,767
76896,185429,222520,2.4143580034,9.3774717694,-0.062213387599999996,768
77064,185461,222567,2.3497517932000003,9.4540420926,-0.0526420972,769
77138,185487,222523,2.3497517932000003,9.5581298757,0.0693918554,770
77200,185519,222574,2.3665015514,9.6538427797,-0.0586241537,771
77293,185511,222571,2.4969103831,9.475577496,0.0,772
77381,185500,222573,2.3114666316,9.5007021333,-0.0574277424,773
77389,185523,222557,2.321037922,9.5210411254,0.0538385085,774
77348,185461,222524,2.3856441322,9.4085784632,-0.0071784678,775
77089,185411,222491,2.3306092124,9.3774717694,-0.0059820565,776
76945,185383,222509,2.3700907853,9.439685157,0.0394815729,777
76881,185379,222492,2.3186450994000003,9.547362174,-0.023928226,778
76869,185385,222484,2.3162522768000002,9.5533442305,-0.04307080679999999,779
76917,185412,222512,2.3521446158,9.497112899400001,-0.040677984199999996,780
76963,185412,222538,2.2875384056,9.456434915200001,0.0011964113,781
77058,185457,222543,2.3844477209,9.5461657627,-0.0502492746,782
77090,185442,222561,2.2636101795999997,9.4624169717,0.0251246373,783
77111,185459,222550,2.3282163898,9.420542576199999,-0.0131605243,784
77119,185459,222577,2.3724836079,9.4839523751,-0.0789631458,785
77232,185458,222583,2.464607278,9.509077012399999,-0.035892339,786
77180,185483,222560,2.3473589706,9.367900479,0.0490528633,787
77289,185486,222605,2.3760728418,9.4540420926,-0.0502492746,788
77371,185497,222628,2.4430718746,9.3870430598,-0.1148554848,789
77433,185533,222605,2.3641087288000002,9.5916293921,-0.0574277424,790
77508,185534,222624,2.4143580034,9.5174518915,-0.08853443620000001,791
77571,185533,222633,2.3521446158,9.5078806011,-0.0083748791,792
77637,185554,222638,2.4179472373,9.3822574146,-0.0502492746,793
77708,185588,222655,2.3581266723,9.554540641800001,0.0275174599,794
77757,185561,222655,2.4311077616,9.5330052384,0.0191425808,795
77737,185550,222601,2.3258235672,9.3738825355,0.011964113,796
77530,185475,222620,2.344966148,9.3212404383,0.0131605243,797
77278,185445,222541,2.4155544147,9.415756931,-0.062213387599999996,798
77168,185414,222578,2.3712871966,9.5916293921,-0.045463629400000004,799
77134,185403,222570,2.4873390927,9.5162554802,-0.0981057266,800
77120,185447,222600,2.4311077616,9.4408815683,0.047856452,801
77180,185495,222651,2.321037922,9.379864592,-0.10169496049999999,802
77279,185481,222630,2.4155544147,9.3607220112,-0.059820565,803
77301,185465,222627,2.3844477209,9.4588277378,-0.040677984199999996,804
77311,185484,222627,2.3988046565,9.5126662463,-0.040677984199999996,805
77305,185479,222635,2.3820548983,9.399007172800001,0.0047856452,806
77323,185475,222634,2.404786713,9.4827559638,-0.0765703232,807
77335,185514,222636,2.356930261,9.497112899400001,-0.0789631458,808
77361,185491,222669,2.3665015514,9.439685157,-0.015553346899999999,809
77383,185488,222662,2.3497517932000003,9.451649269999999,-0.0394815729,810
77407,185519,222653,2.3988046565,9.4121676971,0.0346959277,811
77363,185518,222631,2.2935204621,9.4061856406,-0.040677984199999996,812
77466,185502,222690,2.3066809864,9.5306124158,0.0131605243,813
77543,185527,222657,2.4514467537,9.4707918508,0.044267218100000005,814
77443,185513,222653,2.3365912689,9.499505722,0.022731814700000002,815
77495,185513,222670,2.4502503424,9.4540420926,-0.1280160091,816
77244,185427,222589,2.2600209457,9.4145605197,-0.0825523797,817
77019,185368,222526,2.4023938904,9.4719882621,-0.047856452,818
76722,185323,222574,2.297109696,9.4839523751,-0.0765703232,819
76678,185348,222569,2.3353948576,9.477970318599999,-0.09092725880000001,820
76489,185357,222541,2.321037922,9.3966143502,-0.1052841944,821
76549,185343,222567,2.3282163898,9.455238503899999,-0.0574277424,822
76600,185363,222598,2.3772692530999997,9.4707918508,-0.0071784678,823
76653,185361,222583,2.3593230836,9.497112899400001,-0.1052841944,824
76641,185369,222567,2.3521446158,9.5198447141,-0.0741775006,825
76635,185356,222559,2.4454646972,9.4121676971,-0.0646062102,826
76627,185429,222566,2.3150558654999998,9.5042913672,-0.0646062102,827
76648,185369,222577,2.3844477209,9.5521478192,-0.0023928226,828
76669,185379,222631,2.428714939,9.5210411254,0.0143569356,829
76703,185401,222581,2.3796620756999998,9.2805624541,0.0011964113,830
76769,185423,222599,2.4382862294,9.4169533423,-0.023928226,831
76798,185420,222614,2.4083759468999997,9.4911308429,-0.0323031051,832
76842,185407,222613,2.5399811898999998,9.5018985446,-0.11964113,833
76894,185426,222602,2.3928226,9.3966143502,-0.056231331100000004,834
76946,185459,222639,2.261217357,9.4468636248,-0.0933200814,835
76896,185459,222618,2.4777678023000003,9.4839523751,-0.062213387599999996,836
77013,185427,222638,2.3401805028,9.4456672135,0.0490528633,837
76893,185409,222592,2.4035903017,9.4444708022,-0.062213387599999996,838
76578,185275,222525,2.4335005842,9.439685157,0.0023928226,839
76347,185270,222491,2.4801606249,9.5054877785,-0.1100698396,840
76229,185269,222476,2.3665015514,9.5174518915,-0.0526420972,841
76141,185301,222520,2.4203400599,9.531808827099999,-0.045463629400000004,842
76108,185289,222549,2.3222343333,9.4444708022,-0.0047856452,843
76148,185292,222567,2.3760728418,9.522237536699999,-0.0095712904,844
76235,185325,222578,2.3533410271,9.518648302799999,-0.0059820565,845
76205,185296,222587,2.3940190112999997,9.4325066892,0.0334995164,846
76157,185304,222548,2.3042881638,9.456434915200001,-0.0753739119,847
76170,185324,222556,2.3521446158,9.3930251163,-0.1351944769,848
76219,185328,222577,2.3473589706,9.4588277378,-0.0023928226,849
76243,185325,222558,2.2995025186,9.497112899400001,-0.0382851616,850
76256,185357,222611,2.2911276395,9.4444708022,0.0179461695,851
76322,185388,222576,2.3270199785,9.4803631412,-0.0095712904,852
76228,185358,222632,2.2839491717,9.4947200768,-0.0263210486,853
76360,185397,222599,2.3832513096,9.5712904,-0.0287138712,854
76445,185394,222595,2.4574288102,9.3583291886,-0.0981057266,855
76511,185370,222611,2.321037922,9.367900479,-0.045463629400000004,856
76545,185409,222641,2.3736800192,9.5042913672,0.044267218100000005,857
76549,185379,222634,2.344966148,9.4863451977,0.0059820565,858
76500,185374,222604,2.3868405435,9.564111932200001,-0.0071784678,859
76250,185311,222507,2.3988046565,9.391828705,0.0382851616,860
75986,185232,222512,2.285145583,9.438488745699999,0.0287138712,861
75851,185236,222479,2.3736800192,9.5449693514,-0.0789631458,862
75784,185215,222518,2.3724836079,9.4133641084,0.0191425808,863
75750,185237,222476,2.3497517932000003,9.4839523751,-0.011964113,864
75789,185272,222536,2.3712871966,9.4085784632,-0.047856452,865
75852,185262,222552,2.3306092124,9.5270231819,-0.023928226,866
75880,185272,222562,2.3521446158,9.3702933016,-0.040677984199999996,867
75886,185272,222558,2.3665015514,9.4887380203,0.0083748791,868
75945,185299,222534,2.368894374,9.5054877785,0.0059820565,869
75933,185297,222561,2.4897319153,9.463613383,0.0610169763,870
75967,185319,222522,2.4083759468999997,9.4947200768,-0.047856452,871
76022,185301,222536,2.3294128011,9.4899344316,-0.0071784678,872
76082,185316,222554,2.3665015514,9.5700939887,0.031106693799999998,873
76152,185300,222560,2.3593230836,9.463613383,-0.0669990328,874
76185,185333,222584,2.3341984463,9.4492564474,-0.047856452,875
76245,185335,222578,2.4000010678,9.477970318599999,-0.0011964113,876
76302,185337,222563,2.356930261,9.655039191,-0.023928226,877
76373,185352,222616,2.321037922,9.477970318599999,-0.08374879099999999,878
76441,185388,222575,2.3676979627,9.509077012399999,-0.011964113,879
76476,185354,222619,2.4095723582,9.5342016497,-0.08853443620000001,880
76351,185314,222559,2.3868405435,9.4372923344,-0.040677984199999996,881
76078,185223,222492,2.3892333661,9.5018985446,0.062213387599999996,882
75916,185222,222493,2.4514467537,9.477970318599999,-0.040677984199999996,883
75843,185215,222499,2.3353948576,9.5210411254,-0.0574277424,884
75810,185148,222480,2.4215364712,9.511469835,-0.021535403399999997,885
75843,185236,222538,2.2791635265,9.415756931,-0.0059820565,886
75907,185228,222498,2.3784656644,9.4695954395,0.0059820565,887
76017,185279,222519,2.3712871966,9.5042913672,0.0729810893,888
76020,185288,222574,2.3892333661,9.4827559638,-0.0526420972,889
76025,185276,222519,2.1619152191,9.3882394711,-0.0382851616,890
76037,185284,222540,2.3976082452,9.4947200768,-0.0550349198,891
76135,185298,222564,2.309073809,9.5509514079,0.0251246373,892
76200,185300,222540,2.4586252215,9.463613383,-0.0382851616,893
76286,185319,222578,2.2217357841,9.4301138666,-0.0550349198,894
76371,185374,222578,2.3653051401,9.410971285799999,0.0023928226,895
76455,185345,222580,2.3246271559,9.5162554802,0.0083748791,896
76549,185359,222610,2.3593230836,9.2829552767,-0.0646062102,897
76626,185405,222606,2.3377876802,9.5007021333,-0.035892339,898
76724,185420,222596,2.3736800192,9.5365944723,0.0263210486,899
76808,185436,222641,2.3306092124,9.495916488099999,0.011964113,900
76902,185434,222614,2.3976082452,9.5653083435,0.0047856452,901
76871,185392,222589,2.3365912689,9.5844509243,0.0059820565,902
76661,185335,222583,2.3820548983,9.3188476157,0.06340979890000001,903
76460,185270,222508,2.3796620756999998,9.4660062056,0.0382851616,904
76370,185263,222538,2.3258235672,9.4061856406,-0.0669990328,905
76339,185275,222522,2.309073809,9.5964150373,0.0370887503,906
76345,185319,222562,2.4203400599,9.5557370531,0.040677984199999996,907
76374,185300,222560,2.3988046565,9.5712904,0.0071784678,908
76562,185312,222524,2.3916261887,9.4887380203,0.0023928226,909
76574,185350,222561,2.4681965119,9.345168664300001,-0.0334995164,910
76622,185372,222634,2.3018953412000003,9.4085784632,0.0071784678,911
76657,185341,222563,2.4801606249,9.497112899400001,-0.011964113,912
76695,185360,222620,2.321037922,9.509077012399999,-0.0741775006,913
76753,185369,222599,2.3880369548,9.5342016497,-0.040677984199999996,914
76815,185387,222580,2.3377876802,9.4719882621,0.0191425808,915
76881,185383,222570,2.3712871966,9.3475614869,0.0023928226,916
76966,185388,222621,2.3712871966,9.499505722,0.021535403399999997,917
77037,185432,222616,2.3736800192,9.385846648500001,-0.0681954441,918
77103,185440,222606,2.3401805028,9.3966143502,0.0299102825,919
77187,185449,222645,2.3545374384,9.5138626576,0.041874395499999995,920
77264,185448,222646,2.297109696,9.5198447141,0.0753739119,921
77328,185466,222644,2.3808584870000002,9.3942215276,-0.062213387599999996,922
77292,185424,222644,2.356930261,9.407382051899999,-0.0035892339,923
77076,185346,222592,2.4658036893,9.5054877785,-0.0526420972,924
76866,185314,222551,2.3641087288000002,9.4456672135,-0.0251246373,925
76779,185261,222565,2.321037922,9.4803631412,-0.0011964113,926
76751,185315,222547,2.3533410271,9.5617191096,-0.047856452,927
76765,185311,222536,2.3318056236999998,9.367900479,0.0071784678,928
76842,185340,222593,2.3617159062,9.3966143502,0.0753739119,929
76902,185370,222569,2.3976082452,9.439685157,-0.0263210486,930
76989,185336,222628,2.4586252215,9.5126662463,0.0059820565,931
76986,185379,222597,2.3904297774,9.4348995118,-0.0550349198,932
77010,185349,222633,2.3258235672,9.5677011661,0.0,933
77020,185388,222584,2.3258235672,9.4025964067,-0.0490528633,934
77070,185385,222643,2.404786713,9.4061856406,-0.0550349198,935
77077,185370,222611,2.3473589706,9.4444708022,-0.0251246373,936
77138,185384,222626,2.3258235672,9.4672026169,-0.035892339,937
77183,185418,222631,2.4370898181,9.5330052384,0.0071784678,938
77217,185428,222655,2.2887348169,9.4420779796,-0.0035892339,939
77263,185416,222649,2.3306092124,9.3774717694,-0.0382851616,940
77279,185445,222668,2.4203400599,9.456434915200001,-0.0849452023,941
77305,185453,222663,2.3174486881,9.4301138666,-0.0071784678,942
77277,185419,222587,2.3401805028,9.451649269999999,-0.0741775006,943
77067,185318,222566,2.3916261887,9.4887380203,-0.1004985492,944
76728,185257,222471,2.3018953412000003,9.510273423700001,-0.0550349198,945
76564,185251,222501,2.3976082452,9.5162554802,-0.0167497582,946
76419,185198,222512,2.416750826,9.439685157,-0.0502492746,947
76332,185225,222508,2.3497517932000003,9.407382051899999,-0.08374879099999999,948
76322,185240,222461,2.4203400599,9.451649269999999,0.0897308475,949
76380,185279,222533,2.3736800192,9.4049892293,-0.0095712904,950
76422,185252,222537,2.3282163898,9.5198447141,-0.0167497582,951
76408,185262,222524,2.2947168733999996,9.4947200768,-0.0035892339,952
76288,185257,222524,2.4538395763,9.4492564474,0.0179461695,953
76408,185275,222496,2.3784656644,9.5282195932,-0.0059820565,954
76427,185297,222549,2.3258235672,9.5509514079,-0.071784678,955
76453,185289,222537,2.368894374,9.509077012399999,-0.023928226,956
76496,185358,222518,2.3880369548,9.4408815683,-0.047856452,957
76560,185316,222540,2.3186450994000003,9.522237536699999,-0.0131605243,958
76603,185391,222544,2.3952154226,9.4672026169,-0.035892339,959
76668,185356,222570,2.321037922,9.4025964067,-0.023928226,960
76768,185370,222533,2.440679052,9.3822574146,-0.1519442351,961
76779,185350,222583,2.3294128011,9.5162554802,-0.040677984199999996,962
76825,185387,222583,2.4035903017,9.5677011661,0.0143569356,963
76684,185318,222504,2.356930261,9.5066841898,-0.09092725880000001,964
76383,185257,222498,2.3066809864,9.5246303593,0.020338992099999998,965
76150,185223,222462,2.3856441322,9.4253282214,0.023928226,966
76030,185252,222488,2.3653051401,9.5772724565,-0.010767701699999998,967
75958,185225,222474,2.4011974791,9.5342016497,-0.0334995164,968
75925,185227,222516,2.3665015514,9.5162554802,-0.0023928226,969
75997,185248,222544,2.3581266723,9.6143612068,0.0167497582,970
76076,185274,222505,2.3150558654999998,9.5437729401,-0.0143569356,971
76105,185278,222559,2.3162522768000002,9.4767739073,-0.0550349198,972
76110,185290,222546,2.3138594542,9.4444708022,-0.0981057266,973
76133,185313,222567,2.4753749797,9.509077012399999,0.0394815729,974
76153,185325,222547,2.4227328825,9.4492564474,-0.0646062102,975
76206,185308,222595,2.3425733254,9.4588277378,-0.0143569356,976
76269,185343,222616,2.3916261887,9.463613383,-0.0167497582,977
76323,185348,222587,2.4035903017,9.6251289085,0.0,978
76403,185359,222628,2.3593230836,9.4851487864,-0.0382851616,979
76468,185393,222650,2.2947168733999996,9.4133641084,-0.023928226,980
76549,185394,222626,2.3760728418,9.4899344316,-0.015553346899999999,981
76633,185393,222635,2.2468604214,9.6179504407,-0.0167497582,982
76694,185406,222652,2.3306092124,9.518648302799999,-0.0143569356,983
76757,185417,222673,2.4323041729,9.5365944723,-0.04307080679999999,984
76705,185388,222625,2.4299113503,9.4899344316,-0.040677984199999996,985
76427,185312,222615,2.3018953412000003,9.4301138666,-0.059820565,986
76204,185289,222566,2.4000010678,9.5198447141,0.1040877831,987
76114,185269,222630,2.3401805028,9.4707918508,0.010767701699999998,988
76091,185267,222637,2.4107687694999997,9.4947200768,-0.11964113,989
76070,185302,222663,2.356930261,9.4181497536,0.0047856452,990
76154,185312,222660,2.4035903017,9.4301138666,0.040677984199999996,991
76263,185312,222677,2.297109696,9.4851487864,-0.095712904,992
76323,185361,222710,2.3497517932000003,9.3870430598,-0.0095712904,993
76361,185319,222738,2.3928226,9.4444708022,-0.023928226,994
76390,185356,222712,2.3808584870000002,9.5437729401,0.051445685899999996,995
76442,185337,222701,2.3425733254,9.579665279099999,0.031106693799999998,996
76545,185391,222723,2.4466611085,9.522237536699999,-0.0669990328,997
76525,185390,222730,2.2325034857999997,9.5018985446,0.040677984199999996,998
76638,185384,222758,2.4011974791,9.4612205604,0.0143569356,999
76716,185395,222734,2.3880369548,9.4444708022,-0.023928226,1000
76816,185428,222797,2.3593230836,9.475577496,-0.12681959780000002,1001
76891,185447,222795,2.3916261887,9.3906322937,-0.0789631458,1002
76976,185462,222831,2.4729821571,9.3667040677,-0.015553346899999999,1003
77012,185445,222793,2.2540388892,9.3906322937,-0.1591227029,1004
77028,185456,222793,2.3844477209,9.5174518915,-0.022731814700000002,1005
77177,185417,222848,2.3832513096,9.499505722,0.0251246373,1006
77100,185409,222797,2.3377876802,9.4863451977,-0.095712904,1007
76844,185351,222721,2.2516460665999998,9.407382051899999,-0.11246266220000001,1008
76667,185334,222730,2.3868405435,9.4588277378,-0.0538385085,1009
76639,185329,222761,2.4215364712,9.4289174553,-0.0370887503,1010
76574,185328,222764,2.3425733254,9.4528456813,-0.059820565,1011
76642,185357,222760,2.4466611085,9.5174518915,-0.10169496049999999,1012
76684,185348,222808,2.5292134882000004,9.4097748745,-0.08135596839999999,1013
76816,185386,222838,2.3138594542,9.5138626576,-0.1339980656,1014
76867,185425,222856,2.4382862294,9.4301138666,0.0167497582,1015
76892,185416,222836,2.309073809,9.5126662463,0.021535403399999997,1016
76933,185396,222851,2.2899312282,9.4887380203,0.0394815729,1017
76973,185414,222863,2.3138594542,9.475577496,-0.059820565,1018
77038,185411,222871,2.3054845751,9.410971285799999,-0.0610169763,1019
77121,185444,222912,2.4179472373,9.4121676971,0.0095712904,1020
77179,185421,222874,2.4957139718,9.559326287,-0.040677984199999996,1021
77166,185469,222895,2.321037922,9.4301138666,-0.010767701699999998,1022
77353,185475,222878,2.4023938904,9.3906322937,-0.0981057266,1023
77402,185461,222928,2.4562323989,9.371489712899999,-0.010767701699999998,1024
77447,185502,222913,2.3377876802,9.4121676971,-0.0334995164,1025
77538,185516,222953,2.3916261887,9.5007021333,0.0011964113,1026
77602,185497,222916,2.3665015514,9.6131647955,0.0167497582,1027
77672,185513,222908,2.3988046565,9.5425765288,-0.0035892339,1028
77670,185496,222905,2.3772692530999997,9.451649269999999,-0.035892339,1029
77432,185411,222864,2.3150558654999998,9.5533442305,0.0586241537,1030
77202,185424,222819,2.3665015514,9.443274390900001,0.0011964113,1031
77083,185387,222822,2.3126630429,9.5066841898,-0.0323031051,1032
77065,185372,222845,2.3306092124,9.523433948000001,-0.0646062102,1033
77088,185440,222879,2.3377876802,9.4265246327,-0.0669990328,1034
77163,185398,222877,2.3186450994000003,9.4947200768,-0.045463629400000004,1035
77277,185442,222879,2.3904297774,9.4468636248,0.0131605243,1036
77356,185466,222903,2.4311077616,9.5485585853,-0.020338992099999998,1037
77394,185475,222941,2.3258235672,9.4624169717,-0.0370887503,1038
77440,185488,222906,2.2707886474,9.3355973739,0.0538385085,1039
77469,185513,222901,2.3401805028,9.4660062056,-0.0693918554,1040
77541,185502,222950,2.3330020350000003,9.4803631412,-0.0071784678,1041
77636,185527,222923,2.3772692530999997,9.4229353988,-0.0023928226,1042
77725,185528,222934,2.3042881638,9.6155576181,-0.0334995164,1043
77809,185513,222941,2.4705893345,9.4085784632,-0.041874395499999995,1044
77884,185569,222926,2.3617159062,9.5365944723,-0.059820565,1045
77944,185554,222965,2.4119651808,9.4612205604,-0.0023928226,1046
78028,185583,222985,2.4933211492,9.3822574146,0.0035892339,1047
78103,185600,222981,2.3330020350000003,9.5282195932,-0.0334995164,1048
78181,185627,222968,2.4873390927,9.3140619705,0.0777667345,1049
78265,185612,222955,2.3282163898,9.4899344316,-0.0263210486,1050
78296,185616,222912,2.4634108667000003,9.6107719729,-0.040677984199999996,1051
78146,185548,222900,2.3425733254,9.5018985446,-0.0693918554,1052
77878,185486,222871,2.4131615921,9.4325066892,-0.0047856452,1053
77752,185517,222884,2.3246271559,9.535398061,0.0047856452,1054
77698,185501,222886,2.2528424779,9.477970318599999,0.0490528633,1055
77703,185504,222947,2.3832513096,9.4791667299,-0.0275174599,1056
77777,185515,222921,2.4083759468999997,9.4827559638,0.0047856452,1057
77862,185571,222913,2.4777678023000003,9.6012006825,-0.0299102825,1058
77947,185575,222964,2.3844477209,9.579665279099999,-0.13758729949999998,1059
77964,185556,222918,2.3258235672,9.4253282214,-0.0574277424,1060
77971,185586,222946,2.3808584870000002,9.4588277378,-0.0502492746,1061
78015,185617,222922,2.3497517932000003,9.4372923344,-0.0287138712,1062
78043,185618,222935,2.3856441322,9.5054877785,-0.0023928226,1063
78116,185619,222964,2.4394826406999996,9.5365944723,-0.0526420972,1064
78092,185631,222975,2.3353948576,9.4325066892,-0.031106693799999998,1065
78282,185665,222948,2.4155544147,9.4791667299,0.021535403399999997,1066
78334,185667,222971,2.3545374384,9.477970318599999,-0.0023928226,1067
78421,185687,222945,2.3425733254,9.4061856406,-0.035892339,1068
78475,185671,222964,2.3832513096,9.510273423700001,-0.0167497582,1069
78526,185713,222998,2.4131615921,9.4025964067,0.0095712904,1070
78600,185719,222990,2.4382862294,9.4803631412,0.0191425808,1071
78660,185705,222970,2.488535504,9.4265246327,0.0263210486,1072
78623,185704,222976,2.4753749797,9.427721044,0.0945164927,1073
78391,185626,222913,2.4179472373,9.4911308429,-0.010767701699999998,1074
78146,185571,222903,2.4000010678,9.4540420926,0.0765703232,1075
78057,185599,222877,2.416750826,9.4660062056,0.059820565,1076
78025,185597,222904,2.4514467537,9.511469835,0.015553346899999999,1077
78014,185618,222910,2.4179472373,9.5677011661,-0.0179461695,1078
78099,185599,222918,2.4251257050999997,9.456434915200001,0.0299102825,1079
78167,185664,222924,2.416750826,9.5018985446,-0.0334995164,1080
78173,185648,222962,2.368894374,9.463613383,-0.031106693799999998,1081
78212,185668,222977,2.3234307446,9.714859756,0.023928226,1082
78235,185655,222888,2.321037922,9.4612205604,-0.021535403399999997,1083
78227,185654,222935,2.4610180441000002,9.4289174553,0.041874395499999995,1084
78241,185648,222945,2.3413769141,9.4253282214,-0.06340979890000001,1085
78293,185693,222965,2.4993032057,9.6012006825,-0.1160518961,1086
78365,185669,222956,2.4107687694999997,9.4492564474,0.022731814700000002,1087
78292,185692,222922,2.4227328825,9.5270231819,-0.04307080679999999,1088
78390,185672,222948,2.5040888509,9.4528456813,-0.021535403399999997,1089
78453,185713,222916,2.4107687694999997,9.5533442305,0.0299102825,1090
78439,185701,222903,2.3162522768000002,9.495916488099999,0.0681954441,1091
78471,185695,222953,2.3294128011,9.562915520899999,-0.0191425808,1092
78484,185699,222916,2.5088744961000002,9.4600241491,-0.08614161359999999,1093
78507,185667,222879,2.4681965119,9.4253282214,0.0143569356,1094
78188,185578,222824,2.3270199785,9.4085784632,0.015553346899999999,1095
77908,185526,222786,2.321037922,9.5533442305,-0.059820565,1096
77757,185515,222825,2.2624137683,9.497112899400001,0.0095712904,1097
77658,185510,222831,2.2624137683,9.4899344316,0.0275174599,1098
77612,185523,222773,2.3820548983,9.439685157,-0.0646062102,1099
77641,185524,222849,2.3545374384,9.463613383,-0.045463629400000004,1100
77700,185564,222811,2.3676979627,9.4863451977,-0.08374879099999999,1101
77736,185576,222818,2.2025932033,9.463613383,-0.0669990328,1102
77722,185584,222835,2.3904297774,9.3870430598,-0.0741775006,1103
77724,185564,222825,2.4538395763,9.438488745699999,-0.0071784678,1104
77718,185538,222832,2.3617159062,9.620343263299999,-0.11246266220000001,1105
77678,185558,222836,2.3856441322,9.3607220112,-0.0143569356,1106
77787,185601,222851,2.3353948576,9.4695954395,-0.0263210486,1107
77837,185588,222845,2.3401805028,9.4899344316,-0.0526420972,1108
77872,185599,222819,2.4119651808,9.451649269999999,-0.022731814700000002,1109
77936,185607,222861,2.3904297774,9.464809794299999,0.0705882667,1110
77984,185636,222857,2.3784656644,9.4707918508,-0.0251246373,1111
78033,185602,222834,2.4370898181,9.4193461649,-0.040677984199999996,1112
78083,185638,222816,2.356930261,9.4707918508,-0.1256231865,1113
78143,185633,222814,2.4119651808,9.4468636248,-0.1328016543,1114
78153,185664,222768,2.309073809,9.5377908836,0.04307080679999999,1115
78008,185548,222761,2.4490539311,9.4660062056,0.0346959277,1116
77723,185487,222716,2.3629123174999997,9.403792818,-0.0047856452,1117
77493,185490,222693,2.3784656644,9.355936366,-0.045463629400000004,1118
77416,185448,222702,2.2336998971,9.511469835,-0.062213387599999996,1119
77353,185465,222723,2.3952154226,9.4660062056,-0.021535403399999997,1120
77369,185480,222730,2.4801606249,9.439685157,-0.011964113,1121
77401,185509,222731,2.4227328825,9.4827559638,-0.0011964113,1122
77505,185521,222717,2.297109696,9.5485585853,-0.0370887503,1123
77483,185518,222738,2.297109696,9.477970318599999,-0.0526420972,1124
77480,185511,222744,2.3617159062,9.439685157,0.031106693799999998,1125
77517,185517,222735,2.3294128011,9.5162554802,-0.0574277424,1126
77472,185528,222736,2.3880369548,9.468399028199999,0.044267218100000005,1127
77563,185512,222768,2.2827527603999997,9.3822574146,-0.0047856452,1128
77545,185531,222730,2.3976082452,9.511469835,0.020338992099999998,1129
77675,185532,222736,2.3665015514,9.5042913672,-0.011964113,1130
77697,185547,222775,2.3473589706,9.2829552767,-0.035892339,1131
77753,185566,222742,2.3186450994000003,9.475577496,0.0681954441,1132
77789,185581,222672,2.3904297774,9.5413801175,-0.0167497582,1133
77866,185566,222727,2.4478575198,9.522237536699999,0.1040877831,1134
77961,185578,222760,2.2336998971,9.5018985446,0.0167497582,1135
77968,185577,222731,2.2995025186,9.3894358824,-0.09690931529999999,1136
77976,185549,222696,2.3186450994000003,9.5557370531,-0.0263210486,1137
77809,185500,222670,2.2660030021999997,9.456434915200001,-0.0287138712,1138
77543,185453,222653,2.3808584870000002,9.3966143502,-0.0538385085,1139
77372,185402,222610,2.4107687694999997,9.4420779796,0.0071784678,1140
77290,185434,222651,2.2983061073,9.5712904,0.0299102825,1141
77260,185396,222653,2.3473589706,9.5330052384,0.0323031051,1142
77266,185437,222662,2.4717857458,9.355936366,-0.0023928226,1143
77330,185436,222643,2.3162522768000002,9.4348995118,-0.040677984199999996,1144
77383,185461,222646,2.4023938904,9.4851487864,-0.011964113,1145
77403,185434,222617,2.4275185276999998,9.5150590689,-0.095712904,1146
77404,185460,222644,2.4023938904,9.6574320136,-0.0574277424,1147
77416,185444,222650,2.356930261,9.4803631412,-0.021535403399999997,1148
77417,185470,222631,2.3306092124,9.5665047548,-0.0047856452,1149
77478,185489,222626,2.3425733254,9.5330052384,0.0299102825,1150
77549,185470,222667,2.4179472373,9.2877409219,0.0538385085,1151
77576,185512,222642,2.3521446158,9.4372923344,0.0466600407,1152
77665,185513,222670,2.3880369548,9.4420779796,-0.095712904,1153
77641,185554,222650,2.4837498588,9.4337031005,0.0131605243,1154
77789,185522,222666,2.4335005842,9.4660062056,0.0370887503,1155
77829,185538,222674,2.3892333661,9.4803631412,-0.035892339,1156
77894,185552,222669,2.4227328825,9.4588277378,0.0179461695,1157
77935,185533,222659,2.3282163898,9.487541608999999,-0.0789631458,1158
77938,185554,222647,2.4095723582,9.589236569499999,-0.0741775006,1159
77758,185462,222623,2.2755742926,9.487541608999999,0.0047856452,1160
77516,185397,222558,2.4370898181,9.531808827099999,-0.021535403399999997,1161
77396,185413,222573,2.3282163898,9.4408815683,-0.0275174599,1162
77272,185367,222556,2.3676979627,9.5533442305,0.0323031051,1163
77257,185393,222544,2.2875384056,9.4169533423,0.0083748791,1164
77268,185432,222590,2.3437697367,9.451649269999999,-0.0394815729,1165
77372,185442,222597,2.3341984463,9.4492564474,-0.023928226,1166
77366,185445,222581,2.3952154226,9.5126662463,-0.0502492746,1167
77396,185422,222602,2.3736800192,9.4313102779,-0.0550349198,1168
77405,185455,222556,2.3425733254,9.456434915200001,-0.08374879099999999,1169
77436,185452,222605,2.4227328825,9.415756931,-0.031106693799999998,1170
77521,185464,222596,2.3078773977,9.4588277378,-0.04307080679999999,1171
77479,185466,222568,2.3114666316,9.562915520899999,0.0251246373,1172
77570,185480,222579,2.3461625592999997,9.5509514079,-0.0897308475,1173
77605,185495,222592,2.3401805028,9.4851487864,0.022731814700000002,1174
77743,185534,222623,2.3593230836,9.4827559638,-0.0873380249,1175
77818,185503,222653,2.3952154226,9.4660062056,-0.023928226,1176
77892,185562,222620,2.3916261887,9.4660062056,0.0897308475,1177
77879,185571,222626,2.4275185276999998,9.399007172800001,-0.0179461695,1178
78047,185562,222635,2.3665015514,9.5042913672,-0.0765703232,1179
78083,185562,222625,2.344966148,9.523433948000001,0.0083748791,1180
78088,185545,222631,2.2947168733999996,9.5270231819,-0.0382851616,1181
77845,185481,222558,2.3700907853,9.3463650756,-0.0167497582,1182
77686,185428,222533,2.309073809,9.5533442305,-0.0789631458,1183
77623,185413,222517,2.3593230836,9.4085784632,-0.08135596839999999,1184
77530,185444,222514,2.4550359876,9.5485585853,-0.045463629400000004,1185
77513,185439,222556,2.3425733254,9.4325066892,0.011964113,1186
77571,185467,222511,2.4131615921,9.4731846734,-0.0167497582,1187
77650,185515,222544,2.4610180441000002,9.554540641800001,-0.035892339,1188
77693,185498,222567,2.2827527603999997,9.564111932200001,0.0143569356,1189
77718,185504,222569,2.4095723582,9.5246303593,-0.0741775006,1190
77722,185498,222571,2.4263221164,9.5533442305,-0.011964113,1191
77756,185509,222577,2.3964118339,9.4612205604,-0.0765703232,1192
77800,185511,222614,2.4921247379,9.443274390900001,-0.045463629400000004,1193
77855,185510,222586,2.2827527603999997,9.5007021333,0.08374879099999999,1194
77913,185496,222603,2.4107687694999997,9.4193461649,-0.022731814700000002,1195
77974,185546,222621,2.3377876802,9.4229353988,-0.08614161359999999,1196
78051,185568,222607,2.3880369548,9.463613383,0.09690931529999999,1197
78109,185593,222610,2.4681965119,9.438488745699999,-0.011964113,1198
78143,185575,222625,2.4299113503,9.5413801175,-0.0346959277,1199
78244,185606,222638,2.3712871966,9.5030949559,0.0299102825,1200
78288,185584,222603,2.3856441322,9.4911308429,-0.0167497582,1201
78327,185603,222602,2.3928226,9.5174518915,0.0610169763,1202
78204,185539,222559,2.4299113503,9.5007021333,0.0681954441,1203
77983,185473,222550,2.4466611085,9.5306124158,-0.021535403399999997,1204
77848,185474,222496,2.3856441322,9.5246303593,-0.0646062102,1205
77707,185468,222515,2.3174486881,9.427721044,-0.023928226,1206
77740,185468,222550,2.2624137683,9.443274390900001,0.062213387599999996,1207
77707,185506,222525,2.4035903017,9.3870430598,-0.059820565,1208
77806,185500,222530,2.3892333661,9.4803631412,-0.0035892339,1209
77864,185521,222594,2.297109696,9.4851487864,0.022731814700000002,1210
77901,185518,222564,2.344966148,9.4767739073,-0.0191425808,1211
77897,185508,222556,2.4777678023000003,9.4301138666,-0.0789631458,1212
77907,185568,222561,2.3724836079,9.5677011661,-0.0059820565,1213
77928,185551,222558,2.4191436486,9.4672026169,-0.022731814700000002,1214
77978,185521,222592,2.548356069,9.451649269999999,-0.0334995164,1215
78003,185596,222564,2.428714939,9.4839523751,0.011964113,1216
78112,185542,222558,2.3150558654999998,9.5150590689,0.0658026215,1217
78126,185550,222624,2.3030917525,9.4348995118,-0.0981057266,1218
78099,185601,222611,2.2564317118,9.4672026169,-0.0382851616,1219
78276,185604,222619,2.3832513096,9.5724868113,-0.0191425808,1220
78280,185597,222605,2.4275185276999998,9.5007021333,-0.0370887503,1221
78341,185629,222643,2.4155544147,9.5748796339,-0.0071784678,1222
78302,185578,222610,2.3724836079,9.391828705,-0.0502492746,1223
78099,185520,222541,2.3186450994000003,9.4229353988,-0.022731814700000002,1224
77815,185453,222515,2.440679052,9.3188476157,0.0466600407,1225
77643,185430,222492,2.321037922,9.5198447141,0.022731814700000002,1226
77482,185454,222480,2.4215364712,9.5282195932,0.0059820565,1227
77473,185412,222476,2.4574288102,9.4468636248,0.0131605243,1228
77474,185460,222490,2.3593230836,9.497112899400001,-0.0263210486,1229
77507,185468,222487,2.3856441322,9.4899344316,0.035892339,1230
77544,185430,222511,2.3341984463,9.4839523751,-0.0502492746,1231
77488,185436,222518,2.4071795356,9.523433948000001,0.0526420972,1232
77490,185456,222481,2.3617159062,9.4301138666,0.0143569356,1233
77503,185444,222504,2.3497517932000003,9.5270231819,0.0681954441,1234
77503,185474,222504,2.297109696,9.3176512044,-0.0011964113,1235
77535,185493,222504,2.3880369548,9.3942215276,0.0646062102,1236
77582,185460,222521,2.3234307446,9.5018985446,-0.0526420972,1237
77614,185490,222554,2.416750826,9.4660062056,-0.08614161359999999,1238
77704,185496,222517,2.2887348169,9.463613383,-0.1004985492,1239
77722,185521,222536,2.3629123174999997,9.4025964067,-0.0765703232,1240
77755,185508,222567,2.416750826,9.4085784632,-0.062213387599999996,1241
77853,185500,222540,2.4107687694999997,9.5054877785,-0.056231331100000004,1242
77832,185504,222564,2.3940190112999997,9.6131647955,-0.095712904,1243
77739,185424,222487,2.2995025186,9.4899344316,-0.107677017,1244
77468,185394,222470,2.3892333661,9.4253282214,-0.031106693799999998,1245
77263,185351,222447,2.3557338497,9.3427758417,-0.09690931529999999,1246
77138,185358,222423,2.4490539311,9.468399028199999,-0.0191425808,1247
77056,185341,222440,2.3760728418,9.5162554802,-0.0023928226,1248
77013,185361,222436,2.3605194949,9.4887380203,-0.0143569356,1249
77050,185362,222454,2.3964118339,9.456434915200001,0.0143569356,1250
77106,185386,222478,2.3748764305,9.522237536699999,-0.031106693799999998,1251
77120,185378,222455,2.3054845751,9.5365944723,-0.0191425808,1252
77132,185410,222472,2.3042881638,9.5270231819,-0.0047856452,1253
77134,185391,222472,2.3760728418,9.4540420926,0.044267218100000005,1254
77154,185404,222492,2.3521446158,9.443274390900001,-0.0382851616,1255
77186,185418,222502,2.3365912689,9.3774717694,-0.107677017,1256
77129,185424,222466,2.3904297774,9.468399028199999,-0.035892339,1257
77325,185424,222497,2.3533410271,9.5018985446,-0.0263210486,1258
77320,185451,222514,2.4179472373,9.4492564474,-0.010767701699999998,1259
77389,185448,222506,2.368894374,9.415756931,-0.071784678,1260
77369,185468,222468,2.2588245344,9.487541608999999,-0.09930213789999999,1261
77508,185458,222542,2.3868405435,9.4301138666,-0.0897308475,1262
77478,185477,222540,2.3772692530999997,9.4492564474,-0.0693918554,1263
77594,185471,222506,2.3258235672,9.510273423700001,-0.0287138712,1264
77480,185414,222484,2.4490539311,9.3164547931,-0.0765703232,1265
77096,185340,222376,2.4203400599,9.3487578982,0.0179461695,1266
77008,185316,222389,2.4083759468999997,9.420542576199999,-0.047856452,1267
76922,185310,222400,2.4311077616,9.5700939887,0.051445685899999996,1268
76859,185275,222389,2.3736800192,9.4887380203,-0.0502492746,1269
76863,185307,222409,2.2875384056,9.5461657627,-0.015553346899999999,1270
76918,185326,222439,2.4071795356,9.273383986299999,-0.1172483074,1271
76983,185321,222428,2.3772692530999997,9.4588277378,0.0011964113,1272
77005,185352,222451,2.356930261,9.385846648500001,-0.011964113,1273
77021,185347,222397,2.3234307446,9.3942215276,0.0,1274
77027,185389,222455,2.3784656644,9.399007172800001,-0.1172483074,1275
77064,185377,222465,2.4478575198,9.4181497536,-0.031106693799999998,1276
77093,185341,222439,2.2504496553,9.5533442305,0.0251246373,1277
77156,185425,222450,2.2109680824,9.4827559638,0.0753739119,1278
77201,185383,222479,2.356930261,9.4133641084,-0.0047856452,1279
77244,185402,222445,2.3425733254,9.5162554802,-0.11246266220000001,1280
77222,185394,222468,2.3712871966,9.5342016497,-0.1495514125,1281
77374,185421,222510,2.3832513096,9.4863451977,-0.0981057266,1282
77426,185447,222471,2.2767707039,9.607182739,-0.0693918554,1283
77499,185460,222501,2.3976082452,9.4013999954,0.0550349198,1284
77532,185425,222457,2.3856441322,9.4540420926,-0.0574277424,1285
77439,185405,222463,2.3928226,9.4504528587,-0.0933200814,1286
77190,185366,222403,2.4251257050999997,9.384650237199999,-0.059820565,1287
76997,185285,222404,2.3413769141,9.487541608999999,-0.12083754129999999,1288
76912,185293,222382,2.3605194949,9.5270231819,-0.059820565,1289
76846,185305,222346,2.3377876802,9.4791667299,-0.08614161359999999,1290
76846,185278,222380,2.3856441322,9.5605226983,-0.09092725880000001,1291
76857,185309,222402,2.4035903017,9.4707918508,-0.0071784678,1292
76997,185331,222432,2.4299113503,9.5880401582,-0.0550349198,1293
77016,185319,222429,2.4035903017,9.531808827099999,-0.1292124204,1294
77047,185346,222384,2.3593230836,9.463613383,0.0,1295
77091,185346,222408,2.4993032057,9.4265246327,0.0047856452,1296
77159,185356,222430,2.3030917525,9.3894358824,0.0191425808,1297
77193,185407,222402,2.4335005842,9.4935236655,0.0083748791,1298
77275,185379,222434,2.4358934068,9.5282195932,0.023928226,1299
77334,185420,222450,2.297109696,9.4325066892,0.011964113,1300
77428,185414,222472,2.2839491717,9.4372923344,-0.0658026215,1301
77490,185457,222442,2.4227328825,9.5162554802,-0.0191425808,1302
77570,185440,222458,2.3748764305,9.5126662463,0.0287138712,1303
77647,185454,222478,2.2827527603999997,9.495916488099999,-0.0059820565,1304
77724,185482,222503,2.3665015514,9.3822574146,0.023928226,1305
77777,185459,222448,2.3114666316,9.5007021333,-0.0669990328,1306
77724,185442,222466,2.4215364712,9.4707918508,0.0095712904,1307
77519,185354,222434,2.3676979627,9.3942215276,-0.015553346899999999,1308
77351,185336,222327,2.4454646972,9.463613383,0.0035892339,1309
77218,185340,222325,2.4801606249,9.4061856406,0.0693918554,1310
77180,185350,222342,2.4921247379,9.5066841898,-0.0789631458,1311
77191,185341,222419,2.4335005842,9.5485585853,0.021535403399999997,1312
77265,185405,222403,2.3234307446,9.4468636248,-0.021535403399999997,1313
77355,185415,222425,2.3066809864,9.385846648500001,0.0047856452,1314
77383,185433,222456,2.3653051401,9.475577496,-0.0741775006,1315
77423,185405,222430,2.3425733254,9.511469835,-0.09092725880000001,1316
77440,185408,222477,2.3928226,9.2925265671,-0.031106693799999998,1317
77484,185400,222418,2.3617159062,9.5150590689,0.0095712904,1318
77528,185431,222473,2.3760728418,9.463613383,-0.059820565,1319
77627,185448,222466,2.4634108667000003,9.562915520899999,-0.035892339,1320
77652,185468,222463,2.3066809864,9.5210411254,0.0490528633,1321
77726,185486,222472,2.4131615921,9.5700939887,-0.0287138712,1322
77788,185498,222495,2.5435704238000003,9.4420779796,-0.08853443620000001,1323
77853,185485,222484,2.3700907853,9.4719882621,-0.1363908882,1324
77918,185518,222500,2.440679052,9.3966143502,-0.045463629400000004,1325
77979,185563,222470,2.3928226,9.4444708022,0.0610169763,1326
78041,185545,222513,2.3700907853,9.4013999954,0.0191425808,1327
77959,185500,222503,2.4000010678,9.4301138666,-0.045463629400000004,1328
77796,185416,222435,2.261217357,9.5820581017,0.0681954441,1329
77524,185374,222423,2.344966148,9.547362174,-0.0526420972,1330
77415,185389,222367,2.4418754632999997,9.4492564474,0.0191425808,1331
77434,185378,222418,2.3030917525,9.5330052384,0.0610169763,1332
77438,185397,222386,2.4215364712,9.4325066892,-0.0287138712,1333
77509,185427,222413,2.3162522768000002,9.5605226983,0.0,1334
77591,185440,222449,2.4705893345,9.6012006825,0.010767701699999998,1335
77620,185457,222428,2.4574288102,9.5306124158,-0.0334995164,1336
77635,185475,222480,2.4586252215,9.4707918508,-0.0071784678,1337
77665,185436,222425,2.4191436486,9.4133641084,-0.0646062102,1338
77691,185463,222475,2.4622144554,9.4791667299,-0.0143569356,1339
77741,185478,222464,2.4490539311,9.468399028199999,-0.040677984199999996,1340
77784,185481,222454,2.3473589706,9.463613383,-0.0526420972,1341
77824,185485,222484,2.3892333661,9.4420779796,-0.1256231865,1342
77867,185514,222481,2.3988046565,9.477970318599999,-0.107677017,1343
77930,185482,222492,2.3665015514,9.4923272542,0.020338992099999998,1344
77966,185528,222470,2.3162522768000002,9.4863451977,-0.0334995164,1345
77994,185531,222489,2.3341984463,9.4372923344,-0.047856452,1346
78000,185527,222517,2.2552353005,9.4061856406,-0.1423729447,1347
78005,185538,222485,2.5052852621999997,9.4731846734,0.0287138712,1348
77883,185457,222458,2.3964118339,9.5509514079,-0.0502492746,1349
77591,185385,222383,2.309073809,9.3427758417,-0.045463629400000004,1350
77372,185362,222339,2.4538395763,9.3607220112,-0.045463629400000004,1351
77240,185329,222347,2.4203400599,9.4444708022,-0.010767701699999998,1352
77138,185323,222354,2.3724836079,9.4540420926,-0.0059820565,1353
77121,185319,222375,2.368894374,9.4301138666,0.0083748791,1354
77148,185378,222377,2.4801606249,9.3870430598,-0.11246266220000001,1355
77220,185367,222381,2.4873390927,9.523433948000001,0.023928226,1356
77207,185384,222372,2.4394826406999996,9.6263253198,-0.0011964113,1357
77213,185376,222343,2.3976082452,9.4420779796,-0.04307080679999999,1358
77202,185369,222391,2.3066809864,9.3619184225,-0.035892339,1359
77232,185387,222384,2.4358934068,9.4253282214,-0.031106693799999998,1360
77259,185381,222398,2.4035903017,9.4983093107,0.011964113,1361
77288,185383,222428,2.404786713,9.522237536699999,-0.056231331100000004,1362
77334,185422,222445,2.4071795356,9.499505722,-0.020338992099999998,1363
77394,185454,222405,2.2779671152,9.579665279099999,0.0777667345,1364
77437,185446,222406,2.3772692530999997,9.4707918508,-0.011964113,1365
77496,185486,222481,2.2432711875,9.4588277378,-0.044267218100000005,1366
77540,185450,222433,2.3473589706,9.391828705,-0.045463629400000004,1367
77601,185473,222432,2.3162522768000002,9.5162554802,0.06340979890000001,1368
77617,185474,222392,2.3665015514,9.5342016497,0.0502492746,1369
77511,185435,222394,2.4083759468999997,9.5150590689,-0.0693918554,1370
77222,185312,222347,2.4430718746,9.5007021333,-0.0023928226,1371
77025,185305,222338,2.5040888509,9.5078806011,-0.0191425808,1372
76910,185294,222305,2.3282163898,9.5724868113,-0.0167497582,1373
76811,185288,222322,2.3521446158,9.4456672135,0.0466600407,1374
76797,185315,222355,2.3485553819,9.327222494799999,0.0059820565,1375
76840,185324,222387,2.2313070745,9.4348995118,-0.0191425808,1376
76952,185375,222395,2.4562323989,9.4456672135,-0.0167497582,1377
76928,185339,222384,2.3928226,9.463613383,0.015553346899999999,1378
76923,185359,222389,2.3832513096,9.3344009626,-0.0669990328,1379
76941,185353,222362,2.3042881638,9.5569334644,0.0,1380
76971,185360,222381,2.4466611085,9.5401837062,-0.1459621786,1381
76940,185364,222412,2.2504496553,9.621539674600001,-0.13758729949999998,1382
77066,185383,222400,2.4586252215,9.5306124158,-0.0382851616,1383
77131,185371,222369,2.2564317118,9.3164547931,-0.021535403399999997,1384
77169,185412,222397,2.3353948576,9.531808827099999,-0.08374879099999999,1385
77172,185397,222441,2.3772692530999997,9.5342016497,-0.06340979890000001,1386
77294,185433,222467,2.3772692530999997,9.5437729401,0.0143569356,1387
77333,185431,222411,2.4370898181,9.5605226983,-0.0131605243,1388
77410,185440,222439,2.3760728418,9.3894358824,-0.023928226,1389
77449,185441,222418,2.3521446158,9.511469835,-0.044267218100000005,1390
77438,185415,222427,2.4969103831,9.3738825355,-0.0191425808,1391
77240,185352,222375,2.4143580034,9.5042913672,0.0334995164,1392
76981,185303,222370,2.3066809864,9.4767739073,-0.0035892339,1393
76858,185294,222323,2.2779671152,9.564111932200001,-0.0334995164,1394
76778,185290,222327,2.3796620756999998,9.4085784632,0.0334995164,1395
76740,185271,222303,2.3497517932000003,9.3930251163,-0.0035892339,1396
76770,185331,222342,2.4442682859,9.4301138666,-0.0849452023,1397
76848,185334,222356,2.4179472373,9.6107719729,-0.13758729949999998,1398
76883,185324,222387,2.3629123174999997,9.5018985446,-0.08614161359999999,1399
76892,185331,222371,2.3114666316,9.4827559638,0.0334995164,1400
76900,185317,222388,2.3377876802,9.4983093107,-0.1220339526,1401
76976,185345,222422,2.2995025186,9.4444708022,-0.059820565,1402
76952,185365,222413,2.416750826,9.410971285799999,-0.047856452,1403
77039,185349,222434,2.3772692530999997,9.5138626576,-0.062213387599999996,1404
77057,185377,222448,2.3377876802,9.4719882621,-0.0071784678,1405
77116,185369,222423,2.3186450994000003,9.4707918508,-0.0047856452,1406
77188,185384,222418,2.2791635265,9.415756931,-0.0011964113,1407
77225,185458,222452,2.2671994135,9.510273423700001,0.059820565,1408
77320,185418,222437,2.4215364712,9.427721044,0.0,1409
77381,185439,222437,2.3473589706,9.4085784632,-0.0023928226,1410
77438,185442,222460,2.2480568327,9.468399028199999,-0.0550349198,1411
77469,185444,222462,2.4813570362,9.564111932200001,0.04307080679999999,1412
77324,185369,222406,2.5734807063,9.3583291886,0.011964113,1413
77074,185340,222365,2.3868405435,9.3619184225,0.035892339,1414
76943,185305,222347,2.3114666316,9.4863451977,-0.021535403399999997,1415
76833,185302,222342,2.4610180441000002,9.4719882621,-0.071784678,1416
76827,185290,222371,2.4000010678,9.4672026169,-0.071784678,1417
76824,185322,222382,2.344966148,9.4660062056,0.0071784678,1418
76932,185368,222364,2.3162522768000002,9.3643112451,-0.11964113,1419
77005,185347,222396,2.3126630429,9.4133641084,0.035892339,1420
77040,185368,222373,2.4011974791,9.4241318101,0.0191425808,1421
77060,185340,222467,2.4275185276999998,9.384650237199999,-0.0669990328,1422
77097,185328,222449,2.2301106632,9.4540420926,0.0382851616,1423
77139,185386,222450,2.3868405435,9.5365944723,-0.0382851616,1424
77201,185394,222466,2.4562323989,9.5246303593,-0.0287138712,1425
77261,185396,222441,2.440679052,9.499505722,-0.0729810893,1426
77342,185413,222431,2.3665015514,9.509077012399999,0.0741775006,1427
77404,185451,222483,2.309073809,9.4923272542,-0.059820565,1428
77492,185468,222491,2.3617159062,9.5365944723,0.011964113,1429
77569,185476,222494,2.368894374,9.5509514079,-0.1304088317,1430
77646,185497,222517,2.3377876802,9.3870430598,-0.0263210486,1431
77719,185461,222506,2.3712871966,9.509077012399999,-0.011964113,1432
77740,185486,222465,2.3401805028,9.468399028199999,0.0275174599,1433
77558,185403,222450,2.2887348169,9.4983093107,0.0035892339,1434
77340,185359,222427,2.3593230836,9.455238503899999,-0.0693918554,1435
77302,185319,222420,2.3784656644,9.5820581017,0.0346959277,1436
77253,185365,222416,2.4394826406999996,9.4612205604,0.0299102825,1437
77226,185370,222417,2.3425733254,9.4181497536,-0.031106693799999998,1438
77342,185387,222435,2.297109696,9.5605226983,0.0323031051,1439
77442,185417,222492,2.3066809864,9.3667040677,-0.1004985492,1440
77493,185399,222493,2.4813570362,9.410971285799999,-0.0287138712,1441
77545,185443,222500,2.4251257050999997,9.5066841898,0.0610169763,1442
77588,185433,222492,2.5064816735,9.3152583818,-0.0263210486,1443
77650,185442,222541,2.3114666316,9.5018985446,-0.0023928226,1444
77731,185456,222542,2.3294128011,9.4013999954,-0.0059820565,1445
77790,185501,222559,2.4035903017,9.6083791503,0.0035892339,1446
77863,185496,222510,2.3533410271,9.309276325299999,-0.0167497582,1447
77946,185535,222524,2.3282163898,9.4863451977,0.015553346899999999,1448
78038,185520,222547,2.440679052,9.4372923344,0.0275174599,1449
78087,185543,222575,2.3665015514,9.4085784632,-0.0263210486,1450
78199,185536,222560,2.3222343333,9.4540420926,0.0083748791,1451
78210,185539,222571,2.3952154226,9.5916293921,0.0,1452
78248,185534,222548,2.3712871966,9.5150590689,-0.0574277424,1453
78052,185472,222519,2.3856441322,9.3942215276,-0.0023928226,1454
77864,185418,222492,2.356930261,9.5724868113,0.0466600407,1455
77790,185452,222497,2.3282163898,9.5964150373,-0.0191425808,1456
77769,185442,222505,2.4095723582,9.549754996599999,0.0143569356,1457
77792,185422,222505,2.3042881638,9.451649269999999,-0.0789631458,1458
77873,185476,222550,2.4275185276999998,9.4863451977,0.0346959277,1459
77952,185482,222584,2.1834506225,9.456434915200001,0.0263210486,1460
77966,185472,222519,2.4095723582,9.6275217311,-0.059820565,1461
77976,185493,222551,2.3796620756999998,9.4851487864,0.059820565,1462
78003,185490,222558,2.4705893345,9.4947200768,-0.0550349198,1463
78018,185479,222532,2.4071795356,9.3344009626,-0.0191425808,1464
78014,185449,222560,2.3330020350000003,9.451649269999999,-0.1136590735,1465
78024,185470,222539,2.3186450994000003,9.345168664300001,0.0,1466
78028,185472,222557,2.4083759468999997,9.5018985446,0.06340979890000001,1467
78021,185463,222534,2.2360927197000002,9.4911308429,0.0167497582,1468
78109,185522,222602,2.3904297774,9.4444708022,-0.0550349198,1469
78137,185500,222562,2.4466611085,9.4947200768,0.0299102825,1470
78215,185506,222545,2.4670001006,9.4600241491,-0.0071784678,1471
78124,185462,222602,2.4670001006,9.427721044,-0.015553346899999999,1472
77878,185384,222466,2.3222343333,9.3296153174,-0.11246266220000001,1473
77664,185361,222480,2.3509482045,9.340383019099999,-0.0059820565,1474
77563,185343,222446,2.3353948576,9.5018985446,-0.08853443620000001,1475
77484,185313,222449,2.452643165,9.415756931,-0.023928226,1476
77479,185358,222465,2.2743778813,9.4947200768,-0.0071784678,1477
77565,185386,222500,2.404786713,9.5377908836,-0.0263210486,1478
77741,185433,222579,2.5328027221,9.7663054419,-0.0789631458,1479
77880,185605,222663,2.2995025186,9.767501853199999,-0.16630117069999997,1480
77877,185828,222922,2.3988046565,9.1106720495,-0.31704899449999996,1481
77999,186080,223177,2.5926232871,9.4372923344,-0.3553341561,1482
78193,186273,223399,2.8701907087,9.0735832992,-0.010767701699999998,1483
78272,186397,223541,2.9718856692,8.985048863000001,-0.32542387359999997,1484
78284,186395,223552,3.1573294206999996,9.3786681807,-0.6412764568,1485
78441,186423,223627,2.6249263922,9.535398061,-0.3672982691,1486
78659,186468,223722,2.739781877,9.0053878551,-0.2596212521,1487
78763,186540,223705,2.5567309481,9.4851487864,-0.4761716974,1488
79224,186688,223818,3.4588250683,9.3427758417,-0.2560320182,1489
80055,187003,224047,2.8474588940000003,9.3224368496,-0.6532405698,1490
81071,187311,224357,3.1788648241,9.2518485829,-0.8338986760999999,1491
81775,187547,224561,3.1992038162000003,9.0436730167,-0.5647061336,1492
82147,187652,224693,3.1405796625,9.1393859207,-0.6005984726,1493
82313,187667,224724,3.1645078885,9.1369930981,-0.6652046827999999,1494
82199,187561,224687,3.1537401868,9.2099741874,-0.5587240770999999,1495
81765,187437,224566,2.9012974024999996,9.178867493599999,-0.5838487144,1496
81100,187225,224368,2.8486553053,9.229116768199999,-0.6173482308,1497
80351,186970,224172,2.8091737324,9.438488745699999,-0.6173482308,1498
79646,186636,223898,2.6584259086,9.391828705,-0.6675975054,1499
78917,186340,223607,2.2719850587,9.5784688678,-0.7334001269,1500
78293,186154,223437,2.0985054202,9.6358966102,-0.3565305674,1501
77780,186130,223465,1.698904046,9.6059863277,-0.4199403663,1502
77441,186091,223376,2.0135602179,9.4145605197,-0.4570291166,1503
77198,186084,223389,1.9393827173,9.5521478192,-0.41754754369999997,1504
77063,186067,223364,2.1559331626,9.3631148338,-0.4594219392,1505
76864,186035,223350,1.998006871,9.3427758417,-0.3768695595,1506
76797,185987,223318,2.141576227,9.655039191,-0.3732803256,1507
76712,185954,223304,1.9477575963999998,9.6502535458,-0.454636294,1508
76591,185959,223328,2.0793628394,9.595218626,-0.5874379483000001,1509
76380,185977,223325,2.0757736055,9.620343263299999,-0.48574298779999997,1510
76224,186018,223344,1.9692929998,9.4289174553,-0.2596212521,1511
76177,186040,223383,1.8735800958,9.3391866078,-0.3960121403,1512
76109,186070,223394,2.009970984,9.5605226983,-0.2309073809,1513
75973,185991,223435,2.0673987264,9.595218626,-0.2596212521,1514
75804,185932,223400,2.1260228801,9.5138626576,-0.2572284295,1515
75668,185859,223308,1.9214365478,9.6634140701,-0.43788653580000003,1516
75603,185813,223319,1.9106688461,9.678967417,-0.2452643165,1517
75612,185838,223331,2.0542382021,9.5665047548,-0.4522434714,1518
