green,red,IR,acc_x,acc_y,acc_z,sample_index
132281,212626,267306,2.2564317118,-4.4961136654,8.5328053916,1
132167,212617,267369,2.3605194949,-4.4949172541,8.5734833758,2
132288,212627,267409,2.2600209457,-4.4482572134,8.5734833758,3
132393,212626,267342,2.2947168733999996,-4.4841495524,8.569894141899999,4
132479,212663,267339,2.2396819536,-4.3980079388,8.5639120854,5
132574,212690,267352,2.1523439287,-4.4434715682,8.5603228515,6
132716,212665,267368,2.2157537276,-4.465006971599999,8.6153577713,7
132900,212719,267417,2.2683958248,-4.5260239479,8.4131642616,8
133134,212713,267428,2.3042881638,-4.3980079388,8.459824302300001,9
133392,212739,267410,2.2396819536,-4.5439701174,8.475377649199999,10
133668,212794,267458,2.3509482045,-4.5080777784,8.6129649487,11
133933,212836,267470,2.2863419943,-4.3920258823,8.4813597057,12
134203,212848,267506,2.3114666316,-4.414757697,8.5005022865,13
134477,212900,267563,2.3114666316,-4.4602213264,8.5459659159,14
134720,212942,267583,2.3593230836,-4.4673997942,8.463413536200001,15
134975,213006,267578,2.2492532439999997,-4.534398827,8.554340795,16
135229,213008,267593,2.3533410271,-4.4315074552,8.574679787100001,17
135500,213043,267615,2.3665015514,-4.54636294,8.584251077500001,18
135744,213090,267632,2.261217357,-4.3776689467,8.5363946255,19
135977,213147,267671,2.3641087288000002,-4.3752761241,8.5208412786,20
136082,213120,267655,2.3222343333,-4.3561335433,8.4873417622,21
135669,213048,267557,2.3653051401,-4.6073799163,8.5340018029,22
134806,212859,267488,2.3892333661,-4.6408794327,8.4083786164,23
133944,212801,267459,2.2121644937,-4.4015971727,8.516055633399999,24
133258,212694,267456,2.2887348169,-4.5164526575,8.5914295453,25
132706,212654,267333,2.3377876802,-4.4350966891,8.556733617599999,26
132272,212582,267313,2.3485553819,-4.3058842687,8.5411802707,27
132041,212582,267321,2.3353948576,-4.5535414078,8.4442709554,28
132094,212538,267347,2.1786649773,-4.5296131818,8.6345003521,29
132245,212587,267329,2.2432711875,-4.5008993106,8.5471623272,30
132310,212573,267332,2.3497517932000003,-4.5918265694,8.6321075295,31
132423,212584,267347,2.3521446158,-4.4566320925,8.5351982142,32
132540,212621,267370,2.4059831243,-4.4733818507,8.4610207136,33
132721,212627,267366,2.3330020350000003,-4.4817567298,8.482556117,34
132941,212648,267392,2.3042881638,-4.6767717716999995,8.49452023,35
133198,212721,267436,2.4119651808,-4.474578262,8.434699665,36
133450,212717,267404,2.3796620756999998,-4.42672181,8.4023965599,37
133720,212768,267425,2.2396819536,-4.5092741897,8.49452023,38
134019,212785,267515,2.3114666316,-4.6289153197,8.5040915204,39
134318,212845,267561,2.3928226,-4.5080777784,8.4777704718,40
134583,212897,267518,2.2061824372,-4.4757746733,8.5028951091,41
134870,212900,267582,2.2444675988,-4.4339002778,8.569894141899999,42
135114,212980,267586,2.309073809,-4.4111684631,8.4777704718,43
135354,212974,267594,2.3389840915,-4.2963129783,8.405985793800001,44
135632,213025,267628,2.2468604214,-4.3848474145,8.5016986978,45
135914,213070,267679,2.2839491717,-4.4327038665,8.5459659159,46
136137,213121,267750,2.285145583,-4.4410787456,8.6644106346,47
136166,213065,267627,2.3042881638,-4.5738803999,8.626125473,48
135645,213006,267625,2.4119651808,-4.6157547954,8.518448456,49
134819,212875,267562,2.3497517932000003,-4.5631126982,8.518448456,50
134080,212776,267462,2.2181465501999997,-4.4315074552,8.605786480899999,51
133500,212739,267408,2.2229321954,-4.4039899953,8.5974116018,52
133105,212689,267413,2.2755742926,-4.4063828179,8.4299140198,53
132711,212636,267342,2.3258235672,-4.4709890281,8.4562350684,54
132631,212601,267345,2.2420747762,-4.4889351976,8.5088771656,55
132681,212625,267399,2.3676979627,-4.474578262,8.5028951091,56
132798,212660,267361,2.141576227,-4.54636294,8.5040915204,57
132829,212627,267360,2.3772692530999997,-4.4602213264,8.5220376899,58
132877,212640,267377,2.1631116304,-4.5320060043999995,8.6069828922,59
133015,212656,267393,2.3485553819,-4.4350966891,8.484948939599999,60
133160,212690,267357,2.1523439287,-4.534398827,8.5914295453,61
133383,212700,267438,2.0733807828999997,-4.4051864066,8.427521197199999,62
133593,212723,267462,2.3653051401,-4.4111684631,8.4921274074,63
133838,212674,267481,2.3006989299,-4.438685923,8.5495551498,64
134050,212773,267423,2.2707886474,-4.689932296,8.6117685374,65
134312,212827,267494,2.3413769141,-4.465006971599999,8.605786480899999,66
134542,212859,267525,2.3174486881,-4.582255279,8.530412569000001,67
134784,212897,267575,2.3521446158,-4.5200418914,8.49452023,68
134995,212916,267578,2.2743778813,-4.3393837851,8.4335032537,69
135218,212964,267647,2.4562323989,-4.5966122146,8.5998044244,70
135456,212959,267616,2.2181465501999997,-4.387240237099999,8.458627890999999,71
135694,212982,267588,2.3150558654999998,-4.450650036,8.6297147069,72
135911,213060,267649,2.2887348169,-4.5128634236,8.5615192628,73
135836,212986,267586,2.3114666316,-4.3860438258,8.5399838594,74
135164,212913,267548,2.2755742926,-4.6121655615,8.5016986978,75
134265,212759,267430,2.2061824372,-4.5379880609,8.569894141899999,76
133448,212689,267403,2.2145573163,-4.390829471,8.5818582549,77
132806,212607,267343,2.321037922,-4.4518464473,8.5914295453,78
132301,212518,267344,2.3820548983,-4.5200418914,8.516055633399999,79
131929,212486,267294,2.2492532439999997,-4.5367916496,8.574679787100001,80
131794,212441,267287,2.4311077616,-4.5260239479,8.6225362391,81
131876,212545,267333,2.3294128011,-4.3800617693,8.5890367227,82
131998,212457,267268,2.3772692530999997,-4.3920258823,8.4897345848,83
132113,212579,267262,2.297109696,-4.498506487999999,8.518448456,84
132203,212502,267324,2.2325034857999997,-4.5008993106,8.482556117,85
132360,212534,267348,2.2791635265,-4.4602213264,8.4729848266,86
132561,212546,267323,2.285145583,-4.5690947547,8.5136628108,87
132834,212606,267363,2.3234307446,-4.4614177377,8.530412569000001,88
133095,212597,267401,2.368894374,-4.4638105603,8.5627156741,89
133374,212667,267407,2.3605194949,-4.4327038665,8.5878403114,90
133639,212703,267443,2.3174486881,-4.4614177377,8.542376681999999,91
133917,212736,267503,2.3641087288000002,-4.4781674959,8.5016986978,92
134203,212781,267468,2.297109696,-4.4255253987,8.434699665,93
134458,212790,267533,2.2097716711,-4.5678983434,8.4562350684,94
134706,212845,267513,2.3928226,-4.4733818507,8.4550386571,95
134949,212893,267605,2.2648065909,-4.6157547954,8.530412569000001,96
135226,212947,267591,2.2229321954,-4.4219361648,8.463413536200001,97
135470,213011,267618,2.344966148,-4.4638105603,8.405985793800001,98
135732,212980,267660,2.4466611085,-4.5068813671,8.6273218843,99
136011,213047,267650,2.2947168733999996,-4.4482572134,8.5926259566,100
135965,212992,267686,2.4203400599,-4.4961136654,8.5794654323,101
135416,212957,267553,2.3473589706,-4.6049870937,8.5076807543,102
134497,212759,267485,2.2803599377999997,-4.5391844722,8.525626923799999,103
133683,212594,267478,2.2683958248,-4.4673997942,8.5016986978,104
132984,212602,267411,2.309073809,-4.5643091095,8.596215190499999,105
132420,212436,267335,2.2803599377999997,-4.5152562462,8.641678819900001,106
132020,212463,267275,2.2959132847,-4.5128634236,8.5579300289,107
131786,212469,267274,2.3018953412000003,-4.5726839886,8.5675013193,108
131838,212483,267280,2.237289131,-4.4937208428,8.4263247859,109
131968,212485,267357,2.3401805028,-4.4530428586,8.554340795,110
132072,212480,267311,2.2504496553,-4.589433746799999,8.5016986978,111
132156,212449,267339,2.4921247379,-4.4327038665,8.516055633399999,112
132254,212522,267346,2.3641087288000002,-4.4937208428,8.530412569000001,113
132466,212514,267340,2.2707886474,-4.4374895117,8.574679787100001,114
132691,212529,267387,2.2827527603999997,-4.5559342304,8.459824302300001,115
132943,212595,267405,2.2420747762,-4.387240237099999,8.5076807543,116
133218,212511,267418,2.2492532439999997,-4.4087756405,8.4658063588,117
133481,212649,267487,2.2887348169,-4.6002014485,8.4729848266,118
133762,212611,267443,2.3413769141,-4.3992043501,8.5399838594,119
134023,212745,267558,2.2313070745,-4.4913280202,8.5579300289,120
134277,212766,267537,2.1834506225,-4.6289153197,8.4777704718,121
134537,212828,267519,2.321037922,-4.3920258823,8.5328053916,122
134762,212863,267602,2.3306092124,-4.4638105603,8.4263247859,123
135037,212888,267571,2.2911276395,-4.6085763276,8.525626923799999,124
135296,212907,267597,2.3270199785,-4.5930229807,8.419146318100001,125
135547,212979,267607,2.2767707039,-4.4590249151000005,8.4777704718,126
135804,213009,267663,2.4311077616,-4.5008993106,8.530412569000001,127
136009,213026,267666,2.3904297774,-4.402793583999999,8.4921274074,128
135818,213007,267642,2.2504496553,-4.3992043501,8.4251283746,129
135104,212851,267547,2.3593230836,-4.7042892316,8.405985793800001,130
134242,212756,267466,2.4155544147,-4.354937132,8.518448456,131
133480,212667,267395,2.3377876802,-4.4279182213,8.475377649199999,132
132882,212564,267361,2.2827527603999997,-4.534398827,8.6297147069,133
132395,212507,267346,2.2408783649,-4.414757697,8.475377649199999,134
132041,212494,267381,2.4801606249,-4.582255279,8.5866439001,135
131979,212462,267286,2.2588245344,-4.4769710846,8.4993058752,136
132105,212486,267321,2.3461625592999997,-4.3609191885,8.4251283746,137
132237,212504,267285,2.3748764305,-4.4494536247,8.5112699882,138
132290,212488,267355,2.4095723582,-4.498506487999999,8.4801632944,139
132403,212508,267369,2.3557338497,-4.4590249151000005,8.6153577713,140
132568,212544,267338,2.3294128011,-4.4590249151000005,8.5603228515,141
132775,212582,267377,2.2803599377999997,-4.3453658416,8.5878403114,142
133031,212632,267485,2.309073809,-4.3776689467,8.4777704718,143
133274,212630,267391,2.2827527603999997,-4.465006971599999,8.5555372063,144
133556,212679,267485,2.3928226,-4.6384866101,8.5675013193,145
133833,212749,267480,2.3270199785,-4.4518464473,8.5555372063,146
134121,212743,267476,2.237289131,-4.5451665287,8.5028951091,147
134370,212782,267515,2.2887348169,-4.4662033829,8.4969130526,148
134660,212810,267576,2.3377876802,-4.5499521739,8.4023965599,149
134938,212911,267583,2.3509482045,-4.3704904789,8.4681991814,150
135173,212895,267546,2.3294128011,-4.3944187049,8.5639120854,151
135440,212920,267617,2.4263221164,-4.3501514868,8.5447695046,152
135720,212977,267680,2.3006989299,-4.4590249151000005,8.4442709554,153
135980,213018,267610,2.2803599377999997,-4.5332024157,8.5639120854,154
136233,213028,267663,2.2743778813,-4.5260239479,8.5495551498,155
136282,213059,267638,2.4083759468999997,-4.4183469309,8.4921274074,156
135794,212961,267593,2.3102702203,-4.570291166,8.4562350684,157
135023,212800,267543,2.213360905,-4.4374895117,8.5399838594,158
134337,212773,267491,2.2205393728,-4.4602213264,8.5232341012,159
133788,212634,267422,2.3282163898,-4.5020957219,8.6273218843,160
133380,212558,267390,2.2695922361,-4.4195433422,8.4993058752,161
133102,212596,267361,2.2887348169,-4.6037906824000006,8.5627156741,162
133034,212525,267388,2.3617159062,-4.4673997942,8.529216157699999,163
133131,212593,267394,2.3389840915,-4.4614177377,8.5040915204,164
133236,212613,267373,2.2839491717,-4.4243289874,8.4131642616,165
133249,212506,267426,2.1918255016,-4.4769710846,8.538787448099999,166
133335,212604,267376,2.2767707039,-4.4662033829,8.4741812379,167
133475,212618,267371,2.3078773977,-4.4901316089,8.5088771656,168
133629,212570,267383,2.3030917525,-4.474578262,8.5866439001,169
133848,212643,267426,2.27318147,-4.4841495524,8.5196448673,170
134081,212657,267433,2.2588245344,-4.4518464473,8.566304908,171
134297,212697,267458,2.3389840915,-4.5714875773,8.4000037373,172
134568,212716,267473,2.4107687694999997,-4.4614177377,8.5878403114,173
134821,212789,267483,2.2181465501999997,-4.5128634236,8.4562350684,174
135036,212819,267542,2.2109680824,-4.5726839886,8.4215391407,175
135263,212793,267559,2.2959132847,-4.3776689467,8.5555372063,176
135503,212849,267561,2.2719850587,-4.498506487999999,8.5938223679,177
135748,212871,267558,2.1547367513,-4.4554356812,8.4299140198,178
135983,212954,267666,2.3581266723,-4.3932222936,8.6189470052,179
136201,212976,267630,2.2157537276,-4.4422751569,8.529216157699999,180
136434,213014,267653,2.2743778813,-4.5008993106,8.5220376899,181
136675,213039,267669,2.2779671152,-4.4937208428,8.5615192628,182
136572,212991,267631,2.2516460665999998,-4.3633120111,8.542376681999999,183
135909,212906,267559,2.3964118339,-4.5080777784,8.530412569000001,184
135063,212759,267482,2.3102702203,-4.637290198800001,8.538787448099999,185
134306,212666,267396,2.2899312282,-4.4039899953,8.5459659159,186
133720,212561,267406,2.2277178406,-4.4721854394000005,8.538787448099999,187
133225,212509,267301,2.237289131,-4.4135612857,8.4490566006,188
132859,212486,267301,2.2875384056,-4.486542375,8.530412569000001,189
132706,212494,267369,2.3748764305,-4.414757697,8.5268233351,190
132773,212425,267329,2.1870398563999998,-4.4111684631,8.5483587385,191
132901,212369,267300,2.3473589706,-4.492524431500001,8.5675013193,192
132961,212447,267321,2.3856441322,-4.6002014485,8.5340018029,193
133058,212420,267373,2.3497517932000003,-4.4578285038,8.551947972399999,194
133162,212478,267380,2.3341984463,-4.4817567298,8.5208412786,195
133309,212560,267390,2.2097716711,-4.5200418914,8.459824302300001,196
133545,212553,267409,2.3796620756999998,-4.4578285038,8.5399838594,197
133777,212612,267362,2.356930261,-4.527220359199999,8.584251077500001,198
134068,212623,267417,2.3437697367,-4.4793639072,8.4813597057,199
134306,212655,267438,2.2648065909,-4.3884366484,8.6464644651,200
134556,212685,267455,2.3066809864,-4.4051864066,8.4873417622,201
134818,212713,267503,2.2803599377999997,-4.3944187049,8.3976109147,202
135053,212738,267506,2.1487546948,-4.4171505196,8.5686977306,203
135333,212794,267504,2.3964118339,-4.4111684631,8.516055633399999,204
135561,212811,267557,2.2648065909,-4.492524431500001,8.5447695046,205
135812,212851,267613,2.2348963083999998,-4.5056849558,8.4646099475,206
136063,212863,267569,2.356930261,-4.6037906824000006,8.5914295453,207
136321,212961,267583,2.3078773977,-4.4243289874,8.5531443837,208
136559,212988,267642,2.3784656644,-4.5439701174,8.5328053916,209
136793,213026,267629,2.3760728418,-4.4889351976,8.640482408599999,210
136693,212973,267638,2.2109680824,-4.3680976563,8.506484343,211
136123,212864,267553,2.4239292938,-4.5918265694,8.410771439,212
135241,212742,267505,2.3318056236999998,-4.3980079388,8.5040915204,213
134485,212633,267484,2.2683958248,-4.4123648744,8.4897345848,214
133832,212568,267393,2.3042881638,-4.414757697,8.6129649487,215
133322,212496,267320,2.2683958248,-4.4913280202,8.4442709554,216
132886,212422,267274,2.4634108667000003,-4.462614149,8.5507515611,217
132706,212397,267281,2.2600209457,-4.450650036,8.4933238187,218
132727,212393,267276,2.3389840915,-4.3920258823,8.4358960763,219
132817,212435,267286,2.2325034857999997,-4.4949172541,8.5555372063,220
132888,212403,267312,2.3078773977,-4.510470601,8.5818582549,221
132952,212399,267315,2.2660030021999997,-4.5152562462,8.4801632944,222
133073,212432,267304,2.3162522768000002,-4.5296131818,8.5088771656,223
133254,212458,267354,2.3330020350000003,-4.4195433422,8.605786480899999,224
133442,212464,267284,2.3557338497,-4.4889351976,8.4993058752,225
133683,212526,267342,2.1547367513,-4.5559342304,8.4873417622,226
133940,212550,267411,2.3437697367,-4.5655055207999995,8.538787448099999,227
134207,212542,267384,2.2779671152,-4.5248275366,8.5770726097,228
134451,212641,267427,2.3306092124,-4.474578262,8.5734833758,229
134719,212681,267468,2.213360905,-4.4578285038,8.5148592221,230
134989,212709,267498,2.3413769141,-4.6109691502,8.5112699882,231
135229,212747,267499,2.4071795356,-4.3968115275,8.5100735769,232
135507,212758,267489,2.3545374384,-4.4303110439,8.5112699882,233
135779,212751,267529,2.2157537276,-4.4590249151000005,8.5100735769,234
136017,212851,267568,2.4335005842,-4.5798624564,8.5088771656,235
136293,212875,267570,2.165504453,-4.4961136654,8.5016986978,236
136544,212939,267608,2.2863419943,-4.4554356812,8.6081793035,237
136741,212950,267627,2.2336998971,-4.5774696338,8.5675013193,238
136575,212893,267602,2.3581266723,-4.6217368519,8.5208412786,239
135909,212744,267498,2.2695922361,-4.4853459636999995,8.5100735769,240
135094,212688,267478,2.297109696,-4.5367916496,8.5232341012,241
134410,212558,267434,2.2277178406,-4.3393837851,8.4993058752,242
133829,212452,267372,2.3162522768000002,-4.4697926167999995,8.5926259566,243
133359,212413,267331,2.2277178406,-4.4877387863000004,8.5016986978,244
133059,212395,267337,2.3114666316,-4.5092741897,8.4526458345,245
133008,212387,267290,2.3736800192,-4.5523449965,8.551947972399999,246
133090,212388,267310,2.2887348169,-4.4398823343,8.6321075295,247
133153,212426,267324,2.2540388892,-4.3645084224,8.628518295600001,248
133205,212429,267322,2.2624137683,-4.4877387863000004,8.5459659159,249
133287,212471,267283,2.285145583,-4.4697926167999995,8.525626923799999,250
133437,212408,267319,2.1583259852,-4.4231325760999995,8.5028951091,251
133608,212491,267350,2.285145583,-4.4757746733,8.530412569000001,252
133818,212495,267329,2.2205393728,-4.414757697,8.4957166413,253
134062,212525,267362,2.2049860259000003,-4.486542375,8.5244305125,254
134336,212523,267420,2.2683958248,-4.560719875599999,8.5112699882,255
134609,212579,267428,2.1978075581,-4.3573299546,8.5232341012,256
134853,212632,267453,2.2899312282,-4.4470608021,8.4574314797,257
135107,212653,267438,2.2827527603999997,-4.492524431500001,8.5328053916,258
135373,212730,267493,2.2995025186,-4.4733818507,8.5675013193,259
135613,212738,267560,2.1942183242,-4.5415772948,8.590233134,260
135897,212736,267558,2.3473589706,-4.534398827,8.525626923799999,261
136152,212769,267577,2.297109696,-4.5056849558,8.427521197199999,262
136390,212868,267585,2.0662023151,-4.4135612857,8.5627156741,263
136679,212890,267646,2.3318056236999998,-4.594219392,8.5471623272,264
136696,212756,267625,2.2755742926,-4.5008993106,8.4873417622,265
136262,212757,267595,2.3856441322,-4.6325045536000005,8.4538422458,266
135450,212678,267420,2.2301106632,-4.5631126982,8.556733617599999,267
134731,212543,267393,2.2408783649,-4.342973019,8.5866439001,268
134190,212484,267372,2.2707886474,-4.5080777784,8.6129649487,269
133742,212450,267354,2.2492532439999997,-4.3812581806,8.5579300289,270
133387,212361,267279,2.3521446158,-4.5188454800999995,8.422735552,271
133280,212425,267295,2.3054845751,-4.5152562462,8.6010008357,272
133365,212357,267300,2.2109680824,-4.4422751569,8.5112699882,273
133469,212353,267278,2.1499511061,-4.5559342304,8.5399838594,274
133516,212363,267265,2.2588245344,-4.5595234643,8.5399838594,275
133550,212364,267264,2.2743778813,-4.4817567298,8.4969130526,276
133678,212405,267270,2.3318056236999998,-4.5248275366,8.5818582549,277
133890,212422,267305,2.2648065909,-4.5415772948,8.49452023,278
134081,212452,267312,2.2348963083999998,-4.4961136654,8.5495551498,279
134311,212464,267368,2.2408783649,-4.4183469309,8.6249290617,280
134549,212575,267404,2.2959132847,-4.4697926167999995,8.446663778,281
134806,212537,267382,2.2683958248,-4.4590249151000005,8.5615192628,282
135055,212613,267441,2.3066809864,-4.5726839886,8.4323068424,283
135285,212566,267471,2.3581266723,-4.3692940676,8.5136628108,284
135528,212661,267462,2.3425733254,-4.4913280202,8.4514494232,285
135789,212670,267502,2.1667008643,-4.3980079388,8.506484343,286
136038,212702,267476,2.416750826,-4.5535414078,8.551947972399999,287
136266,212711,267466,2.1607188078,-4.4757746733,8.4442709554,288
136522,212780,267575,2.3581266723,-4.4111684631,8.5136628108,289
136769,212768,267610,2.368894374,-4.5176490688,8.5818582549,290
136746,212807,267573,2.1906290903,-4.4602213264,8.5471623272,291
136219,212622,267489,2.1762721547,-4.5667019321,8.446663778,292
135400,212525,267411,2.2887348169,-4.5236311253,8.5806618436,293
134625,212406,267387,2.3258235672,-4.4685962055,8.458627890999999,294
133986,212379,267301,2.3222343333,-4.3896330597,8.542376681999999,295
133444,212294,267247,2.27318147,-4.4913280202,8.566304908,296
133033,212245,267184,2.3700907853,-4.5092741897,8.482556117,297
132832,212214,267211,2.2540388892,-4.4374895117,8.5471623272,298
132848,212153,267181,2.2923240508,-4.3752761241,8.5770726097,299
132966,212209,267219,2.2923240508,-4.4721854394000005,8.5340018029,300
133059,212210,267189,2.4634108667000003,-4.4793639072,8.5005022865,301
133148,212231,267167,2.3150558654999998,-4.3896330597,8.4909309961,302
133293,212271,267194,2.285145583,-4.4422751569,8.5722869645,303
133451,212274,267247,2.3066809864,-4.5080777784,8.5340018029,304
133685,212318,267297,2.3318056236999998,-4.5571306417,8.4083786164,305
133959,212349,267300,2.2013967919999997,-4.6002014485,8.5555372063,306
134232,212414,267309,2.2468604214,-4.3920258823,8.530412569000001,307
134494,212403,267346,2.3964118339,-4.4602213264,8.584251077500001,308
134750,212459,267397,2.2839491717,-4.382454591899999,8.5351982142,309
135056,212492,267391,2.2827527603999997,-4.582255279,8.574679787100001,310
135322,212533,267421,2.3533410271,-4.5176490688,8.4969130526,311
135583,212581,267477,2.2468604214,-4.378865358,8.5328053916,312
135855,212603,267473,2.2157537276,-4.4183469309,8.569894141899999,313
136099,212698,267459,2.2899312282,-4.4303110439,8.4490566006,314
136389,212691,267511,2.4382862294,-4.6492543118,8.6512501103,315
136636,212744,267510,2.3509482045,-4.3752761241,8.5028951091,316
136907,212773,267504,2.3665015514,-4.5834516903,8.5722869645,317
137101,212849,267541,2.2827527603999997,-4.4315074552,8.543573093300001,318
136947,212763,267501,2.2947168733999996,-4.4350966891,8.5770726097,319
136262,212583,267444,2.2983061073,-4.6468614892,8.459824302300001,320
135475,212507,267390,2.3114666316,-4.5320060043999995,8.5722869645,321
134757,212398,267336,2.2959132847,-4.450650036,8.5758761984,322
134150,212339,267255,2.3736800192,-4.4111684631,8.5998044244,323
133656,212269,267226,2.3461625592999997,-4.5140598349,8.5124663995,324
133317,212226,267159,2.3425733254,-4.4410787456,8.4478601893,325
133205,212228,267212,2.3330020350000003,-4.4841495524,8.5112699882,326
133333,212232,267178,2.2779671152,-4.498506487999999,8.626125473,327
133440,212199,267161,2.3485553819,-4.4853459636999995,8.4299140198,328
133546,212251,267209,2.2444675988,-4.609772738899999,8.5507515611,329
133667,212264,267250,2.3760728418,-4.5858445129,8.5471623272,330
133816,212279,267205,2.356930261,-4.6384866101,8.470592004,331
134040,212309,267277,2.2229321954,-4.5391844722,8.5579300289,332
134319,212309,267241,2.2193429615,-4.4889351976,8.6081793035,333
134572,212396,267312,2.2707886474,-4.4937208428,8.5208412786,334
134877,212402,267291,2.3018953412000003,-4.4769710846,8.6297147069,335
135163,212460,267368,2.4059831243,-4.5655055207999995,8.5926259566,336
135435,212499,267377,2.2899312282,-4.4315074552,8.5926259566,337
135718,212543,267405,2.2803599377999997,-4.5966122146,8.5459659159,338
136043,212587,267395,2.2624137683,-4.5619162869,8.6464644651,339
136279,212643,267431,2.3078773977,-4.4398823343,8.5112699882,340
136581,212680,267457,2.2779671152,-4.5678983434,8.596215190499999,341
136865,212697,267513,2.3976082452,-4.5655055207999995,8.4681991814,342
137132,212801,267490,2.2301106632,-4.3369909625,8.5507515611,343
137432,212825,267552,2.3330020350000003,-4.3800617693,8.5459659159,344
137676,212879,267594,2.3461625592999997,-4.4566320925,8.5986080131,345
137703,212806,267554,2.3497517932000003,-4.438685923,8.4490566006,346
137242,212709,267439,2.2959132847,-4.618147618,8.4873417622,347
136500,212601,267456,2.285145583,-4.5738803999,8.463413536200001,348
135851,212546,267378,2.285145583,-4.5595234643,8.4729848266,349
135340,212438,267366,2.3138594542,-4.4793639072,8.5196448673,350
134925,212390,267290,2.225325018,-4.5655055207999995,8.484948939599999,351
134614,212348,267317,2.3461625592999997,-4.4709890281,8.4538422458,352
134549,212388,267254,2.2827527603999997,-4.4961136654,8.556733617599999,353
134624,212406,267307,2.2265214293,-4.450650036,8.4993058752,354
134713,212435,267288,2.3258235672,-4.4937208428,8.4335032537,355
134763,212402,267265,2.3533410271,-4.570291166,8.5411802707,356
134832,212419,267286,2.2935204621,-4.5834516903,8.5375910368,357
134965,212416,267253,2.2432711875,-4.6157547954,8.5974116018,358
135145,212439,267259,2.1906290903,-4.4853459636999995,8.4921274074,359
135374,212457,267295,2.1882362677000002,-4.5128634236,8.5579300289,360
135611,212484,267300,2.3784656644,-4.4518464473,8.5914295453,361
135852,212539,267369,2.344966148,-4.5140598349,8.373682688699999,362
136124,212591,267375,2.2695922361,-4.534398827,8.695517328400001,363
136370,212615,267363,2.2707886474,-4.4530428586,8.5555372063,364
136578,212654,267420,2.237289131,-4.6480579005,8.5806618436,365
136814,212649,267436,2.2875384056,-4.3968115275,8.6201434165,366
137042,212731,267474,2.2660030021999997,-4.4303110439,8.516055633399999,367
137290,212729,267438,2.3736800192,-4.4183469309,8.4861453509,368
137503,212759,267466,2.3365912689,-4.5535414078,8.422735552,369
137730,212840,267527,2.213360905,-4.3130627365,8.484948939599999,370
137937,212827,267562,2.3916261887,-4.462614149,8.6165541826,371
137926,212854,267516,2.2875384056,-4.4303110439,8.475377649199999,372
137371,212669,267451,2.2755742926,-4.5188454800999995,8.427521197199999,373
136562,212572,267382,2.2468604214,-4.5690947547,8.4490566006,374
135849,212518,267314,2.2396819536,-4.3944187049,8.5411802707,375
135212,212481,267286,2.2002003807,-4.450650036,8.4023965599,376
134683,212331,267230,2.3641087288000002,-4.4733818507,8.4777704718,377
134279,212297,267196,2.3557338497,-4.4757746733,8.4933238187,378
134121,212266,267185,2.3114666316,-4.4829531411,8.4203427294,379
134122,212271,267175,2.3246271559,-4.54636294,8.4514494232,380
134177,212305,267213,2.3150558654999998,-4.4614177377,8.583054666199999,381
134218,212294,267149,2.3461625592999997,-4.6229332632,8.5220376899,382
134239,212302,267180,2.2863419943,-4.54636294,8.5088771656,383
134328,212290,267233,2.2157537276,-4.4446679795,8.4681991814,384
134458,212337,267250,2.3593230836,-4.54636294,8.5148592221,385
134694,212380,267260,2.2875384056,-4.462614149,8.463413536200001,386
134888,212362,267257,2.3545374384,-4.4315074552,8.641678819900001,387
135125,212465,267270,2.3030917525,-4.4889351976,8.636893174699999,388
135385,212473,267306,2.27318147,-4.4374895117,8.554340795,389
135619,212456,267331,2.3401805028,-4.5044885445,8.5208412786,390
135892,212567,267348,2.3042881638,-4.4949172541,8.5758761984,391
136122,212571,267395,2.3306092124,-4.4578285038,8.5220376899,392
136389,212660,267382,2.2660030021999997,-4.414757697,8.662017812,393
136599,212650,267417,2.3270199785,-4.4458643908,8.517252044700001,394
136878,212714,267420,2.3341984463,-4.4590249151000005,8.5088771656,395
137079,212706,267474,2.3078773977,-4.465006971599999,8.538787448099999,396
137368,212776,267509,2.3066809864,-4.4673997942,8.5579300289,397
137475,212799,267477,2.1379869930999997,-4.3489550755,8.6189470052,398
137149,212719,267447,2.3748764305,-4.6564327796,8.5340018029,399
136408,212554,267338,2.3246271559,-4.5906301581,8.427521197199999,400
135537,212463,267305,2.2444675988,-4.4398823343,8.6129649487,401
134855,212413,267242,2.2935204621,-4.4805603185,8.551947972399999,402
134207,212319,267184,2.3282163898,-4.6049870937,8.583054666199999,403
133727,212256,267184,2.2325034857999997,-4.382454591899999,8.4251283746,404
133383,212206,267148,2.3258235672,-4.6169512067000005,8.6165541826,405
133319,212161,267107,2.2923240508,-4.4721854394000005,8.663214223299999,406
133391,212228,267121,2.3102702203,-4.3764725354000005,8.4574314797,407
133489,212187,267111,2.368894374,-4.4004007614,8.5507515611,408
133544,212202,267123,2.3270199785,-4.465006971599999,8.5232341012,409
133638,212283,267135,2.2707886474,-4.5355952383,8.4538422458,410
133823,212253,267135,2.3653051401,-4.4530428586,8.5088771656,411
134010,212309,267160,2.3844477209,-4.5367916496,8.4693955927,412
134265,212328,267225,2.2791635265,-4.4219361648,8.605786480899999,413
134527,212279,267222,2.3653051401,-4.5080777784,8.6428752312,414
134833,212413,267201,2.416750826,-4.560719875599999,8.5005022865,415
135082,212457,267293,2.3222343333,-4.4494536247,8.4681991814,416
135365,212535,267324,2.1643080417,-4.3704904789,8.6081793035,417
135655,212546,267387,2.3401805028,-4.5367916496,8.5890367227,418
135941,212565,267344,2.2097716711,-4.4769710846,8.4993058752,419
136227,212632,267406,2.2456640101,-4.4817567298,8.4741812379,420
136492,212708,267419,2.2408783649,-4.4793639072,8.484948939599999,421
136765,212728,267429,2.3353948576,-4.4566320925,8.516055633399999,422
137078,212786,267427,2.1858434451,-4.498506487999999,8.4071822051,423
137393,212738,267477,2.3641087288000002,-4.5296131818,8.596215190499999,424
137609,212841,267439,2.2935204621,-4.4542392699,8.5615192628,425
137533,212790,267468,2.3222343333,-4.5044885445,8.5220376899,426
136959,212686,267406,2.2779671152,-4.5260239479,8.4550386571,427
136170,212560,267295,2.177468566,-4.4422751569,8.4957166413,428
135547,212526,267314,2.27318147,-4.5152562462,8.5447695046,429
134924,212441,267206,2.3234307446,-4.5535414078,8.5734833758,430
134521,212338,267210,2.1846470338,-4.474578262,8.4418781328,431
134235,212390,267167,2.4681965119,-4.5056849558,8.4993058752,432
134173,212347,267211,2.2205393728,-4.4051864066,8.5447695046,433
134274,212379,267164,2.3222343333,-4.450650036,8.556733617599999,434
134403,212361,267147,2.2755742926,-4.5427737061,8.4741812379,435
134471,212319,267188,2.3318056236999998,-4.5391844722,8.4861453509,436
134568,212378,267177,2.2444675988,-4.527220359199999,8.6093757148,437
134732,212363,267231,2.3401805028,-4.4733818507,8.574679787100001,438
134938,212441,267241,2.2444675988,-4.4566320925,8.4382888989,439
135141,212442,267240,2.2648065909,-4.522434714,8.4514494232,440
135398,212514,267277,2.3162522768000002,-4.4578285038,8.5375910368,441
135652,212516,267247,2.2600209457,-4.4063828179,8.5328053916,442
135930,212596,267289,2.2947168733999996,-4.5655055207999995,8.5794654323,443
136193,212578,267346,2.2540388892,-4.4721854394000005,8.6297147069,444
136474,212652,267372,2.4227328825,-4.4841495524,8.405985793800001,445
136721,212691,267369,2.285145583,-4.4542392699,8.596215190499999,446
136985,212669,267403,2.2169501389,-4.4063828179,8.484948939599999,447
137221,212764,267374,2.321037922,-4.534398827,8.6727855137,448
137482,212811,267403,2.2097716711,-4.3956151162,8.640482408599999,449
137742,212792,267531,2.3904297774,-4.5738803999,8.6105721261,450
137936,212821,267432,2.3617159062,-4.4279182213,8.6213398278,451
137804,212768,267444,2.2348963083999998,-4.414757697,8.5112699882,452
137157,212686,267345,2.3006989299,-4.5559342304,8.5208412786,453
136426,212556,267307,2.1834506225,-4.414757697,8.6177505939,454
135794,212444,267278,2.2695922361,-4.5774696338,8.5639120854,455
135298,212394,267186,2.15354034,-4.5200418914,8.596215190499999,456
134856,212352,267174,2.0566310246999997,-4.2963129783,8.5016986978,457
134586,212315,267147,2.5292134882000004,-4.5798624564,8.5208412786,458
134587,212288,267075,2.3198415107,-4.3381873738,8.4430745441,459
134657,212350,267203,2.2301106632,-4.4566320925,8.518448456,460
134736,212368,267126,2.3018953412000003,-4.5008993106,8.5399838594,461
134780,212312,267169,2.4227328825,-4.4195433422,8.5818582549,462
134862,212362,267148,2.4634108667000003,-4.450650036,8.5794654323,463
135007,212351,267129,2.2456640101,-4.4315074552,8.518448456,464
135196,212375,267140,2.344966148,-4.4733818507,8.5639120854,465
135394,212398,267169,2.2660030021999997,-4.4075792292,8.6045900696,466
135641,212475,267227,2.4610180441000002,-4.5631126982,8.405985793800001,467
135883,212482,267259,2.297109696,-4.465006971599999,8.6105721261,468
136148,212528,267296,2.2325034857999997,-4.5176490688,8.4801632944,469
136368,212579,267238,2.2504496553,-4.5032921331999995,8.5208412786,470
136606,212581,267340,2.3006989299,-4.4470608021,8.5495551498,471
136846,212654,267342,2.3641087288000002,-4.3513478981,8.3760755113,472
137089,212654,267333,2.3641087288000002,-4.4123648744,8.4981094639,473
137310,212742,267356,2.3653051401,-4.5128634236,8.482556117,474
137549,212758,267351,2.2348963083999998,-4.4709890281,8.506484343,475
137763,212797,267412,2.27318147,-4.4793639072,8.4921274074,476
138041,212856,267405,2.3676979627,-4.4255253987,8.6333039408,477
138076,212838,267448,2.3066809864,-4.4602213264,8.471788415299999,478
137635,212729,267348,2.2205393728,-4.4901316089,8.5459659159,479
136843,212595,267266,2.3916261887,-4.5631126982,8.5028951091,480
136020,212481,267194,2.3820548983,-4.4542392699,8.4490566006,481
135357,212382,267181,2.4191436486,-4.4350966891,8.5686977306,482
134763,212334,267107,2.2025932033,-4.4231325760999995,8.6512501103,483
134296,212282,267046,2.3952154226,-4.450650036,8.4394853102,484
133995,212231,267017,2.4358934068,-4.5906301581,8.5220376899,485
133951,212237,267063,2.4095723582,-4.4949172541,8.506484343,486
134000,212254,267054,2.3330020350000003,-4.4446679795,8.5112699882,487
134067,212277,267026,2.3557338497,-4.5056849558,8.5770726097,488
134093,212275,267056,2.3521446158,-4.4817567298,8.4155570842,489
134167,212249,267057,2.3593230836,-4.5284167705,8.4538422458,490
134340,212324,267106,2.2097716711,-4.534398827,8.556733617599999,491
134525,212322,267106,2.3018953412000003,-4.353740720699999,8.4658063588,492
134718,212393,267132,2.3018953412000003,-4.5655055207999995,8.5220376899,493
134983,212414,267120,2.309073809,-4.4853459636999995,8.49452023,494
135234,212455,267136,2.2301106632,-4.5128634236,8.3808611565,495
135488,212494,267169,2.3425733254,-4.414757697,8.5351982142,496
135719,212519,267215,2.3294128011,-4.4877387863000004,8.506484343,497
135999,212563,267270,2.321037922,-4.3752761241,8.4311104311,498
136259,212610,267251,2.2791635265,-4.4374895117,8.458627890999999,499
136503,212634,267219,2.3186450994000003,-4.4303110439,8.5280197464,500
136719,212665,267292,2.3712871966,-4.3968115275,8.5148592221,501
136968,212734,267331,2.404786713,-4.510470601,8.6440716425,502
137223,212738,267334,2.2779671152,-4.4901316089,8.417949906799999,503
137481,212820,267368,2.2624137683,-4.4362931003999995,8.5974116018,504
137658,212866,267389,2.2779671152,-4.4087756405,8.5926259566,505
137515,212797,267368,2.2791635265,-4.353740720699999,8.4658063588,506
136836,212646,267263,2.3102702203,-4.4518464473,8.4131642616,507
136044,212548,267260,2.3306092124,-4.4877387863000004,8.5399838594,508
135327,212432,267115,2.3760728418,-4.3345981399,8.5710905532,509
134701,212397,267137,2.309073809,-4.5439701174,8.4622171249,510
134216,212310,267042,2.3162522768000002,-4.4817567298,8.4921274074,511
133853,212285,266987,2.4131615921,-4.637290198800001,8.470592004,512
133711,212283,267084,2.2444675988,-4.4087756405,8.6225362391,513
133765,212272,267043,2.3629123174999997,-4.5619162869,8.6165541826,514
133867,212296,267056,2.428714939,-4.5535414078,8.525626923799999,515
133904,212299,267057,2.3856441322,-4.5774696338,8.4969130526,516
134026,212336,267025,2.3246271559,-4.5080777784,8.5005022865,517
134145,212281,267023,2.356930261,-4.382454591899999,8.4777704718,518
134314,212337,267052,2.1631116304,-4.4853459636999995,8.4729848266,519
134524,212379,267087,2.2289142519,-4.4063828179,8.6201434165,520
134779,212433,267120,2.2899312282,-4.5032921331999995,8.4777704718,521
135068,212441,267147,2.3246271559,-4.5511485852,8.446663778,522
135316,212494,267157,2.297109696,-4.5056849558,8.5758761984,523
135581,212536,267193,2.3700907853,-4.4554356812,8.596215190499999,524
135851,212546,267194,2.2875384056,-4.4183469309,8.5112699882,525
136124,212616,267243,2.2205393728,-4.6002014485,8.3964145034,526
136367,212655,267310,2.3030917525,-4.4446679795,8.5016986978,527
136632,212682,267280,2.27318147,-4.4793639072,8.5411802707,528
136891,212705,267308,2.3497517932000003,-4.4339002778,8.650053698999999,529
137136,212801,267369,2.1595223965,-4.4482572134,8.542376681999999,530
137441,212836,267396,2.3353948576,-4.4901316089,8.5447695046,531
137653,212845,267419,2.3377876802,-4.4697926167999995,8.6117685374,532
137506,212790,267326,2.2444675988,-4.5535414078,8.525626923799999,533
136881,212673,267257,2.2755742926,-4.6049870937,8.484948939599999,534
136163,212612,267206,2.1798613886,-4.3609191885,8.5005022865,535
135571,212525,267131,2.225325018,-4.4554356812,8.5639120854,536
135100,212329,267134,2.4155544147,-4.5427737061,8.538787448099999,537
134729,212407,267123,2.1355941704999997,-4.4219361648,8.484948939599999,538
134494,212249,267079,2.2743778813,-4.5930229807,8.4957166413,539
134527,212363,267047,2.344966148,-4.387240237099999,8.554340795,540
134626,212379,267046,2.3006989299,-4.4697926167999995,8.6201434165,541
134685,212369,267089,2.2636101795999997,-4.5643091095,8.4921274074,542
134704,212394,267094,2.4071795356,-4.414757697,8.4993058752,543
134796,212336,267105,2.3892333661,-4.5714875773,8.5603228515,544
134922,212403,267086,2.3533410271,-4.4015971727,8.484948939599999,545
135114,212454,267094,2.2109680824,-4.3896330597,8.61416136,546
135312,212472,267157,2.2229321954,-4.5008993106,8.5507515611,547
135522,212508,267150,2.2779671152,-4.4434715682,8.4897345848,548
135726,212531,267131,2.1834506225,-4.5248275366,8.5459659159,549
136013,212622,267207,2.1906290903,-4.4638105603,8.6081793035,550
136235,212610,267199,2.2564317118,-4.465006971599999,8.506484343,551
136456,212654,267231,2.3282163898,-4.3812581806,8.5399838594,552
136690,212694,267233,2.2899312282,-4.4362931003999995,8.5100735769,553
136921,212701,267308,2.3066809864,-4.474578262,8.4514494232,554
137134,212758,267315,2.4717857458,-4.5643091095,8.4430745441,555
137386,212785,267307,2.2085752598,-4.5248275366,8.475377649199999,556
137539,212812,267311,2.3892333661,-4.5810588676999995,8.566304908,557
137764,212778,267310,2.3748764305,-4.5619162869,8.506484343,558
137532,212760,267249,2.2277178406,-4.5391844722,8.5758761984,559
136840,212618,267233,2.3126630429,-4.414757697,8.5112699882,560
136034,212513,267138,2.3641087288000002,-4.4697926167999995,8.446663778,561
135349,212425,267089,2.2205393728,-4.4327038665,8.6153577713,562
134789,212328,267086,2.2145573163,-4.5798624564,8.5710905532,563
134314,212245,267002,2.1631116304,-4.4135612857,8.5076807543,564
133951,212284,266926,2.3605194949,-4.6217368519,8.4681991814,565
133880,212199,266972,2.237289131,-4.4638105603,8.5328053916,566
133936,212253,266974,2.2827527603999997,-4.4362931003999995,8.6129649487,567
134003,212241,266973,2.2827527603999997,-4.4458643908,8.4311104311,568
134042,212279,266985,2.2707886474,-4.4829531411,8.5914295453,569
134141,212260,267025,2.3796620756999998,-4.6121655615,8.4562350684,570
134260,212315,266983,2.3270199785,-4.387240237099999,8.5722869645,571
134434,212299,266984,2.3796620756999998,-4.4171505196,8.6249290617,572
134656,212347,267011,2.321037922,-4.5176490688,8.5591264402,573
134892,212380,267049,2.356930261,-4.3812581806,8.5028951091,574
135141,212437,267084,2.2313070745,-4.4913280202,8.5232341012,575
135395,212468,267066,2.2660030021999997,-4.3812581806,8.5375910368,576
135659,212502,267133,2.3736800192,-4.450650036,8.4610207136,577
135877,212545,267131,2.297109696,-4.5619162869,8.538787448099999,578
136167,212567,267165,2.2779671152,-4.414757697,8.6033936583,579
136414,212615,267166,2.3114666316,-4.4973100767,8.482556117,580
136642,212656,267233,2.2037896146,-4.527220359199999,8.3928252695,581
136882,212677,267243,2.2695922361,-4.4937208428,8.566304908,582
137118,212715,267307,2.3114666316,-4.5559342304,8.5040915204,583
137374,212772,267257,2.2695922361,-4.5667019321,8.450253011900001,584
137542,212818,267316,2.3772692530999997,-4.4279182213,8.574679787100001,585
137295,212752,267285,2.3330020350000003,-4.570291166,8.5196448673,586
136552,212566,267229,2.4299113503,-4.637290198800001,8.4155570842,587
135747,212483,267157,2.321037922,-4.6384866101,8.578269021,588
135054,212410,267122,2.2827527603999997,-4.4374895117,8.4801632944,589
134447,212291,266990,2.2779671152,-4.4123648744,8.5076807543,590
133932,212235,266996,2.2540388892,-4.3992043501,8.4681991814,591
133574,212179,266938,2.3365912689,-4.6037906824000006,8.4622171249,592
133488,212200,266964,2.213360905,-4.3704904789,8.6093757148,593
133562,212233,266974,2.2683958248,-4.4973100767,8.49452023,594
133653,212277,266921,2.2468604214,-4.4913280202,8.5148592221,595
133726,212225,266933,2.3784656644,-4.4303110439,8.583054666199999,596
133818,212266,266956,2.2540388892,-4.4841495524,8.5399838594,597
133997,212249,267020,2.2695922361,-4.4303110439,8.4358960763,598
134197,212218,267029,2.3330020350000003,-4.4877387863000004,8.4622171249,599
134407,212314,267043,2.3880369548,-4.4817567298,8.4801632944,600
134663,212356,267045,2.2504496553,-4.5308095931,8.6177505939,601
134933,212388,267063,2.3700907853,-4.4183469309,8.4969130526,602
135202,212436,267104,2.2827527603999997,-4.3896330597,8.4394853102,603
135445,212495,267118,2.2025932033,-4.4697926167999995,8.5950187792,604
135701,212467,267265,2.2265214293,-4.4937208428,8.5579300289,605
135976,212524,267184,2.2229321954,-4.5128634236,8.6069828922,606
136221,212585,267195,2.285145583,-4.387240237099999,8.5316089803,607
136473,212617,267198,2.2205393728,-4.5379880609,8.422735552,608
136698,212680,267260,2.4514467537,-4.5870409242,8.5950187792,609
136974,212731,267248,2.1320049366,-4.4721854394000005,8.5340018029,610
137235,212744,267327,2.2037896146,-4.4949172541,8.5280197464,611
137404,212776,267324,2.237289131,-4.4350966891,8.578269021,612
137135,212681,267255,2.297109696,-4.558327053,8.518448456,613
136412,212535,267169,2.2660030021999997,-4.558327053,8.5722869645,614
135629,212455,267126,2.2408783649,-4.5116670123,8.5483587385,615
135021,212376,267063,2.356930261,-4.5164526575,8.653642932899999,616
134545,212290,267089,2.3246271559,-4.465006971599999,8.4801632944,617
134083,212264,267011,2.2791635265,-4.4602213264,8.458627890999999,618
133845,212139,266945,2.2588245344,-4.6313081423,8.6069828922,619
133863,212217,266962,2.225325018,-4.4446679795,8.5316089803,620
133923,212310,266983,2.2396819536,-4.486542375,8.4430745441,621
133963,212237,267002,2.1714865095,-4.4721854394000005,8.3940216808,622
133974,212282,266962,2.3006989299,-4.4662033829,8.5136628108,623
134042,212227,266982,2.2911276395,-4.465006971599999,8.4562350684,624
134169,212272,266998,2.2396819536,-4.5355952383,8.566304908,625
134338,212302,267023,2.4119651808,-4.4458643908,8.5316089803,626
134540,212308,266998,2.2719850587,-4.5990050372,8.4083786164,627
134766,212360,267079,2.1475582835,-4.5320060043999995,8.5507515611,628
135014,212375,267079,2.3377876802,-4.5044885445,8.542376681999999,629
135231,212400,267106,2.2923240508,-4.4171505196,8.525626923799999,630
135441,212429,267125,2.4382862294,-4.510470601,8.5040915204,631
135649,212465,267121,2.344966148,-4.5439701174,8.5208412786,632
135887,212507,267190,2.1798613886,-4.5355952383,8.5052879317,633
136105,212575,267238,2.4071795356,-4.4458643908,8.5244305125,634
136330,212573,267207,2.2719850587,-4.4422751569,8.475377649199999,635
136569,212629,267257,2.2875384056,-4.4841495524,8.6010008357,636
136813,212692,267278,2.2097716711,-4.414757697,8.556733617599999,637
136838,212618,267237,2.3964118339,-4.4841495524,8.506484343,638
136336,212546,267208,2.3772692530999997,-4.5044885445,8.484948939599999,639
135455,212436,267096,2.2923240508,-4.5200418914,8.596215190499999,640
134670,212323,267028,2.309073809,-4.3956151162,8.5232341012,641
133966,212254,266962,2.3545374384,-4.4171505196,8.5531443837,642
133398,212100,266958,2.4777678023000003,-4.4673997942,8.518448456,643
132962,212088,266922,2.2576281231,-4.3513478981,8.3234334141,644
132707,212039,266858,2.2480568327,-4.5954158033,8.4777704718,645
132711,212100,266914,2.2540388892,-4.4697926167999995,8.463413536200001,646
132801,212104,266893,2.2923240508,-4.4315074552,8.4287176085,647
132880,212065,266884,2.3497517932000003,-4.5080777784,8.3976109147,648
132942,212076,266934,2.3258235672,-4.5930229807,8.6177505939,649
133073,212091,266929,2.3018953412000003,-4.654039957,8.4610207136,650
133238,212101,266933,2.3258235672,-4.5439701174,8.5268233351,651
133442,212138,266987,2.3066809864,-4.5200418914,8.6153577713,652
133657,212140,266993,2.2588245344,-4.4446679795,8.554340795,653
133921,212225,267039,2.2492532439999997,-4.474578262,8.583054666199999,654
134206,212257,267017,2.1990039694,-4.4374895117,8.4969130526,655
134477,212300,267068,2.2492532439999997,-4.4255253987,8.5016986978,656
134721,212357,267115,2.356930261,-4.5008993106,8.4681991814,657
135019,212394,267153,2.2875384056,-4.4721854394000005,8.471788415299999,658
135259,212436,267184,2.1918255016,-4.4434715682,8.5375910368,659
135496,212457,267143,2.3676979627,-4.5595234643,8.4813597057,660
135766,212494,267253,2.3353948576,-4.582255279,8.4873417622,661
136022,212550,267195,2.2995025186,-4.594219392,8.4993058752,662
136264,212578,267263,2.2803599377999997,-4.4327038665,8.5627156741,663
136516,212598,267280,2.3641087288000002,-4.4374895117,8.6237326504,664
136611,212610,267251,2.3258235672,-4.3680976563,8.5112699882,665
136168,212518,267222,2.3114666316,-4.5176490688,8.4969130526,666
135346,212400,267115,2.4023938904,-4.4638105603,8.5196448673,667
134526,212262,267081,2.2947168733999996,-4.4997028993,8.5208412786,668
133857,212206,266973,2.3700907853,-4.5403808835,8.6105721261,669
133270,212076,266962,2.3413769141,-4.582255279,8.6751783363,670
132824,212104,266886,2.105683888,-4.510470601,8.6656070459,671
132573,212008,266899,2.344966148,-4.5619162869,8.4921274074,672
132592,212012,266889,2.2528424779,-4.4721854394000005,8.4969130526,673
132746,212079,266919,2.1523439287,-4.4434715682,8.569894141899999,674
132878,212040,266947,2.285145583,-4.5882373355,8.5136628108,675
132975,212112,266911,2.3186450994000003,-4.5415772948,8.458627890999999,676
133117,212038,266965,2.3461625592999997,-4.4434715682,8.5471623272,677
133304,212103,266934,2.2755742926,-4.4614177377,8.5280197464,678
133551,212118,267028,2.3700907853,-4.5092741897,8.530412569000001,679
133805,212211,267026,2.3006989299,-4.618147618,8.5328053916,680
134087,212177,267028,2.3485553819,-4.4805603185,8.5028951091,681
134368,212265,267068,2.3318056236999998,-4.4279182213,8.3449688175,682
134696,212281,267050,2.3114666316,-4.3692940676,8.4658063588,683
134969,212293,267130,2.3389840915,-4.5846481016,8.556733617599999,684
135280,212383,267172,2.3389840915,-4.5140598349,8.525626923799999,685
135549,212385,267213,2.237289131,-4.4961136654,8.5639120854,686
135853,212449,267182,2.2073788485,-4.5176490688,8.516055633399999,687
136082,212498,267242,2.3042881638,-4.5332024157,8.5986080131,688
136330,212517,267289,2.2325034857999997,-4.4004007614,8.5316089803,689
136636,212565,267338,2.3593230836,-4.5164526575,8.5375910368,690
136950,212655,267314,2.4323041729,-4.5954158033,8.5280197464,691
137217,212645,267305,2.2468604214,-4.4638105603,8.459824302300001,692
137315,212596,267392,2.2695922361,-4.3992043501,8.459824302300001,693
136957,212554,267300,2.2396819536,-4.450650036,8.4478601893,694
136180,212444,267190,2.2396819536,-4.450650036,8.4478601893,695
135488,212398,267176,2.2396819536,-4.450650036,8.4478601893,696
134870,212266,267082,2.2396819536,-4.450650036,8.4478601893,697
134376,212200,267034,2.2396819536,-4.450650036,8.4478601893,698
133948,212142,267003,2.3904297774,-4.4901316089,8.4514494232,699
133806,212110,266995,2.2947168733999996,-4.4889351976,8.5124663995,700
133926,212134,267068,2.3222343333,-4.4422751569,8.5100735769,701
134021,212191,267018,2.3581266723,-4.4422751569,8.4873417622,702
134142,212184,267007,2.237289131,-4.534398827,8.5040915204,703
134272,212168,267067,2.2803599377999997,-4.5451665287,8.5447695046,704
134437,212197,267095,2.3030917525,-4.5487557626,8.5208412786,705
134676,212241,267088,2.189432679,-4.4817567298,8.626125473,706
134940,212268,267105,2.3808584870000002,-4.4315074552,8.458627890999999,707
135210,212317,267146,2.4418754632999997,-4.5714875773,8.4873417622,708
135501,212346,267188,2.2636101795999997,-4.558327053,8.4801632944,709
135760,212383,267199,2.2779671152,-4.4949172541,8.538787448099999,710
136040,212425,267224,2.3234307446,-4.5451665287,8.5734833758,711
136325,212494,267252,2.297109696,-4.5511485852,8.4969130526,712
136606,212487,267284,2.2241286067,-4.5248275366,8.446663778,713
136857,212562,267275,2.2145573163,-4.5595234643,8.5328053916,714
137131,212597,267342,2.2516460665999998,-4.4422751569,8.4012001486,715
137394,212674,267371,2.3377876802,-4.4901316089,8.5591264402,716
137680,212692,267430,2.1116659445,-4.4482572134,8.4430745441,717
137926,212749,267449,2.285145583,-4.4135612857,8.605786480899999,718
138212,212775,267406,2.3114666316,-4.5810588676999995,8.5998044244,719
138216,212735,267428,2.2875384056,-4.6085763276,8.417949906799999,720
137744,212616,267338,2.2384855423,-4.4829531411,8.4777704718,721
137055,212525,267320,2.3078773977,-4.4350966891,8.4993058752,722
136482,212436,267265,2.2025932033,-4.4339002778,8.470592004,723
136020,212367,267183,2.3820548983,-4.5296131818,8.5399838594,724
135620,212329,267150,2.2193429615,-4.4039899953,8.554340795,725
135376,212281,267120,2.3341984463,-4.4004007614,8.4921274074,726
135327,212325,267182,2.3940190112999997,-4.3920258823,8.463413536200001,727
135391,212321,267155,2.3940190112999997,-4.3920258823,8.463413536200001,728
135456,212318,267187,2.3940190112999997,-4.3920258823,8.463413536200001,729
135466,212307,267161,2.3940190112999997,-4.3920258823,8.463413536200001,730
135531,212327,267192,2.3940190112999997,-4.3920258823,8.463413536200001,731
135641,212361,267131,2.3940190112999997,-4.3920258823,8.463413536200001,732
135774,212403,267178,2.3940190112999997,-4.3920258823,8.463413536200001,733
135970,212386,267222,2.3940190112999997,-4.3920258823,8.463413536200001,734
136178,212460,267238,2.3940190112999997,-4.3920258823,8.463413536200001,735
136405,212497,267185,2.3940190112999997,-4.3920258823,8.463413536200001,736
136607,212498,267310,2.3066809864,-4.5080777784,8.525626923799999,737
136848,212561,267312,2.3066809864,-4.5080777784,8.525626923799999,738
137074,212526,267359,2.2277178406,-4.4602213264,8.6081793035,739
137339,212648,267322,2.2277178406,-4.4602213264,8.6081793035,740
137546,212656,267337,2.2277178406,-4.4602213264,8.6081793035,741
137761,212716,267422,2.2277178406,-4.4602213264,8.6081793035,742
138002,212718,267443,2.2277178406,-4.4602213264,8.6081793035,743
138208,212799,267387,2.2277178406,-4.4602213264,8.6081793035,744
138440,212826,267424,2.2277178406,-4.4602213264,8.6081793035,745
138653,212820,267485,2.2277178406,-4.4602213264,8.6081793035,746
138661,212846,267463,2.2277178406,-4.4602213264,8.6081793035,747
138149,212738,267337,2.2277178406,-4.4602213264,8.6081793035,748
137386,212587,267341,2.2277178406,-4.4602213264,8.6081793035,749
136668,212525,267300,2.2277178406,-4.4602213264,8.6081793035,750
136038,212448,267205,2.2277178406,-4.4602213264,8.6081793035,751
135480,212388,267159,2.2277178406,-4.4602213264,8.6081793035,752
135026,212320,267153,2.2277178406,-4.4602213264,8.6081793035,753
134766,212310,267141,2.2277178406,-4.4602213264,8.6081793035,754
134707,212342,267166,2.2277178406,-4.4602213264,8.6081793035,755
134749,212302,267150,2.2277178406,-4.4602213264,8.6081793035,756
134751,212272,267113,2.2277178406,-4.4602213264,8.6081793035,757
134773,212310,267180,2.2277178406,-4.4602213264,8.6081793035,758
134855,212319,267153,2.2277178406,-4.4602213264,8.6081793035,759
134957,212350,267175,2.2277178406,-4.4602213264,8.6081793035,760
135150,212364,267226,2.2277178406,-4.4602213264,8.6081793035,761
135336,212417,267208,2.2277178406,-4.4602213264,8.6081793035,762
135542,212471,267236,2.2277178406,-4.4602213264,8.6081793035,763
135782,212503,267232,2.2277178406,-4.4602213264,8.6081793035,764
136026,212514,267242,2.2277178406,-4.4602213264,8.6081793035,765
136270,212555,267281,2.2277178406,-4.4602213264,8.6081793035,766
136491,212622,267306,2.2277178406,-4.4602213264,8.6081793035,767
136745,212648,267371,2.2277178406,-4.4602213264,8.6081793035,768
136994,212704,267414,2.2277178406,-4.4602213264,8.6081793035,769
137215,212730,267408,2.2277178406,-4.4602213264,8.6081793035,770
137476,212798,267376,2.2277178406,-4.4602213264,8.6081793035,771
137713,212782,267387,2.2277178406,-4.4602213264,8.6081793035,772
137933,212830,267485,2.2277178406,-4.4602213264,8.6081793035,773
138168,212906,267431,2.2277178406,-4.4602213264,8.6081793035,774
138353,212905,267530,2.2277178406,-4.4602213264,8.6081793035,775
138181,212865,267462,2.2277178406,-4.4602213264,8.6081793035,776
137512,212711,267334,2.2277178406,-4.4602213264,8.6081793035,777
136674,212608,267357,2.2277178406,-4.4602213264,8.6081793035,778
135955,212569,267308,2.2277178406,-4.4602213264,8.6081793035,779
135354,212452,267268,2.2277178406,-4.4602213264,8.6081793035,780
135768,212613,267296,2.213360905,-4.3704904789,8.5375910368,781
135997,212605,267316,2.213360905,-4.3704904789,8.5375910368,782
136235,212665,267322,2.213360905,-4.3704904789,8.5375910368,783
136494,212700,267333,2.213360905,-4.3704904789,8.5375910368,784
136749,212743,267378,2.213360905,-4.3704904789,8.5375910368,785
136970,212732,267384,2.213360905,-4.3704904789,8.5375910368,786
137191,212807,267414,2.213360905,-4.3704904789,8.5375910368,787
137488,212816,267448,2.213360905,-4.3704904789,8.5375910368,788
137712,212916,267482,2.213360905,-4.3704904789,8.5375910368,789
137955,212964,267503,2.213360905,-4.3704904789,8.5375910368,790
138042,212906,267501,2.213360905,-4.3704904789,8.5375910368,791
137647,212838,267472,2.213360905,-4.3704904789,8.5375910368,792
136915,212704,267394,2.213360905,-4.3704904789,8.5375910368,793
136175,212585,267368,2.213360905,-4.3704904789,8.5375910368,794
135578,212574,267279,2.213360905,-4.3704904789,8.5375910368,795
135064,212474,267238,2.213360905,-4.3704904789,8.5375910368,796
134700,212431,267191,2.213360905,-4.3704904789,8.5375910368,797
134454,212392,267209,2.213360905,-4.3704904789,8.5375910368,798
134478,212424,267181,2.213360905,-4.3704904789,8.5375910368,799
134541,212426,267210,2.213360905,-4.3704904789,8.5375910368,800
134581,212435,267203,2.213360905,-4.3704904789,8.5375910368,801
134610,212444,267209,2.213360905,-4.3704904789,8.5375910368,802
134724,212474,267202,2.213360905,-4.3704904789,8.5375910368,803
134822,212507,267216,2.213360905,-4.3704904789,8.5375910368,804
135001,212523,267304,2.213360905,-4.3704904789,8.5375910368,805
135217,212531,267255,2.213360905,-4.3704904789,8.5375910368,806
135422,212569,267294,2.213360905,-4.3704904789,8.5375910368,807
135693,212612,267314,2.213360905,-4.3704904789,8.5375910368,808
135893,212618,267323,2.213360905,-4.3704904789,8.5375910368,809
136165,212658,267382,2.213360905,-4.3704904789,8.5375910368,810
136400,212726,267358,2.213360905,-4.3704904789,8.5375910368,811
136637,212764,267384,2.213360905,-4.3704904789,8.5375910368,812
136867,212775,267413,2.213360905,-4.3704904789,8.5375910368,813
137136,212829,267465,2.213360905,-4.3704904789,8.5375910368,814
137353,212855,267452,2.213360905,-4.3704904789,8.5375910368,815
137618,212893,267498,2.213360905,-4.3704904789,8.5375910368,816
137841,212947,267545,2.213360905,-4.3704904789,8.5375910368,817
137820,212912,267497,2.213360905,-4.3704904789,8.5375910368,818
137307,212754,267395,2.213360905,-4.3704904789,8.5375910368,819
136610,212714,267381,2.213360905,-4.3704904789,8.5375910368,820
135977,212607,267323,2.213360905,-4.3704904789,8.5375910368,821
135517,212578,267297,2.213360905,-4.3704904789,8.5375910368,822
133841,212310,267151,2.2683958248,-4.3728833015,8.530412569000001,823
133881,212329,267131,2.2683958248,-4.3728833015,8.530412569000001,824
133933,212344,267135,2.2683958248,-4.3728833015,8.530412569000001,825
133995,212361,267167,2.2683958248,-4.3728833015,8.530412569000001,826
134098,212340,267205,2.2683958248,-4.3728833015,8.530412569000001,827
134251,212370,267139,2.2683958248,-4.3728833015,8.530412569000001,828
134443,212375,267190,2.2683958248,-4.3728833015,8.530412569000001,829
134690,212455,267248,2.2683958248,-4.3728833015,8.530412569000001,830
134905,212442,267236,2.2683958248,-4.3728833015,8.530412569000001,831
135195,212481,267294,2.2683958248,-4.3728833015,8.530412569000001,832
135449,212516,267286,2.2683958248,-4.3728833015,8.530412569000001,833
135654,212537,267291,2.2683958248,-4.3728833015,8.530412569000001,834
135901,212607,267321,2.2683958248,-4.3728833015,8.530412569000001,835
136118,212649,267335,2.2683958248,-4.3728833015,8.530412569000001,836
136352,212684,267395,2.2683958248,-4.3728833015,8.530412569000001,837
136603,212694,267394,2.2683958248,-4.3728833015,8.530412569000001,838
136859,212755,267459,2.2683958248,-4.3728833015,8.530412569000001,839
136933,212751,267409,2.2683958248,-4.3728833015,8.530412569000001,840
136502,212670,267349,2.2683958248,-4.3728833015,8.530412569000001,841
135695,212532,267277,2.2683958248,-4.3728833015,8.530412569000001,842
134879,212440,267244,2.2683958248,-4.3728833015,8.530412569000001,843
134216,212349,267235,2.2683958248,-4.3728833015,8.530412569000001,844
133652,212269,267165,2.2683958248,-4.3728833015,8.530412569000001,845
133178,212198,267070,2.2683958248,-4.3728833015,8.530412569000001,846
132914,212187,267072,2.2683958248,-4.3728833015,8.530412569000001,847
132891,212170,267047,2.2683958248,-4.3728833015,8.530412569000001,848
133001,212248,267087,2.2683958248,-4.3728833015,8.530412569000001,849
133046,212205,267096,2.2683958248,-4.3728833015,8.530412569000001,850
133122,212227,267059,2.2683958248,-4.3728833015,8.530412569000001,851
133234,212208,267137,2.2683958248,-4.3728833015,8.530412569000001,852
133382,212261,267121,2.2683958248,-4.3728833015,8.530412569000001,853
133568,212284,267061,2.2683958248,-4.3728833015,8.530412569000001,854
133809,212264,267143,2.2683958248,-4.3728833015,8.530412569000001,855
134029,212320,267170,2.2683958248,-4.3728833015,8.530412569000001,856
134300,212357,267181,2.2683958248,-4.3728833015,8.530412569000001,857
134550,212414,267227,2.2683958248,-4.3728833015,8.530412569000001,858
134814,212437,267228,2.2683958248,-4.3728833015,8.530412569000001,859
135056,212472,267282,2.2683958248,-4.3728833015,8.530412569000001,860
135311,212492,267229,2.2683958248,-4.3728833015,8.530412569000001,861
135555,212547,267344,2.2683958248,-4.3728833015,8.530412569000001,862
135843,212628,267341,2.2683958248,-4.3728833015,8.530412569000001,863
136073,212660,267380,2.2683958248,-4.3728833015,8.530412569000001,864
133533,212461,267343,2.2444675988,-4.4793639072,8.3844503904,865
133804,212467,267404,2.2444675988,-4.4793639072,8.3844503904,866
134152,212532,267393,2.2444675988,-4.4793639072,8.3844503904,867
134517,212601,267451,2.2444675988,-4.4793639072,8.3844503904,868
134877,212629,267446,2.2444675988,-4.4793639072,8.3844503904,869
135222,212703,267493,2.2444675988,-4.4793639072,8.3844503904,870
135578,212756,267549,2.2444675988,-4.4793639072,8.3844503904,871
135921,212813,267574,2.2444675988,-4.4793639072,8.3844503904,872
136285,212866,267626,2.2444675988,-4.4793639072,8.3844503904,873
136614,212908,267645,2.2444675988,-4.4793639072,8.3844503904,874
136972,212922,267669,2.2444675988,-4.4793639072,8.3844503904,875
137323,213025,267705,2.2444675988,-4.4793639072,8.3844503904,876
137579,213036,267676,2.2444675988,-4.4793639072,8.3844503904,877
137368,212928,267700,2.2444675988,-4.4793639072,8.3844503904,878
136717,212861,267581,2.2444675988,-4.4793639072,8.3844503904,879
136080,212760,267519,2.2444675988,-4.4793639072,8.3844503904,880
135596,212692,267527,2.2444675988,-4.4793639072,8.3844503904,881
135232,212716,267494,2.2444675988,-4.4793639072,8.3844503904,882
134945,212674,267515,2.2444675988,-4.4793639072,8.3844503904,883
134852,212707,267500,2.2444675988,-4.4793639072,8.3844503904,884
135032,212747,267514,2.2444675988,-4.4793639072,8.3844503904,885
135273,212777,267485,2.2444675988,-4.4793639072,8.3844503904,886
135456,212788,267534,2.2444675988,-4.4793639072,8.3844503904,887
135639,212858,267534,2.2444675988,-4.4793639072,8.3844503904,888
135871,212871,267580,2.2444675988,-4.4793639072,8.3844503904,889
136129,212895,267613,2.2444675988,-4.4793639072,8.3844503904,890
136456,212926,267630,2.2444675988,-4.4793639072,8.3844503904,891
136788,213029,267663,2.2444675988,-4.4793639072,8.3844503904,892
137133,213069,267705,2.2444675988,-4.4793639072,8.3844503904,893
137503,213115,267718,2.2444675988,-4.4793639072,8.3844503904,894
137846,213158,267744,2.2444675988,-4.4793639072,8.3844503904,895
138163,213201,267758,2.2444675988,-4.4793639072,8.3844503904,896
138525,213249,267798,2.3868405435,-4.570291166,8.434699665,897
138833,213294,267869,2.3868405435,-4.570291166,8.434699665,898
139146,213323,267888,2.3868405435,-4.570291166,8.434699665,899
139422,213344,267887,2.3868405435,-4.570291166,8.434699665,900
139678,213427,267955,2.3868405435,-4.570291166,8.434699665,901
139682,213405,267878,2.3868405435,-4.570291166,8.434699665,902
139237,213305,267806,2.3868405435,-4.570291166,8.434699665,903
138608,213189,267758,2.3868405435,-4.570291166,8.434699665,904
138110,213185,267748,2.3868405435,-4.570291166,8.434699665,905
137684,213159,267684,2.3868405435,-4.570291166,8.434699665,906
137360,213093,267674,2.3868405435,-4.570291166,8.434699665,907
137133,213109,267708,2.3868405435,-4.570291166,8.434699665,908
137158,213127,267703,2.3868405435,-4.570291166,8.434699665,909
137320,213210,267731,2.3868405435,-4.570291166,8.434699665,910
137507,213164,267750,2.3868405435,-4.570291166,8.434699665,911
137601,213237,267771,2.3868405435,-4.570291166,8.434699665,912
137772,213292,267783,2.3868405435,-4.570291166,8.434699665,913
137967,213306,267815,2.3868405435,-4.570291166,8.434699665,914
138218,213365,267847,2.3868405435,-4.570291166,8.434699665,915
138477,213406,267854,2.3868405435,-4.570291166,8.434699665,916
138792,213468,267847,2.3868405435,-4.570291166,8.434699665,917
139082,213513,267904,2.3868405435,-4.570291166,8.434699665,918
139387,213527,267879,2.3868405435,-4.570291166,8.434699665,919
139695,213596,267911,2.3868405435,-4.570291166,8.434699665,920
139960,213651,267977,2.3868405435,-4.570291166,8.434699665,921
140252,213653,267991,2.3868405435,-4.570291166,8.434699665,922
140536,213710,268027,2.3868405435,-4.570291166,8.434699665,923
140815,213743,268039,2.3868405435,-4.570291166,8.434699665,924
141104,213816,268045,2.3868405435,-4.570291166,8.434699665,925
141247,213805,268059,2.3868405435,-4.570291166,8.434699665,926
140973,213748,267989,2.3868405435,-4.570291166,8.434699665,927
140365,213610,267881,2.3868405435,-4.570291166,8.434699665,928
139694,213567,267896,2.3868405435,-4.570291166,8.434699665,929
139173,213518,267832,2.3868405435,-4.570291166,8.434699665,930
138727,213456,267809,2.3868405435,-4.570291166,8.434699665,931
138373,213479,267821,2.3868405435,-4.570291166,8.434699665,932
138139,213496,267810,2.3868405435,-4.570291166,8.434699665,933
138153,213496,267792,2.3868405435,-4.570291166,8.434699665,934
138244,213540,267879,2.3868405435,-4.570291166,8.434699665,935
138327,213575,267908,2.3868405435,-4.570291166,8.434699665,936
138398,213584,267843,2.3868405435,-4.570291166,8.434699665,937
138515,213623,267889,2.3868405435,-4.570291166,8.434699665,938
139376,213783,267982,2.2301106632,-4.4374895117,8.530412569000001,939
139630,213811,267955,2.2301106632,-4.4374895117,8.530412569000001,940
139896,213847,267990,2.2301106632,-4.4374895117,8.530412569000001,941
140138,213870,268014,2.2301106632,-4.4374895117,8.530412569000001,942
140387,213927,268036,2.2301106632,-4.4374895117,8.530412569000001,943
140668,213966,268037,2.2301106632,-4.4374895117,8.530412569000001,944
140889,214015,268073,2.2301106632,-4.4374895117,8.530412569000001,945
141169,214062,268104,2.2301106632,-4.4374895117,8.530412569000001,946
141422,214078,268157,2.2301106632,-4.4374895117,8.530412569000001,947
141677,214151,268176,2.2301106632,-4.4374895117,8.530412569000001,948
141886,214137,268152,2.2301106632,-4.4374895117,8.530412569000001,949
141743,214113,268118,2.2301106632,-4.4374895117,8.530412569000001,950
141160,213978,268073,2.2301106632,-4.4374895117,8.530412569000001,951
140458,213900,267998,2.2301106632,-4.4374895117,8.530412569000001,952
139858,213868,268000,2.2301106632,-4.4374895117,8.530412569000001,953
139331,213829,267957,2.2301106632,-4.4374895117,8.530412569000001,954
138828,213818,267934,2.2301106632,-4.4374895117,8.530412569000001,955
138488,213804,267934,2.2301106632,-4.4374895117,8.530412569000001,956
138351,213815,267886,2.2301106632,-4.4374895117,8.530412569000001,957
138389,213886,267925,2.2301106632,-4.4374895117,8.530412569000001,958
138381,213844,267911,2.2301106632,-4.4374895117,8.530412569000001,959
138398,213879,267904,2.2301106632,-4.4374895117,8.530412569000001,960
138403,213859,267930,2.2301106632,-4.4374895117,8.530412569000001,961
138506,213913,267945,2.2301106632,-4.4374895117,8.530412569000001,962
138620,213946,267910,2.2301106632,-4.4374895117,8.530412569000001,963
138818,213967,267955,2.2301106632,-4.4374895117,8.530412569000001,964
139009,213977,267988,2.2480568327,-4.4470608021,8.4143606729,965
139234,214085,267955,2.2480568327,-4.4470608021,8.4143606729,966
139436,214078,268005,2.2480568327,-4.4470608021,8.4143606729,967
139654,214129,267983,2.2480568327,-4.4470608021,8.4143606729,968
139880,214186,268072,2.2480568327,-4.4470608021,8.4143606729,969
140094,214184,268097,2.2480568327,-4.4470608021,8.4143606729,970
140298,214218,268053,2.2480568327,-4.4470608021,8.4143606729,971
140544,214245,268066,2.2480568327,-4.4470608021,8.4143606729,972
140765,214260,268113,2.2480568327,-4.4470608021,8.4143606729,973
141022,214289,268115,2.2480568327,-4.4470608021,8.4143606729,974
141235,214319,268148,2.2480568327,-4.4470608021,8.4143606729,975
141217,214335,268104,2.2480568327,-4.4470608021,8.4143606729,976
140780,214231,268074,2.2480568327,-4.4470608021,8.4143606729,977
140030,214168,267998,2.2480568327,-4.4470608021,8.4143606729,978
139419,214080,267942,2.2480568327,-4.4470608021,8.4143606729,979
138888,214054,267929,2.2480568327,-4.4470608021,8.4143606729,980
138411,214028,267889,2.2480568327,-4.4470608021,8.4143606729,981
138087,213983,267885,2.2480568327,-4.4470608021,8.4143606729,982
137906,214041,267880,2.2480568327,-4.4470608021,8.4143606729,983
137908,214054,267873,2.2480568327,-4.4470608021,8.4143606729,984
137878,214090,267900,2.2480568327,-4.4470608021,8.4143606729,985
137857,214067,267927,2.2480568327,-4.4470608021,8.4143606729,986
137827,214071,267862,2.2480568327,-4.4470608021,8.4143606729,987
137912,214114,267862,2.2480568327,-4.4470608021,8.4143606729,988
138002,214126,267936,2.2480568327,-4.4470608021,8.4143606729,989
138157,214135,267932,2.2480568327,-4.4470608021,8.4143606729,990
138296,214161,267920,2.2480568327,-4.4470608021,8.4143606729,991
138497,214223,267925,2.2480568327,-4.4470608021,8.4143606729,992
138692,214190,267955,2.2480568327,-4.4470608021,8.4143606729,993
138902,214265,267942,2.2480568327,-4.4470608021,8.4143606729,994
139078,214251,267981,2.2480568327,-4.4470608021,8.4143606729,995
139291,214300,268021,2.2480568327,-4.4470608021,8.4143606729,996
139464,214341,268028,2.3318056236999998,-4.4243289874,8.5208412786,997
139682,214348,267985,2.3318056236999998,-4.4243289874,8.5208412786,998
139905,214407,268051,2.3318056236999998,-4.4243289874,8.5208412786,999
140109,214380,268010,2.3318056236999998,-4.4243289874,8.5208412786,1000
140227,214428,268055,2.3318056236999998,-4.4243289874,8.5208412786,1001
139937,214358,267958,2.3318056236999998,-4.4243289874,8.5208412786,1002
139252,214209,267901,2.3318056236999998,-4.4243289874,8.5208412786,1003
138498,214164,267897,2.3318056236999998,-4.4243289874,8.5208412786,1004
137857,214098,267827,2.3318056236999998,-4.4243289874,8.5208412786,1005
137310,214066,267784,2.3318056236999998,-4.4243289874,8.5208412786,1006
136814,214012,267759,2.3318056236999998,-4.4243289874,8.5208412786,1007
136476,213994,267707,2.3318056236999998,-4.4243289874,8.5208412786,1008
136341,214009,267749,2.3318056236999998,-4.4243289874,8.5208412786,1009
136318,214053,267754,2.3318056236999998,-4.4243289874,8.5208412786,1010
136335,214049,267696,2.3318056236999998,-4.4243289874,8.5208412786,1011
136305,214015,267696,2.3318056236999998,-4.4243289874,8.5208412786,1012
136343,214018,267747,2.3318056236999998,-4.4243289874,8.5208412786,1013
136415,214080,267730,2.3318056236999998,-4.4243289874,8.5208412786,1014
136561,214027,267735,2.3318056236999998,-4.4243289874,8.5208412786,1015
136723,214112,267769,2.3318056236999998,-4.4243289874,8.5208412786,1016
136909,214094,267769,2.3318056236999998,-4.4243289874,8.5208412786,1017
137118,214174,267804,2.3318056236999998,-4.4243289874,8.5208412786,1018
137334,214190,267877,2.3318056236999998,-4.4243289874,8.5208412786,1019
137549,214215,267883,2.3318056236999998,-4.4243289874,8.5208412786,1020
137762,214248,267872,2.3318056236999998,-4.4243289874,8.5208412786,1021
137993,214245,267907,2.3318056236999998,-4.4243289874,8.5208412786,1022
138213,214279,267924,2.3318056236999998,-4.4243289874,8.5208412786,1023
138438,214305,267921,2.3318056236999998,-4.4243289874,8.5208412786,1024
138664,214329,267894,2.3318056236999998,-4.4243289874,8.5208412786,1025
138903,214395,267899,2.3318056236999998,-4.4243289874,8.5208412786,1026
139150,214378,267938,2.3318056236999998,-4.4243289874,8.5208412786,1027
139250,214402,267956,2.3318056236999998,-4.4243289874,8.5208412786,1028
138924,214319,267934,2.3318056236999998,-4.4243289874,8.5208412786,1029
138261,214254,267843,2.3318056236999998,-4.4243289874,8.5208412786,1030
137533,214125,267780,2.3318056236999998,-4.4243289874,8.5208412786,1031
136946,214083,267738,2.3318056236999998,-4.4243289874,8.5208412786,1032
136433,214061,267667,2.3318056236999998,-4.4243289874,8.5208412786,1033
135991,214004,267719,2.3318056236999998,-4.4243289874,8.5208412786,1034
135699,213987,267688,2.2277178406,-4.6085763276,8.4897345848,1035
135678,214001,267684,2.2277178406,-4.6085763276,8.4897345848,1036
135672,214015,267688,2.2277178406,-4.6085763276,8.4897345848,1037
135716,214002,267717,2.2277178406,-4.6085763276,8.4897345848,1038
135736,214058,267676,2.2277178406,-4.6085763276,8.4897345848,1039
135799,214008,267737,2.2277178406,-4.6085763276,8.4897345848,1040
135935,214035,267682,2.2277178406,-4.6085763276,8.4897345848,1041
136106,214049,267764,2.2277178406,-4.6085763276,8.4897345848,1042
136309,214093,267724,2.2277178406,-4.6085763276,8.4897345848,1043
136536,214118,267771,2.2277178406,-4.6085763276,8.4897345848,1044
136801,214127,267745,2.2277178406,-4.6085763276,8.4897345848,1045
137006,214182,267758,2.2277178406,-4.6085763276,8.4897345848,1046
137254,214193,267800,2.2277178406,-4.6085763276,8.4897345848,1047
137532,214199,267836,2.2277178406,-4.6085763276,8.4897345848,1048
137769,214240,267838,2.2277178406,-4.6085763276,8.4897345848,1049
138010,214272,267871,2.2277178406,-4.6085763276,8.4897345848,1050
138268,214339,267898,2.2277178406,-4.6085763276,8.4897345848,1051
138521,214355,267911,2.2277178406,-4.6085763276,8.4897345848,1052
138778,214375,267916,2.2277178406,-4.6085763276,8.4897345848,1053
139030,214408,267964,2.2277178406,-4.6085763276,8.4897345848,1054
139082,214355,267912,2.2277178406,-4.6085763276,8.4897345848,1055
138677,214270,267841,2.2277178406,-4.6085763276,8.4897345848,1056
138062,214193,267811,2.2277178406,-4.6085763276,8.4897345848,1057
137468,214123,267714,2.2277178406,-4.6085763276,8.4897345848,1058
136991,214087,267711,2.2277178406,-4.6085763276,8.4897345848,1059
136627,214028,267699,2.2277178406,-4.6085763276,8.4897345848,1060
136325,214000,267652,2.2277178406,-4.6085763276,8.4897345848,1061
136212,214018,267696,2.2277178406,-4.6085763276,8.4897345848,1062
136253,214027,267683,2.2277178406,-4.6085763276,8.4897345848,1063
136326,214021,267691,2.2277178406,-4.6085763276,8.4897345848,1064
136282,214019,267699,2.2277178406,-4.6085763276,8.4897345848,1065
136336,214016,267667,2.2277178406,-4.6085763276,8.4897345848,1066
136412,214000,267721,2.2277178406,-4.6085763276,8.4897345848,1067
136518,214062,267718,2.2277178406,-4.6085763276,8.4897345848,1068
136716,214061,267718,2.2277178406,-4.6085763276,8.4897345848,1069
136897,214103,267681,2.2277178406,-4.6085763276,8.4897345848,1070
137085,214102,267765,2.2277178406,-4.6085763276,8.4897345848,1071
137306,214145,267751,2.2277178406,-4.6085763276,8.4897345848,1072
137540,214153,267840,2.2277178406,-4.6085763276,8.4897345848,1073
137721,214199,267804,2.2277178406,-4.6085763276,8.4897345848,1074
137938,214219,267812,2.2277178406,-4.6085763276,8.4897345848,1075
138167,214230,267842,2.2277178406,-4.6085763276,8.4897345848,1076
136053,213884,267648,2.309073809,-4.4303110439,8.5579300289,1077
135745,213869,267613,2.309073809,-4.4303110439,8.5579300289,1078
135639,213879,267626,2.309073809,-4.4303110439,8.5579300289,1079
135679,213893,267610,2.309073809,-4.4303110439,8.5579300289,1080
135688,213926,267689,2.309073809,-4.4303110439,8.5579300289,1081
135691,213886,267683,2.309073809,-4.4303110439,8.5579300289,1082
135730,213893,267604,2.309073809,-4.4303110439,8.5579300289,1083
135837,213925,267634,2.309073809,-4.4303110439,8.5579300289,1084
135992,213882,267623,2.309073809,-4.4303110439,8.5579300289,1085
136207,213915,267705,2.309073809,-4.4303110439,8.5579300289,1086
136406,213915,267653,2.309073809,-4.4303110439,8.5579300289,1087
136631,213970,267721,2.309073809,-4.4303110439,8.5579300289,1088
136856,213968,267753,2.309073809,-4.4303110439,8.5579300289,1089
137106,214010,267755,2.1762721547,-4.4997028993,8.6129649487,1090
137330,214041,267764,2.1762721547,-4.4997028993,8.6129649487,1091
137574,214052,267747,2.1762721547,-4.4997028993,8.6129649487,1092
137817,214066,267751,2.1762721547,-4.4997028993,8.6129649487,1093
138061,214116,267832,2.1762721547,-4.4997028993,8.6129649487,1094
138282,214148,267819,2.1762721547,-4.4997028993,8.6129649487,1095
138752,214208,267810,2.2516460665999998,-4.4458643908,8.6165541826,1096
138909,214235,267845,2.1212372348999997,-4.3680976563,8.463413536200001,1097
138617,214170,267768,2.2959132847,-4.5595234643,8.4167534955,1098
138031,213984,267679,2.4490539311,-4.6325045536000005,8.475377649199999,1099
137335,213980,267658,2.2839491717,-4.3836510032,8.525626923799999,1100
136712,213865,267619,2.2313070745,-4.4339002778,8.4083786164,1101
136231,213829,267591,2.3018953412000003,-4.4315074552,8.6895352719,1102
135820,213774,267536,2.1858434451,-4.4171505196,8.6093757148,1103
135548,213726,267563,2.3330020350000003,-4.5248275366,8.49452023,1104
135477,213784,267521,2.2181465501999997,-4.4422751569,8.5974116018,1105
135551,213745,267568,2.2109680824,-4.4374895117,8.5459659159,1106
135573,213728,267565,2.2097716711,-4.5152562462,8.574679787100001,1107
135616,213732,267549,2.321037922,-4.4303110439,8.4562350684,1108
135711,213743,267561,2.3282163898,-4.438685923,8.5340018029,1109
135857,213768,267557,2.2289142519,-4.510470601,8.5136628108,1110
136016,213815,267602,2.2492532439999997,-4.474578262,8.7003029736,1111
136195,213840,267588,2.4418754632999997,-4.5355952383,8.525626923799999,1112
136427,213831,267633,2.2899312282,-4.4889351976,8.538787448099999,1113
136678,213759,267620,2.3545374384,-4.5978086259,8.518448456,1114
136950,213897,267619,2.2384855423,-4.5164526575,8.4897345848,1115
137216,213915,267704,2.2229321954,-4.5499521739,8.663214223299999,1116
137426,213967,267689,2.3174486881,-4.5738803999,8.5363946255,1117
137678,213894,267687,2.3389840915,-4.4913280202,8.5603228515,1118
137929,214012,267749,2.2193429615,-4.5559342304,8.5112699882,1119
138182,214046,267779,2.2887348169,-4.4841495524,8.5495551498,1120
138394,214049,267761,2.4131615921,-4.510470601,8.5507515611,1121
138629,214095,267808,2.1248264688,-4.6145583840999995,8.5316089803,1122
138902,214181,267775,2.3413769141,-4.5080777784,8.5112699882,1123
139108,214155,267834,2.3413769141,-4.5080777784,8.5112699882,1124
139059,214098,267704,2.3413769141,-4.5080777784,8.5112699882,1125
138547,214034,267724,2.3413769141,-4.5080777784,8.5112699882,1126
137860,213927,267653,2.3413769141,-4.5080777784,8.5112699882,1127
137290,213778,267560,2.2444675988,-4.4913280202,8.590233134,1128
136792,213799,267550,2.3676979627,-4.570291166,8.4681991814,1129
136420,213724,267554,2.2061824372,-4.5176490688,8.5040915204,1130
136151,213709,267505,2.2420747762,-4.5619162869,8.516055633399999,1131
136041,213741,267536,2.2348963083999998,-4.5080777784,8.517252044700001,1132
136086,213750,267502,2.1750757434,-4.4362931003999995,8.6153577713,1133
136105,213733,267486,2.4215364712,-4.492524431500001,8.4789668831,1134
136098,213759,267511,2.4059831243,-4.6073799163,8.5675013193,1135
136089,213629,267503,2.1511475174,-4.4829531411,8.4729848266,1136
136165,213716,267531,2.3030917525,-4.4997028993,8.5016986978,1137
136293,213747,267526,2.3665015514,-4.5152562462,8.4969130526,1138
136450,213750,267575,2.3665015514,-4.4590249151000005,8.4622171249,1139
136635,213779,267538,2.1882362677000002,-4.474578262,8.5268233351,1140
136817,213797,267593,2.3868405435,-4.3489550755,8.530412569000001,1141
137039,213817,267594,2.2660030021999997,-4.4721854394000005,8.4897345848,1142
137229,213868,267615,2.2277178406,-4.4685962055,8.5495551498,1143
137452,213869,267619,2.309073809,-4.4339002778,8.5112699882,1144
137640,213869,267656,2.2181465501999997,-4.4997028993,8.5363946255,1145
137856,213919,267642,2.2181465501999997,-4.4997028993,8.5363946255,1146
138045,213950,267599,2.2181465501999997,-4.4997028993,8.5363946255,1147
138262,213981,267683,2.2181465501999997,-4.4997028993,8.5363946255,1148
138488,214002,267685,2.2181465501999997,-4.4997028993,8.5363946255,1149
138687,214022,267688,2.2181465501999997,-4.4997028993,8.5363946255,1150
138702,214016,267701,2.2181465501999997,-4.4997028993,8.5363946255,1151
138239,213860,267575,2.2181465501999997,-4.4997028993,8.5363946255,1152
137488,213767,267556,2.2779671152,-4.4458643908,8.5591264402,1153
136799,213705,267450,2.2779671152,-4.4458643908,8.5591264402,1154
136202,213651,267439,2.2121644937,-4.4315074552,8.5280197464,1155
135687,213583,267389,2.2624137683,-4.5786660451,8.6488572877,1156
135339,213498,267399,2.3353948576,-4.4063828179,8.4729848266,1157
135114,213516,267342,2.3294128011,-4.618147618,8.373682688699999,1158
135114,213484,267404,2.2983061073,-4.4195433422,8.4442709554,1159
135149,213581,267403,2.2432711875,-4.5212383027000005,8.482556117,1160
135148,213514,267404,2.4059831243,-4.5966122146,8.5112699882,1161
135193,213495,267394,2.3509482045,-4.5176490688,8.4993058752,1162
135306,213523,267348,2.285145583,-4.4446679795,8.5040915204,1163
135411,213500,267406,2.3282163898,-4.5200418914,8.5208412786,1164
135581,213564,267415,2.2480568327,-4.4949172541,8.574679787100001,1165
135782,213578,267452,2.4921247379,-4.450650036,8.4251283746,1166
135970,213616,267455,2.3030917525,-4.6301117309999995,8.6392859973,1167
136233,213631,267452,2.165504453,-4.5308095931,8.5686977306,1168
136473,213695,267483,2.2336998971,-4.4602213264,8.484948939599999,1169
136687,213722,267563,2.3138594542,-4.4781674959,8.566304908,1170
136911,213708,267506,2.2683958248,-4.606183505,8.4622171249,1171
137169,213727,267507,2.3222343333,-4.3968115275,8.5280197464,1172
137391,213775,267545,2.2683958248,-4.3585263658999995,8.5639120854,1173
137621,213759,267587,2.3006989299,-4.5918265694,8.3904324469,1174
137855,213830,267619,2.3497517932000003,-4.510470601,8.475377649199999,1175
138112,213862,267614,2.2779671152,-4.4937208428,8.4897345848,1176
138350,213896,267683,2.2420747762,-4.4075792292,8.61416136,1177
138534,213881,267689,2.3282163898,-4.4255253987,8.626125473,1178
138379,213853,267583,2.3940190112999997,-4.5140598349,8.5136628108,1179
137767,213716,267512,2.2755742926,-4.6564327796,8.3246298254,1180
136982,213604,267429,2.3425733254,-4.5188454800999995,8.4801632944,1181
136274,213561,267414,2.237289131,-4.4518464473,8.6010008357,1182
135710,213479,267397,2.2648065909,-4.4590249151000005,8.6297147069,1183
135192,213402,267345,2.2265214293,-4.486542375,8.4155570842,1184
134785,213340,267345,2.344966148,-4.4542392699,8.5459659159,1185
134628,213307,267316,2.356930261,-4.4805603185,8.663214223299999,1186
134604,213359,267283,2.4275185276999998,-4.5415772948,8.5866439001,1187
134633,213328,267314,2.2408783649,-4.4279182213,8.556733617599999,1188
134631,213351,267276,2.3473589706,-4.5678983434,8.583054666199999,1189
134631,213335,267339,2.3473589706,-4.5678983434,8.583054666199999,1190
134716,213330,267331,2.3473589706,-4.5678983434,8.583054666199999,1191
134827,213369,267348,2.3473589706,-4.5678983434,8.583054666199999,1192
135005,213406,267378,2.3473589706,-4.5678983434,8.583054666199999,1193
135188,213387,267349,2.3473589706,-4.5678983434,8.583054666199999,1194
135416,213429,267393,2.3473589706,-4.5678983434,8.583054666199999,1195
135658,213428,267341,2.3473589706,-4.5678983434,8.583054666199999,1196
135885,213485,267420,2.3473589706,-4.5678983434,8.583054666199999,1197
136102,213478,267429,2.3473589706,-4.5678983434,8.583054666199999,1198
136351,213547,267451,2.3473589706,-4.5678983434,8.583054666199999,1199
136531,213573,267462,2.3473589706,-4.5678983434,8.583054666199999,1200
136795,213572,267499,2.3473589706,-4.5678983434,8.583054666199999,1201
137014,213625,267482,2.3473589706,-4.5678983434,8.583054666199999,1202
137266,213680,267500,2.3473589706,-4.5678983434,8.583054666199999,1203
137484,213678,267576,2.3473589706,-4.5678983434,8.583054666199999,1204
137741,213751,267576,2.3473589706,-4.5678983434,8.583054666199999,1205
137891,213734,267578,2.3473589706,-4.5678983434,8.583054666199999,1206
137641,213692,267593,2.3473589706,-4.5678983434,8.583054666199999,1207
136891,213518,267448,2.3473589706,-4.5678983434,8.583054666199999,1208
136131,213471,267419,2.3473589706,-4.5678983434,8.583054666199999,1209
135437,213355,267388,2.3473589706,-4.5678983434,8.583054666199999,1210
134880,213320,267350,2.3473589706,-4.5678983434,8.583054666199999,1211
134463,213203,267278,2.3473589706,-4.5678983434,8.583054666199999,1212
134168,213237,267269,2.3473589706,-4.5678983434,8.583054666199999,1213
134079,213227,267279,2.3473589706,-4.5678983434,8.583054666199999,1214
134135,213240,267330,2.3473589706,-4.5678983434,8.583054666199999,1215
134192,213203,267324,2.3473589706,-4.5678983434,8.583054666199999,1216
134211,213248,267290,2.3473589706,-4.5678983434,8.583054666199999,1217
134268,213194,267324,2.3473589706,-4.5678983434,8.583054666199999,1218
134379,213233,267333,2.3473589706,-4.5678983434,8.583054666199999,1219
134561,213302,267360,2.3473589706,-4.5678983434,8.583054666199999,1220
134746,213277,267332,2.3473589706,-4.5678983434,8.583054666199999,1221
134941,213282,267366,2.3473589706,-4.5678983434,8.583054666199999,1222
135195,213330,267401,2.3473589706,-4.5678983434,8.583054666199999,1223
135440,213338,267437,2.3473589706,-4.5678983434,8.583054666199999,1224
135665,213385,267486,2.3473589706,-4.5678983434,8.583054666199999,1225
135902,213408,267478,2.3473589706,-4.5678983434,8.583054666199999,1226
136139,213398,267504,2.3473589706,-4.5678983434,8.583054666199999,1227
136393,213490,267514,2.3473589706,-4.5678983434,8.583054666199999,1228
136627,213478,267538,2.3473589706,-4.5678983434,8.583054666199999,1229
136854,213526,267518,2.3473589706,-4.5678983434,8.583054666199999,1230
133911,212959,267288,2.2707886474,-4.4638105603,8.7038922075,1231
133883,212955,267311,2.2707886474,-4.4638105603,8.7038922075,1232
133944,212979,267312,2.2707886474,-4.4638105603,8.7038922075,1233
134013,212968,267249,2.2707886474,-4.4638105603,8.7038922075,1234
134026,212969,267312,2.2707886474,-4.4638105603,8.7038922075,1235
134118,212929,267263,2.2707886474,-4.4638105603,8.7038922075,1236
134237,212956,267285,2.2707886474,-4.4638105603,8.7038922075,1237
134407,212963,267342,2.2707886474,-4.4638105603,8.7038922075,1238
134630,212990,267303,2.2707886474,-4.4638105603,8.7038922075,1239
134845,213029,267366,2.2707886474,-4.4638105603,8.7038922075,1240
135084,213023,267359,2.2707886474,-4.4638105603,8.7038922075,1241
135328,213088,267418,2.2707886474,-4.4638105603,8.7038922075,1242
135556,213108,267419,2.2707886474,-4.4638105603,8.7038922075,1243
135806,213104,267403,2.2707886474,-4.4638105603,8.7038922075,1244
136038,213141,267417,2.2707886474,-4.4638105603,8.7038922075,1245
136285,213182,267426,2.2707886474,-4.4638105603,8.7038922075,1246
136514,213220,267435,2.2707886474,-4.4638105603,8.7038922075,1247
136776,213258,267488,2.2707886474,-4.4638105603,8.7038922075,1248
137024,213282,267553,2.2707886474,-4.4638105603,8.7038922075,1249
137267,213281,267500,2.2707886474,-4.4638105603,8.7038922075,1250
137395,213221,267480,2.2899312282,-4.4339002778,8.6440716425,1251
137070,213178,267479,2.2899312282,-4.4339002778,8.6440716425,1252
136308,212986,267375,2.2899312282,-4.4339002778,8.6440716425,1253
135456,212865,267284,2.2899312282,-4.4339002778,8.6440716425,1254
134775,212830,267208,2.2899312282,-4.4339002778,8.6440716425,1255
134204,212730,267214,2.2899312282,-4.4339002778,8.6440716425,1256
133735,212711,267237,2.2899312282,-4.4339002778,8.6440716425,1257
133447,212688,267152,2.2899312282,-4.4339002778,8.6440716425,1258
133368,212709,267202,2.2899312282,-4.4339002778,8.6440716425,1259
133443,212728,267191,2.2899312282,-4.4339002778,8.6440716425,1260
133479,212750,267220,2.2899312282,-4.4339002778,8.6440716425,1261
133532,212748,267219,2.2899312282,-4.4339002778,8.6440716425,1262
133628,212772,267238,2.2899312282,-4.4339002778,8.6440716425,1263
133733,212790,267222,2.2899312282,-4.4339002778,8.6440716425,1264
133895,212791,267296,2.2899312282,-4.4339002778,8.6440716425,1265
134119,212797,267286,2.2899312282,-4.4339002778,8.6440716425,1266
134341,212883,267348,2.2899312282,-4.4339002778,8.6440716425,1267
134575,212946,267315,2.2899312282,-4.4339002778,8.6440716425,1268
134831,212925,267393,2.2899312282,-4.4339002778,8.6440716425,1269
135056,212972,267418,2.2899312282,-4.4339002778,8.6440716425,1270
135334,212980,267416,2.2899312282,-4.4339002778,8.6440716425,1271
135589,213079,267437,2.2899312282,-4.4339002778,8.6440716425,1272
135844,213100,267500,2.2899312282,-4.4339002778,8.6440716425,1273
136042,213123,267457,2.2899312282,-4.4339002778,8.6440716425,1274
136321,213156,267560,2.2899312282,-4.4339002778,8.6440716425,1275
136555,213186,267549,2.2899312282,-4.4339002778,8.6440716425,1276
136814,213228,267546,2.2899312282,-4.4339002778,8.6440716425,1277
136969,213215,267597,2.2899312282,-4.4339002778,8.6440716425,1278
136717,213151,267540,2.2899312282,-4.4339002778,8.6440716425,1279
135940,213031,267517,2.2899312282,-4.4339002778,8.6440716425,1280
135141,212955,267382,2.2899312282,-4.4339002778,8.6440716425,1281
134529,212879,267343,2.2899312282,-4.4339002778,8.6440716425,1282
134050,212868,267330,2.3676979627,-4.534398827,8.5579300289,1283
133648,212746,267308,2.3676979627,-4.534398827,8.5579300289,1284
133477,212734,267308,2.3676979627,-4.534398827,8.5579300289,1285
133500,212797,267298,2.3676979627,-4.534398827,8.5579300289,1286
133579,212782,267348,2.3676979627,-4.534398827,8.5579300289,1287
133605,212812,267323,2.3676979627,-4.534398827,8.5579300289,1288
133642,212757,267358,2.3282163898,-4.3166519704,8.7110706753,1289
133720,212783,267371,2.3282163898,-4.3166519704,8.7110706753,1290
133844,212817,267333,2.3282163898,-4.3166519704,8.7110706753,1291
133995,212837,267366,2.3282163898,-4.3166519704,8.7110706753,1292
134211,212841,267408,2.3282163898,-4.3166519704,8.7110706753,1293
134443,212902,267393,2.3282163898,-4.3166519704,8.7110706753,1294
134670,212913,267445,2.3282163898,-4.3166519704,8.7110706753,1295
134886,212914,267464,2.3282163898,-4.3166519704,8.7110706753,1296
135139,212992,267475,2.3282163898,-4.3166519704,8.7110706753,1297
135339,212996,267453,2.3282163898,-4.3166519704,8.7110706753,1298
135569,213033,267486,2.3282163898,-4.3166519704,8.7110706753,1299
135752,213013,267511,2.3282163898,-4.3166519704,8.7110706753,1300
135990,213056,267512,2.3282163898,-4.3166519704,8.7110706753,1301
136222,213132,267567,2.3282163898,-4.3166519704,8.7110706753,1302
136382,213144,267532,2.3282163898,-4.3166519704,8.7110706753,1303
136098,213067,267550,2.3282163898,-4.3166519704,8.7110706753,1304
135319,212919,267470,2.3282163898,-4.3166519704,8.7110706753,1305
134440,212789,267421,2.3282163898,-4.3166519704,8.7110706753,1306
133795,212734,267310,2.3282163898,-4.3166519704,8.7110706753,1307
133243,212677,267309,2.3282163898,-4.3166519704,8.7110706753,1308
132820,212622,267268,2.3282163898,-4.3166519704,8.7110706753,1309
132596,212575,267273,2.3282163898,-4.3166519704,8.7110706753,1310
132574,212609,267258,2.3282163898,-4.3166519704,8.7110706753,1311
132695,212627,267305,2.3282163898,-4.3166519704,8.7110706753,1312
132736,212592,267340,2.3282163898,-4.3166519704,8.7110706753,1313
132758,212609,267302,2.3282163898,-4.3166519704,8.7110706753,1314
132860,212604,267267,2.3282163898,-4.3166519704,8.7110706753,1315
132992,212657,267333,2.3282163898,-4.3166519704,8.7110706753,1316
133156,212618,267377,2.3282163898,-4.3166519704,8.7110706753,1317
133349,212694,267395,2.3282163898,-4.3166519704,8.7110706753,1318
133610,212692,267384,2.3282163898,-4.3166519704,8.7110706753,1319
133818,212744,267412,2.3282163898,-4.3166519704,8.7110706753,1320
134053,212769,267390,2.3282163898,-4.3166519704,8.7110706753,1321
134277,212770,267433,2.3282163898,-4.3166519704,8.7110706753,1322
134483,212844,267455,2.3282163898,-4.3166519704,8.7110706753,1323
134705,212825,267452,2.3282163898,-4.3166519704,8.7110706753,1324
134925,212870,267472,2.3282163898,-4.3166519704,8.7110706753,1325
135137,212916,267557,2.3282163898,-4.3166519704,8.7110706753,1326
135383,212941,267524,2.3282163898,-4.3166519704,8.7110706753,1327
135496,212959,267554,2.3282163898,-4.3166519704,8.7110706753,1328
135143,212857,267442,2.3282163898,-4.3166519704,8.7110706753,1329
134304,212722,267387,2.3282163898,-4.3166519704,8.7110706753,1330
131630,212106,267163,2.3736800192,-4.0247276132000005,9.0364945489,1331
131650,212136,267101,2.3736800192,-4.0247276132000005,9.0364945489,1332
131851,212174,267137,2.3736800192,-4.0247276132000005,9.0364945489,1333
132001,212159,267163,2.3736800192,-4.0247276132000005,9.0364945489,1334
132097,212142,267150,2.3736800192,-4.0247276132000005,9.0364945489,1335
132217,212191,267179,2.3736800192,-4.0247276132000005,9.0364945489,1336
132393,212219,267170,2.3736800192,-4.0247276132000005,9.0364945489,1337
132634,212290,267244,2.3736800192,-4.0247276132000005,9.0364945489,1338
132902,212299,267268,2.3736800192,-4.0247276132000005,9.0364945489,1339
133180,212368,267310,2.3736800192,-4.0247276132000005,9.0364945489,1340
133487,212447,267340,2.3736800192,-4.0247276132000005,9.0364945489,1341
133762,212486,267409,2.3736800192,-4.0247276132000005,9.0364945489,1342
134039,212516,267371,2.3736800192,-4.0247276132000005,9.0364945489,1343
134308,212552,267352,2.3736800192,-4.0247276132000005,9.0364945489,1344
134583,212576,267390,2.3736800192,-4.0247276132000005,9.0364945489,1345
134859,212619,267412,2.3736800192,-4.0247276132000005,9.0364945489,1346
135072,212644,267385,2.3736800192,-4.0247276132000005,9.0364945489,1347
134837,212607,267404,2.3736800192,-4.0247276132000005,9.0364945489,1348
134079,212449,267329,2.3736800192,-4.0247276132000005,9.0364945489,1349
133306,212353,267239,2.3736800192,-4.0247276132000005,9.0364945489,1350
132645,212275,267189,2.3736800192,-4.0247276132000005,9.0364945489,1351
132170,212226,267169,2.3736800192,-4.0247276132000005,9.0364945489,1352
131806,212151,267124,2.3736800192,-4.0247276132000005,9.0364945489,1353
131637,212132,267111,2.3736800192,-4.0247276132000005,9.0364945489,1354
131776,212187,267166,2.3736800192,-4.0247276132000005,9.0364945489,1355
132045,212214,267182,2.3736800192,-4.0247276132000005,9.0364945489,1356
132293,212295,267256,2.3736800192,-4.0247276132000005,9.0364945489,1357
132579,212382,267317,2.3736800192,-4.0247276132000005,9.0364945489,1358
132790,212375,267372,2.3736800192,-4.0247276132000005,9.0364945489,1359
133032,212372,267326,2.3736800192,-4.0247276132000005,9.0364945489,1360
133276,212433,267374,2.3736800192,-4.0247276132000005,9.0364945489,1361
133611,212506,267410,2.3736800192,-4.0247276132000005,9.0364945489,1362
133950,212601,267462,2.0614166699,-4.5080777784,8.5459659159,1363
134333,212600,267464,2.0614166699,-4.5080777784,8.5459659159,1364
134700,212662,267502,2.0614166699,-4.5080777784,8.5459659159,1365
135109,212737,267465,2.0614166699,-4.5080777784,8.5459659159,1366
135493,212807,267568,2.0614166699,-4.5080777784,8.5459659159,1367
135900,212859,267633,2.0614166699,-4.5080777784,8.5459659159,1368
136314,212913,267626,2.0614166699,-4.5080777784,8.5459659159,1369
136428,212916,267658,2.0614166699,-4.5080777784,8.5459659159,1370
136039,212858,267592,2.0614166699,-4.5080777784,8.5459659159,1371
135451,212780,267531,2.0614166699,-4.5080777784,8.5459659159,1372
134997,212750,267526,2.0614166699,-4.5080777784,8.5459659159,1373
134646,212704,267499,2.0614166699,-4.5080777784,8.5459659159,1374
134456,212661,267550,2.0614166699,-4.5080777784,8.5459659159,1375
134404,212707,267528,2.0614166699,-4.5080777784,8.5459659159,1376
134513,212687,267562,2.0614166699,-4.5080777784,8.5459659159,1377
134850,212776,267565,2.0614166699,-4.5080777784,8.5459659159,1378
135264,212864,267622,2.0614166699,-4.5080777784,8.5459659159,1379
135619,212902,267693,2.0614166699,-4.5080777784,8.5459659159,1380
135985,212938,267715,2.0614166699,-4.5080777784,8.5459659159,1381
136376,212992,267715,2.0614166699,-4.5080777784,8.5459659159,1382
136771,213056,267769,2.0614166699,-4.5080777784,8.5459659159,1383
137214,213114,267760,2.0614166699,-4.5080777784,8.5459659159,1384
137699,213172,267833,2.0614166699,-4.5080777784,8.5459659159,1385
138148,213241,267920,2.0614166699,-4.5080777784,8.5459659159,1386
138631,213309,267908,2.0614166699,-4.5080777784,8.5459659159,1387
139070,213396,267959,2.0614166699,-4.5080777784,8.5459659159,1388
139544,213479,267996,2.0614166699,-4.5080777784,8.5459659159,1389
140010,213529,268036,2.0614166699,-4.5080777784,8.5459659159,1390
140467,213584,268038,2.0614166699,-4.5080777784,8.5459659159,1391
140723,213610,268106,2.0614166699,-4.5080777784,8.5459659159,1392
140629,213514,268021,2.0614166699,-4.5080777784,8.5459659159,1393
140437,213496,267956,2.0614166699,-4.5080777784,8.5459659159,1394
140357,213480,267944,2.0614166699,-4.5080777784,8.5459659159,1395
140325,213476,267999,2.0614166699,-4.5080777784,8.5459659159,1396
140381,213485,267995,2.0614166699,-4.5080777784,8.5459659159,1397
140519,213533,268059,2.0614166699,-4.5080777784,8.5459659159,1398
140758,213557,268047,2.0614166699,-4.5080777784,8.5459659159,1399
141119,213617,268108,2.0614166699,-4.5080777784,8.5459659159,1400
141483,213650,268157,2.0614166699,-4.5080777784,8.5459659159,1401
141829,213735,268152,2.0614166699,-4.5080777784,8.5459659159,1402
142143,213741,268156,2.0614166699,-4.5080777784,8.5459659159,1403
142487,213795,268237,2.0614166699,-4.5080777784,8.5459659159,1404
144015,213997,268341,2.2660030021999997,-4.4769710846,8.4239319633,1405
144393,214069,268350,2.2660030021999997,-4.4769710846,8.4239319633,1406
144748,214114,268406,2.2660030021999997,-4.4769710846,8.4239319633,1407
145146,214132,268337,2.2660030021999997,-4.4769710846,8.4239319633,1408
145498,214198,268375,2.2660030021999997,-4.4769710846,8.4239319633,1409
145799,214222,268427,2.2660030021999997,-4.4769710846,8.4239319633,1410
145851,214103,268424,2.2660030021999997,-4.4769710846,8.4239319633,1411
145797,214101,268331,2.2660030021999997,-4.4769710846,8.4239319633,1412
145757,214065,268359,2.2660030021999997,-4.4769710846,8.4239319633,1413
145789,214121,268359,2.2660030021999997,-4.4769710846,8.4239319633,1414
145893,214169,268367,2.2660030021999997,-4.4769710846,8.4239319633,1415
146011,214143,268346,2.2660030021999997,-4.4769710846,8.4239319633,1416
146195,214184,268399,2.2660030021999997,-4.4769710846,8.4239319633,1417
146492,214242,268466,2.2660030021999997,-4.4769710846,8.4239319633,1418
146777,214313,268421,2.2660030021999997,-4.4769710846,8.4239319633,1419
146993,214307,268462,2.2660030021999997,-4.4769710846,8.4239319633,1420
147229,214359,268473,2.2660030021999997,-4.4769710846,8.4239319633,1421
147495,214394,268496,2.2660030021999997,-4.4769710846,8.4239319633,1422
147738,214438,268496,2.2660030021999997,-4.4769710846,8.4239319633,1423
148004,214483,268544,2.2660030021999997,-4.4769710846,8.4239319633,1424
148253,214539,268534,2.2660030021999997,-4.4769710846,8.4239319633,1425
148535,214588,268550,2.2660030021999997,-4.4769710846,8.4239319633,1426
148801,214595,268593,2.2660030021999997,-4.4769710846,8.4239319633,1427
149060,214658,268589,2.2660030021999997,-4.4769710846,8.4239319633,1428
149341,214695,268611,2.2660030021999997,-4.4769710846,8.4239319633,1429
149537,214687,268655,2.2660030021999997,-4.4769710846,8.4239319633,1430
149519,214661,268591,2.2660030021999997,-4.4769710846,8.4239319633,1431
149433,214583,268536,2.2660030021999997,-4.4769710846,8.4239319633,1432
149428,214609,268610,2.2660030021999997,-4.4769710846,8.4239319633,1433
149450,214585,268600,2.2660030021999997,-4.4769710846,8.4239319633,1434
149507,214633,268553,2.2660030021999997,-4.4769710846,8.4239319633,1435
149562,214645,268599,2.2660030021999997,-4.4769710846,8.4239319633,1436
149711,214649,268602,2.2660030021999997,-4.4769710846,8.4239319633,1437
149932,214763,268620,2.2660030021999997,-4.4769710846,8.4239319633,1438
150107,214754,268632,2.2660030021999997,-4.4769710846,8.4239319633,1439
150298,214761,268643,2.2660030021999997,-4.4769710846,8.4239319633,1440
150472,214830,268699,2.2660030021999997,-4.4769710846,8.4239319633,1441
150666,214870,268645,2.2660030021999997,-4.4769710846,8.4239319633,1442
150871,214864,268682,2.2660030021999997,-4.4769710846,8.4239319633,1443
151054,214921,268717,2.2660030021999997,-4.4769710846,8.4239319633,1444
151254,214967,268735,2.2660030021999997,-4.4769710846,8.4239319633,1445
151481,214987,268754,2.2660030021999997,-4.4769710846,8.4239319633,1446
155470,215748,268955,2.213360905,-4.3298124947,8.4969130526,1447
155570,215810,268908,2.213360905,-4.3298124947,8.4969130526,1448
155669,215818,268931,2.213360905,-4.3298124947,8.4969130526,1449
155606,215779,268928,2.213360905,-4.3298124947,8.4969130526,1450
155477,215719,268933,2.213360905,-4.3298124947,8.4969130526,1451
155319,215700,268895,2.213360905,-4.3298124947,8.4969130526,1452
155240,215710,268814,2.213360905,-4.3298124947,8.4969130526,1453
155138,215681,268896,2.213360905,-4.3298124947,8.4969130526,1454
155046,215706,268859,2.213360905,-4.3298124947,8.4969130526,1455
154959,215717,268869,2.213360905,-4.3298124947,8.4969130526,1456
154939,215729,268860,2.213360905,-4.3298124947,8.4969130526,1457
154959,215780,268872,2.213360905,-4.3298124947,8.4969130526,1458
154906,215734,268859,2.213360905,-4.3298124947,8.4969130526,1459
154893,215768,268862,2.213360905,-4.3298124947,8.4969130526,1460
154897,215814,268876,2.213360905,-4.3298124947,8.4969130526,1461
154892,215795,268868,2.213360905,-4.3298124947,8.4969130526,1462
154883,215775,268875,2.213360905,-4.3298124947,8.4969130526,1463
154927,215841,268861,2.213360905,-4.3298124947,8.4969130526,1464
154959,215856,268853,2.213360905,-4.3298124947,8.4969130526,1465
154977,215841,268860,2.213360905,-4.3298124947,8.4969130526,1466
155018,215833,268817,2.213360905,-4.3298124947,8.4969130526,1467
155056,215864,268860,2.213360905,-4.3298124947,8.4969130526,1468
155113,215918,268867,2.213360905,-4.3298124947,8.4969130526,1469
155149,215888,268842,2.213360905,-4.3298124947,8.4969130526,1470
155176,215887,268835,2.213360905,-4.3298124947,8.4969130526,1471
155243,215934,268866,2.213360905,-4.3298124947,8.4969130526,1472
155322,215974,268869,2.213360905,-4.3298124947,8.4969130526,1473
155283,215924,268870,2.213360905,-4.3298124947,8.4969130526,1474
155088,215896,268809,2.213360905,-4.3298124947,8.4969130526,1475
154822,215821,268773,2.213360905,-4.3298124947,8.4969130526,1476
154521,215850,268708,2.213360905,-4.3298124947,8.4969130526,1477
154214,215831,268705,2.213360905,-4.3298124947,8.4969130526,1478
153921,215821,268769,2.213360905,-4.3298124947,8.4969130526,1479
153667,215806,268725,2.213360905,-4.3298124947,8.4969130526,1480
153472,215829,268769,2.213360905,-4.3298124947,8.4969130526,1481
153330,215859,268748,2.213360905,-4.3298124947,8.4969130526,1482
153164,215827,268690,2.213360905,-4.3298124947,8.4969130526,1483
153004,215831,268667,2.213360905,-4.3298124947,8.4969130526,1484
152867,215830,268686,2.213360905,-4.3298124947,8.4969130526,1485
152726,215817,268733,2.213360905,-4.3298124947,8.4969130526,1486
152640,215842,268679,2.213360905,-4.3298124947,8.4969130526,1487
152543,215850,268661,2.213360905,-4.3298124947,8.4969130526,1488
147156,215574,268233,2.6333012713,-4.3034914461,8.2995051881,1489
146980,215613,268267,2.6333012713,-4.3034914461,8.2995051881,1490
146831,215604,268205,2.6333012713,-4.3034914461,8.2995051881,1491
146744,215565,268223,2.6333012713,-4.3034914461,8.2995051881,1492
146671,215581,268205,2.6333012713,-4.3034914461,8.2995051881,1493
146591,215591,268193,2.6333012713,-4.3034914461,8.2995051881,1494
146549,215586,268151,2.6333012713,-4.3034914461,8.2995051881,1495
146516,215604,268197,2.6333012713,-4.3034914461,8.2995051881,1496
146482,215603,268177,2.6333012713,-4.3034914461,8.2995051881,1497
146466,215603,268204,2.6333012713,-4.3034914461,8.2995051881,1498
146458,215618,268181,2.6333012713,-4.3034914461,8.2995051881,1499
146443,215643,268170,2.6333012713,-4.3034914461,8.2995051881,1500
146185,215566,268133,2.6333012713,-4.3034914461,8.2995051881,1501
145517,215443,268043,2.6333012713,-4.3034914461,8.2995051881,1502
144715,215411,267982,2.6333012713,-4.3034914461,8.2995051881,1503
143994,215424,267965,2.6333012713,-4.3034914461,8.2995051881,1504
143297,215298,267902,2.6333012713,-4.3034914461,8.2995051881,1505
142686,215305,267841,2.6333012713,-4.3034914461,8.2995051881,1506
142194,215302,267928,2.6333012713,-4.3034914461,8.2995051881,1507
141895,215263,267850,2.6333012713,-4.3034914461,8.2995051881,1508
141648,215249,267873,2.6333012713,-4.3034914461,8.2995051881,1509
141412,215220,267820,2.6333012713,-4.3034914461,8.2995051881,1510
141120,215250,267829,2.6333012713,-4.3034914461,8.2995051881,1511
140891,215151,267825,2.6333012713,-4.3034914461,8.2995051881,1512
140725,215190,267817,2.6333012713,-4.3034914461,8.2995051881,1513
140615,215215,267854,2.6333012713,-4.3034914461,8.2995051881,1514
140536,215217,267767,2.6333012713,-4.3034914461,8.2995051881,1515
140501,215170,267762,2.6333012713,-4.3034914461,8.2995051881,1516
140496,215219,267792,2.6333012713,-4.3034914461,8.2995051881,1517
140529,215171,267784,2.6333012713,-4.3034914461,8.2995051881,1518
140538,215234,267780,2.6333012713,-4.3034914461,8.2995051881,1519
140562,215245,267806,2.6333012713,-4.3034914461,8.2995051881,1520
140609,215222,267775,2.6333012713,-4.3034914461,8.2995051881,1521
140666,215265,267829,2.6333012713,-4.3034914461,8.2995051881,1522
140755,215276,267784,2.6333012713,-4.3034914461,8.2995051881,1523
140624,215232,267779,2.6333012713,-4.3034914461,8.2995051881,1524
140047,215186,267688,2.6333012713,-4.3034914461,8.2995051881,1525
139072,215048,267640,2.6333012713,-4.3034914461,8.2995051881,1526
138283,215002,267595,2.6333012713,-4.3034914461,8.2995051881,1527
137517,214932,267566,2.6333012713,-4.3034914461,8.2995051881,1528
136875,214871,267529,2.6333012713,-4.3034914461,8.2995051881,1529
